frame_id,timestamp,gait_type,root_linear_velocity_x,root_linear_velocity_y,root_linear_velocity_z,root_angular_velocity_x,root_angular_velocity_y,root_angular_velocity_z,left_linear_velocity_x,left_linear_velocity_y,left_linear_velocity_z,right_linear_velocity_x,right_linear_velocity_y,right_linear_velocity_z,root_acceleration_x,root_acceleration_y,root_acceleration_z,left_acceleration_x,left_acceleration_y,left_acceleration_z,right_acceleration_x,right_acceleration_y,right_acceleration_z,left_pos_rel_x,left_pos_rel_y,left_pos_rel_z,right_pos_rel_x,right_pos_rel_y,right_pos_rel_z,step_length,step_width,step_height,left_contact_prob,right_contact_prob,support_type,max_foot_height
1,0.008333,stand,-0.03156126245051293,0.20172806912276348,-0.011160446417857883,-0.11965069742312663,-0.016075128462670393,-0.02769935064444588,0.008760350414015329,-0.005640225609020009,0.010920436817472795,0.003720148805965951,0.006480259210368234,0.0019200768030723776,0.0,0.0,0.0,0.0,0.0,0.0,0.0,0.0,0.0,0.08319300000000007,0.05561100000000002,-0.903848,-0.0731679999999999,-0.15546699999999997,-0.906543,0.15636099999999997,0.211078,0.002695000000000003,0.9478942725440662,0.9871418031437585,double,-0.903848
2,0.016667,jog,-0.026157907367390137,0.1655867530597543,0.008399328053757437,-0.23166184144990867,0.0035253702248474214,-0.02269236883168059,0.0022798176145897822,-0.0062395008399323834,0.004559635229182062,0.0027597792176486946,0.007799376049913815,0.0009599232061436358,0.6483507419153821,-4.336610998681207,2.3469851777796156,-0.7776017277928421,-0.07190727512747469,-0.7632351317843451,-0.11523513178752776,0.15828135823681075,-0.11520921489425746,0.0834299999999999,0.05417900000000003,-0.90388,-0.07292700000000019,-0.15678199999999998,-0.906605,0.15635700000000008,0.210961,0.0027249999999999774,0.9593212567281029,0.9861187475889414,double,-0.90388
3,0.025,jog,-0.03396135845434216,0.20280811232449594,-0.018120724828994628,-0.17191233835375813,0.04595450741089456,-0.04256135730498474,0.004440177607112055,-0.0030001200047998617,-0.0004800192007685108,0.011040441617689072,0.01032041281651632,-0.0028801152046085666,-0.9364515884977824,4.466741781440256,-3.1825336472761387,0.25925356924544257,0.38874124986589725,-0.6047827229029848,0.9937192367743162,0.3025365134528389,-0.46082304221195275,0.08374999999999999,0.05246400000000001,-0.903733,-0.07255199999999995,-0.15838599999999997,-0.906478,0.15630199999999994,0.21084999999999998,0.0027449999999999974,0.9635830366128701,0.9743583815183676,double,-0.903733
4,0.033333,jog,-0.04212168486739352,0.2000480019200737,-0.030361214448571667,0.11426721557887703,0.04854400875533367,-0.12343061677067546,0.008760350414015329,-0.002280091203653757,0.0030001200048006943,0.009600384015343568,0.011400456018235477,0.0012000480019204443,-0.9792783406997911,-0.3312264975905743,-1.4689175110496866,0.5184414744873723,0.08640691241402909,0.4176334100047048,-0.17281382483445376,0.12961036862104358,0.48963917035029525,0.08417399999999997,0.05077799999999999,-0.903455,-0.0721210000000001,-0.159958,-0.906215,0.15629500000000007,0.21073599999999998,0.0027599999999999847,0.9565059693843078,0.9750791315765337,double,-0.903455
5,0.041667,jog,-0.04355651547877528,0.20194384449243938,-0.004799616030722342,-0.09240619676560746,-0.027074146492833868,-0.030097332252031615,0.011279097672190843,-0.0002399808015294563,-0.00035997120230417564,0.00755939524839768,0.014038876889852859,0.0032397408207342506,-0.172165900093804,0.22748291005107885,3.0671464384268448,0.3022254929416263,0.2447936647617351,-0.4031786905573398,-0.24489906010869789,0.31658517777986334,0.2447435587729549,0.08463100000000012,0.04909300000000005,-0.9034179999999999,-0.07169499999999984,-0.16152399999999995,-0.906148,0.15632599999999996,0.210617,0.00273000000000001,0.9538876802813798,0.9728824348932144,double,-0.9034179999999999
6,0.05,jog,-0.04788191527661565,0.19800792031681752,-0.008040321612855901,-0.0727876289892261,0.011178490420102041,0.03249501979476032,0.009840393615734485,0.0,0.0007200288011519335,0.007440297611878609,0.014280571222846542,0.001920076803071545,-0.5190687384903842,-0.4723297942663936,-0.3889002258650617,-0.17265139283047615,0.028798848137460253,0.12960518462211798,-0.014292288073811504,0.02900448013844757,-0.15836601676019507,0.08511200000000008,0.04744300000000001,-0.9033450000000001,-0.07123400000000002,-0.163055,-0.906065,0.1563460000000001,0.21049800000000002,0.0027199999999999447,0.9563554983870768,0.972972265379706,double,-0.9033450000000001
7,0.058333,jog,0.0031201248050019815,0.2144485779431157,-0.026041041641668393,-0.07158694453472937,-0.020172802737965716,-0.3268273614775641,0.007560302412087391,-0.008040321612869225,-0.0004800192007676781,0.00888035521422411,0.015600624024956615,0.002760110404416439,6.120489629379291,1.97295783346912,-2.1601728103699136,-0.2736218893132239,-0.9648771886318523,-0.14401152069118103,0.17281382483445354,0.1584126727601192,0.10080806448396662,0.08514899999999992,0.04558899999999999,-0.903132,-0.07118599999999997,-0.16471200000000003,-0.905825,0.1563349999999999,0.21030100000000002,0.0026929999999999454,0.9546583971793077,0.9697299933862183,double,-0.903132
8,0.066667,jog,-0.0655147588192867,0.1996640268778496,-0.0067194624430112785,0.38967607450571057,0.04596854839940649,0.0738677791596578,0.006839452843795989,-0.00491960643148707,0.0029997600191981333,0.007799376049913815,0.01655867530598542,0.0037197024238064848,-8.235527192739221,-1.7740042074953328,2.318404031516332,-0.08649502859268078,0.3744558652966349,0.4175401031876423,-0.12970712314738367,0.11495695716688313,0.11514183098032707,0.08575200000000005,0.04388399999999998,-0.9030509999999999,-0.07057500000000005,-0.16623799999999994,-0.9057379999999999,0.1563270000000001,0.21012199999999992,0.002686999999999995,0.9582248179391624,0.9688705132292953,double,-0.9030509999999999
9,0.075,jog,-0.04872194887797058,0.2036481459258377,0.01140045601824881,-0.3320951615818605,-0.13163221241049572,-0.04905861292056767,0.009000360014379608,-0.005280211208446961,0.006120244809792689,0.01068042721708938,0.017520700828030672,0.006960278411135918,2.015217801670003,0.47811341029498344,2.17447719443899,0.259319233239364,-0.04327430420735525,0.3744731537974989,0.3457399696598546,0.1154476805526525,0.388884673866487,0.086233,0.042142999999999986,-0.903095,-0.07007999999999992,-0.16778899999999997,-0.905775,0.15631299999999992,0.20993199999999995,0.0026800000000000157,0.9530378443525964,0.9638870614673978,double,-0.903095
10,0.083333,jog,-0.00936037441497929,0.23412936517460445,-0.06768270730829334,-0.1506865356868148,0.10883467949507145,-0.3098191969167982,0.011760470418835167,-0.002040081603262838,0.005520220808832041,0.01152046081844425,0.02160086403455632,0.00900036001440041,4.723577878674098,3.6578926255570305,-9.490359213553592,0.33122649759457057,0.3888311058663291,-0.07200576034569157,0.10080806448516362,0.4896391703498914,0.24481958517514585,0.08640900000000018,0.040175000000000016,-0.902485,-0.0699059999999998,-0.16956,-0.905136,0.15631499999999998,0.209735,0.00265100000000007,0.9515720066815634,0.956528271482826,double,-0.902485
11,0.091667,jog,-0.053995680345553125,0.21742260619150913,-0.029757619390451902,-0.20379411607217543,0.08247339209359499,0.04295182996206573,0.01739860811133187,-0.0008399328053730801,0.002039836813055332,0.015598752099827641,0.020398368130549988,0.028797696184305766,-5.355808247009103,-2.004650705914966,4.550646498421102,0.6765224013075003,0.14400633523995188,-0.41761267047956696,0.48935580530158324,-0.14428796544352457,2.375490301164551,0.08700399999999986,0.038356,-0.90222,-0.069326,-0.17120200000000002,-0.904648,0.15632999999999986,0.20955800000000002,0.0024279999999999857,0.9464901643315744,0.9356934037644467,double,-0.90222
12,0.1,jog,-0.08844353774150811,0.22032881315252642,0.003240129605184114,-0.18327286630509718,-0.07720708616116238,0.28944947066456,0.023280931237252767,-0.0020400816032695,-0.001680067202688121,0.01176047041880852,0.031321252850108665,0.022680907236289634,-4.133908243844348,0.3487587856735012,3.959888275007319,0.7059070113909627,-0.14402361669223795,-0.44640633814273967,-0.4606122262113427,1.3107985982909718,-0.7340440355233562,0.08793499999999987,0.03650299999999995,-0.902261,-0.06849100000000008,-0.17277700000000007,-0.904486,0.15642599999999995,0.20928000000000002,0.0022250000000000325,0.9386992382338051,0.9326338137565934,double,-0.902261
13,0.108333,jog,-0.07104284171368636,0.1976479059162313,-0.025321012840508986,-0.0190071403492351,0.12932574415942008,0.18489687990604906,0.01608064322573846,-0.0024000960038358943,-0.001440057602303868,0.00468018720747633,0.03204128165126814,0.018720748829952782,2.088167050020613,-2.7218177410650597,-3.4274741924508727,-0.8640691241466832,-0.04320345620621561,0.02880230413827591,-0.8496679720787466,0.08640691241563389,-0.4752380182811538,0.0886610000000001,0.034836000000000034,-0.902062,-0.06786000000000003,-0.174157,-0.904119,0.15652100000000013,0.20899300000000004,0.0020569999999999755,0.9522259708213475,0.9376610002819018,double,-0.902062
14,0.116667,jog,-0.08207343412525873,0.22474202063835033,-0.03323734101272888,0.11601970742651475,0.10423296495114447,0.1558574473079953,0.0105591552675625,-0.005279577633787911,0.0025197984161267296,-0.0013198944084453126,0.044756419486449164,0.030957523398128274,-1.3235652041723505,3.251033683959564,-0.9498833899951864,-0.6625255529368796,-0.3455101547818591,0.47514471063482044,-0.7199521977347776,1.5256944846629483,1.4682954845422942,0.08943299999999987,0.03291900000000003,-0.901764,-0.06718700000000011,-0.17565699999999995,-0.9035839999999999,0.15661999999999998,0.20857599999999998,0.0018199999999999328,0.9616809733493115,0.9092738023035777,double,-0.901764
15,0.125,jog,-0.05772230889235019,0.21552862114484836,-0.05376215048601996,-0.025969837473541642,0.18439565573704708,0.27255519239518206,0.010320412816516328,-0.003720148805952631,-0.002760110404416441,0.016200648025920597,0.07008280331212269,0.04764190567622727,2.9222519180257494,-1.1056521653068498,-2.463075659821325,-0.02865024013514616,0.18713894489802965,-0.6336144030413027,2.102549194091675,3.0392876305860486,2.002205961610345,0.08999999999999986,0.03109200000000001,-0.901339,-0.06657100000000016,-0.17686900000000005,-0.902739,0.15657100000000002,0.20796100000000006,0.0013999999999999568,0.9671461293919146,0.856204123330172,double,-0.901339
16,0.133333,jog,-0.089283571342863,0.2311292451698046,-0.04548181927275973,-0.34922888121751894,-0.01885738233759012,0.361439333004128,0.010680427217089363,-0.003840153606148083,-0.005640225609024168,-0.013440537621491644,0.05352214088564228,0.058922356894275524,-3.7875029941813008,1.8721497689855064,0.9936794927709377,0.043203456207012485,-0.014401152069537003,-0.34562764965891335,-3.557084561071909,-1.987358985537069,1.3537082944975696,0.09083299999999994,0.029133999999999993,-0.901007,-0.06593899999999997,-0.17834899999999998,-0.901869,0.1567719999999999,0.20748299999999997,0.0008620000000000294,0.9702566552141523,0.8654522827466274,double,-0.901007
17,0.141667,jog,-0.08339332853370432,0.19150467962562875,-0.06299496040316761,0.08725130580479903,0.1910941702498281,0.24114871192235732,0.010439164866831111,-0.001319894408445317,-0.010319174466043069,-0.014278857691382351,0.07187425005999731,0.09071274298056174,0.7067725952914193,-4.75456749990112,-2.101408822943115,-0.02894916609770249,0.3024069111714389,-0.5614289485263874,-0.10059036115799254,2.202076934767828,3.81454116706099,0.091615,0.027527000000000024,-0.900568,-0.06536300000000006,-0.17934599999999995,-0.900588,0.15697800000000006,0.20687299999999997,2.0000000000020002e-05,0.9752369492695634,0.8056449744974474,double,-0.900568
18,0.15,jog,-0.08796351854075292,0.20448817952718557,-0.07404296171847945,0.2972469914449448,0.18207799863097587,0.3881398799416493,0.007080283211305551,-0.002040081603262838,-0.008280331213248476,0.00012000480018213519,0.054122164886592924,0.14040561622464856,-0.5484447386353769,1.5580823114792752,-1.3258131903650336,-0.40308192193994447,-0.08642592041491907,0.2446709771744379,1.7279326162923887,-2.130335434225894,5.963383324623398,0.0924069999999999,0.025805999999999996,-0.9000199999999999,-0.06462900000000005,-0.180599,-0.898801,0.15703599999999995,0.206405,0.00121899999999997,0.9815265785292188,0.7370170342527587,double,-0.898801
19,0.158333,jog,-0.120004800192021,0.2122884915396572,-0.056282251290044556,0.1222392452456362,-0.2782432527866144,0.365935557042215,0.007680307212296166,-0.001800072002878583,-0.010560422416896403,-0.006000240009586395,0.11028441137645534,0.12252490099603987,-3.8451076024562654,0.9360748844919755,2.131370506232434,0.0720057603492877,0.02880230413827612,-0.2736218893133235,-0.7344587555224438,6.739739168350218,-2.145771658299373,0.09347100000000008,0.024022000000000043,-0.899639,-0.06367899999999982,-0.18144899999999997,-0.897311,0.1571499999999999,0.20547100000000001,0.0023279999999999967,0.9780309624626635,0.7017906876864465,double,-0.897311
20,0.166667,jog,-0.11543076553874568,0.21070314374850416,-0.09647228221742574,0.5204040557363248,0.4864193831094976,0.2021045180918095,0.006479481641468495,-0.004679625629950949,-0.010199184065274976,0.00443964482839485,0.1325893928485747,0.1484281257499401,0.5488402511729449,-0.19022651681702005,-4.8224179178523086,-0.14408754149600067,-0.34551879374518396,0.0433451345838044,1.2526859656804936,2.6763836659610454,3.108138319402473,0.09448699999999999,0.022226999999999997,-0.8989199999999999,-0.06268000000000007,-0.18209999999999998,-0.89527,0.15716700000000006,0.20432699999999998,0.003649999999999931,0.9784035796448693,0.631709545480066,double,-0.89527
21,0.175,jog,-0.1647665906636352,0.2506900276011056,-0.06624264970598803,0.20284643159361923,-0.08791822654458858,0.40473204360194476,0.0015600624025009946,-0.0040801632065323515,-0.008520340813632761,0.02736109444379186,0.16752670106803746,0.1855274210968442,-5.920535836420213,4.7986180070324655,3.62770100941291,-0.5903539228330149,0.07193836834496566,0.20146924896702498,2.7506839812068966,4.192644692123226,4.452093525369517,0.0958730000000001,0.020103999999999955,-0.898439,-0.06107899999999988,-0.18279300000000004,-0.893172,0.15695199999999998,0.202897,0.005267000000000022,0.9840419182724713,0.5282229829097365,double,-0.893172
22,0.183333,jog,-0.1509660386415433,0.2235689427577039,-0.09636385455418187,0.32818422909995615,-0.04328036269786913,0.4168036968801504,0.005040201608049374,-0.004320172806909932,-0.0072002880115201616,0.0334813392535603,0.18876755070203352,0.23784951398055873,1.6561324879505452,-3.2546603676229062,-3.6146891693500307,0.4176334100022053,-0.028802304137475115,0.15841267276042226,0.7344587555224327,2.549003916236174,6.2789023021378245,0.09717299999999995,0.018205000000000027,-0.897696,-0.059541999999999984,-0.18308299999999994,-0.890387,0.15671499999999994,0.20128799999999997,0.00730900000000001,0.9836775824928321,0.42691,single,-0.890387
23,0.191667,jog,-0.1173506119510346,0.21598272138229208,-0.09239260859131841,0.3390561657671695,0.2248253879710015,0.3858307714386116,0.005519558435350671,-0.0057595392368601445,-0.0032397408207342476,0.03227741780658441,0.2435805135589122,0.2508999280057596,4.033528520579392,-0.9102737431499651,0.47651139463204345,0.0575182178187301,-0.1727101547816428,0.4752276446827346,-0.14445901691575264,6.577029380474996,1.5659244090713782,0.09819700000000009,0.01635700000000001,-0.8969529999999999,-0.058294999999999986,-0.182853,-0.8875259999999999,0.15649200000000008,0.19921,0.009426999999999963,0.9856498414519295,0.40573000000000004,single,-0.8875259999999999
24,0.2,jog,-0.15564622584904628,0.19320772830913224,-0.018360734429372205,-0.4110197404708306,0.08665569405485035,0.7803189235603137,0.004800192007658457,-0.003600144005763828,-0.0034801392055683693,0.029761190447620996,0.26497059882395124,0.29497179887195485,-4.595657494061159,-2.7331084931189022,8.884180266644202,-0.08632742442004242,0.2591377932432875,-0.028848960138500128,-0.30195936145006785,2.5669129083210165,5.28883605738572,0.09953400000000001,0.01471699999999998,-0.896829,-0.056749999999999856,-0.182255,-0.884915,0.15628399999999987,0.19697199999999998,0.01191399999999998,0.9884392607571575,0.38086,single,-0.884915
25,0.208333,jog,-0.16332653306131634,0.2678507140285632,-0.0655226209048286,0.048346179877260816,0.4021169154960883,0.3916639898919473,0.008760350414015352,-0.002400096003835898,-0.005280211208448636,0.026161046441863917,0.31273250930037244,0.31849273970958875,-0.9216737324217064,8.957516586995217,-5.659652763165308,0.4752380182835598,0.1440115206921796,-0.216017281036874,-0.4320345620733334,5.7316585235114985,2.8226258055482965,0.10096799999999995,0.012465000000000004,-0.8963270000000001,-0.05517099999999986,-0.18188100000000001,-0.881715,0.1561389999999998,0.19434600000000002,0.01461200000000007,0.9824893024276116,0.35388,single,-0.881715
26,0.216667,jog,-0.18286537077032125,0.22558195344372342,-0.01235901127910669,-0.06969441113464636,0.3791797314681708,0.42545420157200975,0.007079433645312118,-0.0007199424046083507,-0.0028797696184300722,0.017998560115175463,0.3407727381809396,0.3384929205663548,-2.344472967243208,-5.071845522538965,6.379122825260603,-0.20169387673424904,0.20160230372300766,0.2880299484063549,-0.9794200056021654,3.3645583010039775,2.3998297164346125,0.10255099999999984,0.010579000000000005,-0.8962479999999999,-0.05349700000000013,-0.18092100000000005,-0.878791,0.15604799999999996,0.19150000000000006,0.017456999999999945,0.9872057119016636,0.32543,single,-0.878791
27,0.225,jog,-0.22476899075963183,0.22680907236289466,-0.10152406096244002,0.6107173629543652,0.0905987746636452,0.4690685125193775,0.007920316812687083,0.0,-0.0031201248049919864,0.013800552022091343,0.3999759990399649,0.3175327013080515,-5.028635544139031,0.14726016070697676,-10.700233971358845,0.10091001648565506,0.0863965444147786,-0.028843776138475215,-0.5037811224149905,7.104675490102631,-2.51532692407336,0.10448999999999997,0.008689000000000002,-0.895428,-0.05150900000000003,-0.17947800000000003,-0.8752989999999999,0.155999,0.18816700000000003,0.020129000000000064,0.9858121142037711,0.29871000000000003,single,-0.8752989999999999
28,0.233333,jog,-0.235929437177503,0.2630505220208772,-0.08556342253689704,-0.07489128719330893,-0.442971520046331,0.23138764570509546,0.008520340813624405,-0.0006000240009639688,-0.005640225609025001,-0.019560782431313466,0.47125885035401543,0.3674546981879275,-1.3393071424302367,4.349147924874896,1.9153532251941632,0.07200576034289236,-0.07200576034609003,-0.3024241934516996,-4.003520275219582,8.55428432905922,5.990879260755542,0.10652700000000004,0.006491999999999998,-0.8947620000000001,-0.04970600000000003,-0.17774299999999998,-0.871524,0.15623300000000007,0.18423499999999998,0.023238000000000092,0.9829405955145989,0.26761999999999997,single,-0.871524
29,0.241667,jog,-0.23734101271898728,0.2717782577393835,-0.06863450923926305,0.07504856418506684,0.10206021905880301,0.09178266605643182,0.009239260859143861,0.0015598752099880956,-0.004199664026877897,-0.05939524838011919,0.5434365250779957,0.361651067914568,-0.16937551493691813,1.0472445066602285,2.0313070911487916,0.08626350438198435,0.2591671719404931,0.17285356157272705,-4.779753533574013,8.660628116628319,-0.6963799224093429,0.10858200000000018,0.0042400000000000215,-0.8942249999999999,-0.048222999999999905,-0.175479,-0.867938,0.15680500000000008,0.17971900000000002,0.02628699999999995,0.9828864632987756,0.23712999999999995,single,-0.867938
30,0.25,jog,-0.283811352454092,0.41869674786991684,-0.09384375375014385,0.3783871896636148,-0.6648435473194554,-0.13503286351137717,0.007800312012478302,0.002760110404415604,-0.005880235209408423,-0.12072482899316711,0.6259450378015113,0.39181567262690437,-5.576663834765953,17.63092405262609,-3.0252303505197142,-0.17268076883062022,0.1440339846906885,-0.20167660896802167,-7.359844067328437,9.901417583525213,3.6198973613748127,0.11101200000000011,0.0007739999999999969,-0.8934920000000001,-0.04686400000000002,-0.17375200000000002,-0.8638910000000001,0.15787600000000013,0.17452600000000001,0.02960099999999999,0.9830818766592233,0.20399,single,-0.8638910000000001
31,0.258333,jog,-0.26365054602184207,0.267970718828752,-0.06744269770791597,0.17707234678167247,-0.44230744518666143,0.11687095945922184,0.007920316812660463,0.006000240009599738,-0.006600264010560378,-0.17112684507379466,0.706108244329775,0.3806552262090486,2.4193935476119024,-18.087846998819778,3.1682534552055617,0.014401152067942168,0.38883110586633174,-0.08640691241473139,-6.048483869030083,9.619969582174955,-1.3393071424283893,0.11327500000000001,-0.0014089999999999936,-0.8929849999999999,-0.04609299999999994,-0.170101,-0.860157,0.15936799999999995,0.168692,0.03282799999999997,0.9801185608896966,0.17172000000000004,single,-0.860157
32,0.266667,jog,-0.2699784017278451,0.2670986321094317,0.014758819294454537,-0.5764990202189545,0.68451694232504,0.12964588058153587,0.007679385649155741,0.006239500839932378,-0.010439164866810261,-0.24538036957044307,0.809335253179745,0.37041036717062675,-0.7592819421649893,-0.10464203495564181,9.863392968846943,-0.028909426866417367,0.028709002919683216,-0.4606312522498056,-8.909710162784776,12.38625016198342,-1.229284741831277,0.11558899999999994,-0.003583000000000003,-0.893195,-0.04588800000000015,-0.165582,-0.857193,0.1614770000000001,0.161999,0.03600199999999998,0.976027765030467,0.13998000000000005,single,-0.857193
33,0.275,jog,-0.2956918276731083,0.2856114244569763,-0.06828273130924377,-0.0871124867115204,-0.011501689816023253,0.1113838052860048,-0.0170406816272754,0.030721228849151253,-0.026161046441857915,-0.3310932437297425,0.8981159246369873,0.33541341653666074,-3.0857345428132854,2.2216239466632097,-9.965384687831268,-2.966526734241094,2.9379248781013767,-1.886701257055993,-10.285956337369386,10.654106739138602,-4.199802068158631,0.11791099999999988,-0.005707000000000018,-0.892844,-0.046183000000000085,-0.16047799999999995,-0.8538290000000001,0.16409399999999996,0.15477099999999994,0.03901499999999991,0.9269973538672678,0.10984999999999995,single,-0.8538290000000001
34,0.283333,jog,-0.2900516020640969,0.268570742829716,-0.014400576023042035,-0.645287914563856,0.19659762228874744,0.21125263157041274,0.005760230409222144,0.010800432017284858,-0.012000480019200309,-0.3799351974078975,0.9386775471018859,0.24876995079803152,0.676854147247259,-2.0449635938149937,6.466117279035385,2.7362188931354376,-2.390591243473712,1.6993359441566833,-5.861268892134296,4.867589399363816,-10.397631793907289,0.12037600000000004,-0.007855000000000001,-0.8928240000000001,-0.046931999999999974,-0.15489399999999998,-0.8516360000000001,0.167308,0.14703899999999998,0.041188,0.9714303430766454,0.08812000000000009,single,-0.8516360000000001
35,0.291667,jog,-0.3166546676265965,0.2657787377009797,-0.0032397408207342476,-0.6629197625010006,0.03854798745603142,0.02525193547373361,0.001799856011530868,0.015598752099827615,-0.0137988960883134,-0.500599952003847,1.0879529637628902,0.22822174226061903,-3.192112498500067,-0.3350138143432065,1.339193088829827,-0.47520691117005903,0.575752349717153,-0.21579266488038026,-14.478612262532923,17.911617069954904,-2.4655877774672987,0.1230300000000002,-0.009940000000000004,-0.892912,-0.04846499999999998,-0.148042,-0.849707,0.17149500000000018,0.138102,0.04320500000000005,0.9651602843968828,0.06795000000000001,single,-0.849707
36,0.3,jog,-0.31453258130325107,0.27817112684507955,-0.020520820832837232,-0.3262130289268445,0.669608768438965,-0.08765732333388356,-0.0007200288011727528,0.013920556822273524,-0.01152046081843263,-0.6089043561742512,1.1689667586703496,0.16488659546381898,0.25466054522326104,1.487146183139311,-2.073812553954521,-0.30239827345537346,-0.20139148896605008,0.2734231693124655,-12.997048382383833,9.72204427066598,-7.600521636481484,0.125645,-0.012142000000000042,-0.892837,-0.05091800000000002,-0.14061900000000005,-0.848162,0.17656300000000003,0.128477,0.04467500000000002,0.9698604467524767,0.05325000000000002,single,-0.848162
37,0.308333,jog,-0.3350534021360727,0.3019320772830856,-0.01440057602304194,-0.5471358129900631,-0.05631030927243786,-0.09536595968048747,0.0013200528021100684,0.012120484819394855,-0.01236049441977661,-0.6731069242769653,1.1808472338893525,0.10224408976359078,-2.4625970038187392,2.851428109685098,0.734458755525653,0.24481958517734462,-0.21601728103668089,-0.10080806448385657,-7.704616356979936,1.425714054842539,-7.517401380082555,0.1284479999999999,-0.014556999999999987,-0.89282,-0.05373500000000009,-0.133295,-0.84719,0.18218299999999998,0.11873800000000001,0.04562999999999995,0.9710637427572417,0.04369999999999996,single,-0.84719
38,0.316667,jog,-0.31485481161506773,0.3480921526277902,-0.09059275257978815,-0.20806737290917451,-0.1312943471426503,-0.2409739401240341,0.0011999040076872533,0.009119270458365842,-0.007679385649148299,-0.7766978641708648,1.257499400048002,0.062155027597791415,2.4236369715628863,5.5387659400893785,-9.142329800425562,-0.01441670199457833,-0.36011691397036594,0.5616881174260066,-12.429918393796514,9.197524137107017,-4.810302635685097,0.13108199999999992,-0.017381999999999953,-0.8921290000000001,-0.05758400000000008,-0.125716,-0.845917,0.188666,0.10833400000000004,0.04621200000000003,0.9800296172581027,0.03788000000000008,single,-0.845917
39,0.325,jog,-0.38353534141365214,0.30133205328213497,0.015600624024956551,-0.19913638341536163,-0.024116346546747512,0.29540076631243267,0.002160086403464951,0.006240249609983953,-0.005880235209408404,-0.8531141245649829,1.2530901236049399,0.0066002640105603345,-8.241993255560317,-5.611436378933761,12.743714941166958,0.11522649655318537,-0.34549632165869165,0.21590668903634794,-9.170318060016532,-0.529134338540992,-6.666838303999862,0.13429599999999997,-0.019840999999999998,-0.892308,-0.061497000000000135,-0.11778500000000003,-0.845992,0.1957930000000001,0.09794400000000003,0.046316000000000024,0.9852630609066022,0.03684000000000004,single,-0.845992
40,0.333333,jog,-0.33925357014282276,0.267970718828752,-0.012840513620541042,-0.48738185789364796,-0.002083093693131143,-0.020136234033076565,0.007200288011514356,-0.00480019200768512,-0.012120484819392437,-0.9591983679347098,1.339733589343578,-0.03012120484819415,5.314025113504079,-4.0035202752169745,-3.4130730403813345,0.6048483869014062,-1.3249059903599065,-0.7488599075943896,-12.730618429104421,10.397631793908356,-4.4067525331518755,0.13718300000000005,-0.022114000000000023,-0.892302,-0.06666299999999992,-0.108854,-0.846136,0.20384599999999997,0.08673999999999998,0.04616600000000004,0.9751788540523003,0.038340000000000096,single,-0.846136
41,0.341667,jog,-0.2936165106791293,0.3287736981041538,-0.14062874970003128,-0.5062117397442888,0.5941327015051671,-0.43552556892549976,0.0032397408207342476,0.010319174466046365,0.002039836813054496,-1.0338372930165525,1.3435325173986084,-0.05087592992560516,5.476009054918816,7.295773851140117,-15.333361660605966,-0.47522764468203804,1.8141788425403733,1.6991026676802157,-8.955954533458435,0.4558348998116564,-2.4903677798669297,0.13965699999999992,-0.024768000000000012,-0.8911129999999999,-0.07283200000000001,-0.10039700000000001,-0.8453879999999999,0.21248899999999993,0.075629,0.045725000000000016,0.9816558958555762,0.04275000000000001,single,-0.8453879999999999
42,0.35,jog,-0.37225489019562796,0.3614544581783231,-0.10080403216128093,-0.4893089564670194,-0.4661711252584989,-0.1233774651247214,0.004560182407294202,0.00408016320652569,0.006720268810752506,-1.1156846273851115,1.347893915756636,-0.0830433217328693,-9.436983021300714,3.92184808282364,4.779157270940891,0.15845932876034535,-0.7487112995944666,0.5616743066960304,-9.822073007147399,0.52338873851287,-3.860241426528767,0.14279700000000006,-0.027745999999999993,-0.890217,-0.07902699999999996,-0.09217699999999995,-0.84524,0.22182400000000002,0.06443099999999996,0.044977000000000045,0.9848521171016784,0.05023,single,-0.84524
43,0.358333,jog,-0.36769470778830465,0.3471738869554809,-0.08712348493939774,-0.33393289612856586,0.07320674241992405,0.01610830357951315,-0.000240009600390916,0.005640225609026647,-0.0033601344053762307,-1.2012480499220008,1.3694947797911832,-0.08412336493459789,0.5472437786299401,-1.713737096224907,1.6417313358794114,-0.5760460827655224,0.18721497689919003,-1.2096967738063955,-10.268021425283687,2.592207372440537,-0.12961036862217573,0.14585899999999996,-0.030592000000000008,-0.889519,-0.08597300000000008,-0.08365800000000001,-0.845215,0.23183200000000004,0.053066,0.0443039999999999,0.9890505894690382,0.056960000000000066,single,-0.845215
44,0.366667,jog,-0.35637149028076726,0.3370530357571398,-0.1132709383249406,-0.30902301795015186,-0.02920238594145306,-0.08316702445303556,-0.003959683225335938,0.0038396928245712095,-0.0010799136069108608,-1.2349412047036186,1.3412526997840186,-0.09839212862970802,1.3586774067119494,-1.2144049914016195,-3.1374434107922773,-0.4463251289830835,-0.2160466504026201,0.2736046074472483,-4.042855145382491,-3.3887784985798564,-1.7121146742392743,0.14879599999999993,-0.03336900000000004,-0.8885839999999999,-0.09329500000000013,-0.075289,-0.8450909999999999,0.24209100000000006,0.04191999999999996,0.043493000000000004,0.9906327186396151,0.06506999999999996,single,-0.8450909999999999
45,0.375,jog,-0.3835353414136547,0.326053042121682,-0.08736349453977592,-0.21865208813314688,-0.15521713108340868,0.05475042392754578,0.002760110404428936,-0.03696147845913545,0.009720388815552376,-1.3350534021360683,1.3025321012840516,-0.13836553462138534,-3.259792527647607,-1.3200520383364707,3.109017614924367,0.8064074918714618,-4.896336407501112,1.2960881342209603,-12.01394424966398,-4.646657686303505,-4.797000599025252,0.152015,-0.03639399999999998,-0.887775,-0.10122399999999998,-0.06715199999999999,-0.8455159999999999,0.253239,0.030758000000000008,0.042259000000000047,0.9361369725711677,0.07740999999999998,single,-0.8455159999999999
46,0.383333,jog,-0.39229569182767005,0.3258130325213044,-0.0816032641305671,0.0648275027702684,0.2579737481430308,0.08695695179472342,-0.003240129605184125,0.0006000240009573092,-0.0025201008040321897,-1.4035761430457434,1.15864634585384,-0.21288851554062355,-1.0512841010458864,-0.02880230413748021,0.6912552993170333,-0.7200576034577074,4.507560597635048,-1.4689175110505934,-8.223057831474296,-17.26698133087866,-8.943115434926003,0.15525699999999998,-0.03910400000000003,-0.887116,-0.10965100000000017,-0.06021199999999999,-0.84661,0.26490800000000014,0.02110799999999996,0.04050600000000004,0.9930859690317846,0.09494000000000008,single,-0.84661
47,0.391667,jog,-0.39176865850732784,0.41732661387088765,-0.10499160067194124,-0.5140159491698798,-1.528723254329297,0.2843087484957254,-0.010079193664530231,0.0002399808015361169,-0.009359251259899401,-1.430645548356119,1.2733381329493574,-0.09635229181665435,0.06323893932591874,10.980751301845833,-2.8063758748949037,-0.8206220373585433,-0.04320172779231965,-0.8206324041117357,-3.2480687917417166,13.761913498382192,13.9832281886212,0.15843799999999986,-0.04258000000000001,-0.8863190000000001,-0.118309,-0.053078000000000014,-0.846538,0.27674699999999985,0.010498000000000007,0.039781000000000066,0.977072377173051,0.10219000000000006,single,-0.846538
48,0.4,jog,-0.44821792871715205,0.42697707908316224,-0.05988239529581485,-0.48179320618784893,1.494295972090707,-0.12843677738748346,-0.019560782431286755,0.000120004800195458,-0.0016800672026881154,-1.5081003240129536,1.3532941317652694,-0.1560062402496088,-6.774183392514577,1.1581021495589277,5.413321177982264,-1.1378361654573963,-0.014397696068721757,0.9215389484232874,-9.294944876615187,9.59510366205588,-7.158760162360998,0.16201,-0.046136999999999984,-0.885834,-0.12714099999999995,-0.04535899999999998,-0.847339,0.28915099999999994,0.0007780000000000009,0.03849500000000006,0.9672780554315883,0.11504999999999999,single,-0.847339
49,0.408333,jog,-0.4446177847113979,0.4035761430457234,-0.2325693027721109,-0.026140267095120736,-0.5082073674191867,0.16175594390564613,-0.010920436817480316,0.003960158406336893,-0.010920436817472822,-1.5064202568102805,1.2899315972638947,-0.09876395055802308,0.4320345620729816,-2.8082246534788036,-20.72325782746868,1.0368829489747342,0.4608368662116218,-1.1088887093225406,0.2016161289659321,-7.603808292496675,6.869349536971782,0.165624,-0.04946699999999998,-0.883987,-0.13598899999999992,-0.03797299999999998,-0.846224,0.3016129999999999,0.011494000000000004,0.03776299999999999,0.9734275238905055,0.12237000000000003,single,-0.846224
50,0.416667,jog,-0.5002399808015194,0.36261099112070627,0.2555795536357047,0.056751699621740696,2.810167561157664,0.06577506970357667,-0.013198944084453126,0.005399568034552639,-0.009239260859131342,-1.5491960643148672,1.2795776337892897,-0.04139668826493854,-6.674129600446542,-4.915424997002293,58.57317691478464,-0.2733990001167275,0.17271533815883663,0.20172497700281727,-5.132686285647554,-1.2423762268544556,6.883520793506658,0.16968300000000003,-0.05244399999999999,-0.8861939999999999,-0.14473100000000017,-0.030330999999999997,-0.848699,0.3144140000000002,0.022112999999999994,0.037494999999999945,0.9716798363387812,0.12505,single,-0.848699
51,0.425,jog,-0.522500900035999,0.40453618144726045,-0.2580103204128154,-0.14331885768902733,-1.4808086464212777,0.06453510627443027,-0.021840873634960633,0.017040681627268853,-0.005160206408255675,-1.6296651866074594,1.3346933877355152,-0.16068642745709785,-2.6714171648241507,5.031224088150039,-61.6332502158312,-1.0370730289820627,1.3969895107063774,0.48950611434965524,-9.656680942348778,6.614155039748663,-14.315341316711823,0.17385499999999987,-0.05567299999999997,-0.884087,-0.15395700000000012,-0.02257999999999999,-0.847888,0.327812,0.033092999999999984,0.03619899999999998,0.9530355831614077,0.13801000000000002,single,-0.847888
52,0.433333,jog,-0.5310212408496465,0.38737549501980023,-0.25129005160205453,0.3924385351052289,-0.850609624570502,0.02804557678150803,-0.011520460818417564,0.0009600384015370176,-0.003600144005760485,-1.5769830793231747,1.360734429377168,0.010320412816511281,-1.0224817969095719,-2.0593647458850524,0.8064645158719367,1.238499077948281,-1.9297543772629027,0.18721497689849792,6.3221057583444695,3.12504999899828,20.52164169850095,0.17818400000000012,-0.05889299999999997,-0.882023,-0.16267300000000007,-0.01446900000000001,-0.845708,0.3408570000000002,0.044423999999999964,0.036314999999999986,0.9798199955908403,0.13685000000000008,single,-0.845708
53,0.441667,jog,-0.6337892968562562,0.5663546916246734,-0.13090952723782942,-1.3333150190034393,-0.1667811857339875,-1.0880948013330496,-0.0007199424046283379,0.008519318454522215,0.021838252939765136,-1.6159107271418254,1.2974562035037291,-0.028917686585072305,-12.33118022637512,21.475785529742527,14.444507363118046,1.2959585329720769,0.9070410430747828,3.052363444387541,-4.6709440627130885,-7.592779682438103,-4.708195272568251,0.18345999999999996,-0.06354199999999999,-0.88075,-0.17085799999999995,-0.008375999999999995,-0.844858,0.3543179999999999,0.05516599999999999,0.035892000000000035,0.9609129747494736,0.14108000000000004,single,-0.844858
54,0.45,jog,-0.5616224648985957,0.4316572662906518,-0.16452658106324317,0.2742271226396622,-0.4675350406336961,0.08948711639099527,-0.012600504020163363,0.005400216008642393,0.008760350414016125,-1.6707068282731228,1.3322932917316639,-0.145205808232329,8.660366249569206,-16.164337613587072,-4.034207827362727,-1.4257244228411108,-0.37430726579620893,-1.569411079533056,-6.575795167562363,4.180617812064634,-13.955132802982865,0.18803499999999995,-0.06709399999999999,-0.8793059999999999,-0.18009999999999993,-0.0008710000000000107,-0.844697,0.3681349999999999,0.06622299999999998,0.03460899999999989,0.9728850812959143,0.15391,single,-0.844697
55,0.458333,jog,-0.5738629545181632,0.4189367574702958,0.05028201128045833,-0.5134903694650744,1.2277207726468675,-0.1377530931282036,-0.026521060842410325,0.03324132965318281,0.008040321612865081,-1.6426257050281958,1.3135725429017207,0.03276131045241763,-1.4689175110485424,-1.5265221193274998,25.778062203732393,-1.6705336400152402,3.3410672800360603,-0.08640691241462209,3.3698695841746096,-2.246579722782105,21.356908518510387,0.192596,-0.07030799999999998,-0.879658,-0.189006,0.006584000000000034,-0.844843,0.381602,0.07689200000000002,0.03481500000000004,0.9278697274802831,0.1518500000000001,single,-0.844843
56,0.466667,jog,-0.5470362371010556,0.46208303335733014,-0.17146628269738567,-0.2788690970826766,0.9456317493921,-0.2627816940445432,-0.013678905687565324,0.010199184065274976,0.034077273818094465,-1.645668346532293,1.2523398128149705,-0.0017998560115192117,3.2189485741669652,5.17713893532929,-26.607666664008136,1.5409353437538982,-2.764836283646246,3.1241843298811327,-0.36508777346978194,-7.347339823224149,-4.147008215015216,0.19704100000000002,-0.07407399999999997,-0.877945,-0.19816199999999995,0.013170000000000015,-0.843429,0.39520299999999997,0.08724399999999999,0.03451599999999999,0.9364828018197684,0.1548400000000001,single,-0.843429
57,0.475,jog,-0.5585023400935974,0.43909756390256,-0.12348493939758312,0.11239967731792741,1.4523640368394803,-0.21747885886012605,-0.016680667226675813,0.02304092163686859,0.03216128645145783,-1.6317052682107156,1.2640105604224219,-0.045601824072962004,-1.375987398600964,-2.758366669239194,5.757991515636946,-0.3602257937250086,1.5410701513972935,-0.22992768110364137,1.6756364240462531,1.4005457347235541,-5.256446425230157,0.20155600000000007,-0.07754099999999997,-0.876648,-0.20710499999999987,0.020044000000000006,-0.84278,0.40866099999999994,0.09758499999999998,0.03386800000000001,0.928440446805628,0.16132000000000002,single,-0.84278
58,0.483333,jog,-0.6117844713788583,0.4404176167046671,-0.24780991239649286,-0.4168376072867526,-2.3125845258356956,-0.18781440768603683,-0.006120244809795156,0.016680667226689025,0.03120124804992226,-1.6267850714028642,1.232809312372487,0.014040561622463893,-6.39411151869202,0.158412672759764,-14.919593543610851,1.2673013820809569,-0.7632610596639313,-0.11520921655292944,0.5904472348315569,-3.744299537973685,7.157372578354212,0.2066030000000001,-0.08107199999999998,-0.874323,-0.21556299999999995,0.026646999999999976,-0.840598,0.42216600000000004,0.10771899999999995,0.033725000000000005,0.9401571517423404,0.16275000000000012,single,-0.840598
59,0.491667,jog,-0.5998320134389213,0.45800335973122286,-0.2183825293976399,0.8345002548949325,0.2146282258218536,-0.11307558771054865,0.017758579313659328,-0.023518118550519475,0.016558675305975414,-1.5980321574273972,1.2045836333093365,0.00995920326373886,1.4341802183749606,2.1101203535584028,3.5310034795839833,2.86522967644042,-4.823468415791752,-1.7569681718198744,3.450073671162341,-3.386810542734643,-0.48972382514099216,0.2117500000000001,-0.08508500000000002,-0.8723650000000001,-0.22388199999999991,0.03286899999999998,-0.8386950000000001,0.435632,0.117954,0.03366999999999998,0.9436612732541289,0.1633000000000001,single,-0.8386950000000001
60,0.5,jog,-0.5899435977439017,0.4758190327613112,-0.019680787231495668,-1.617587002633549,0.632778035708155,-0.7268705518494495,0.01152046081841764,0.001560062402494333,0.04296171846873852,-1.5711028441137809,1.1965678627145124,0.024600984039362922,1.1866573496963473,2.137966282261898,23.84516286645203,-0.7486041635955482,3.0095020944454425,3.1684919192083494,3.2316468635085123,-0.9619309486168338,1.7570839764339492,0.2167619999999999,-0.08903700000000003,-0.871843,-0.2320580000000001,0.03887499999999999,-0.838326,0.44882,0.12791200000000003,0.03351700000000002,0.9258218348622064,0.16482999999999998,single,-0.838326
61,0.508333,jog,-0.6739469578783202,0.4918996759870331,-0.28201128045121243,-0.8649841483294661,-2.587216365524702,-0.727222311306254,0.01464058562344618,0.009840393615747768,0.04320172806912249,-1.5613824552981914,1.1638065522620837,0.01416056642265602,-10.080806448388108,1.9297543772617094,-31.480918423102803,0.3744299538015752,0.9936794927701188,0.028802304138241103,1.1664933176034338,-3.931514514872022,-1.2529002300140235,0.22250000000000014,-0.09305399999999997,-0.869133,-0.23945299999999992,0.044474000000000014,-0.835858,0.46195300000000006,0.13752799999999998,0.033275000000000055,0.9222259433060399,0.16725,single,-0.835858
62,0.516667,jog,-0.6389488840892794,0.4316054715622795,-0.11771058315334956,0.037885702451242224,-0.04945940025338231,-0.6705211217357279,0.014158867290597687,0.019318454523634225,0.05783537317014711,-1.5434365250780109,1.1166306695464436,0.04391648668106639,4.1994329000529085,-7.234725752910238,19.71450651522244,-0.05780157581575418,1.1372763268402342,1.755896940367735,2.1533393592729353,-5.660653073630955,3.5704247970255025,0.227943,-0.09649000000000002,-0.86767,-0.24699099999999996,0.050183000000000005,-0.834511,0.47493399999999997,0.14667300000000003,0.03315900000000005,0.8956687087811053,0.16841,single,-0.834511
63,0.525,jog,-0.6650666026640961,0.45409816392655633,-0.21888875555022683,2.0477523465946987,2.0242729521150844,-0.5639794370719666,0.013560542421700381,0.040441617664710224,0.09540381615264536,-1.510860434417356,1.1585263410536368,0.08616344653786072,-3.1342515990419533,2.6992310529553243,-12.141866362279712,-0.07180185634193005,2.534880972167996,4.508393493639517,3.909287250768605,5.027681688130688,5.069837976334352,0.23359799999999997,-0.099937,-0.865051,-0.2540389999999999,0.05605299999999999,-0.831969,0.4876369999999999,0.15599,0.033082000000000056,0.8258249532590441,0.16918,single,-0.831969
64,0.533333,jog,-0.672626905076219,0.4093363734549416,-0.7615504620184832,3.061607853504005,-4.128481860067102,0.8235316301427924,0.02184087363496078,0.03480139205568404,0.09948397935917568,-1.474498979959231,1.0732029281171354,0.03012120484819435,-0.9072725803579719,-5.3716297217826865,-65.12200965657763,0.9936794927709676,-0.676854147249038,0.4896391703504567,4.363549076938117,-10.239219121145116,-6.725338016280677,0.23938500000000018,-0.10305799999999998,-0.857876,-0.260721,0.061585,-0.825372,0.5001060000000002,0.16464299999999998,0.03250399999999998,0.8206088785851751,0.17496000000000006,single,-0.825372
65,0.541667,jog,-0.7854571634269127,0.5251979841612655,-0.12946964242861098,0.1542685204970332,0.1480079605439447,-0.6876378755669479,0.004319654427636754,0.03923686105111156,0.13018958483321183,-1.4346052315814453,1.057475401967833,0.014758819294456105,-13.538547918249682,13.90228110227058,75.84363086031526,-2.1023781146296963,0.5322137023551095,3.684377906651778,4.786866855985768,-1.8871521657430137,-1.8433387993446277,0.24596700000000005,-0.10710800000000004,-0.8557119999999999,-0.2661309999999999,0.06602099999999997,-0.82417,0.5120979999999999,0.173129,0.03154199999999996,0.7732627641803886,0.18458000000000002,single,-0.82417
66,0.55,jog,-0.6901476059042407,0.5169806792271644,-0.10020400816031629,-1.2318190649015728,-0.3885044020874663,-0.8989336303020863,-0.01176047041880848,0.05136205448218381,0.13104524180967217,-1.3914556582263258,1.0280811232449278,0.0015600624024959882,11.437604406896869,-0.9861160367335985,3.5120165928590628,-1.9296921692601905,1.4550814149852638,0.10268294449302003,5.178155928851471,-3.527454544930397,-1.5839141836025514,0.2516200000000002,-0.11098799999999998,-0.853785,-0.27197499999999986,0.07028000000000001,-0.823322,0.523595,0.18126799999999998,0.030463000000000018,0.7645971260320232,0.19537000000000004,single,-0.823322
67,0.558333,jog,-0.8616344653786188,0.5607824312972549,-0.026041041641668632,-0.6158183200089894,0.48649922494576725,-0.8927481438925617,-0.01596063842555646,0.061802472098883045,0.13572542901716195,-1.3289331573263086,0.9417976719068841,0.013560542421697231,-20.579246306777822,5.2564205052311195,8.899911978716949,-0.5040403224226593,1.25290023001312,0.5616449306960063,7.503000228011254,-10.354428337698849,1.4401152069124388,0.258667,-0.11514599999999997,-0.852437,-0.2758689999999999,0.07345500000000002,-0.8229920000000001,0.5345359999999999,0.188601,0.029444999999999943,0.7500240032724407,0.20555,single,-0.8229920000000001
68,0.566667,jog,-0.9474442044636241,0.6085913126949822,0.09227261819054641,-0.07734429573506967,0.23334734684532937,-0.28241664465398036,-0.02435805135588573,0.07127429805615297,0.1460283177345796,-1.2612191024717851,0.9084473242140553,0.0034797216222703414,-10.296344982601953,5.736606839180101,14.19650345958893,-1.0076089429240707,1.136528192616973,1.2362477462704085,8.12503657961638,-4.001721585412599,-1.2096017277929942,0.26635999999999993,-0.11962400000000001,-0.851989,-0.27848399999999995,0.075954,-0.823732,0.5448439999999999,0.195578,0.028256999999999977,0.7261508433784281,0.21742999999999996,single,-0.823732
69,0.575,jog,-0.9620784831393273,0.5966638665546682,-0.019080763230531823,-0.06590353004920682,-0.7437163174952374,-0.7745193541101768,-0.019800792031677936,0.08304332173287318,0.19140765630625473,-1.1948877955118307,0.8541941677667201,0.004080163206527382,-1.7561836884319393,-1.4313507908693335,-13.362940288141035,0.5468929946247252,1.4123393347798294,5.445738458139389,7.960075238204139,-6.510639199248253,0.0720558723457394,0.2742119999999999,-0.12390399999999999,-0.850235,-0.280424,0.0781,-0.823539,0.5546359999999999,0.202004,0.026695999999999942,0.6506945162891696,0.23304000000000014,single,-0.823539
70,0.583333,jog,-0.9782791311652617,0.5981039241569623,-0.06612264490579214,0.12037026107648334,-0.01465694042625349,-1.0365873218292838,-0.026161046441863744,0.08436337453497549,0.19968798751949982,-1.1126845073803109,0.7879515180607177,-0.02388095523820833,-1.9441555293332873,0.17281382482829083,-5.6452516110956585,-0.7632610596646804,0.1584126727591861,0.9936794927691174,9.864789167349027,-7.949435942157936,-3.355468432105556,0.282146,-0.12818500000000002,-0.84802,-0.281544,0.079682,-0.823187,0.56369,0.20786700000000002,0.024832999999999994,0.636082764012926,0.25167,single,-0.823187
71,0.591667,jog,-0.9935205183585049,0.5631149508039317,0.04967602591791592,-0.7359981963074688,0.43414256546813773,-0.9654135134235108,-0.03791696664266625,0.08735301175905938,0.21706263498919898,-1.0317974562034986,0.750059995200379,-0.0740340772738183,-1.8288201575765632,-4.198340935088837,13.89472892053122,-1.4105975762901868,0.35872776866857103,2.084790913090836,9.705669687642388,-4.5466190137195115,-6.0178932128161255,0.29010999999999987,-0.13215000000000002,-0.846625,-0.2818630000000002,0.08124,-0.824218,0.5719730000000001,0.21339000000000002,0.022406999999999955,0.6049457402555186,0.27593,single,-0.824218
72,0.6,jog,-1.0854434177367425,0.5610224408976425,-0.01920076803071396,-0.30781756357814816,-0.7355073026241606,-0.82539276015781,-0.0558022320892766,0.10956438257530367,0.24036961478459332,-0.9254770190807646,0.695307812312498,-0.09924396975879059,-11.031189172955532,-0.25111123320403145,-8.265545895671488,-2.1463177063015135,2.6654711167940106,2.7969494534254835,12.758962813240723,-6.570524767536479,-3.0253081105211224,0.2986900000000001,-0.13591200000000003,-0.844462,-0.28052999999999995,0.08235899999999999,-0.824885,0.5792200000000001,0.21827100000000002,0.019577000000000067,0.5500129793632722,0.30423,single,-0.824885
73,0.608333,jog,-0.9879995199807873,0.5952238089523547,0.2281291251649973,-0.24668315125472012,1.5007742747651327,-0.8621926273824634,-0.05760230409216776,0.11916476659066573,0.24528981159246316,-0.8130325213008457,0.6354254170166773,-0.1560062402496088,11.693735480133778,4.104328339699033,29.68077441446181,-0.21601728103817974,1.1520921655300638,0.5904472348337719,13.493879488769768,-7.1861748824937575,-6.811744928695305,0.306443,-0.139879,-0.8443189999999999,-0.279072,0.08269399999999999,-0.828086,0.585515,0.222573,0.016232999999999942,0.5354651110327888,0.33766999999999997,single,-0.828086
74,0.616667,jog,-1.019678425725935,0.547156227501804,0.34425245980321895,-0.4677428445198926,1.8882193236097664,-0.2319245767655859,-0.0873530117590672,0.12431005519558283,0.29445644348452266,-0.6991840652747852,0.5580753539716874,-0.1787856971442301,-3.8011645962500524,-5.767648362197138,13.933685461749736,-3.5697993360810676,0.6173852417707139,5.8995238651379625,13.660721865378111,-9.281265064193708,-2.733316162061606,0.31421299999999985,-0.14340300000000003,-0.844734,-0.2764010000000001,0.082785,-0.832445,0.590614,0.22618800000000003,0.012288999999999994,0.5,0.37711,flight,-0.832445
75,0.625,jog,-1.271090843633759,0.6770670826833022,-0.16500660026401168,0.5127339020372532,-3.487070400985087,-0.6203739987550915,-0.11604464178566376,0.16500660026401168,0.2842913716548654,-0.5888635545421785,0.5682227289091527,-0.3127325093003712,-30.170696976817812,15.589926218828465,-61.1135317493374,-3.443133328524713,4.8837807594418186,-1.21985741385542,13.238990847546642,1.2177337018439065,-16.074260429154034,0.32383800000000007,-0.14767,-0.8409899999999999,-0.27071599999999996,0.081878,-0.833676,0.594554,0.229548,0.007313999999999932,0.5,0.4268600000000001,flight,-0.833676
76,0.633333,jog,-1.1554062162486416,0.510980439217568,0.010320412816516277,0.4032498552640586,-1.563004842045454,0.34000906527251046,-0.10260410416417216,0.1687267490699643,0.33973358934357234,-0.4164166566662617,0.43345733829353045,-0.2812912516500647,13.882710594637805,-19.931194463666568,21.040083172990187,1.6129290317402545,0.44643571414287786,6.653332255935043,20.694455523330866,-16.172493773625547,3.7731018421104525,0.332611,-0.150522,-0.838245,-0.26455799999999996,0.081232,-0.836106,0.597169,0.231754,0.002139000000000002,0.5,0.47861000000000004,flight,-0.836106
77,0.641667,jog,-1.266258699304067,0.7168226541876699,0.08171346292297176,0.36554246886076003,-0.30275107632769244,-1.060649668858553,-0.09179265658746208,0.15622750179985329,0.3572114230861544,-0.2507799376049974,0.3590112790976736,-0.3334533237341028,-13.301233867941686,24.69908986922283,8.56648069431916,1.2972699276110087,-1.4997896892381903,2.0971722753278317,19.874816302047666,-8.93281247850459,-6.2589479342498695,0.3423990000000001,-0.15519400000000003,-0.835949,-0.25609499999999996,0.07824999999999999,-0.839566,0.5984940000000001,0.233444,0.0036169999999999813,0.4638300000000001,0.5,flight,-0.835949
78,0.65,jog,-1.1368054722188652,0.4609384375374976,0.061442457698302505,0.1670869379843255,0.3309289830904704,0.05825095000038116,-0.16920676827074613,0.18804752190088012,0.4188167526701059,-0.0702028081123178,0.309252370094802,-0.3901356054242158,15.535008650570173,-30.707334291392204,-2.432617931677567,-9.290065004594231,3.8185551543293768,7.392935267484846,21.670122344015223,-5.971307932661874,-6.80214588864908,0.35046199999999983,-0.15746799999999997,-0.832971,-0.24720700000000007,0.076986,-0.843329,0.5976689999999999,0.23445399999999997,0.010357999999999978,0.39641999999999994,0.5,flight,-0.832971
79,0.658333,jog,-1.2984519380775412,0.6541461658466412,0.1639265570622814,-1.1089489119897236,-1.506861033457642,-0.05458372030115501,-0.19452778111123092,0.23448937957517985,0.4380175207008321,0.08808352334093593,0.25765030601224403,-0.4528981159246411,-19.398351837114788,23.185854831290698,12.298583867032262,-3.0386430865816667,5.573245850750048,2.3041843310604118,18.995119579173785,-6.192495389722601,-7.531802532152385,0.359661,-0.16096500000000002,-0.830687,-0.235653,0.073682,-0.8484689999999999,0.595314,0.23464700000000002,0.017781999999999965,0.3221799999999999,0.5,flight,-0.830687
80,0.666667,jog,-1.2462203023758012,0.6401487880969481,-0.022918166546669037,-0.05858516198760092,-0.9222719140069136,-0.12917880095967135,-0.23326133909286428,0.2844972402207816,0.40556755459562854,0.24742020638348844,0.0795536357091423,-0.39152867770578,6.267294900616709,-1.6795509658858905,-22.419573267212503,-4.647655145384337,6.000463240412931,-3.8936844378693687,19.118872455309727,-21.369890845104436,7.363743486784332,0.36810300000000007,-0.16392900000000002,-0.827116,-0.223205,0.06900999999999999,-0.851541,0.5913080000000001,0.232939,0.02442500000000003,0.25575000000000003,0.5,flight,-0.827116
81,0.675,jog,-1.3148925957038353,0.5952238089523547,0.18048721948877278,-0.3644280413789809,-0.01967234539466077,0.034888719526162605,-0.27601104044163943,0.3525741029641166,0.43153726149045807,0.2973718948757781,0.06036241449658002,-0.32665306612264383,-8.241004839557647,-5.391213145877017,24.409622709161283,-5.130169368627741,8.169550311212618,3.1164894869590083,5.994442396770603,-2.3030386670541456,7.78538480536852,0.37676,-0.16595100000000002,-0.825024,-0.20977,0.064553,-0.8557669999999999,0.58653,0.23050400000000001,0.030742999999999965,0.19257000000000002,0.5,flight,-0.825024
82,0.683333,jog,-1.2605304212168418,0.6395055802232148,0.36517460698428483,-0.19587374806909982,1.8513771309157123,0.10185158828151772,-0.3110524420976781,0.4059762390495687,0.45661826473059375,0.22908916356656403,0.19128765150606178,-0.29329173166926964,6.523721887314777,5.314025113507799,22.163373034383024,-4.205136404180842,6.408512670761138,3.0098407824476068,-8.194255527326854,15.71165690741425,4.003520275215949,0.3846719999999999,-0.167897,-0.8242619999999999,-0.197357,0.060818,-0.861254,0.5820289999999999,0.228715,0.036992000000000025,0.13007999999999997,0.5,flight,-0.8242619999999999
83,0.691667,jog,-1.2602591792656672,0.7003839692824532,0.1763858891288649,-0.3000301092931905,1.3609208886297233,0.17387195543725814,-0.36141108711302994,0.452243820494353,0.4671226301895805,0.16030717542596515,0.054475641948643225,-0.11495080393568433,0.03254643042651297,7.304822301324442,-22.65283391593694,-6.042553997522376,5.551665640122867,1.2604230212367018,-8.253178322605994,-16.41612785666157,21.399199392078707,0.39216300000000004,-0.16996500000000003,-0.821839,-0.18551799999999985,0.055434999999999984,-0.863682,0.5776809999999999,0.22540000000000002,0.041842999999999964,0.08157000000000003,0.6589246035444651,single,-0.821839
84,0.7,jog,-1.3702148085923476,0.5939037561502492,-0.05280211208448338,0.7840572753867885,-1.1991878849976103,0.23283707687294536,-0.38149525981040106,0.4666986679467259,0.4054962198487985,-0.03168126725069535,0.10236409456378427,-0.06708268330733255,-13.195203327334855,-12.778136701332652,-27.503660292013727,-2.4101971315698187,1.7346510803279716,-7.395465059496285,-23.039534702587574,5.746844187584482,5.744404251572329,0.4004019999999999,-0.17102499999999998,-0.81802,-0.17436399999999996,0.05133900000000001,-0.8638009999999999,0.5747659999999999,0.222364,0.04578099999999996,0.042190000000000005,0.789298809855539,single,-0.81802
85,0.708333,jog,-1.3032521300851823,0.6270250810032384,0.045241809672395314,-0.5983801577885156,0.34313939318673264,0.3473032105042552,-0.4222968918756526,0.5676227049081954,0.5286211448457907,-0.13140525621025603,0.1575663026521048,-0.09900396015840585,8.035842854573986,3.9747179710775358,11.765741240475013,-4.896391703498306,12.111368890131903,14.775582022919917,-11.96735736944201,6.624529951796508,-3.8307064503867947,0.40774299999999997,-0.17151999999999998,-0.813992,-0.16459900000000016,0.047427,-0.8650030000000001,0.5723420000000001,0.21894699999999997,0.05101100000000003,0.0,0.6203208034764929,single,-0.813992
86,0.716667,jog,-1.2403407727381763,0.6018718502519744,0.10559155267578416,-0.8385875747338694,-1.3636303483660968,1.0131256620950697,-0.4902807775377973,0.6270698344132365,0.5758339332853325,-0.13174946004320073,0.09959203263738793,-0.07583393328533666,7.548758980922179,-3.0181462384525766,7.241389849218669,-8.157413686362393,7.133084893813367,5.665081406232474,-0.04130115586089488,-6.956355893294508,2.7801808103034564,0.413994,-0.17131000000000002,-0.810073,-0.15536000000000016,0.043241,-0.866515,0.5693540000000001,0.21455100000000002,0.05644199999999999,0.0,0.6971098538704981,single,-0.810073
87,0.725,jog,-1.2571702868115022,0.47569902796112223,-0.1654866194647824,1.9235733385542602,-1.0773562990953758,1.5283699920818328,-0.6422656906276338,0.7451098043921849,0.6657866314652661,-0.05088203528140932,0.0001200048001921288,-0.1279251170046819,-2.0196224736980732,-15.14134432867555,-32.530681884143654,-18.238919127545653,14.165363011994415,10.794755571815,9.704479150581081,-11.937120825296617,-6.251192094005246,0.4191180000000001,-0.169065,-0.803146,-0.145308,0.03927800000000001,-0.866202,0.5644260000000001,0.208343,0.063056,0.0,0.770545141959662,single,-0.803146
88,0.733333,jog,-1.168366734669378,0.582983319332771,-0.12588503540141152,0.4153218024837907,1.1784002157253801,0.7968316952376981,-0.7704308172326971,0.7849513980559213,0.7688707548301895,-0.029161166446656932,0.05892235689427616,-0.06636265450617972,10.656852531156106,12.874629949795795,4.752380182811799,-15.380430409823925,4.781182486947827,12.370589627375857,2.606608524511256,7.05656451387061,7.387791011460689,0.422434,-0.16738199999999998,-0.79569,-0.13581500000000002,0.03491100000000001,-0.8657060000000001,0.558249,0.202293,0.07001600000000008,0.0,0.8443096049168535,single,-0.79569
89,0.741667,jog,-1.1755459563235076,0.6579073674106127,0.03635709143267866,-0.25204318390498137,2.680293580880325,0.669505421479582,-1.0123590112791068,0.9446844252459813,0.8237341012719025,0.003839692824577896,0.04115670746340269,-0.05027597792176604,-0.8614376834808715,8.990166556016574,19.46749782026531,-29.029060960692465,19.166429948411437,6.583074927011434,3.9597863296418305,-2.1317073951132195,1.9302467703880213,0.423794,-0.16499200000000003,-0.7891279999999999,-0.12598599999999993,0.029770999999999992,-0.866428,0.5497799999999999,0.19476300000000002,0.07730000000000004,0.0,0.8915219970300541,single,-0.7891279999999999
90,0.75,jog,-1.1891275651025925,0.6209048361934433,-0.036721468858757614,-0.1320975510676689,1.507871650648389,0.9018563936846078,-1.1887675507020194,1.0532821312852512,1.0380415216608627,0.04872194887797033,-0.00972038881555231,-0.06420256810272393,-1.6298582478201042,-4.440481365314929,-8.76977802609336,-21.169871525610457,13.032246014552914,25.717919163441657,5.386086169853863,-6.105495773305507,-1.6712576720218206,0.423797,-0.16138899999999998,-0.780172,-0.11567099999999986,0.02451600000000001,-0.8666569999999999,0.5394679999999998,0.185905,0.08648499999999992,0.0,0.8646990595809765,single,-0.780172
91,0.758333,jog,-1.1579263170526795,0.587903516140645,-0.16872674906995097,-0.575809683591291,-1.2662842603846054,1.2169289737595572,-1.4624984999399853,1.146045841833669,0.927757110284406,0.03636145445817124,0.003000120004799849,0.0009600384015353521,3.7442995379710737,-3.9603168190085425,-15.841267276034177,-32.84902786967055,11.132090549432068,-13.234658751524814,-1.4833186631224096,1.5265221193270258,7.819825573534023,0.42125900000000005,-0.156738,-0.771035,-0.1057189999999999,0.019641999999999993,-0.8652430000000001,0.526978,0.17637999999999998,0.09420800000000007,0.0,0.9391705991204983,single,-0.771035
92,0.766667,jog,-1.1814254859611324,0.5785937125030022,-0.2084233261339091,-0.1299741728588164,1.137499884350829,0.9517082583231696,-1.563954883609319,1.3992080633549369,0.9966402687785043,-0.01751859851211667,-0.012958963282937077,-0.010679145668346449,-2.8196746950387657,-1.1170870695515756,-4.763208191019721,-12.17379213694915,30.37703641963875,8.265317793868336,-6.465089149302641,-1.9149367995844753,-1.3965903611569315,0.4180710000000001,-0.149899,-0.7609920000000001,-0.09601899999999985,0.014712000000000003,-0.8635950000000001,0.5140899999999999,0.164611,0.102603,0.0,0.9595552442829931,single,-0.7609920000000001
93,0.775,jog,-1.1431657266290511,0.5246609864394571,-0.3804152166086635,0.3452262513516672,-0.2348089858464195,1.1464986868501568,-1.867874714988598,1.6039841593663666,0.7659906396255818,-0.028681147245901744,-0.007680307212287813,-0.02736109444377752,4.591354774040693,-6.472186015065981,-20.639852451068485,-36.471838639058895,24.574114485950908,-27.67906266085702,-1.3395594304314207,0.6334640670405907,-2.0019139296089046,0.41203199999999995,-0.14090500000000003,-0.7514390000000001,-0.08673200000000003,0.010275999999999993,-0.860653,0.498764,0.151181,0.10921399999999992,0.0,0.932706595680278,single,-0.7514390000000001
94,0.783333,jog,-1.2689307572303108,0.5861034441377692,-0.2562102484099385,-0.303879464367052,0.7494625821211338,0.6223647047355668,-2.0585623424937056,1.6661466458658507,0.6143045721828945,-0.04428177127085889,0.03960158406336253,-0.03012120484819435,-15.092407368446034,7.373389859391886,14.9051923915428,-22.883430637838647,7.459796771809031,-18.20305621537126,-1.872149768985634,5.674053915234702,-0.33122649758992617,0.40545200000000015,-0.131905,-0.7441850000000001,-0.07652700000000001,0.005722000000000005,-0.858769,0.48197900000000016,0.137627,0.11458399999999991,0.0,0.8889888930892358,single,-0.7441850000000001
95,0.791667,jog,-1.2043436525077724,0.5783537317014601,-0.26661867050636434,-0.3627184426862835,0.40959416767792006,0.8147725203888483,-2.253299736021113,1.7321814254859484,0.4326853851691829,-0.020878329733608727,-0.01667866570674336,0.0237580993520521,7.749832580098137,-0.9298911010689951,-1.2489107387119942,-23.36661789385721,7.923539671237969,-21.792559036922267,2.8081883294036456,-6.753089725234637,6.464999304085198,0.3967099999999999,-0.12228900000000001,-0.7383569999999999,-0.06666400000000006,0.0007629999999999998,-0.856349,0.46337399999999995,0.12305200000000001,0.1179920000000001,0.0,0.9404057742579832,single,-0.7383569999999999
96,0.8,jog,-1.140165606624258,0.5664226569062741,-0.33577343093723216,-0.2709407246726304,-0.34726598556176663,1.2547735900536234,-2.405016200648013,1.8889955598223855,0.3537741509660346,-0.03264130565223195,0.036001440057601516,-0.0192007680307212,7.701673572964613,-1.431786246872184,-8.298903207832417,-18.206704023388863,18.818448858326704,-9.469726893453497,-1.411613574777772,6.321865566344012,-5.155270296744644,0.3861699999999999,-0.111268,-0.732611,-0.057435000000000125,-0.0036570000000000075,-0.853711,0.443605,0.107611,0.12109999999999999,0.0,0.9129140269319853,single,-0.732611
97,0.808333,jog,-1.1966878675147226,0.5592223688947606,-0.27193087723509074,0.22901319092302835,1.1970136474351354,0.6969684080673696,-2.531621264850618,1.944677787111502,0.2326893075723079,-0.006120244809795237,0.021360854434177276,-0.036361454458178386,-6.782942624560787,-0.8640691241465951,7.661412900773072,-15.193215432930014,6.6821345600764355,-14.530762437744846,3.1826546072767257,-1.7569405524330222,-2.0593647458847166,0.375046,-0.099723,-0.728406,-0.047514000000000056,-0.008139000000000007,-0.8517480000000001,0.42256000000000005,0.091584,0.12334200000000006,0.0,0.9289777251489968,single,-0.728406
98,0.816667,jog,-1.1501079913606769,0.6399088072954103,-0.3014158867290677,-0.12331656362031837,0.44114871085234253,0.7158472802720953,-2.630309575233944,1.9616030717542448,0.10031197504199295,0.0016798656107727896,0.013438924886009136,-0.001679865610751142,5.589138007444844,9.681598080231472,-3.537918105828744,-11.84164991400594,2.0308716873941277,-15.884009182903043,0.9359383753981243,-0.9505555013400624,4.161457745071632,0.3627100000000001,-0.088708,-0.725058,-0.03791499999999992,-0.013359999999999997,-0.84925,0.400625,0.075348,0.12419199999999997,0.0,0.9772545121060463,single,-0.725058
99,0.825,jog,-1.2359294371775054,0.7175087003480219,-0.0786031441257611,-0.5383797308089535,3.1596521050565967,-0.046528763117420234,-2.758670346813899,2.066002640105624,0.02832113284531575,-0.012120484819408339,0.02748109924397085,0.007080283211328105,-10.29898545743781,9.312359660699906,26.738598656343296,-15.40390874594456,12.52844934013925,-8.639246633466682,-1.6561082959535887,1.6851283280885445,1.0512599090458812,0.35002100000000014,-0.077471,-0.724167,-0.02771699999999999,-0.019110000000000002,-0.848536,0.37773800000000013,0.058360999999999996,0.12436899999999995,0.0,0.9485691570524311,single,-0.724167
100,0.833333,jog,-1.1617664706588275,0.5469818792751678,-0.3258130325213022,0.5213543956292861,0.49361044388266345,0.39604413039421993,-2.9183967358694467,2.124804992199679,-0.03984159366374626,-0.008400336013442242,0.015120604824193038,0.0010800432017283122,8.89991197872045,-20.464037090226018,-29.666373262395307,-19.16793340400182,7.056564513867103,-8.179854375262417,0.44643571414449557,-1.4833186631198558,-0.7200576034561104,0.335383,-0.06432299999999999,-0.721784,-0.018105999999999955,-0.023541999999999993,-0.845812,0.35348899999999994,0.040781,0.12402800000000003,0.0,0.9711149390444672,single,-0.721784
101,0.841667,jog,-1.2113030957523263,0.6513078953683659,-0.19282457403407882,0.6852343293898959,0.7640799698698888,1.06604208565568,-3.041036717062589,2.168586513078938,-0.09071274298056166,-0.03287736981040117,0.041756659467242434,0.029757619390448322,-5.943919497659993,12.518120481545145,15.957338431392175,-14.715620493537473,5.253362236532106,-6.104049594050277,-2.9370090949074568,3.196070871496184,3.44103385993758,0.32013400000000014,-0.05167799999999999,-0.7209329999999999,-0.008284999999999876,-0.028621999999999995,-0.843957,0.328419,0.023055999999999993,0.12302400000000002,0.0,0.8984829520707112,single,-0.7209329999999999
102,0.85,jog,-1.1740069602784202,0.6200648025921099,-0.23232929317172152,0.5798473111906294,0.2663047404923448,0.8221806496229384,-3.2164886595464273,2.333133325333033,-0.07368294731789381,0.028081123244911507,0.00816032641305643,0.002280091203647949,4.475715285480191,-3.7493211059949845,-4.740755926754237,-21.055075301072836,19.746407326784674,2.043657225809193,7.315311779108753,-4.031721235351771,-3.297435279827268,0.303114,-0.037403000000000006,-0.719611,0.0017319999999999558,-0.033721,-0.842002,0.30138200000000004,0.0036820000000000047,0.12239100000000003,0.0,0.9511141003696564,single,-0.719611
103,0.858333,jog,-1.2085683427336973,0.5933037321492823,-0.24828993159726134,0.6436679318016335,0.7100339717152424,0.4697608620439232,-3.225609024360946,2.248769950798023,-0.21600864034561246,0.025441017640717642,0.01596063842553626,0.003960158406336867,-4.147531795905067,-3.211456911415756,-1.9153532251937788,-1.0944875572445452,-10.124009904597324,-17.079766353980325,-0.3168253455170832,0.9360748844929556,0.20161612896782805,0.28630600000000006,-0.02360799999999999,-0.719342,0.012014999999999998,-0.038532,-0.8399,0.27429100000000006,0.014924000000000007,0.12055799999999994,0.0,0.9495115466404751,single,-0.719342
104,0.866667,jog,-1.1481881449484166,0.5706743460523203,-0.2649388048956084,0.5385999056414901,0.24564577849272862,0.9520978208928972,-3.3131749460043616,2.240940724742033,-0.30357571394288685,0.01715862730981582,-0.0009599232061428088,0.003719702423805674,7.245044130703269,-2.715309106906912,-1.997704979403305,-10.50707003160739,-0.939431972161034,-10.507208255012586,-0.9938073351214144,-2.0303049714037877,-0.028852409710966472,0.2682629999999999,-0.009688000000000002,-0.7196640000000001,0.021727000000000052,-0.043296,-0.837661,0.24653599999999987,0.033608,0.11799699999999991,0.0,0.9706943250736257,single,-0.7196640000000001
105,0.875,jog,-1.1646465858634254,0.5483019320772796,-0.192967718708754,0.9371897578762836,0.4538888530970709,0.8551578441132782,-3.267610704428157,2.1062042481699175,-0.4647785911436423,0.012600504020163363,0.008640345613823165,-0.015720628825152842,-1.975091913477588,-2.684797068887621,8.636875817455188,5.467927706252771,-16.169023949611805,-19.345119068853325,-0.5469966746252778,1.1520783415295732,-2.3329330671977,0.25073899999999993,0.0032940000000000053,-0.721929,0.03153700000000004,-0.047793,-0.836184,0.2192019999999999,0.05108700000000001,0.114255,0.0,0.9634636237373289,single,-0.721929
106,0.883333,jog,-1.1690867634705373,0.5558622344893785,-0.16776671066842727,0.34608252068253076,0.2084359470623817,0.9688763973663751,-3.3740549621984774,2.1800072002880024,-0.5024600984039336,0.01320052802112733,0.014640585623426194,0.00708028321132801,-0.5328426265584888,0.907272580355082,3.0242419345165765,-12.773821885313808,8.85670852251106,-4.521961749704924,0.07200576034608969,0.7200576034564987,2.736218893133416,0.23236499999999993,0.016827999999999996,-0.724718,0.04138900000000012,-0.052303,-0.834727,0.1909759999999998,0.069131,0.11000900000000002,0.0,0.965090151907375,single,-0.724718
107,0.891667,jog,-1.1748260139188924,0.6654667626589905,-0.1685865130789534,0.29012958977948644,0.18279190336958367,1.2050695010804087,-3.505159587233043,2.190304775617963,-0.5509959203263786,0.0070794336452855225,0.01883849292056532,-0.0035997120230376145,-0.688654961405704,13.151491261052627,-0.09836841978955198,-15.731296500427922,1.235610190780012,-5.823832724075506,-0.7344725672956375,0.5037085789703805,-1.2814969083712127,0.2129439999999999,0.029536,-0.727905,0.051238999999999923,-0.05769200000000001,-0.833352,0.161705,0.087228,0.10544699999999996,0.0,0.965926341107952,single,-0.727905
108,0.9,jog,-1.2116884675386992,0.6365054602184056,-0.12132485299411735,0.5732152450495104,0.356640528481637,1.1911480482139742,-3.958958358334299,2.640105604224158,-0.3618144725789004,0.016920676827093264,0.005640225609024982,0.046321852874114465,-4.423671381232044,-3.4754953126826837,5.67162607522331,-54.45803085338464,53.978258563085696,22.70268183697076,1.1809964216737912,-1.583855431602098,5.990827420755054,0.19005100000000008,0.046232,-0.729909,0.061477000000000115,-0.062949,-0.831955,0.12857399999999997,0.109181,0.10204599999999997,0.0,0.9172716039799389,single,-0.729909
109,0.908333,jog,-1.1408856354254193,0.6254650186007499,-0.10800432017280932,0.32652311908166287,0.19317975775339352,1.2571199273126885,-3.8113524540982002,2.3211328453138336,-0.37093483739350036,0.007800312012478379,0.017280691227649893,0.017400696027841188,8.496679720782494,-1.3249059903583125,1.5985278796721654,17.713417045013827,-38.278262199727266,-1.0944875572542925,-1.0944875572560864,1.3969117507050304,-3.4706776486587714,0.167798,0.060362,-0.7321,0.07104900000000003,-0.068017,-0.83091,0.09674899999999997,0.128379,0.09881000000000006,0.0,0.9571095912349885,single,-0.7321
110,0.916667,jog,-1.240220782337405,0.6328293736501033,-0.04367650587953302,0.8398100249132938,0.1496922310430321,1.3117730041930107,-3.8111351091912438,2.303815694744403,-0.6004319654427577,-0.0034797216222770024,0.01679865610751142,0.0489560835133184,-11.91926408831112,0.8836519137692996,7.718720217575691,0.026079302490576065,-2.077891836984686,-27.53745236972109,-1.3534957565101147,-0.057839587249636504,3.7863435907699747,0.14637199999999995,0.07428799999999999,-0.73674,0.08135599999999998,-0.073151,-0.8301379999999999,0.06501599999999996,0.147439,0.09339799999999998,0.0,0.9135418948187752,single,-0.73674
111,0.925,jog,-1.2192487699508,0.6773070922836889,-0.07608304332172204,0.3946956891880742,-0.10721213464681878,1.0896942885012384,-3.7883115324612873,2.3980559222368796,-0.5396615864634564,0.011160446417844513,0.014520580823232402,0.016800672026881153,2.5167421560788403,5.337539737619758,-3.8889400506646927,2.738938765145374,11.309279670283946,7.292737187003602,1.756890440432192,-0.2733799693122533,-3.8588037305216742,0.12496399999999996,0.088627,-0.740603,0.09160899999999994,-0.078674,-0.8293640000000001,0.033355000000000024,0.167301,0.08876100000000009,0.0,0.9585785411141214,single,-0.740603
112,0.933333,jog,-1.2382095283811392,0.7033481339253632,0.009000360014393005,0.6121593802589771,-0.40432783382738857,1.146019739978766,-3.852154086163484,2.292691707668328,-0.5653426137045542,0.02748109924397418,-0.013920556822273616,-0.0358814352574107,-2.275382026921812,3.125049999000906,10.210416817006578,-7.661412900779707,-12.644211516686976,-3.081846542793473,1.958556681402834,-3.413073040382369,-6.322105758345414,0.10318199999999988,0.101871,-0.745389,0.10215599999999991,-0.084651,-0.829738,0.0010259999999999714,0.18652200000000002,0.08434900000000001,0.0,0.9211811127747948,single,-0.745389
113,0.941667,jog,-1.2060235181185452,0.7607391408687245,0.06467482601392646,0.26595265420404374,-0.4996580760472948,0.93566381524353,-3.913846892248581,2.2694984401247726,-0.6035517158627272,0.02951763858890888,0.013318934485241078,0.013318934485241078,3.8620122705296,6.886369923609415,6.680401487824938,-7.402544526649475,-2.7829694676692047,-4.584725480942246,0.24436517217838777,3.2684774787034416,5.9035720833515,0.08061499999999999,0.114445,-0.750958,0.11245299999999991,-0.09088,-0.8301660000000001,0.03183799999999992,0.205325,0.07920800000000006,0.0,0.9416409813808209,single,-0.750958
114,0.95,jog,-1.2112084483379468,0.7206288251530127,0.05724228969158215,0.4049401337771454,-1.0645010928441196,1.099361536642553,-3.962078483139354,2.248889955598244,-0.5628225129005211,0.016680667226702573,0.05040201608064413,-0.006600264010560422,-0.6222165149887954,-4.813430423102381,-0.8919400362827772,-5.788022427789885,-2.4731170678662004,4.88769986345931,-1.5404981833921065,4.450147797360301,-2.3903994354736207,0.05769200000000008,0.12718,-0.756125,0.12268500000000004,-0.096465,-0.830698,0.06499299999999997,0.22364499999999998,0.074573,0.0,0.9108345581216424,single,-0.756125
115,0.958333,jog,-1.4544581783271293,0.7884315372614871,0.2064082563302456,1.5047063272625776,-0.016727578506249882,1.0146295055605128,-3.9845193807752257,2.24624984999399,-0.5258610344413751,0.010200408016307496,-0.005520220808832855,0.11196447857914309,-29.19113524411154,8.136650919053647,17.900632021920416,-2.69301543692209,-0.31682534552427105,4.435554837290992,-0.7776622117358754,-6.710936864211779,14.228338244294134,0.036609,0.139328,-0.762227,0.13488999999999995,-0.103081,-0.8314849999999999,0.09828099999999995,0.24240899999999999,0.06925799999999993,0.0,0.812393988302785,single,-0.762227
116,0.966667,jog,-1.3222942164626632,0.7751379889608773,0.16738660907127723,0.4534582406595757,-0.8061863117594447,0.8828589448610109,-4.068874490040765,2.214062874969985,-0.47780177585792766,-0.014998800095983894,0.030117590592752496,0.052555795536356795,15.858406751195716,-1.5950981882181068,-4.68222309322871,-10.121803367595277,-3.8621280326379495,5.766649698037807,-3.0236630804285096,4.276195272568405,-7.128471687399308,0.013718999999999926,0.15131999999999998,-0.767604,0.14578499999999994,-0.10929,-0.832442,0.13206600000000002,0.26061,0.06483800000000006,0.0,0.8959948597438665,single,-0.767604
117,0.975,jog,-1.349453978159146,0.7831513260530494,0.21660866434658263,0.7140907271182438,-0.9460028095134558,0.934578095666247,-4.094083763350563,2.1857674306972488,-0.536061442457703,0.015000600023992783,0.053882155286212534,0.10848433937357535,-3.259301775648981,0.961638916617327,5.906882908353037,-3.025233806527962,-3.395589136293843,-6.9914396495590925,3.6000720172779253,2.8518618376887384,6.711693728215416,-0.009151999999999938,0.16300800000000001,-0.773876,0.15715499999999993,-0.115367,-0.8333430000000001,0.16630699999999987,0.278375,0.05946700000000005,0.0,0.7965768193813121,single,-0.773876
118,0.983333,jog,-1.413656546261846,0.8636745469818757,0.3006120244809755,0.5519753008315437,-0.3454714099856467,0.38443130120654223,-4.093483739349558,2.148565942637697,-0.49105964238569316,0.002520100804038002,0.08544341773670797,0.08856354254170161,-7.704616356978257,9.663173038380657,10.08080644838504,0.0720057603510278,-4.4643571414318695,5.4004320259222,-1.497719815187175,3.7875029941792033,-2.390591243474578,-0.03148299999999993,0.173715,-0.780473,0.168956,-0.121852,-0.83511,0.20043899999999992,0.295567,0.05463700000000005,0.0,0.7948548643160173,single,-0.780473
119,0.991667,jog,-1.4426445884329342,0.8831293496520329,0.3063354931605522,0.975387842303714,-0.6317115586763847,0.21108266729269123,-4.130069594432469,2.114230861531089,-0.4647228221742289,-0.004319654427636811,0.0256779457643397,0.21514278857691543,-3.478286797586796,2.334389569253337,0.6867613006451542,-4.38995141383632,-4.119880142381552,3.1601656121267605,-0.82070497140327,-7.1712829340495094,15.18829446066889,-0.05387999999999993,0.183975,-0.786899,0.18094300000000008,-0.128998,-0.83587,0.234823,0.312973,0.04897099999999999,0.010290000000000021,0.6388120072835957,single,-0.786899
120,1.0,jog,-1.45373814952597,0.8900756030241173,0.13764550582022,0.10248109243559261,-2.7621620154537343,0.3523973842111053,-4.121564862594495,2.080163206528251,-0.43537741509660277,-0.027121084843400763,0.01164046561862468,0.24780991239649452,-1.3312805823875897,0.8335837480000351,-20.243608225168785,1.0206086449027332,-4.088282131625813,3.5215897129036358,-2.736281101135708,-1.6845650000857988,3.9202116668161473,-0.07611100000000004,0.19389199999999998,-0.791674,0.19283099999999997,-0.136318,-0.8349519999999999,0.268942,0.33021,0.04327799999999993,0.06722000000000006,0.5840646205209421,single,-0.791674
121,1.008333,jog,-1.4492979719188905,0.8658346333853433,0.4256570262810645,0.2430861107936387,-1.3877558125446732,0.2738848810407289,-4.128405136205478,2.048361934477398,-0.38053522140885904,-0.06852274090962227,0.04848193927757174,0.2466098643945782,0.5328426265546056,-2.9090327179616224,34.56276496590029,-0.8208656679447046,-3.816305298314345,6.581326495589132,-4.9683974638451796,4.421153685221096,-0.14401152069078943,-0.09843599999999997,0.20374599999999998,-0.798392,0.2043370000000001,-0.143129,-0.836444,0.30277300000000007,0.346875,0.038051999999999975,0.11947999999999998,0.5658268085116211,single,-0.798392
122,1.016667,jog,-1.5356371490280631,0.9221262299016005,0.5496760259179159,2.046905681857448,0.2709325418906367,0.36698192438955274,-4.057355411567045,1.9924406047516057,-0.32481401487880734,-0.10583153347732693,0.0201583873290137,0.3455723542116605,-10.359872463303569,6.754451225852751,14.88108946926451,8.525284933817211,-6.710022765273807,6.686009902813927,-4.476696972366737,-3.3985543494789803,11.874548814144655,-0.119452,0.212666,-0.80568,0.21625300000000003,-0.150646,-0.8381449999999999,0.33570500000000003,0.36331199999999997,0.032464999999999966,0.17535,0.5,flight,-0.80568
123,1.025,jog,-1.5304212168486897,0.9765990639625673,0.32485299411976953,-1.2142275609190216,-1.795959554115931,-0.03733840831082331,-4.048481939277607,1.9426377055082358,-0.26893075723029247,-0.13788551542062608,0.017520700828032483,0.3627745109804423,0.6259368990007784,6.5370015673787725,-26.979843009498186,1.0648592691033498,-5.976586972683349,6.7062591681885735,-3.8466316984638707,-0.31653504151940987,2.064341385909269,-0.14043499999999998,0.22071599999999997,-0.810628,0.22785699999999998,-0.158638,-0.8378289999999999,0.36829199999999995,0.37935399999999997,0.02720099999999992,0.22799000000000008,0.5,flight,-0.810628
124,1.033333,jog,-1.5613824552981839,1.0045601824072792,0.3163326533061233,-0.9807774785324795,-1.5456178360244617,-0.17704588990409784,-3.9504380175206353,1.9344773790951328,-0.19524780991239182,-0.16800672026880265,0.06240249609984369,0.4262570502820038,-3.715497233828588,3.355468432102645,-1.022481796909405,11.76574124048597,-0.9792783407059634,8.842307370442741,-3.614689169347899,5.386030873852205,7.6182094445650295,-0.160343,0.228465,-0.8148909999999999,0.23946800000000001,-0.166489,-0.8369129999999999,0.399811,0.394954,0.022021999999999986,0.2797799999999999,0.5,flight,-0.8148909999999999
125,1.041667,jog,-1.682505399568064,1.0190784737221217,0.6580273578113929,1.7292451144482512,0.5016789839972661,0.6590587519425143,-3.9230861531078296,1.8912886969042835,-0.15766738660907542,-0.22918166546676308,0.08267338612911067,0.4170866330693624,-14.533590625135894,1.7420555933336666,41.00008453387042,3.2819611726429327,-5.182227284719246,4.509290053193799,-7.340406191260091,2.4323122185346007,-1.1003620365540634,-0.17901600000000006,0.235734,-0.821689,0.25158,-0.174293,-0.838921,0.4305960000000001,0.41002700000000003,0.017232000000000025,0.32768,0.5,flight,-0.821689
126,1.05,jog,-1.6335053402135882,1.0528021120844653,0.4604584183367229,0.18023405498413272,-0.5680002059003948,0.1968778671094706,-3.6427457098283185,1.7761910476418756,-0.05664226569062666,-0.2875315012600531,0.07044281771270777,0.4723388935557342,5.880242332230298,4.046998483420498,-23.709221105804215,33.64219888149601,-13.812270402304792,12.123499450191646,-7.002260385610106,-1.4677269190450837,6.6305364798236965,-0.1957589999999999,0.241762,-0.825998,0.26279600000000003,-0.182479,-0.838822,0.45855499999999993,0.424241,0.012823999999999947,0.3717600000000001,0.5,flight,-0.825998
127,1.058333,jog,-1.7082683307332447,1.027841113644554,0.39961598463939585,-0.4313846758466649,0.5481472319979359,0.11321439733357853,-3.5011400456018635,1.6668666746670036,0.09108364334573582,-0.32533301332053804,0.1250450018000733,0.5246609864394617,-8.971917739068427,-2.9954396303745967,-7.3013840990432755,16.99335944155241,-13.119449534966167,17.727818197091544,-4.536362901774305,6.552524191451582,6.278902302139439,-0.21069899999999997,0.24708700000000003,-0.828569,0.27432,-0.190002,-0.8377800000000001,0.485019,0.437089,0.00921100000000008,0.40788999999999986,0.5,flight,-0.828569
128,1.066667,jog,-1.6744660427165627,1.033117350611944,0.5271178305735478,-0.2349209567008346,-0.8419398611781193,-0.0011340681531502186,-3.216462682985336,1.505639548836082,0.09947204223661989,-0.3588912886968974,-0.0007199424046083459,0.4468442524598004,4.055950085994923,0.633097788263733,15.29899759229073,34.15855082991663,-19.34570744311498,1.0065273447185028,-4.026670911490173,-15.090586057677069,-9.337261096671547,-0.22355000000000003,0.25102500000000005,-0.832133,0.285284,-0.19861800000000002,-0.838449,0.508834,0.449643,0.006315999999999988,0.43684,0.5,flight,-0.832133
129,1.075,jog,-1.708028321132867,1.0710428417136786,0.4963398535941517,0.0961946631657701,-0.4097868537844483,0.18684300016952782,-2.9588383535341696,1.3454938197528024,0.13572542901716111,-0.4180967238689637,0.14748589943597973,0.59498379935198,-4.027634515337169,4.551240981847467,-3.693504977726669,30.916156180387496,-19.21825622024255,4.3505804368824625,-7.104936418104742,17.785412437368226,17.777456725330723,-0.233973,0.25331200000000004,-0.835138,0.296033,-0.206314,-0.837627,0.530006,0.45962600000000003,0.0024889999999999635,0.4751100000000001,0.5,flight,-0.835138
130,1.083333,jog,-1.7362294491779278,1.0781231249249772,0.4297371894875654,-0.08355422560338255,-0.19354662803116077,0.1425210492129863,-2.6181447257889827,1.1904476179046934,0.11508460338413354,-0.45001800072001136,0.1700468018720721,0.6169446777870998,-3.3842707362366737,0.8496679720747013,-7.992639398366154,40.884870724250675,-18.606288473311675,-2.4769981558895013,-3.830706450383669,2.707416588994598,2.635410828647481,-0.24132200000000004,0.25424800000000003,-0.83776,0.306751,-0.213881,-0.836067,0.548073,0.468129,0.0016929999999999445,0.5,0.48307,flight,-0.836067
131,1.091667,jog,-1.7679385649148434,1.1070314374850236,0.35349172066235424,-0.35874120745607774,0.1354499139620742,0.2451354561018839,-2.3135349172066664,1.0163186945044562,0.08747300215982977,-0.5565154787617134,0.21142308615311173,0.6059515238781011,-3.804789505269522,3.468720009604871,-9.148724361076628,36.550253009637885,-20.89379930408454,-3.3131270967487754,-12.778675070998805,4.964756933170196,-1.319072943244408,-0.245869,0.253492,-0.839977,0.316847,-0.22134500000000001,-0.833963,0.562716,0.47483699999999995,0.006013999999999964,0.5,0.4398600000000001,flight,-0.833963
132,1.1,jog,-1.790351614064533,1.1267250690027397,0.3333733349333985,-0.4116861741845216,0.14992011498876315,0.15274289450778122,-1.9443177727108738,0.8491539661586347,-0.024240969638786053,-0.5054602184087267,0.27925117004679645,0.5919836793471643,-2.689673484902109,2.363330315338502,-2.414302859589031,44.30782965268044,-20.060569824291203,-13.406212864348237,6.126876317410992,8.139695655068227,-1.6762083920480688,-0.24715199999999998,0.25117900000000004,-0.8429570000000001,0.327554,-0.228407,-0.8318080000000001,0.5747059999999999,0.479586,0.011148999999999964,0.5,0.3885099999999999,flight,-0.8318080000000001
133,1.108333,jog,-1.7899915996640077,1.151206048241939,0.2150486019440683,-0.21373400579861185,0.1550591401552652,0.33835157710096175,-1.559582383295347,0.6561862474499007,-0.13044521780871243,-0.6396255850234136,0.2436097443897783,0.631585263410541,0.04320345620129101,2.937835022104832,-14.199535940157359,46.17009353360498,-23.157052527149375,-12.74501958117453,-16.10048801328311,-4.277142164528797,4.752380182812555,-0.24523199999999995,0.247054,-0.8458359999999999,0.33714,-0.23596999999999999,-0.828337,0.5823719999999999,0.483024,0.01749899999999993,0.5,0.32501000000000013,flight,-0.828337
134,1.116667,jog,-1.7699784017278433,1.1328293736500998,0.15094792416607664,-0.38044517518084864,0.3814313056240356,0.3137762649176455,-1.260859131269491,0.4780417566594621,-0.24718022558195232,-0.6545476361890984,0.25197984161266795,0.5903527717782542,2.4013916410084297,-2.2050245490567657,-7.691466016077655,35.84392272928411,-21.37562884454491,-14.007080366359371,-1.7905028996501893,1.0043313202411304,-4.94750319561873,-0.240989,0.24159699999999998,-0.8491540000000001,0.34643599999999997,-0.243311,-0.824675,0.587425,0.484908,0.02447900000000003,0.5,0.25521,flight,-0.824675
135,1.125,jog,-1.8029521180847443,1.1012840513620634,0.11328453138124968,-0.3867242184895493,-0.5308345906279233,0.015031397566149775,-0.9770790831633334,0.2935317412696539,-0.3434537381495295,-0.8304332173286919,0.33769350774031237,0.7347893915756701,-3.9570042429978822,-3.7855900981683313,-4.5197879256963045,34.05496797145809,-22.142087530278392,-11.553283639454946,-21.107114021312267,10.28605137737252,17.333087699198042,-0.23410699999999995,0.234866,-0.8529599999999999,0.3545400000000001,-0.249674,-0.819496,0.588647,0.48453999999999997,0.03346399999999994,0.5,0.16535999999999995,flight,-0.819496
136,1.133333,jog,-1.7865114604584327,1.12120484819394,0.12168486739469203,0.08126051542120762,-0.42842268674253337,0.2726223984546297,-0.7332293291731742,0.14508580343214048,-0.4663386535461462,-0.9409576383055526,0.38377535101404486,0.7865114604584243,1.9729578334707536,2.3905912434749577,1.008080644838885,29.26314100445955,-17.814225109506157,-14.746779718782886,-13.263461055665626,5.530042394543732,6.206896541792234,-0.22532999999999997,0.226732,-0.85786,0.36158599999999996,-0.255819,-0.8139559999999999,0.586916,0.482551,0.043904000000000054,0.5,0.060960000000000014,flight,-0.8139559999999999
137,1.141667,jog,-1.8166546676265678,1.083033357331406,-0.0026397888168906074,-0.244084896695173,0.19434697317895228,0.26421102991250295,-0.442524598032157,-0.044036477081833864,-0.5189584833213298,-0.9966402687784811,0.46436285097191854,0.8064554835613095,-3.6168955085355043,-4.580212486505141,-14.917765324163868,34.88177719474622,-22.692858233018107,-6.313874463064938,-6.681381146259673,9.669726416831422,2.393091325040193,-0.21387800000000007,0.21733899999999998,-0.862163,0.36841999999999997,-0.260975,-0.807213,0.582298,0.478314,0.054950000000000054,0.5,0.0,flight,-0.807213
138,1.15,jog,-1.7837513500540303,1.0490819632785406,-0.08868354734188659,-0.16016368253705024,-0.35170013193414185,0.5231275367381736,-0.35761430457218407,-0.21084843393736044,-0.6366254650186071,-1.1485659426377155,0.46009840393616214,0.8502340093603832,3.9485560509465745,-4.074330259554254,-10.325664049561595,10.18964280090888,-20.018235552085457,-14.120602627778515,-18.231810135513715,-0.5117541144553511,5.253633241218542,-0.20199399999999995,0.20683999999999997,-0.8667290000000001,0.3737130000000001,-0.265883,-0.799389,0.575707,0.472723,0.06734000000000007,0.5,0.0,flight,-0.799389
139,1.158333,jog,-1.7889115564622275,1.0531621264850384,-0.16176647065882543,0.09934183519227789,-0.051825838489176504,0.4728010024939584,-0.15600624024961005,-0.31513260530420206,-0.5839433577342986,-1.51374054962196,0.5730229209168268,0.9398775951037884,-0.6192495389652183,0.4896391703465333,-8.770301610096912,24.193935476127503,-12.514601148066697,6.322105758347236,-43.82270574633843,13.551484097043408,10.757660595632267,-0.18838699999999997,0.19543800000000003,-0.870247,0.37600600000000006,-0.269884,-0.790209,0.564393,0.465322,0.08003799999999994,0.5,0.0,flight,-0.790209
140,1.166667,jog,-1.7505399568034845,1.0238780897528408,-0.2140628749700074,0.2568551502008111,0.5773134793561702,0.4487451600376956,-0.053875689944802706,-0.3315334773218224,-0.33525317974562646,-1.501199904007714,0.6165106791456788,0.8502519798416266,4.6042236211595595,-3.5138033035994902,-6.2750665120209925,12.254685661724174,-1.9679472063379737,29.84043412391131,1.5047570931421044,5.218113538379266,-10.754213494380075,-0.17424699999999999,0.184142,-0.8712570000000001,0.378084,-0.273279,-0.781339,0.5523309999999999,0.457421,0.08991800000000005,0.5,0.0,flight,-0.781339
141,1.175,jog,-1.7141485659426032,0.9920796831873098,-0.24192967718708538,0.3791196780293436,0.5092466776639768,0.4544628390412268,-0.13452538101523623,-0.13308532341293738,-0.18000720028800854,-1.6840273610944099,0.7197887915516499,0.880355214208554,4.367141588969236,-3.8159614263207073,-3.344150032050582,-9.678350062454351,23.81473105830812,18.630262745423643,-21.940172457301415,12.393869243486051,3.6125326253362395,-0.161084,0.17476599999999998,-0.870741,0.378335,-0.275548,-0.771987,0.539419,0.450314,0.09875400000000001,0.5647115464661908,0.0,single,-0.771987
142,1.183333,jog,-1.6576263050522195,1.00300012000481,-0.31285251410057,0.6887862948801716,0.6904160778839495,0.3512214347322335,-0.2889715588623597,0.005280211208453667,-0.1694467778711168,-1.8640345613824747,0.8505940237609587,0.8336733469338861,6.782942624551088,1.3105048382935691,-8.511080872853148,-18.534282712963506,16.604528335700508,1.2673013820823025,-21.601728103692125,15.697255755347419,-5.6020481548864,-0.149679,0.16645200000000002,-0.8695459999999999,0.376615,-0.276818,-0.7624329999999999,0.526294,0.44327,0.10711300000000001,0.5,0.0,flight,-0.7624329999999999
143,1.191667,jog,-1.639068874490029,0.9737221022318153,-0.36837053035757067,0.9246272074074986,1.0084045869846616,0.36872653680772194,-0.28653707703383524,0.18718502519798344,-0.3374130069594401,-2.146748260139171,0.8972882169426376,0.8405327573794013,2.2267135303804126,-3.51308108627243,-6.661629020518386,0.2921144502669116,21.826831532220826,-20.154335143787137,-33.922930016402006,5.602854953405152,0.8230634083891455,-0.138407,0.159897,-0.869288,0.372384,-0.277455,-0.752358,0.510791,0.437352,0.11692999999999998,0.5,0.0,flight,-0.752358
144,1.2,jog,-1.6251050042001827,0.9446777871114919,-0.4039361574462992,1.1938643072374053,1.3690120009171205,0.1452719343069205,-0.24072962918517055,0.22284891395656,-0.3567742709708425,-2.3632545301812242,1.024840993639755,0.7803912156486341,1.67573146404014,-3.485457232728156,-4.26804597248636,5.497113626384869,4.2798378445430085,-2.3234446191530784,-25.98179167671367,15.306945481473473,-7.217273698640068,-0.126871,0.15388200000000002,-0.868895,0.36623300000000003,-0.276787,-0.742489,0.49310400000000004,0.430669,0.12640600000000002,0.5,0.0,flight,-0.742489
145,1.208333,jog,-1.5801032041281355,0.9278771150845858,-0.46429857194287094,1.3280853522409901,1.2413070696506165,0.02556352050363363,-0.12120484819392695,0.13176527061082066,-0.2494899795991793,-2.504260170406772,1.069482779311154,0.6890675627024957,5.400432025926598,-2.016161289680278,-7.243779490768115,14.343547460847414,-10.930474420465348,12.874629949797354,-16.921353681212707,5.357228569710599,-10.959276724605402,-0.11471400000000004,0.14724800000000002,-0.867105,0.358532,-0.275607,-0.7328779999999999,0.47324600000000006,0.422855,0.1342270000000001,0.5,0.0,flight,-0.7328779999999999
146,1.216667,jog,-1.5703143748500437,0.9252459803215913,-0.48464122870171483,1.6253871149762185,1.6055637398660094,-0.2510623905381771,-0.09503239740820428,-0.039716822654191505,-0.12658987281017764,-2.6293496520278965,1.164146868250562,0.6582673386129224,1.174565548127198,-0.31571091468616874,-2.440923537178339,3.140442858858071,-20.576205095394222,14.746833068035036,-15.009537031572679,11.358781970171552,-3.6957312322502838,-0.10241899999999998,0.139206,-0.8641209999999999,0.34970599999999996,-0.27361599999999997,-0.7233529999999999,0.45212499999999994,0.41282199999999997,0.140768,0.728003377997935,0.0,single,-0.7233529999999999
147,1.225,jog,-1.5581423256929998,0.9254770190807466,-0.5084603384135199,1.762578676460615,1.6661057870554647,-0.5011149479900388,-0.15228609144365748,-0.10200408016320017,-0.10032401296051707,-2.7397095883834894,1.2336493459738174,0.554062162486491,1.460704327018316,0.027725760129041988,-2.858407501716626,-6.870718112978784,-7.474769891876584,3.152029263129738,-13.243722111555384,8.340630952028578,-12.505121340025154,-0.090704,0.13064400000000004,-0.86072,0.33985999999999994,-0.27104799999999996,-0.714499,0.43056399999999995,0.40169200000000005,0.14622100000000005,0.6517472437947923,0.0,single,-0.714499
148,1.233333,jog,-1.4485779431177377,0.8943957758310399,-0.4947797911916507,1.2162052435067772,0.9842189809745566,-0.6346037712035676,-0.11448457938317762,-0.07200288011521067,-0.029161166446658154,-2.809912396495881,1.328693147725921,0.48229929197168264,13.148251839105141,-3.7298983859002783,1.6417313358777514,4.536362901773696,3.600288017279465,8.539883176990228,-8.424673960445507,11.405712438750085,-8.611888937334573,-0.07958700000000002,0.122591,-0.85684,0.328516,-0.267429,-0.706357,0.408103,0.39002,0.15048300000000003,0.7694119396342967,0.0,single,-0.706357
149,1.241667,jog,-1.4618430525557844,0.9006479481641415,-0.48464122870170195,1.3419180053373023,1.3527915348834323,-0.6591026725040621,-0.048476121910248665,-0.045836333093351396,-0.022918166546675698,-2.937245020398349,1.4191264698823987,0.4007679385649129,-1.5916857977017767,0.750200663919073,1.2165301763797323,7.920381266250114,3.139734463865979,0.7491000599930895,-15.278692572890202,10.851130568331776,-9.782979770430662,-0.06780800000000003,0.114703,-0.852992,0.31621999999999995,-0.263108,-0.698978,0.384028,0.377811,0.15401399999999998,0.8824303258020647,0.0,single,-0.698978
150,1.25,jog,-1.4857794311772643,0.9129965198608032,-0.46261850474020016,1.182747585646832,1.3390963761376535,-0.8889076895019853,-0.04968198727948803,-0.02904116164646186,-0.0015600624024960088,-3.067682707308321,1.535221408856368,0.3114124564982611,-2.8724803337909663,1.4818878791145824,2.642832588683786,-0.1447096326940325,2.0155011936745098,2.563075020302398,-15.653148555138953,13.931949954874648,-10.72308677146917,-0.055840999999999974,0.10685300000000003,-0.84915,0.303038,-0.257923,-0.692528,0.35887899999999995,0.36477600000000004,0.15662199999999993,0.9040526370503826,0.0,single,-0.692528
151,1.258333,jog,-1.4492979719188905,0.9049561982479406,-0.4526581063242568,0.8787550574376095,0.674517028794591,-1.0798170689244897,-0.03588143525740987,0.008880355214204208,-0.013680547221889359,-3.1766470658826536,1.5772230889235712,0.19788791551662385,4.3779502290140515,-0.9648771886310674,1.1952956217380852,1.6561324879489123,4.550764053842124,-1.4545163589815744,-13.076246078763198,5.040403224193395,-13.62348985739089,-0.04406299999999996,0.09938599999999997,-0.845492,0.28864400000000007,-0.252321,-0.6871069999999999,0.33270700000000003,0.351707,0.1583850000000001,0.9343093217091462,0.0,single,-0.6871069999999999
152,1.266667,jog,-1.4608831293496398,0.9312455003599662,-0.35049196064314003,0.032117465923836956,0.21855491880219444,-0.8647894518848945,-0.013438924886009136,0.0201583873290137,0.005279577633789541,-3.2866570674345867,1.6737461003119627,0.09875209983201154,-1.3901076830752572,3.1544638963313445,12.258956765192702,2.692885813702971,1.3532555933296626,2.2750329800430475,-13.200144174697906,11.581834819821303,-11.895346254453031,-0.03199999999999997,0.09179299999999996,-0.842527,0.273428,-0.24613300000000002,-0.683363,0.305428,0.337926,0.15916399999999997,0.9586734137970098,0.0,single,-0.683363
153,1.275,jog,-1.4804992199688107,0.9303972158886386,-0.2618504740189652,-0.41001678523083507,-0.17264148447022445,-0.9162335083630765,-0.009960398415936697,0.015000600024006107,0.010080403216128827,-3.3680547221889228,1.72650906036243,0.014400576023042132,-2.354025035301943,-0.10179820848766157,10.637403891056717,0.41743987400365656,-0.6189592349703158,0.5761221147653101,-9.768109294892207,6.331808478395272,-10.122587760586844,-0.019745999999999986,0.08416500000000005,-0.840261,0.25769899999999996,-0.239499,-0.681061,0.27744499999999994,0.323664,0.1592,0.9656067647686615,0.0,single,-0.681061
154,1.283333,jog,-1.4743789751589829,0.9090363614544421,-0.2278891155646167,0.06034128037534414,-0.4139271021714749,-1.2580464075269286,-0.02220088803551992,-0.009360374414979136,-0.015120604824192837,-3.345733829353104,1.8024720988839236,-0.12624504980198956,0.7344587555295525,-2.56340506830626,4.075526035563175,-1.468917511050403,-2.9234338700329796,-3.0242419345159273,2.6786142848695955,9.115929259749457,-16.878150225012508,-0.007644999999999957,0.07651200000000002,-0.838488,0.24210500000000007,-0.23205399999999998,-0.680214,0.24975000000000003,0.308566,0.15827400000000003,0.9525913530799703,0.0,single,-0.680214
155,1.291667,jog,-1.4427645788337182,0.8779697624190254,-0.16258699304055926,-0.03257681567212821,-0.040065208794220576,-1.2618451696918287,-0.011279097672191058,-0.0015598752099814607,0.00503959683225356,-3.4624430045597,1.8820494360451527,-0.2289416846652303,3.7934240851050203,-3.7276936687565807,7.835627852658828,1.3105100027992642,0.935985025797675,2.419030676319508,-14.003980706335287,9.54851657802144,-12.322610374759142,0.004284999999999983,0.06918200000000002,-0.837091,0.22527300000000006,-0.223686,-0.680767,0.22098800000000007,0.292868,0.15632400000000002,0.9792469017573279,0.0,single,-0.680767
156,1.3,jog,-1.4018960758430057,0.849393975759019,-0.14568582743310057,-0.6951126882089081,0.2545682559959735,-1.3544432791166943,-0.009120364814588222,-0.00408016320653227,0.004800192007680028,-3.536781471258795,1.9203168126724737,-0.3434537381495204,4.904416535546841,-3.4292315684634436,2.028221001735077,0.25905830524454554,-0.3024466574523899,-0.02872972813794888,-8.920972842804948,4.592268886033874,-13.741996097958491,0.01589099999999999,0.06206999999999996,-0.8358369999999999,0.20748299999999997,-0.214762,-0.682415,0.19159199999999998,0.27683199999999997,0.15342199999999995,0.9815254958378284,0.0,single,-0.682415
157,1.308333,jog,-1.459618384735407,0.8035521420856884,0.012000480019199556,0.1659771376207102,0.17786033002045623,-1.154503742281861,-0.01560062402496342,-0.009480379215168182,-0.0014400576023038802,-3.5607824312972816,1.986319452778129,-0.48433937357494883,-6.926954145254025,-5.50124009040334,18.92311381882894,-0.7776622117335003,-0.6480518431100398,-0.7488599075943796,-2.8802304138349606,7.920633638024225,-16.906952529152733,0.027924000000000004,0.05529499999999998,-0.8359489999999999,0.18997400000000003,-0.204906,-0.6865509999999999,0.16205000000000003,0.260201,0.14939800000000003,0.9694799325611632,0.0,single,-0.6865509999999999
158,1.316667,jog,-1.3844492440604637,0.855171586273091,-0.1456683465322688,-0.8349730678905022,1.3502140759137164,-1.370984668683897,-0.014158867290617482,-0.006359491240697064,-0.015238780897528335,-3.6809455243580245,1.9823614110870988,-0.5781137508999222,9.019575314967929,6.193837795464629,-18.918745686521138,0.17299696836404221,0.37447659880862666,-1.6557143382798596,-14.41841769387353,-0.4749270087629061,-11.252025116987364,0.03934399999999999,0.04811500000000002,-0.834862,0.17083500000000001,-0.195512,-0.6901550000000001,0.13149100000000002,0.243627,0.14470699999999992,0.9637471420652762,0.0,single,-0.6901550000000001
159,1.325,jog,-1.4413776551062167,0.8070322812912567,0.099003960158403,-0.9581515906951983,0.9224203312130496,-1.0906936622806183,-0.02832113284531575,-0.02316092643705754,0.010320412816513084,-3.794911796471895,1.9444377775111177,-0.7166686667466771,-6.831682592794144,-5.776947675727195,29.36185127693196,-1.6995398481577342,-2.016252873678223,3.067225934722387,-13.676499713653138,-4.551018069840575,-16.627254991810403,0.05111899999999997,0.04119700000000004,-0.835601,0.151223,-0.18603399999999998,-0.696952,0.10010400000000003,0.22723100000000002,0.13864900000000002,0.9366441706670425,0.0,single,-0.696952
160,1.333333,jog,-1.5691827673106689,0.8768750750029857,0.22440897635905502,0.7822468403720719,0.13127551457341446,-0.9352283321833136,-0.03732149285970776,-0.036121444857793165,-0.023400936037441176,-3.803312132485236,2.0476419056761905,-0.7757110284411237,-15.33722695361213,8.381470504227499,15.04920391223447,-1.0800864051832297,-1.5553244234651862,-4.046723731423698,-1.0080806448267092,12.384990779439702,-7.085366818006195,0.06388400000000005,0.033589000000000035,-0.837666,0.132606,-0.176278,-0.7052860000000001,0.06872199999999995,0.20986700000000003,0.13237999999999994,0.9050547465448258,0.0,single,-0.7052860000000001
161,1.341667,jog,-1.4806815454763855,0.7942164626829988,0.17470602351812342,-1.0342490404225544,-0.5483016608305847,-0.7386797085135776,-0.02843772498200711,-0.022318214542839335,0.035397168226542146,-3.876169906407561,2.0897528197744597,-0.8334533237341181,10.619297076348094,-9.918240019197073,-5.963877230733447,1.0659668679746606,1.6562551373835004,7.0552080950305305,-8.742233491999787,5.052905459355648,-6.928521153467177,0.07598699999999997,0.02678400000000003,-0.838827,0.11264199999999996,-0.16548099999999996,-0.7136880000000001,0.03665499999999999,0.192265,0.1251389999999999,0.9156764429087016,0.0,single,-0.7136880000000001
162,1.35,jog,-1.46537861514458,0.8292331693267618,0.1900876035041271,-0.9206788027610054,0.1879506919249269,-0.83650736161619,-0.03600144005759771,-0.04296171846874099,0.02532101284051352,-3.9281171246849134,2.182167286691427,-0.8893555742229534,1.8364250968205031,4.202172884166853,1.8458634328577228,-0.9076821163555101,-2.477319563890711,-1.209187013803966,-6.2339155499041725,11.090179637221345,-6.708538400196132,0.087898,0.019515999999999978,-0.8402,0.09212000000000001,-0.154207,-0.722683,0.0042220000000000035,0.173723,0.11751699999999998,0.8974902900090054,0.0,single,-0.722683
163,1.358333,jog,-1.5251410056402392,0.8197527901116091,0.3538941557662447,-0.44874550917114137,-0.9324936158128984,-1.7317707925332009,-0.008520340813631152,-0.03624144965798293,0.0504020160806433,-4.011400456018282,2.2070082803312356,-0.9043561742469766,-7.171773730428391,-1.137691013458881,19.657572574357268,3.2978638238289704,0.8064645158716102,3.009840782446899,-9.994399535985753,2.981038478316222,-1.80014400864314,0.10053600000000001,0.012383000000000033,-0.8427290000000001,0.07140199999999997,-0.14264699999999997,-0.733168,0.02913400000000005,0.15503,0.10956100000000002,0.895564984242114,0.0,single,-0.733168
164,1.366667,jog,-1.5070794336452988,0.8468922486201049,0.3390928725701912,-1.1676454805853929,0.558258134643877,-0.9459618717250621,-0.03383729301655895,-0.04043676505879879,0.09419246460283118,-4.060715142788544,2.2522198224141876,-0.8912886969042431,2.1672152621718586,3.2564745030592337,-1.7760119025742012,-3.037791241052029,-0.5033975762917966,5.254433467985066,-5.917289029309032,5.4249510538698855,1.5679718433805379,0.11281400000000003,0.0049879999999999924,-0.84477,0.05012,-0.130935,-0.743422,0.06269400000000003,0.135923,0.101348,0.8200901865203277,0.0,single,-0.743422
165,1.375,jog,-1.5603024120964963,0.9099963998560033,0.27985119404776454,-0.9161460656858754,1.2194152138124321,-1.278534507892632,-0.026881075243010203,-0.04824192967718248,0.1299651986079456,-4.11424456978283,2.1978879155166404,-0.9833193327733207,-6.387012894659545,7.572801060350292,-7.109285794123031,0.8347795240068179,-0.9366572204948709,4.292899796605632,-6.42378819084205,-6.520089631290974,-11.044118069012182,0.125592,-0.002996999999999972,-0.8460190000000001,0.028837999999999975,-0.120203,-0.7539480000000001,0.09675400000000003,0.11720600000000003,0.09207100000000001,0.7646466673134404,0.0,single,-0.7539480000000001
166,1.383333,jog,-1.6042241689667756,0.7909516380655315,0.41857674306971887,-0.3266362947627274,0.2897734591641352,-0.8947577687133957,-0.09924396975879392,-0.04164166566663205,0.03672146885875477,-4.205448217928755,2.2874114964598786,-0.9144365774631055,-5.270821657299846,-14.285942852570855,16.64773179190635,-8.683894697682033,0.7920633638006109,-11.18969515770931,-10.944875572533958,10.743259443566425,8.266261287677414,0.138133,-0.009935000000000027,-0.849201,0.007162000000000002,-0.10773300000000002,-0.765056,0.130971,0.097798,0.08414500000000003,0.8104694386405625,0.0,single,-0.765056
167,1.391667,jog,-1.6150707943364406,0.8137748980081544,0.4770818334533176,-0.8542516322773853,0.7628632501327373,-0.8063266709658738,-0.09143268538516668,-0.0373170146388293,0.17866570674345883,-4.258699304055643,2.2654187664986636,-0.901007919366444,-1.3014909250857922,2.7385721073461404,7.020049242092428,0.9372791425038616,0.5189166100075256,17.03194599048512,-6.389619165693283,-2.6389164820272226,1.6113100667940234,0.15083100000000002,-0.017028000000000043,-0.851688,-0.014869999999999994,-0.09563500000000003,-0.7765409999999999,0.16570100000000001,0.07860699999999998,0.07514700000000007,0.6597634388953397,0.0,single,-0.7765409999999999
168,1.4,jog,-1.6463458538341662,0.8625945037801558,0.43009720388816325,-0.8143008075814376,-0.2770389373037338,-0.9401110557320788,-0.07500300012000388,-0.03732149285970875,0.14640585623425056,-4.275171006840312,2.364214568582768,-0.9128765150606111,-3.753157266017744,5.858587036121666,-5.638381083061899,1.9716410974634517,-0.0005374080018547774,-3.8713369145816103,-1.9766834014963348,11.855970488912197,-1.424288454838258,0.16392500000000002,-0.024526999999999965,-0.854052,-0.036776,-0.08312199999999997,-0.787732,0.20070100000000002,0.05859500000000001,0.06632000000000005,0.7188662902344102,0.0,single,-0.787732
169,1.408333,jog,-1.6824672986919187,0.7831513260530323,0.576383055322203,-1.0693573746196454,0.5940916546158842,-0.5662072030604597,-0.035161406456262825,0.11280451218048482,0.41689667586702794,-4.320172806912201,2.2848913956557864,-0.8361934477378935,-4.334746772801134,-9.533562669761444,17.555004372259354,4.781182486948321,18.015841238472454,32.46019676380327,-5.400432025907706,-9.51916151769834,9.202336172172835,0.17765199999999998,-0.030113,-0.855381,-0.058756,-0.070608,-0.799503,0.23640799999999998,0.040495,0.05587799999999998,0.5,0.0,flight,-0.799503
170,1.416667,jog,-1.7011039116870967,0.8340532757379551,0.6268298536117237,-0.3319499331930953,0.7592402779295842,-0.604131969623897,-0.0860331173506097,0.029277657787373543,0.31065514758819895,-4.390088792896652,2.4673626109911675,-0.6627069834413373,-2.2362146622484285,6.107745342563446,6.053131544219061,-6.104116977963504,-10.022420733514863,-12.747963556375211,-8.389247178359948,21.894794256705616,20.81671037875684,0.191112,-0.03682000000000002,-0.858016,-0.08116600000000002,-0.05699599999999999,-0.81025,0.272278,0.02017599999999997,0.047765999999999975,0.5,0.02233999999999997,flight,-0.81025
171,1.425,jog,-1.6961478459138077,0.8378735149405816,0.5918636745469772,-0.42635873182247125,0.029518366596239614,-0.7724787516662173,-0.12276491059642125,0.0632425297011869,0.3094923796951822,-4.60494419776783,2.330973238929516,-0.7107884315372505,0.5947516828619838,0.45844704219686344,-4.196109332142796,-4.407991509157675,4.075947667564235,-0.13953772867115807,-25.783679931738224,-16.367379342571606,-5.77000457169235,0.20422300000000002,-0.04327500000000001,-0.860369,-0.105405,-0.04455399999999998,-0.8211050000000001,0.309628,0.0012789999999999746,0.039263999999999966,0.5,0.10736000000000007,flight,-0.8211050000000001
172,1.433333,jog,-1.6985479419176923,0.8114724588983622,0.6233049321972841,-0.7623956070518554,0.04703686477753643,-0.8057317103719829,-0.16440657626305658,0.08988359534381453,0.31273250930037455,-4.514220568822794,2.4958598343933964,-0.6651866074643037,-0.28802304138780743,-3.1682534552045687,3.7731018421105493,-4.997199767987004,3.197055759345718,0.38883110586732345,10.887270964243008,19.787182942983563,5.472437786265114,0.21700699999999998,-0.049288,-0.862957,-0.128868,-0.03051799999999999,-0.831842,0.345875,0.01877000000000001,0.031115000000000004,0.5,0.18884999999999996,flight,-0.831842
173,1.441667,jog,-1.7679385649147947,0.8180945524357978,0.695344372450198,0.7792842505605475,0.864097465471341,-0.6015899168903374,-0.16162706983441047,0.11471082313414988,0.3986081113510887,-4.475521958243307,2.3396928245740147,-0.538756899448041,-8.32620866295919,0.7945876574796665,8.644041307045034,0.3335140903103053,2.9790290125192174,10.304247906253119,4.643461792595061,-18.738542094958063,15.170351333844707,0.230394,-0.05514999999999998,-0.8654299999999999,-0.15143299999999998,-0.017836999999999992,-0.842127,0.38182699999999997,0.037312999999999985,0.023302999999999963,0.5,0.26697000000000004,flight,-0.842127
174,1.45,jog,-1.7625105004200319,0.8529941197647988,0.6518660746429907,0.4795965454316929,0.15091132536475282,-0.8463436506560249,-0.23316932677306976,0.12180487219488749,0.3284531381255284,-4.50438017520705,2.330013200528041,-0.3858154326173077,0.6513937951233532,4.188115604104324,-5.217604441042559,-8.585414249209162,0.851319940086125,-8.41893354440909,-3.4631245606316727,-1.1616013495708468,18.353710168094878,0.24313800000000002,-0.06124299999999999,-0.8681249999999999,-0.17428100000000002,-0.005529000000000006,-0.8507739999999999,0.41741900000000004,0.055713999999999986,0.017351000000000005,0.5,0.32649000000000006,flight,-0.8507739999999999
175,1.458333,jog,-1.7727109084363073,0.85359414376574,0.551902076083036,-1.1963966717396948,-1.0126587317867948,-0.9481502809374284,-0.23400936037441175,0.19332773310932447,0.4927397095883756,-4.471858874354896,2.317652706108207,-0.18084723388935176,-1.2240979258700637,0.072005760343366,-11.996159673581303,-0.10080806448361686,8.583086633197615,19.715177182628622,3.902712210746827,-1.4833186631265924,24.597167734063646,0.25596,-0.066745,-0.868618,-0.196773,0.0066709999999999825,-0.85688,0.45273300000000005,0.07341599999999998,0.011738000000000026,0.5,0.38262,flight,-0.85688
176,1.466667,jog,-1.7829373650108327,0.8522918166546802,0.5809935205183712,-0.4896340210605193,-1.4848906734939407,-0.7382957176361042,-0.2556995440364812,0.20398368130549696,0.506599472042245,-4.389248860091277,2.2296616270698753,-0.009599232061436543,-1.2270766228132424,-0.15626675198702242,3.4906940767141506,-2.602613830341957,1.2786114946211538,1.6630384513882466,9.91240871893701,-10.558084837812967,20.548116370040614,0.26868800000000004,-0.07214799999999999,-0.869238,-0.21849400000000002,0.01815,-0.861802,0.487182,0.09029799999999999,0.007435999999999998,0.5,0.42564,flight,-0.861802
177,1.475,jog,-1.773190927637074,0.8358334333373187,0.600504020160797,-1.1901011102612022,-0.037860558148275054,-0.5521459280134242,-0.3397335893435712,0.2935317412696461,0.6479059162366383,-4.20472818912749,2.1492859714388244,0.13560542421696703,1.1696192696217935,-1.9750850014834038,2.341353611235504,-10.084488816403276,10.746197043579452,16.957451601390957,22.143366250304037,-9.645464494305708,17.425255763638667,0.280633,-0.07666699999999999,-0.868843,-0.238756,0.029095000000000037,-0.865676,0.519389,0.10576200000000002,0.003167000000000031,0.5,0.46832999999999997,flight,-0.865676
178,1.483333,jog,-1.8285131405256378,0.8021120844833894,0.7104284171366964,-0.00924837544938578,-0.1765468093349752,-0.33602903178358656,-0.4042961718468789,0.21216848673947053,0.5858634345373865,-3.986799471978916,2.0376815072603085,0.30085203408136546,-6.638931103871867,-4.04672373142081,13.19145529531986,-7.7478198131895235,-9.763981102865271,-7.445395619735067,26.152492157515418,-13.393071424279,19.83038639918396,0.292501,-0.08158300000000002,-0.869881,-0.256741,0.03939100000000001,-0.869089,0.549242,0.12097400000000003,0.0007920000000000149,0.5,0.49207999999999996,flight,-0.869089
179,1.491667,jog,-1.8744900407967218,0.8792896568274472,0.5601151907847336,-0.6120994174651913,-1.576880704733237,-0.3913675002726206,-0.47984161267097963,0.24262059035277278,0.5730741540676705,-3.791336693064528,1.973002159827197,0.5146388288936847,-5.516786689594861,9.260567835859991,-18.03614427069374,-9.064727720674368,3.6539601167868994,-1.5345908890947877,23.453657177152223,-7.760900819907733,25.652363188423042,0.304124,-0.086889,-0.869773,-0.272716,0.048505999999999994,-0.869468,0.57684,0.135395,0.0003049999999999997,0.5,0.49695,flight,-0.869468
180,1.5,jog,-1.8649945997840083,0.914076563062529,0.6404656186247418,-1.0045898778465434,-0.6507019233843111,-0.10968821332310075,-0.5897035881435346,0.28633145325813286,0.6111844473779008,-3.459378375135036,1.7695907836313658,0.5072602904116221,1.139498501465688,4.174595732039141,9.642437038282607,-13.18396441528333,5.245513369178025,4.573418133953036,39.83659161520399,-24.410341557162248,-0.8854600362489703,0.314751,-0.09211999999999998,-0.8700169999999999,-0.286002,0.055635000000000046,-0.870578,0.600753,0.14775500000000003,0.0005610000000000337,0.4943900000000001,0.5,flight,-0.8700169999999999
181,1.508333,jog,-1.8942757710308586,0.8444737789511676,0.4227769110764534,0.1590476296012879,-1.4452701346789145,-0.14206460891295167,-0.6656666266650689,0.2545301812072487,0.5079803192127732,-3.1926077043082035,1.6099843993759877,0.3867754710188431,-3.513881104866271,-8.352668200091454,-26.12368985338899,-9.115929259754589,-3.8163052983180688,-12.384990779446602,32.01376104966218,-19.153532251935623,-14.458756677400714,0.32498900000000003,-0.09703600000000001,-0.869307,-0.296821,0.062014000000000014,-0.870878,0.62181,0.15905000000000002,0.001570999999999989,0.48429,0.5,flight,-0.869307
182,1.516667,jog,-1.873050155987507,0.8584113270938252,0.42860571154307564,0.34840901740606534,0.1413877873066286,0.03891903274090499,-0.7640988720902251,0.3274538036956996,0.6731461483081307,-2.859491240700721,1.4218862491000643,0.3999280057595365,2.5468700555977284,1.6723719873599074,0.6994001039863474,-11.810924577052486,8.750134687839015,19.818314026320643,39.97077797065995,-22.569972435315805,1.5781779146500292,0.33423100000000006,-0.10146100000000002,-0.8672690000000001,-0.30504200000000004,0.06671000000000005,-0.871117,0.639273,0.16817100000000007,0.0038479999999999626,0.46151999999999993,0.5,flight,-0.8672690000000001
183,1.525,jog,-1.8673946957878484,0.8928357134285456,0.401296051842079,-0.6669514149062743,-0.32278481216130195,0.21844808595177442,-0.8271930877235211,0.3782551302052169,0.7381495259810464,-2.537261490459638,1.3066122644905793,0.3272530901236088,0.6786823712538845,4.131091603830645,-3.2772902557298553,-7.571608740345201,6.096403037263622,7.800717349443939,38.66911679360207,-13.833431490397944,-8.7213387298606,0.342899,-0.10574899999999998,-0.8644620000000001,-0.31062399999999996,0.07015799999999994,-0.871734,0.653523,0.17590699999999992,0.007271999999999945,0.42728,0.5,flight,-0.8644620000000001
184,1.533333,jog,-1.8552742109684057,0.8873154926196907,0.32365294611783296,-0.26585614101118155,0.913213006325992,0.40847016446358003,-0.8985959438377371,0.3180127205088131,0.7868714748589798,-2.2413296531860882,1.1976479059162277,0.23220928837152988,1.4545163589874608,-0.6624529951823894,-9.317545388724911,-8.56868548112502,-7.22937833870188,5.846867740061502,35.51324100246542,-13.076246078765115,-11.405712438746823,0.350871,-0.11049300000000001,-0.860602,-0.313841,0.07274400000000003,-0.872496,0.664712,0.18323700000000004,0.011894000000000071,0.38105999999999995,0.5,flight,-0.860602
185,1.541667,jog,-1.840172786177141,0.8794096472282421,0.23146148308135292,-0.30445505736402595,0.04937334700867513,0.49859934738393397,-0.9642428605711711,0.3782097432205481,0.8660907127429973,-1.9370050395968712,1.0340772738181025,0.05135589152867842,1.8120260128707615,-0.9486255569292912,-11.062090597130045,-7.876999848024392,7.223064880217926,9.505548102234105,36.51603234811889,-19.626905699319448,-21.700671567417192,0.358171,-0.11467000000000005,-0.855313,-0.314648,0.0740329999999999,-0.8739969999999999,0.6728190000000001,0.18870299999999995,0.018683999999999923,0.31315999999999994,0.5,flight,-0.855313
186,1.55,jog,-1.8930757230288877,0.8759150366014421,0.013200528021127153,1.0410479247957511,-2.13600270577898,0.24423208930392318,-1.067082683307315,0.46993879755189755,0.9137165486619316,-1.6903876155045892,0.9905196207848254,-0.08244329773190702,-6.348606366464143,-0.41937005001799454,-26.192362301718703,-12.34127237923222,11.007926836835212,5.715328923428956,29.59527470206141,-5.227127449091134,-16.056544973068892,0.365054,-0.11805299999999996,-0.847809,-0.312959,0.07498800000000005,-0.8747940000000001,0.678013,0.19304100000000002,0.026985000000000037,0.2301499999999999,0.5,flight,-0.847809
187,1.558333,jog,-1.8486739469578954,0.8642745709828522,-0.0790831633265296,1.8870919917286775,-0.6557707363773579,0.5315674108740447,-1.1128045121804946,0.5509420376815071,1.0012000480019279,-1.4622584903396272,0.9185167406696279,-0.2366494659786415,5.328426265569744,-1.3969117507008277,-11.07448594115656,-5.48683893833913,9.720777646659098,10.498439858393978,27.376590083399023,-8.640691241473439,-18.505480408824663,0.371186,-0.12066400000000005,-0.8388070000000001,-0.309739,0.07543999999999995,-0.8761070000000001,0.680925,0.196104,0.0373,0.127,0.5,flight,-0.8388070000000001
188,1.566667,jog,-1.7750179985601018,0.8309335253179633,-0.008759299256071539,0.22989574359553816,1.064581954948662,0.6249195840572203,-1.2882169426445813,0.6827453803695687,0.9799616030717477,-1.2175425965922655,0.838612910967119,-0.35997120230381324,8.838006767193797,-4.000605431352134,8.438188633364234,-21.04780783106376,15.815135911694336,-2.5484095188600864,29.363558165029975,-9.58769254889708,-14.797424565055291,0.375243,-0.12189899999999998,-0.8305669999999999,-0.305093,0.07550400000000002,-0.879034,0.680336,0.197403,0.04846700000000004,0.0153299999999999,0.5,flight,-0.8305669999999999
189,1.575,jog,-1.808112324492996,0.8431537261490509,-0.19824792991719692,1.1410864664131188,-0.031483021994310155,0.5363214120601422,-1.3979359174367094,0.7712708508340423,0.9275171006840341,-1.0192007680307273,0.7477499099964051,-0.5029401176047088,-3.9714779710661814,1.466482759040894,-22.739545261145697,-13.166803647201382,10.623481394992739,-6.293592030206896,23.801971506245046,-10.903996276336818,-17.156956114352198,0.378661,-0.12249799999999994,-0.821186,-0.298519,0.07470900000000003,-0.8815729999999999,0.67718,0.19720699999999997,0.06038699999999997,0.0,0.5,flight,-0.821186
190,1.583333,jog,-1.8016320652825797,0.8425537021480778,-0.30853234129364515,1.6168633232460625,0.3288800309371166,0.5918461459137928,-1.6179047161886184,0.8593543741749488,0.8533541341653524,-0.8197527901115939,0.6703468138725408,-0.6049441977678989,0.77766221173841,-0.07200576034718977,-13.234658751523618,-26.397311742698324,10.570445618733334,-8.899911978720798,23.934714738885155,-9.288743084586939,-12.240979258752944,0.380192,-0.12235800000000002,-0.811504,-0.290337,0.07327399999999995,-0.8840429999999999,0.670529,0.19563199999999997,0.07253899999999991,0.0,0.5,flight,-0.811504
191,1.591667,jog,-1.7703383729302014,0.8516918646508367,-0.36801055915526626,1.0757833270245178,0.7707855451776101,0.6014851691950557,-1.713582913366965,0.9818814494840594,0.833213342932582,-0.5881929445644482,0.5902327813775018,-0.6993040556755592,3.7549426868705216,1.0964917809886092,-7.136815198178814,-11.480465224183886,14.702072871263859,-2.416701611803557,27.784958668964496,-9.612914866215567,-11.322277166746115,0.38066500000000003,-0.12127299999999996,-0.801493,-0.280485,0.07109500000000002,-0.886804,0.66115,0.19236799999999998,0.08531100000000003,0.0,0.5,flight,-0.801493
192,1.6,jog,-1.779911196447825,0.8381135245409658,-0.44917796711868313,0.6807237085231536,0.6947091245474922,0.612405357363517,-1.8660746429856845,1.0631225249009781,0.7314292571702727,-0.38785551422055686,0.5102604104164118,-0.8210728429137023,-1.1487847735057477,-1.6294659918241539,-9.740478574752844,-18.29973954382776,9.749319022790987,-12.214578874631881,24.04145329939851,-9.597068398066554,-14.612838982136202,0.37994700000000003,-0.11939799999999995,-0.791655,-0.268885,0.06836300000000006,-0.889903,0.648832,0.187761,0.098248,0.0,0.5,flight,-0.791655
193,1.608333,jog,-1.7955118204728358,0.8370334813392689,-0.5745829833193398,0.4276686043407944,0.7260535287029684,0.5454822740193953,-2.0686427457098477,1.1872074882995411,0.5959438377535153,-0.2613704548181967,0.47041881675267855,-0.8586343453738239,-1.872149768992077,-0.1296103686183687,-15.049203912235424,-24.30914469268752,14.890791239477275,-16.25890068603848,15.178814280854592,-4.781182486947511,-4.507560597638536,0.377671,-0.11648000000000003,-0.781901,-0.256101,0.06530800000000003,-0.89227,0.633772,0.18178800000000006,0.11036900000000005,0.0,0.5,flight,-0.781901
