frame_id,timestamp,gait_type,root_linear_velocity_x,root_linear_velocity_y,root_linear_velocity_z,root_angular_velocity_x,root_angular_velocity_y,root_angular_velocity_z,left_linear_velocity_x,left_linear_velocity_y,left_linear_velocity_z,right_linear_velocity_x,right_linear_velocity_y,right_linear_velocity_z,root_acceleration_x,root_acceleration_y,root_acceleration_z,left_acceleration_x,left_acceleration_y,left_acceleration_z,right_acceleration_x,right_acceleration_y,right_acceleration_z,left_pos_rel_x,left_pos_rel_y,left_pos_rel_z,right_pos_rel_x,right_pos_rel_y,right_pos_rel_z,step_length,step_width,step_height,left_contact_prob,right_contact_prob,support_type,max_foot_height
<<<<<<< HEAD
<<<<<<< HEAD
1,0.008333,jog,0.05928237129485112,-0.19740789631584021,-0.052562102484091974,-0.22841580115579213,-0.044793709442064976,-0.3336880674852999,-0.001680067202683126,-0.00012000480019545849,0.0151206048241931,-0.017520700828030658,0.006240249609977317,0.004440177607104561,0.0,0.0,0.0,0.0,0.0,0.0,0.0,0.0,0.0,-0.06455699999999998,-0.07840500000000006,-0.907616,-0.029518999999999962,0.16875899999999988,-0.9053680000000001,0.035038000000000014,0.24716399999999994,0.0022479999999999167,0.9746431185536126,0.9456508730951965,double,-0.9053680000000001
2,0.016667,jog,0.06899448044156373,-0.20062395008400738,-0.04883609311255654,-0.16618054963790269,0.26854489376171004,-0.34898269755797023,-0.004439644828421497,0.0035997120230350957,0.014278857691384813,-0.019318454523647437,0.008039356851456592,0.0022798176145906145,1.165359868816007,-0.3858955805336171,0.4470853577556319,-0.33112282526258346,0.4463303123626774,-0.10100157581092958,-0.21571318641909987,0.21587559892959862,-0.25922246130476917,-0.06516900000000003,-0.07670299999999997,-0.90709,-0.030255000000000032,0.17049800000000004,-0.904942,0.034914,0.247201,0.0021479999999999277,0.9743661383982625,0.9434394770673125,double,-0.904942
=======
1,0.008333,stand,0.05928237129485112,-0.19740789631584021,-0.052562102484091974,-0.22841580115579213,-0.044793709442064976,-0.3336880674852999,-0.001680067202683126,-0.00012000480019545849,0.0151206048241931,-0.017520700828030658,0.006240249609977317,0.004440177607104561,0.0,0.0,0.0,0.0,0.0,0.0,0.0,0.0,0.0,-0.06455699999999998,-0.07840500000000006,-0.907616,-0.029518999999999962,0.16875899999999988,-0.9053680000000001,0.035038000000000014,0.24716399999999994,0.0022479999999999167,0.9746431185536126,0.9456508730951965,double,-0.9053680000000001
2,0.016667,stand,0.06899448044156373,-0.20062395008400738,-0.04883609311255654,-0.16618054963790269,0.26854489376171004,-0.34898269755797023,-0.004439644828421497,0.0035997120230350957,0.014278857691384813,-0.019318454523647437,0.008039356851456592,0.0022798176145906145,1.165359868816007,-0.3858955805336171,0.4470853577556319,-0.33112282526258346,0.4463303123626774,-0.10100157581092958,-0.21571318641909987,0.21587559892959862,-0.25922246130476917,-0.06516900000000003,-0.07670299999999997,-0.90709,-0.030255000000000032,0.17049800000000004,-0.904942,0.034914,0.247201,0.0021479999999999277,0.9743661383982625,0.9434394770673125,double,-0.904942
>>>>>>> 3b0d06690e55fb02323d988053aa126fb7c3a6e7
=======
1,0.008333,stand,0.05928237129485112,-0.19740789631584021,-0.052562102484091974,-0.22841580115579213,-0.044793709442064976,-0.3336880674852999,-0.001680067202683126,-0.00012000480019545849,0.0151206048241931,-0.017520700828030658,0.006240249609977317,0.004440177607104561,0.0,0.0,0.0,0.0,0.0,0.0,0.0,0.0,0.0,-0.06455699999999998,-0.07840500000000006,-0.907616,-0.029518999999999962,0.16875899999999988,-0.9053680000000001,0.035038000000000014,0.24716399999999994,0.0022479999999999167,0.9746431185536126,0.9456508730951965,double,-0.9053680000000001
2,0.016667,stand,0.06899448044156373,-0.20062395008400738,-0.04883609311255654,-0.16618054963790269,0.26854489376171004,-0.34898269755797023,-0.004439644828421497,0.0035997120230350957,0.014278857691384813,-0.019318454523647437,0.008039356851456592,0.0022798176145906145,1.165359868816007,-0.3858955805336171,0.4470853577556319,-0.33112282526258346,0.4463303123626774,-0.10100157581092958,-0.21571318641909987,0.21587559892959862,-0.25922246130476917,-0.06516900000000003,-0.07670299999999997,-0.90709,-0.030255000000000032,0.17049800000000004,-0.904942,0.034914,0.247201,0.0021479999999999277,0.9743661383982625,0.9434394770673125,double,-0.904942
>>>>>>> 3b0d06690e55fb02323d988053aa126fb7c3a6e7
3,0.025,jog,0.06600264010559695,-0.20592823712946462,-0.03852154086163635,-0.17498063085750973,0.04585011671880627,-0.339313192302984,-0.000840033601341563,0.0164406576263115,0.029281171246850014,-0.022800912036484277,0.009480379215161434,0.008760350414016994,-0.35903520172408226,-0.6365399070511508,1.2377957819416998,0.43197062607463504,1.5409751113976244,1.8003496406414499,-0.41791161800514104,0.17292960082861422,0.7776950437329149,-0.06572599999999995,-0.07485000000000008,-0.9065249999999999,-0.030994999999999995,0.1722929999999998,-0.9045479999999999,0.034730999999999956,0.2471429999999999,0.0019770000000000065,0.9440141915495956,0.9365613321344339,double,-0.9045479999999999
4,0.033333,jog,0.05700228009120403,-0.19728789151568474,-0.03120124804991323,-0.03056119210040286,0.08275272079657955,-0.33227550733098354,-0.0015600624025009907,0.02148085923436088,0.02844113764550512,-0.025801032041277476,0.008400336013442276,0.0036001440057596675,-1.0800864051833572,1.0368829489715448,0.8784702762178234,-0.08640691241562795,0.6048483869014015,-0.10080806448396669,-0.360028801727253,-0.1296103686210438,-0.6192495389724381,-0.066214,-0.07302699999999995,-0.9060280000000001,-0.03168499999999996,0.17400700000000002,-0.904258,0.03452900000000003,0.24703399999999998,0.0017700000000000493,0.9405404101109957,0.9366801962960294,double,-0.904258
5,0.041667,jog,0.057475401967843426,-0.20866330693543733,-0.03347732181425836,0.05263801156095169,0.06478716484430827,-0.2854481219631953,-0.0045596352291795645,0.016198704103684573,0.03419726421886255,-0.02039836813054997,0.004919606431507052,0.0027597792176628486,0.056770083590039946,-1.3649406551179015,-0.27310700316116254,-0.35991994560578033,-0.6338079110482728,0.690679934408139,0.6482678078626716,-0.4176541375012267,-0.10083570771500104,-0.06673099999999998,-0.07115299999999991,-0.905464,-0.032333999999999974,0.17578700000000014,-0.903956,0.03439700000000001,0.24694000000000005,0.0015080000000000648,0.9364774500206466,0.9496467676574634,double,-0.903956
6,0.05,jog,0.06840273610945283,-0.20928837153485752,-0.048241929677188704,0.021479070349309584,0.1179759053848681,-0.3052000162140588,-0.00708028321131888,0.015000600023992646,0.03912156486259449,-0.01860074402976314,0.001200048001901292,0.0015600624024959945,1.31133255029514,-0.07501075236051706,-1.7718238165043014,-0.30248985745101586,-0.14377824069265893,0.5909397148364265,0.21572352103526118,-0.4463648661473371,-0.14397177669109013,-0.06735999999999998,-0.06928400000000001,-0.904736,-0.03305900000000006,0.17754099999999995,-0.903541,0.034300999999999915,0.24682499999999996,0.001194999999999946,0.929178525527397,0.9568756877306849,double,-0.903541
7,0.058333,jog,0.06372254890194985,-0.2356894275771123,-0.0512420496819819,0.15715130277205336,0.16552177019732936,-0.2853356515857261,-0.01044041761671178,0.020760830433214774,0.04368174726989118,-0.014640585623419593,0.0,-0.0009600384015361888,-0.5616449306975849,-3.168253455208783,-0.36002880172725255,-0.4032322579374655,0.6912552993186282,0.5472437786267473,0.4752380182819568,-0.1440115206889826,-0.30242419345160004,-0.06797799999999998,-0.06714699999999996,-0.903945,-0.033711999999999964,0.17950500000000003,-0.9031220000000001,0.03426600000000002,0.24665199999999998,0.0008229999999999071,0.9175360441560023,0.967316619119849,double,-0.9031220000000001
8,0.066667,jog,0.07007439404847958,-0.22030237580992904,-0.056995440364771194,0.08690744311780037,0.02764837363239616,-0.25243474042043573,-0.00983921286297414,0.020998320134393594,0.041876649868010804,-0.014638828893696483,-0.005519558435324033,-0.0004799616030714016,0.7621604447479874,1.8462985081813381,-0.690351653802411,0.07213879934456914,0.028496484422704617,-0.2165943606767908,0.00021079070351696537,-0.6622940287165865,0.05760460744717868,-0.06864400000000004,-0.06513599999999997,-0.9031210000000001,-0.03441800000000006,0.18129499999999998,-0.9026510000000001,0.03422599999999998,0.24643099999999996,0.00046999999999997044,0.920219165445485,0.969213008784693,double,-0.9026510000000001
9,0.075,jog,0.07644305772230879,-0.21744869794790908,-0.029881195247816506,0.21394007848091692,0.15405555836281673,-0.2905165829404617,-0.009840393615734494,0.02796111844474246,0.03852154086163388,-0.01164046561861308,-0.011640465618626404,0.0002400096003842556,0.7642702116679727,0.34245504164406054,3.25383956761727,-0.00014169599908244119,0.8355692200106651,-0.4026291859326683,0.3598179857294378,-0.7345382435260263,0.08640000041469552,-0.06936299999999995,-0.06309100000000001,-0.902551,-0.03515199999999996,0.1830099999999999,-0.9024,0.03421099999999999,0.2461009999999999,0.00015100000000001224,0.9189895994066188,0.9710502435503998,double,-0.9024
10,0.083333,jog,0.10080403216128059,-0.2497299891995677,-0.03540141605663434,0.2191321719181174,-0.08741962145416539,-0.13429457686755836,-0.012960518420736457,0.0355214208568298,0.040321612864514904,-0.010560422416907229,-0.015600624024956603,-0.0008400336013440605,2.923433870031414,-3.873909906595296,-0.6624529951779468,-0.37442995379838717,0.907272580353694,0.21601728103696388,0.12961036861944678,-0.47523801828035467,-0.1296103686221427,-0.0703109999999999,-0.060714000000000046,-0.90192,-0.03608,0.18496099999999993,-0.902112,0.0342309999999999,0.24567499999999998,0.00019199999999996997,0.9059511825543216,0.9685707298471385,double,-0.90192
11,0.091667,jog,0.11375089992801303,-0.23026157907367475,-0.01691864650828628,0.2523434528047033,-0.005678375062361039,-0.2738106000543426,-0.02639788816895958,0.05243580513559167,0.03431725461963064,-0.008159347252214667,-0.019798416126706363,0.0005999520038394606,1.5534998520197325,2.3360223333204906,2.2177549254077364,-1.6123553813562674,2.029563748351558,-0.7204653521579399,0.2881059712854049,-0.5036947566294412,0.17278444986603336,-0.07147900000000007,-0.05835800000000002,-0.901493,-0.03709600000000002,0.18671499999999996,-0.901966,0.03438300000000005,0.24507299999999999,0.0004730000000000567,0.8819362239637666,0.9642962742717793,double,-0.901493
12,0.1,jog,0.10212408496339066,-0.24936997479899467,-0.03888155526220937,0.22268365119697264,0.17005995182591543,-0.24466435110656728,-0.009840393615734478,0.0304812192487671,0.031201248049921533,-0.004920196807867239,-0.027601104044156038,-0.007560302412096544,-1.3952736066989508,-2.2930992110068282,-2.6356544766498344,1.9869788255400322,-2.634655692646652,-0.37393574579492395,0.3887136018657656,-0.9363600044941399,-0.9792697007003478,-0.07241199999999992,-0.05602600000000002,-0.900909,-0.03798799999999991,0.18856300000000004,-0.901705,0.03442400000000001,0.24458900000000006,0.0007960000000000189,0.9175145391516593,0.951603849623744,double,-0.900909
13,0.108333,jog,0.12492499699988846,-0.24924996999881294,-0.04260170406816206,0.18387554031229336,-0.040469221222129245,-0.1539064614504438,-0.02964118564742559,0.03420136805471978,0.012960518420737312,-0.00816032641306469,-0.0248409936397538,-0.000720028801151934,2.7362188931354634,0.014401152067890725,-0.44643571414288924,-2.376190091406592,0.4464357141428876,-2.1889751145066887,-0.38883110586792924,0.33122649758817224,0.8208656679400714,-0.07369999999999999,-0.053663999999999934,-0.900446,-0.03909700000000005,0.19043300000000007,-0.901356,0.03460299999999994,0.244097,0.0009100000000000774,0.9124371903182819,0.9564051374824543,double,-0.900446
14,0.116667,jog,0.16810655147588005,-0.2347012239020692,-0.016318694504442628,0.24519524569059312,0.20847155202716902,-0.3559088629699136,-0.006719462443011273,0.06587473002160081,0.012359011279097531,-0.017158627309815707,-0.010439164866804433,0.03383729301655835,5.181372027356797,1.7457098748192599,3.153708850938254,2.7503867535894284,3.800499396074034,-0.07217508299013442,-1.0797097308316543,1.7280812062574218,4.14654689437368,-0.07515700000000003,-0.051159000000000066,-0.900207,-0.04064100000000004,0.19230199999999997,-0.900938,0.03451599999999999,0.24346100000000004,0.0007310000000000372,0.8804232493228406,0.9344180526838134,double,-0.900207
15,0.125,jog,0.14916596663866497,-0.25429017160686235,-0.028801152046084025,0.2758097582830274,-0.09080033678784505,-0.1835238460197513,-0.016920676827066702,0.02652106084243693,0.012360494419776671,-0.003960158406330225,-0.03492139685587921,0.0013200528021125731,-2.2729610989097684,-2.3507677552853896,-1.4979548231898965,-1.2241946938744075,-4.7226292066679365,0.00017798400085686464,1.5838796236032033,-2.9379853581032993,-3.9022249147300854,-0.07654099999999997,-0.04881900000000006,-0.899864,-0.04191699999999998,0.1941299999999999,-0.900687,0.03462399999999999,0.24294899999999997,0.0008230000000000182,0.9354362279406728,0.9413833226146961,double,-0.899864
16,0.133333,jog,0.1376455058202338,-0.2508100324013135,-0.017640705628226103,0.14018444276872152,0.17038388583949454,-0.09993216897944636,-0.020640825633032624,0.012360494419772489,0.004080163206528174,-0.005520220808831208,-0.0382815312612454,0.0028801152046077313,-1.3825105986356843,0.4176334100022616,1.3393071424286467,-0.446435714144476,-1.6993359441574976,-0.9936794927695296,-0.18721497689919378,-0.40323225793426015,0.18721497689849476,-0.07786000000000004,-0.046625999999999945,-0.899683,-0.04310999999999998,0.1959010000000001,-0.900516,0.03475000000000006,0.24252700000000005,0.0008329999999999727,0.9509994661365262,0.935359035668897,double,-0.899683
17,0.141667,jog,0.1327093832493332,-0.25413966882647554,-0.01967842572593501,0.2333217923717316,0.359112131734331,-0.1058855749180762,-0.02243820494359703,0.010199184065275011,-0.005759539236860996,-0.0015598752099880956,-0.03791696664266663,0.011519078473721992,-0.5922873255220307,-0.3995244090667206,-0.24450685117697524,-0.21566826380662468,-0.25933649562004835,-1.1806698396195339,0.4752034555847279,0.0437442546890773,1.0365926648805235,-0.07915299999999992,-0.0444230000000001,-0.899567,-0.04422899999999996,0.19770299999999996,-0.9002560000000001,0.034923999999999955,0.24212600000000006,0.0006890000000000507,0.950924276739993,0.9339020352697016,double,-0.899567
18,0.15,jog,0.13548541941678216,-0.27721108844354164,-0.052082083283336744,0.11294716239134293,0.40623393075799163,-0.1177154170311928,-0.01980079203169106,0.004200168006721135,-0.006840273610944611,0.0052802112084536145,-0.03792151686067235,0.017760710428417398,0.3331376656004981,-2.7686811012919814,-3.8885944506662318,0.3165022095170968,-0.7199107234554027,-0.12969331262253855,0.8208432039411622,-0.000546048002606101,0.7490257955952718,-0.08044700000000005,-0.04207800000000006,-0.8991899999999999,-0.045313999999999965,0.199697,-0.899674,0.03513300000000008,0.24177500000000007,0.00048400000000003995,0.9595501496368262,0.9296563019812674,double,-0.8991899999999999
19,0.158333,jog,0.14760590423616374,-0.24240969638787124,-0.04272170886834413,0.05155159300964081,0.18046074774053192,-0.06157917295898001,-0.020760830433214757,0.0021600864034516352,-0.014520580823232451,-0.0002400096003909168,-0.00252010080403801,0.049321972878915314,1.4545163589801473,4.176334100044446,1.1232898613935685,-0.1152092165515055,-0.24481958517574676,-0.921673732423837,-0.6624529951811504,4.248339860390533,3.7875029941795137,-0.08184999999999998,-0.040039999999999965,-0.8989550000000001,-0.046545999999999976,0.2016960000000001,-0.898907,0.035304,0.24173600000000006,4.8000000000048004e-05,0.9576218963446956,0.9172085062477898,double,-0.898907
20,0.166667,jog,0.1411087113031035,-0.26901847852170063,-0.05135589152868905,0.03304064464541159,0.3829869336745859,-0.0965754769307342,-0.01991840652747772,0.0013198944084453126,-0.019198464122870202,0.03047756179505354,-0.0586753059755173,0.02363810895128337,-0.7796007839045139,-3.192798432184949,-1.0360190377183722,0.10108278206587894,-0.1008149742028224,-0.5613010918691801,3.6858137023571427,-6.7380855737316105,-3.0818171259457547,-0.08319200000000004,-0.037787000000000126,-0.898687,-0.047468000000000066,0.203449,-0.8982819999999999,0.03572399999999998,0.24123600000000012,0.0004050000000000997,0.9538400707527367,0.8789215905919918,double,-0.8982819999999999
21,0.175,jog,0.1578063122524851,-0.2641305652226239,-0.035041401656061406,0.16631265669860637,0.15822340987373296,-0.11814486099745855,-0.0213608544341788,0.002760110404428936,-0.025561022440898282,0.06060242409697467,-0.04824192967718882,0.051842073682947666,2.0037922656164193,0.5865730588115614,1.9578170973992182,-0.17310067283104308,0.1728328328313485,-0.7635375396649582,3.615128081353799,1.2520552380089411,3.3846111522458138,-0.08468500000000001,-0.0355629999999999,-0.898608,-0.04827799999999993,0.2052480000000001,-0.897558,0.03640700000000008,0.240811,0.0010499999999999954,0.9442906805166587,0.8341550595434954,double,-0.897558
22,0.183333,jog,0.16068642745709563,-0.27037081483260034,-0.07644305772230867,0.032536640319924884,0.09311986344261408,-0.139519096533129,-0.012360494419772489,0.00588023520940426,-0.025441017640705235,0.07164286571462357,-0.02916116644665703,0.05988239529581171,0.3456276496592508,-0.7488599075934752,-4.968397463848221,1.0800864051849637,0.37442995379519034,0.01440115206924842,1.3249059903574807,2.2897831789909726,0.9648771886312301,-0.08612699999999995,-0.033260999999999874,-0.898183,-0.04901999999999995,0.20725800000000016,-0.896422,0.037107,0.24051900000000004,0.0017609999999999015,0.9518507999658636,0.8193547694626073,double,-0.896422
23,0.191667,jog,0.16642668586513387,-0.2634989200863766,-0.08159347252219981,0.007060037612019887,0.09225936277497714,-0.0591253548060074,-0.014398848092153693,0.00455963522917956,-0.023998080153587543,0.10079193664506253,-0.027597792176620138,0.10319174466042702,0.6887759068920368,0.8245614046344771,-0.61800033596006,-0.2445828740558198,-0.1584593208812933,0.17313864736233386,3.4976087029564353,0.18758990521200983,5.196706187258851,-0.08763399999999999,-0.031027000000000027,-0.897703,-0.04956700000000003,0.20922400000000008,-0.894882,0.03806699999999996,0.2402510000000001,0.0028210000000000734,0.9527411104522797,0.7270157911657892,double,-0.894882
24,0.2,jog,0.18444737789511692,-0.25789031561261905,-0.08892355694227662,-0.04887441752798585,0.025006075965141178,-0.026360113997236815,-0.016440657626298164,0.00048001920076851036,-0.028441137645505928,0.08460338413537334,-0.018000720028812478,0.19788791551662105,2.162569546379819,0.6730594592292747,-0.879645316221865,-0.24502694517514323,-0.4895735063495796,-0.5331882265592681,-1.9427040093230739,1.1516947255259393,11.363995062545776,-0.08930799999999994,-0.028874000000000066,-0.897199,-0.05039899999999997,0.21122299999999994,-0.892492,0.03890899999999997,0.240097,0.004707000000000017,0.9452423533450229,0.5929863869922487,double,-0.892492
25,0.208333,jog,0.17700708028321227,-0.2457698307932383,-0.09972398895956176,-0.1596643087215637,-0.020679871121584245,-0.06794215983500691,-0.018120724828994673,-0.006720268810759168,-0.03264130565222634,0.14508580343213953,-0.13824552982119823,0.18060722428897194,-0.8928714282856917,1.4545163589800523,-1.2961036862216695,-0.20161612896874037,-0.8640691241482894,-0.5040403224193472,7.258180642837674,-14.429954373261257,-2.0737658979538165,-0.09093399999999996,-0.026882000000000073,-0.89664,-0.05066499999999996,0.21211899999999995,-0.890156,0.040269,0.23900100000000002,0.006484000000000045,0.9367769048022299,0.48552840284251647,single,-0.890156
26,0.216667,jog,0.19078473722101977,-0.24706023518118922,-0.10775137988960326,-0.11286966249997624,-0.0935613622806703,0.0022973649431848454,-0.01667866570674347,-0.00911927045835912,-0.030957523398128274,0.15622750179984557,-0.17974562035037173,0.20974322054235636,1.6531865776106893,-0.15483613966293677,-0.9632098548165935,0.17303325200998318,-0.28785716913846293,0.20203770747516944,1.3368968523765332,-4.979612494501255,3.49603986721675,-0.09266299999999994,-0.024899000000000004,-0.896,-0.050953000000000026,0.21267999999999998,-0.88751,0.041709999999999914,0.23757899999999998,0.008489999999999998,0.9394537082887155,0.41509999999999997,single,-0.88751
27,0.225,jog,0.20928837153487068,-0.24480979239170048,-0.09660386415457278,0.04428894946888224,-0.2640696111142354,-0.10255598710449124,-0.013680547221895885,-0.012600504020163404,-0.029881195247809793,0.1509660386415566,-0.24384975399016345,0.2464898595943836,2.2205249386596537,0.27006393729614087,1.337755398419593,0.35978860972609916,-0.417764738006034,0.12916454462000243,-0.6314008350280756,-7.692803748924958,4.409773077166352,-0.09452100000000008,-0.022963999999999984,-0.8954439999999999,-0.05143900000000001,0.212688,-0.884651,0.043082000000000065,0.23565199999999997,0.010792999999999942,0.9413386388930687,0.39207,single,-0.884651
28,0.233333,jog,0.2240489619584724,-0.21996879875194672,-0.10416416656666017,-0.3121275976565661,0.04314474546359725,-0.1677368712359203,-0.012600504020163404,-0.01272050882034554,-0.03096123844953811,0.1594863794551677,-0.29221168846753426,0.3036121444857789,1.7713417045003859,2.9810384783095807,-0.9072725803536993,0.12961036862264247,-0.014401152067938999,-0.12961036862214287,1.0224817969052054,-5.803664283855846,6.8549483849028245,-0.09649300000000005,-0.02123699999999995,-0.894834,-0.05197700000000005,0.212086,-0.881253,0.044516,0.23332299999999995,0.013581000000000065,0.9403905690594601,0.36419,single,-0.881253
29,0.241667,jog,0.2607391408687288,-0.282817374610025,-0.10919126469882032,-0.10966361119269043,-0.28117811192605857,-0.28070719549596757,-0.03491720662346183,-0.021118310535165035,-0.010199184065274178,0.17578593712503637,-0.34473242140627675,0.3177345812335018,4.402469271689042,-7.541225804905017,-0.6032035195776534,-2.6777900891886826,-1.0076555933308753,2.491247226333571,1.9557904571476745,-6.301983793945598,1.6945568451791375,-0.09895699999999996,-0.019056000000000073,-0.894009,-0.05268499999999998,0.21157000000000004,-0.877695,0.04627199999999998,0.2306260000000001,0.01631400000000005,0.9298965503733048,0.33686000000000005,single,-0.877695
30,0.25,jog,0.2666506660266477,-0.23244929797192798,-0.09456378255130328,-0.22754905926684618,0.1308184356185825,-0.2663933629468011,-0.012360494419785812,-0.019920796831873196,-0.03048121924877043,0.19416776671066927,-0.39049561982480346,0.33157326293051714,0.7094113954060871,6.044410973010556,1.75536807242494,2.7069137409907595,0.14370739269072816,-2.4339415796827355,2.205907786587409,-5.491803482362496,1.66070823197112,-0.1012820000000001,-0.017284999999999995,-0.893475,-0.05328900000000003,0.21025300000000002,-0.874144,0.04799300000000006,0.22753800000000002,0.019330999999999987,0.9359096840473032,0.30669,single,-0.874144
31,0.258333,jog,0.2439697587903464,-0.26317052682106024,-0.06960278411136762,0.2527885393436999,-0.4104310824856363,-0.23101967845157806,-0.009240369614783863,-0.022080883235324904,-0.03168126725069015,0.24048961958478468,-0.4430577223088969,0.3579743189727597,-2.7218177410658067,-3.686694929693067,2.995439630377501,0.3744299537983867,-0.2592207372436954,-0.144011520691194,5.558844698681811,-6.307704606275478,3.168253455207325,-0.10339200000000004,-0.015276000000000067,-0.893159,-0.053317999999999977,0.20875399999999988,-0.8705809999999999,0.05007400000000006,0.22402999999999995,0.022578000000000098,0.9338215264589693,0.27422,single,-0.8705809999999999
32,0.266667,jog,0.27753779697624276,-0.23014158867291631,-0.09143268538516063,-0.1715972796432088,0.06324489715180066,-0.2674480555599144,-0.0047996160307090165,-0.0221982241420675,-0.030237580993519923,0.28989680825533615,-0.5056395488360854,0.3801295896328295,4.027842354919164,3.9631555253352397,-2.619378602566952,0.5328478022647999,-0.014079782426517229,0.17322849258102044,5.928388369396618,-7.509218445786953,2.658419805623921,-0.10574499999999998,-0.013542999999999972,-0.892649,-0.05321500000000001,0.20645800000000003,-0.8666510000000001,0.052529999999999966,0.220001,0.025997999999999966,0.9369720350108297,0.24002,single,-0.8666510000000001
33,0.275,jog,0.28501140045601897,-0.22032881315251904,-0.06828273130925709,-0.15616891910190783,-0.07089526927188447,-0.4351597869117864,0.02568102724108191,-0.012000480019199396,-0.03180127205088206,0.3559342373694962,-0.5690627625105009,0.41197647905915963,0.8968682923048341,1.1775801656542944,2.778105613332946,3.657823505555118,1.223778245874002,-0.18765043290077185,7.924808486038614,-7.61109008453321,3.821779602343693,-0.10790600000000006,-0.011807000000000012,-0.892345,-0.052624000000000004,0.20355199999999996,-0.862649,0.05528200000000005,0.21535899999999997,0.029696000000000056,0.9289982867009807,0.2030400000000001,single,-0.862649
34,0.283333,jog,0.38653546141846123,-0.2602904116164625,-0.13896555862234433,-0.632280233412398,0.5081728929351459,-0.5704540925223857,-0.0007200288011461063,-0.015000600024006007,-0.022320892835713323,0.47101884075362604,-0.6540261610464381,0.4464178567142698,12.183374650479122,-4.795583639018787,-8.48227856871324,-3.168253455205578,-0.36002880172886326,1.1376910134607898,13.810704834288988,-10.19601566493908,4.133130643838986,-0.11113300000000004,-0.009763000000000077,-0.891373,-0.05192000000000008,0.20027099999999998,-0.8577710000000001,0.05921299999999996,0.21003400000000005,0.03360199999999991,0.9551620603500759,0.16398000000000007,single,-0.8577710000000001
35,0.291667,jog,0.4580033597312162,-0.2637389008879327,-0.053875689944808285,-0.4884039615613722,0.1263075853060411,-0.275149412063097,-0.02999760019198131,-0.02207823374129611,-0.007679385649148248,0.5737940964722893,-0.7556995440364928,0.439164866810656,8.57546176058974,-0.4137856097276495,10.209967443908802,-3.513027524698245,-0.8492481062263135,1.7568403151625944,12.332044122709762,-12.199829972408757,-0.8702891653004357,-0.11519999999999997,-0.007749000000000006,-0.890988,-0.05095499999999997,0.19617099999999987,-0.8536619999999999,0.064245,0.20391999999999988,0.03732600000000008,0.9366167436594033,0.12673999999999996,single,-0.8536619999999999
36,0.3,jog,0.3606144245769882,-0.2805712228489221,-0.06852274090963514,0.2587957285242628,-0.14858879556138294,-0.49320839208986067,-0.006360254410186114,-0.013800552022078066,-0.016680667226689136,0.6606264250570018,-0.8115924636985322,0.3963758550342024,-11.68713970409555,-2.0199594336960787,-1.757716424436205,2.836594957613735,0.9933615407677986,-1.0801969971847967,10.420296242015201,-6.707418656191,-5.134886808646785,-0.11825800000000009,-0.00552599999999992,-0.890556,-0.048455000000000026,0.19174600000000008,-0.849788,0.06980300000000006,0.197272,0.040768000000000026,0.9623926450971534,0.09231999999999996,single,-0.849788
37,0.308333,jog,0.4138965558622237,-0.27649105964238124,-0.04992199687987162,0.055282758140144266,-0.043862913790563264,-0.578917847489696,-0.006360254410172749,-0.013800552022091296,-0.01620064802592135,0.7796711868474676,-0.8953558142325584,0.3288131525260988,6.394111518688976,0.4896391703517159,2.2321785707144417,1.6038853978955064e-12,-1.5877518242259753e-12,0.05760460827646514,14.285942852569946,-10.052004144248869,-8.107848614917,-0.12175999999999998,-0.0033370000000000344,-0.890275,-0.045406999999999975,0.18658900000000012,-0.846632,0.076353,0.18992600000000015,0.04364299999999999,0.962980145389551,0.06357000000000002,single,-0.846632
38,0.316667,jog,0.47600191984642143,-0.40148788096951993,-0.1655867530597619,-0.8517841717042786,0.3282921277146868,-1.1263265733813808,-0.006119510439167692,-0.013318934485237924,-0.013918886489080719,0.884809215262783,-0.9418046556275546,0.32193424526038156,7.452047514302628,-14.998418685761866,-13.878660448751011,0.028886965563361993,0.05778948126390394,0.2737894812623763,12.615554165504678,-5.573415094192036,-0.8254028396588978,-0.12577800000000006,-0.0001020000000000465,-0.889011,-0.04200000000000004,0.18208600000000008,-0.842569,0.08377800000000002,0.18218800000000013,0.04644199999999998,0.9663111531424445,0.03558,single,-0.842569
39,0.325,jog,0.4334573382935238,-0.29953198127925634,-0.06036241449657003,0.21984095485814267,-0.14974272243257428,-0.4495767404182226,-0.008040321612855868,-0.013680547221882515,-0.01500060002400091,0.9992799711988406,-0.9869194767790681,0.2546501860074391,-5.105554008508036,12.235197370726409,12.627425724611955,-0.2305065611050244,-0.04339526420791912,-0.12981081662308733,13.737040193934613,-5.413995097985523,-8.074410086756531,-0.12945699999999993,0.0022800000000000598,-0.888633,-0.03728500000000001,0.17635800000000013,-0.839944,0.09217199999999992,0.17407800000000007,0.04868899999999998,0.9636062373701676,0.01311000000000001,single,-0.839944
40,0.333333,jog,0.45133805352214373,-0.27913116524660325,-0.07332293291732025,0.0516632445379743,0.06747440723181967,-0.44753861573926407,-0.009840393615747834,-0.018720748829958642,-0.015720628825152946,1.099963998559946,-1.0296411856474323,0.23268930757230302,2.145771658300731,2.448195851752447,-1.5553244234669694,-0.21601728103827797,-0.604848386904613,-0.08640691241474117,12.082566585996128,-5.126810136609186,-2.6354108286494826,-0.13329999999999997,0.004449999999999954,-0.888153,-0.03188000000000002,0.17010400000000003,-0.837394,0.10141999999999995,0.16565400000000008,0.050759,0.9560796821908167,0.0,single,-0.837394
41,0.341667,jog,0.47696184305256273,-0.29781617470602134,-0.07871370290376642,0.28620075000937023,-0.06068776127733684,-0.6542223921993623,0.004919606431480405,-0.01703863690904432,-0.0021598272138225543,1.2732181425485993,-1.1330693544516537,0.2598992080633548,3.0746087749482807,-2.2420217733882977,-0.6468406511214494,1.7710583210017068,0.20183728352703653,1.6271660200780391,20.788834171904618,-12.410387425512509,3.2649268647770295,-0.13723400000000008,0.006789999999999963,-0.887515,-0.025244000000000044,0.16314299999999993,-0.8345720000000001,0.11199000000000003,0.15635299999999996,0.05294299999999996,0.9702238663452833,0.0,single,-0.8345720000000001
42,0.35,jog,0.46561862474499033,-0.30745229809193214,-0.08220328813153106,0.1788500536921225,0.02595652295326484,-0.6221376098983202,-0.0020400816032561833,-0.01824072962919013,-0.010560422416897272,1.3306132245289828,-1.0835233409336344,0.1515660626425061,-1.3612406465345528,-1.156381061551761,-0.41876697801087875,-0.835195972007273,-0.14425689669336564,-1.0081117488389222,6.887685345059834,5.945759452540425,-13.000497470400694,-0.141131,0.009199999999999986,-0.886918,-0.018036000000000052,0.15667600000000004,-0.832624,0.12309499999999995,0.14747600000000005,0.05429399999999995,0.9647072295734797,0.0,single,-0.832624
43,0.358333,jog,0.45505820232808003,-0.281891275651017,-0.0752430097203938,0.22791518272662506,0.18807767646490967,-0.44974129310247274,-0.0033601344053795614,-0.01896075843033611,-0.010080403216128691,1.3873754950198003,-1.078363134525369,0.09552382095283832,-1.2673013820845138,3.0674453907254313,0.8352668200092684,-0.15841267276171517,-0.08640691241401385,0.057604608276560484,6.811744928695219,0.619249538973407,-6.725338016280758,-0.14495099999999994,0.011390999999999929,-0.8863749999999999,-0.010266999999999915,0.15003900000000003,-0.831201,0.13468400000000003,0.1386480000000001,0.055173999999999945,0.9637748018763368,0.0,single,-0.831201
44,0.366667,jog,0.4895608351331989,-0.2934965202783846,-0.08219342452603012,0.41167091336983236,0.13449957669881368,-0.634955060261029,-0.002519798416132558,-0.01823854091671824,-0.007439404847612131,1.506479481641465,-1.093712502999757,0.05759539236860978,4.139984737835237,-1.392517953847798,-0.8339830580317155,0.10083225212946997,0.0866591689006324,0.3168944526657737,14.291335087792735,-1.84177687477657,-4.551047346319715,-0.14905200000000007,0.013685000000000058,-0.885752,-0.0017920000000000158,0.1433700000000001,-0.830036,0.14726000000000006,0.12968500000000005,0.05571599999999999,0.9669034030233963,0.0,single,-0.830036
45,0.375,jog,0.48961958478338924,-0.30181207248289216,-0.0945637825513036,0.18206563023852468,0.24063369574862853,-0.4058026424603766,-0.006840273610941304,-0.015120604824201465,-0.012240489619584564,1.5549021960878469,-1.0895235809432475,0.025321012840514027,0.007050240032439125,-0.9979061807881437,-1.4845023431265458,-0.5184777624875503,0.37416729779392577,-0.5761532187654441,5.810958171892706,0.5026907544113114,-3.8730804665901637,-0.15318900000000002,0.01607399999999992,-0.885066,0.007085000000000008,0.13680599999999998,-0.829037,0.16027400000000003,0.12073200000000006,0.056028999999999995,0.9656306168447781,0.0,single,-0.829037
46,0.383333,jog,0.5809432377295087,-0.33241329653186813,-0.23388935557422097,-0.8572972898298521,1.5633402508965455,-0.8272560001970886,-0.004200168006721149,-0.019680787231482345,-0.01044041761670431,1.7206288251530057,-1.1334453378135332,-0.010440417616705142,10.95927672460335,-3.672293777628231,-16.719737552252216,0.3168253455202402,-0.547243778624852,0.2160172810368726,19.887991007459416,-5.2708216573005835,-4.2915433165989745,-0.158065,0.01868000000000003,-0.883204,0.016581999999999986,0.13013099999999989,-0.827175,0.174647,0.11145099999999986,0.056028999999999995,0.9622148942723182,0.0,single,-0.827175
47,0.391667,jog,0.5579553635709189,-0.3038156947444176,-0.11939044876409494,0.21396021146777694,0.35233080331910843,-0.6820008704203425,0.0014398848092167015,-0.014278857691382303,-0.012359011279098364,1.7402207823374165,-1.1313894888408809,-0.03527717782577421,-2.758324233092129,3.431437699478101,13.73876971563786,0.6767521977367223,0.6481796904367695,-0.23021282246148936,2.350846794385738,0.24668214214690626,-2.9801728112633845,-0.16270300000000004,0.02109300000000003,-0.8823120000000001,0.026434999999999986,0.12323399999999995,-0.826474,0.18913800000000003,0.10214099999999993,0.055838000000000054,0.9684341866961774,0.0,single,-0.826474
48,0.4,jog,0.5166206648265913,-0.31249249969999277,-0.08988359534381334,0.2686180197805969,0.169175143018687,-0.6155123861433495,0.006360254410172749,-0.018600744029763062,-0.005880235209408404,1.832953318132719,-1.0542421696867883,-0.0706828273130913,-4.960362263809844,-1.0412582449988144,3.540964048995737,0.5904679708335566,-0.5186471064899486,0.7774842277319012,11.128349429413417,9.258048620435886,-4.248847892393729,-0.16695500000000008,0.023542000000000063,-0.8816120000000001,0.03740399999999999,0.11705299999999996,-0.826314,0.20435900000000007,0.0935109999999999,0.05529800000000007,0.9658021410375812,0.0,single,-0.826314
49,0.408333,jog,0.5183007320292778,-0.29437177487098687,-0.10356414256570987,0.47566033876583313,0.029328089645209103,-0.538930939428796,-0.0014400576022922126,-0.010920436817480316,-0.006720268810752506,1.8997959918396696,-1.02124084963399,-0.08652346093843769,0.2016161289675442,2.1745739624392106,-1.641731335881023,-0.9360748844911774,0.9216737324232287,-0.1008080644838718,8.021441702502209,3.9603168190085687,-1.900952073124495,-0.17128599999999994,0.025903999999999927,-0.880805,0.04891599999999996,0.11099599999999987,-0.826172,0.2202019999999999,0.08509199999999995,0.05463299999999993,0.9784947216381605,0.0,single,-0.826172
50,0.416667,jog,0.562754979601628,-0.32661387089032873,-0.15934725221982177,-0.12502564701928898,0.3327601144752758,-0.5883326037052552,0.004079673626107326,-0.013318934485237835,-0.00611951043916432,1.9509239260859141,-1.0226781857451197,-0.0832733381329493,5.334082982043451,-3.8687420229591827,-6.693437683478743,0.6623147622269658,-0.28779669639519034,0.07208523777156045,6.134861320643684,-0.17246653601268616,0.389983537975567,-0.17594199999999993,0.028514999999999957,-0.879528,0.06048500000000001,0.10519500000000004,-0.825538,0.23642699999999994,0.07668000000000008,0.05398999999999998,0.9746422178977289,0.0,single,-0.825538
51,0.425,jog,0.6428657146285934,-0.36085443417737917,-0.09192367694708345,0.307127484125393,0.050307504130615174,-0.8384493493189108,0.003720148805952637,-0.013800552022078066,-0.0056402256090241866,2.0758430337213585,-1.1465258610344518,-0.1740069602784124,9.61367275014588,-4.1090319557242925,8.09115267883577,-0.043144704206731097,-0.05779641627747889,0.057516480276027224,14.990892551955437,-14.862315527340977,-10.888470196263448,-0.18126799999999998,0.031407000000000074,-0.878809,0.07242599999999999,0.09864800000000007,-0.826222,0.253694,0.067241,0.05258699999999994,0.9743903833072849,0.0,single,-0.826222
52,0.433333,jog,0.5935437417496682,-0.32281291251649574,-0.11232449297971114,-0.09231949074688853,0.19400831419166684,-0.5096041841178071,0.003960158406330205,-0.020760830433214687,-0.008400336013440576,2.0784831393255647,-1.0320412816512547,-0.11964478579143091,-5.9188735004110224,4.565165205914228,-2.448195851749383,0.028802304137473513,-0.8352668200091915,-0.331226497589869,0.3168253455185687,13.738699073946542,6.523721887313243,-0.18618100000000004,0.033924000000000065,-0.877943,0.08479999999999999,0.0927380000000001,-0.826283,0.270981,0.05881400000000003,0.05166000000000004,0.9620943942866469,0.0,single,-0.826283
53,0.441667,jog,0.6269498440124734,-0.33645308375330507,-0.11447084233261529,0.22802427664768388,-0.10825001383496065,-0.5368079602104345,0.012838972882165688,-0.004199664026878744,-0.006839452843772716,2.115430765538773,-1.0280777537797192,-0.12191024718022664,4.008411598608767,-1.6366896132480688,-0.2575413190429751,1.0653725072996802,1.9871809942807819,0.18729099708037789,4.433360476746901,0.4755852977604458,-0.27183361996589167,-0.191299,0.03669300000000009,-0.877046,0.0972050000000001,0.086974,-0.826345,0.2885040000000001,0.05028099999999991,0.050700999999999996,0.9747647447996395,0.0,single,-0.826345
54,0.45,jog,0.6369854794191849,-0.3430937237489419,-0.12336493459738684,0.17509989192425263,0.021322171546835314,-0.6050537807910097,0.005760230409222106,-0.011640465618626345,0.00048001920076767607,2.153006120244799,-1.017760710428408,-0.12312492499699926,1.2043244217822444,-0.7969086758234522,-1.0673337651231873,-0.8494830760762694,-0.89293190828604,0.878371780216052,4.509222933640423,1.2380947259463668,-0.14576716869946166,-0.19655900000000004,0.03945500000000002,-0.876014,0.10983799999999999,0.08135199999999998,-0.8263429999999999,0.30639700000000003,0.04189699999999996,0.04967100000000002,0.9783390319917975,0.003290000000000015,single,-0.8263429999999999
55,0.458333,jog,0.6708268330733227,-0.22728909156367058,-0.21216848673946911,-0.6225864181621293,0.6515934665545258,0.17787359572117956,0.007680307212282868,-0.00540021600864909,0.002400096003840062,2.1844473778951174,-1.0009600384015305,-0.13116524660986434,4.061124883491881,13.897111746702464,-10.656852531151145,0.23041843310461627,0.7488599075935762,0.23041843310601112,3.7731018421119096,2.016161289676907,-0.9648771886313574,-0.20208500000000007,0.04130400000000001,-0.874226,0.12245099999999998,0.07490500000000011,-0.825668,0.32453600000000005,0.0336010000000001,0.04855799999999999,0.983848812165908,0.014419999999999988,single,-0.825668
56,0.466667,jog,0.6613870890328721,-0.4091672666186597,-0.14494840412766807,-0.5106416743764182,0.08128609372920478,-0.7695593034777223,0.01235901127910669,0.0013198944084586342,-0.0014398848092150361,2.1969042476601874,-1.0094792416606666,-0.13162946964242858,-1.1326786705604213,-21.82363511578941,8.065764652243937,0.5613995760527739,0.8063487421535539,-0.4607608366996753,1.4947047954247632,-1.0222226132872718,-0.05570230772309122,-0.20749399999999996,0.044725000000000015,-0.87303,0.13524800000000003,0.06990200000000002,-0.825557,0.342742,0.025177000000000005,0.04747299999999999,0.9791459736561248,0.025270000000000015,single,-0.825557
57,0.475,jog,0.6960278411136496,-0.3627745109804399,-0.11520460818432296,0.28782270661862897,-0.9006044734565816,-0.759038692913306,0.003720148805952637,-0.003480139205575043,0.01212048481939327,2.22836913476539,-1.0080403216128626,-0.10800432017280695,4.157056531954581,5.567353370721221,3.569398289132988,-1.036704964977088,-0.5760270747670333,1.6273094478109131,3.7759374901238956,0.17267731282899276,2.835131341608267,-0.21326299999999998,0.047718999999999956,-0.871969,0.14801699999999995,0.06452500000000005,-0.825497,0.36127999999999993,0.0168060000000001,0.04647199999999996,0.978087482757454,0.035280000000000034,single,-0.825497
58,0.483333,jog,0.6554662186487392,-0.31801272050882395,-0.11628465138605468,1.4119958937699395,0.6427201579074622,-0.544574545294884,-0.002520100804038002,-0.009360374414979259,0.025201008040320896,2.2234489379575075,-0.985479419176776,-0.12336493459738351,-4.867589399365197,5.371629721782761,-0.12961036862255046,-0.7488599075951774,-0.7056564513865584,1.56972557553433,-0.5904472348352608,2.7074165889939477,-1.8433474648477737,-0.218746,0.050290999999999975,-0.8707900000000001,0.16108299999999998,0.05896299999999999,-0.8255560000000001,0.37982899999999997,0.008672000000000013,0.045233999999999996,0.9549981999279957,0.04765999999999998,single,-0.8255560000000001
59,0.491667,jog,0.7134629229661629,-0.33873290136789264,-0.21034317254619664,-0.041786616469517236,0.4341466619629989,-0.5783418817848021,-0.0013198944084453126,0.013798896088310069,0.023998080153588376,2.2467002639788882,-0.9942404607631399,-0.13318934485241166,6.95904779426729,-2.4862228052638184,-11.286119649645054,0.14401324641140967,2.778890149182782,-0.14433979922396437,2.789935927691465,-1.0512408910923827,-1.1788349238094713,-0.22470299999999999,0.05322899999999997,-0.8688370000000001,0.17386100000000004,0.05349999999999999,-0.824913,0.39856400000000003,0.0002710000000000212,0.043924000000000074,0.9538101891477654,0.060760000000000036,single,-0.824913
60,0.5,jog,0.7299891995679918,-0.38161526461058065,-0.6025441017640785,-3.796893483280313,2.2479512425830284,-0.1148895880387673,-0.0008400336013415652,-0.0016800672026831304,0.03000120004800119,2.2839313572542883,-0.9587183487339412,-0.09516380655226257,1.9832325215203368,-5.146089432699883,-47.06599414591177,0.05758560027646088,-1.8575498969150652,0.7204032034576776,4.467909909444399,4.262823956462106,4.5632471259029375,-0.23079300000000003,0.05639499999999997,-0.863566,0.18680999999999992,0.04869100000000004,-0.820685,0.41760299999999995,0.007703999999999933,0.04288099999999995,0.9499000918558975,0.07118999999999998,single,-0.820685
61,0.508333,jog,0.803192127685098,-0.3988959558382311,-0.0900036001440088,-1.0696637276114376,-0.5371257214744678,-0.5629380031309762,0.007800312012478276,-0.01104044161766238,0.03048121924877033,2.23916956678266,-0.9015960638425623,-0.11556462258490358,8.784702762163189,-2.0737658979539657,61.507320487227595,1.0368829489763356,-1.1232898613919609,0.05760460827662793,-5.37162972178426,6.85494838490084,-2.44819585175098,-0.237421,0.059626999999999986,-0.8625619999999999,0.19877599999999995,0.04450199999999993,-0.8208979999999999,0.43619699999999995,0.015125000000000055,0.041664000000000034,0.9444262015800253,0.0833600000000001,single,-0.8208979999999999
62,0.516667,jog,0.7660187185025309,-0.4922006239500928,-0.16306695464362933,1.809655949233874,0.5228525312235013,-1.6712066365479374,-0.0026397888168906425,-0.014398848092153789,0.053755699544036424,2.230861531077533,-0.8869690424766015,-0.06863450923925996,-4.460452265726815,-11.195664520261843,-8.766901187859485,-1.2527118825736714,-0.40297653881586615,2.7927142182944835,-0.996884533852518,1.7551021557428508,5.631163108428592,-0.24382700000000002,0.06360900000000003,-0.8607549999999999,0.21098399999999995,0.041212000000000026,-0.8201109999999999,0.45481099999999997,0.022397,0.04064400000000001,0.9071445187274658,0.09355999999999998,single,-0.8201109999999999
63,0.525,jog,0.7391095643825619,-0.3633745349813881,-0.29449177967118034,-0.7591946435692524,0.7359655642373915,-0.2537114827977033,0.018000720028799093,-0.01140045601823543,0.040801632065282444,2.1982479299171875,-0.8641545661826453,-0.08628345133805285,-3.229227663502803,15.459749066207145,-15.771609867700764,2.4769601398883534,0.3598214417278706,-1.5545502794616497,-3.913788690789076,2.737846669141494,-2.117957770165945,-0.24983599999999995,0.06654199999999999,-0.857961,0.22314300000000004,0.03703899999999993,-0.818376,0.472979,0.029503000000000057,0.03958499999999998,0.9232831776710679,0.10414999999999991,single,-0.818376
64,0.533333,jog,0.8343933757350355,-0.34453378135126533,-0.23820952838113918,-0.41537691952812555,0.4629242169304371,-0.49654431587848724,-0.07488299531982175,0.06576263050521997,0.14640585623425056,2.1660866434657597,-0.8167526701068092,-0.05748229929197307,11.434514742886645,2.2609808748497477,6.754140320417818,-11.146491701502661,9.25994078044595,12.673013820829123,-3.8595087545215514,5.688455067303078,3.456276496589468,-0.257413,0.06996100000000005,-0.854756,0.23424000000000006,0.03310400000000002,-0.81687,0.49165300000000006,0.03685700000000003,0.037885999999999975,0.7048217991209069,0.12113999999999997,single,-0.81687
65,0.541667,jog,0.8917686585073119,-0.38048956083513447,-0.20962323014158024,0.20994718593883424,-0.07655593367546365,-0.7691846490137463,-0.016078713702899743,-0.004319654427650075,0.1546676265898723,2.1216702663786706,-0.7746580273578075,-0.04775617950563865,6.8844831740191985,-4.3143483901930475,3.4300813822364673,7.05594931808514,-8.409201455827874,0.9913331360237179,-5.329538887339667,5.050953053635869,1.167041011079235,-0.26497899999999996,0.07309600000000005,-0.85172,0.24449000000000004,0.02981900000000004,-0.815521,0.509469,0.04327700000000001,0.03619899999999998,0.7407314821589492,0.13801000000000002,single,-0.815521
66,0.55,jog,0.9031561262450499,-0.3908556342253619,-0.21564862594504272,0.23321357895262426,0.4748358661575396,-0.8489977005959725,0.03468138725548812,-0.014160566422651025,0.12264490579623075,2.093363734549375,-0.7523100924036893,-0.05688227529101167,1.3665507905601793,-1.243978565969926,-0.7230764194722734,6.091455773237447,-1.1809566776672158,-3.8428802104453874,-3.39691969630329,2.6818594688729327,-1.0951753012568077,-0.272216,0.07623500000000005,-0.848901,0.254408,0.026807000000000025,-0.814198,0.526624,0.04942800000000003,0.03470300000000004,0.7862692946905839,0.15297,single,-0.814198
67,0.558333,jog,0.9693987759510505,-0.4266170646825882,-0.1220448817952784,-0.4981180459253094,-0.1161409043617527,-0.6605370069878298,0.023640945637826056,-0.03696147845914902,0.11832473298932075,2.04152166086645,-0.7101884075363054,-0.0422416896675877,7.9494359421578284,-4.291543316599859,11.232898613916378,-1.3249059903590739,-2.7362188931355105,-0.5184414744881836,-6.221297693858842,5.0548043762611625,1.7569405524329897,-0.28009700000000004,0.07948199999999994,-0.8468979999999999,0.26334199999999996,0.02444400000000002,-0.813533,0.543439,0.05503799999999992,0.03336499999999998,0.7896709744397098,0.16635000000000005,single,-0.813533
68,0.566667,jog,1.0143988480921402,-0.3938084953203722,-0.15550755939524286,0.6607606954890789,-0.1889498595379993,-0.8489632139238051,0.04355651547876163,-0.049556035517157856,0.08771298296136272,1.9554835613150805,-0.6664266858651328,-0.039356851451882946,5.399576690795459,3.936713386394977,-4.015200095988024,2.389677206735712,-1.5112259488851376,-3.673116154062611,-10.323746046480535,5.250986521618948,0.3461528936530755,-0.288188,0.08235099999999995,-0.8448709999999999,0.271185,0.02217199999999997,-0.812565,0.559373,0.06017899999999998,0.032305999999999946,0.8170721296004464,0.17694,single,-0.812565
69,0.575,jog,1.015240609624397,-0.3422536901476049,-0.19476779071162184,-0.03502496502255829,-0.06429931913320903,-0.2694265078162082,0.07620304812193184,-0.09048361934476519,0.11688467538701687,1.8555142205688435,-0.6157446297851966,-0.04740189607584424,0.10101542448780863,6.186824093695878,-4.711416214614106,3.9177406268055326,-4.911506519573708,3.500743120803362,-11.99680076157901,6.0820900131929205,-0.9654439726342694,-0.29601299999999997,0.084449,-0.8422740000000001,0.278187,0.01989299999999994,-0.8113370000000001,0.5742,0.06455600000000006,0.030936999999999992,0.7228306912677032,0.19063000000000008,single,-0.8113370000000001
70,0.583333,jog,1.017640705628226,-0.32281291251650907,-0.2538101524061059,-0.8511378886872177,1.1806007728914096,-0.05901322670169767,0.06828273130924377,-0.10812432497300335,0.16056642265690546,1.7616704668186618,-0.5625825033001327,-0.05412216488659441,0.28802304138111534,2.3329866351969017,-7.085366818010776,-0.9504760365640266,-2.116969354162737,5.242019353160735,-11.261700918058482,6.379710366622308,-0.8064645158706518,-0.3039240000000001,0.08623800000000004,-0.8388209999999999,0.28438699999999995,0.017894999999999994,-0.809673,0.588311,0.06834300000000004,0.02914799999999995,0.6578865639280103,0.20852000000000004,single,-0.809673
71,0.591667,jog,1.1807055435565017,-0.6354691624669939,0.24742020638348844,0.9984160295005664,-1.5568382402803314,-1.9402142922078744,0.05987520998320415,-0.07751379889609197,0.19690424766018527,1.6192704583633228,-0.48260139188864165,-0.05699544036477077,19.566215254172608,-37.51574873415916,60.142831628220605,-1.0088218533764766,3.6729692916860026,4.3601901851787295,-17.086634083913832,9.596965612129884,-0.34476547614306924,-0.313265,0.09088799999999997,-0.8392419999999999,0.288042,0.01916899999999999,-0.81221,0.601307,0.07171899999999998,0.027031999999999945,0.6334670223398864,0.22968,single,-0.81221
72,0.6,jog,1.1521660866434729,-0.4188167526701098,-0.06552262090482905,0.1349217119798808,-0.5070076624237487,-0.6436262495096915,0.09420376815073117,-0.09192367694707074,0.22716908676347247,1.4456978279131267,-0.42493699747990504,-0.12264490579623238,-3.4248718244364693,25.99932914879228,-37.554641460256846,4.1195917637738315,-1.7292545362989193,3.6319259694332744,-20.829548835977164,6.920004129213625,-7.8782509818147375,-0.32208099999999995,0.09361200000000003,-0.8368030000000001,0.290488,0.01911799999999997,-0.812686,0.6125689999999999,0.07449400000000006,0.024117000000000055,0.5624242722738781,0.25882999999999995,single,-0.812686
73,0.608333,jog,1.3637345493819744,-0.36121444857793644,0.3038521540861596,2.2213694520746503,-2.8548548822972655,-1.7036238299683133,0.08880355214208085,-0.08556342253691009,0.27577103084123267,1.2946117844713758,-0.3640945637825475,-0.12756510260410464,25.389231097863988,6.912552993180503,44.32674606876121,-0.6480518431117597,0.7632610596616615,5.832466587994719,-18.131050455028234,7.301384099046835,-0.5904472348340617,-0.33270500000000003,0.09590899999999991,-0.837037,0.289912,0.019093999999999944,-0.816281,0.622617,0.07681499999999997,0.020755999999999997,0.5,0.29244000000000003,flight,-0.816281
74,0.616667,jog,1.2132229421646314,-0.29313654907608566,0.24778017758579257,1.085951083419259,-1.5614969682062259,-0.3122153776807819,0.07811375089993663,-0.03347732181424524,0.2946964242860588,1.0803935685145265,-0.2874970002399769,-0.15238780897528204,-18.059948070235635,8.168694444666567,-6.728098932129514,-1.2826735351744998,6.249832100151806,2.270865544135618,-25.70412958445531,9.190972347320743,-2.9784864856224544,-0.34216499999999994,0.09807300000000008,-0.836646,0.28880500000000003,0.019141000000000075,-0.819616,0.63097,0.078932,0.01702999999999999,0.5,0.3297,flight,-0.819616
75,0.625,jog,1.1600864034561311,-0.3273730949237899,-0.0364814592583667,-0.4996310854336266,1.3548632908794296,0.030345412686886484,0.08928357134284937,-0.014640585623432857,0.3294131765270594,0.9212768510740378,-0.225009000360022,-0.17112684507380185,-6.376639710608437,-4.108549843718241,-34.11276093173624,1.3404320704323394,2.2604987628479902,4.166176915996697,-19.094769883653914,7.498859939992153,-2.2487742827936805,-0.35108799999999996,0.10067899999999996,-0.833597,0.28681500000000004,0.019993999999999956,-0.820738,0.637903,0.080685,0.012859000000000065,0.5,0.3714099999999999,flight,-0.820738
76,0.633333,jog,1.2439697587903449,-0.5748229929197097,-0.2722908916356735,-1.4908318227483743,1.0481233172630238,-0.9783778303788486,0.13104524180966967,0.04308172326893036,0.31873274930997175,0.6690267610704396,-0.20256810272409753,-0.2612504500180011,10.066405296317463,-29.695175566532917,-28.29826381582933,5.011600920055218,6.9269541452493675,-1.2817025341518815,-30.27122164929763,2.693015436928402,-10.815265203912023,-0.36036199999999996,0.10582799999999992,-0.828672,0.28202400000000005,0.023096000000000005,-0.820646,0.642386,0.08273199999999992,0.008025999999999978,0.5,0.4197400000000001,flight,-0.820646
77,0.641667,jog,1.2680585553155845,-0.39860811135109986,-0.16138708903286983,-1.0735907345594944,1.6271804159924987,-0.23589225222374552,0.14806815454763192,-0.004199664026878744,0.40964722822174465,0.514278857691389,-0.17602591792657973,-0.28749700023998187,2.8904243490808486,21.144094260692448,13.307391720998835,2.042586121665748,-5.673312610488285,10.908864760231992,-18.568262944450613,3.184807391110865,-3.1493340799113145,-0.369696,0.10911499999999996,-0.823913,0.27574200000000004,0.024950999999999945,-0.821697,0.6454380000000001,0.08416400000000002,0.0022159999999999958,0.5,0.47784000000000004,flight,-0.821697
78,0.65,jog,1.3554542181687277,-0.3920556822272898,0.08040321612863861,-0.15449616006496017,-0.1287380385005288,-0.3887970913471521,0.16092643705748602,-0.01728069122763967,0.528861154446175,0.2911316452658075,-0.15624624984998306,-0.34825393015720507,10.487899058339469,0.786322947775113,29.015997259271263,1.5430556234074222,-1.5697860555335257,14.306243396667448,-26.778736640535296,2.3736551153962067,-7.291123234996154,-0.37965000000000004,0.11223800000000006,-0.820176,0.26687299999999997,0.02691600000000005,-0.825269,0.646523,0.08532200000000001,0.005093000000000014,0.44906999999999997,0.5,flight,-0.820176
79,0.658333,jog,1.3462138485539485,-0.377415096603862,-0.05028201128044534,-0.5050679304884771,0.8774227593242258,-0.18603861163325164,0.19116764670586464,0.06936277451097717,0.5135005400216062,0.13008520340813437,-0.13692547701908905,-0.4035761430457244,-1.1088887093218802,1.7569405524334485,-15.682854603274349,3.629090321418324,10.397631793905871,-1.843347464846869,-19.326346076764022,2.318585483126627,-6.638931103866537,-0.38927500000000004,0.11596099999999998,-0.815478,0.256739,0.028919999999999946,-0.828213,0.6460140000000001,0.08704100000000004,0.01273499999999994,0.37265000000000004,0.5,flight,-0.815478
80,0.666667,jog,1.3894888408927222,-0.4125269978401759,-0.018478521718260896,0.35720325267681735,0.40480048415786335,-0.4219168387733051,0.26169906407488397,-0.05999520038397554,0.5370770338372882,-0.01211903047755717,-0.11963042956563691,-0.46088312934964987,5.19258367395888,-4.213091101069545,3.8161134583854333,8.463093036839307,-15.521715250174193,2.828952941646493,-17.063143014841668,2.0752396752402222,-6.876288253410728,-0.398674,0.11889899999999998,-0.810848,0.245058,0.03136099999999997,-0.8319000000000001,0.643732,0.087538,0.02105200000000007,0.28947999999999996,0.5,flight,-0.810848
81,0.675,jog,1.4810992439697483,-0.4808592343693707,-0.03648145925838002,0.1057791110101148,-0.40724835502933154,-0.7520072862348324,0.28933157326292225,0.016440657626311434,0.6903876155046182,-0.18924756990279473,-0.11088443537740562,-0.4806192247689881,10.993688116767766,-8.200196391359002,-2.1604389223711804,3.3160337439143364,9.17266986802912,18.398005720308337,-21.2562749820277,1.0495612850391514,-2.3684261873680734,-0.408605,0.12304300000000001,-0.8047909999999999,0.23113900000000004,0.03444400000000003,-0.8356009999999999,0.6397440000000001,0.08859899999999998,0.030810000000000004,0.19189999999999996,0.5,flight,-0.8047909999999999
82,0.683333,jog,1.5281411256450426,-0.5957038281531278,0.03840153606145457,-0.4580095244502848,-0.39675424595205505,-1.453766458408527,0.3223328933157315,-0.02112084483378802,0.6912276491059707,-0.3567742709708425,-0.07500300012000388,-0.5844233769350826,5.645251611099802,-13.781902530152186,8.986318891135877,3.9603168190099076,-4.507560597635881,0.10080806448487192,-20.104008288497457,4.305944468666995,-12.456996539793046,-0.41865300000000005,0.12783100000000003,-0.799351,0.215432,0.03878300000000001,-0.8407910000000001,0.634085,0.08904800000000002,0.04144000000000003,0.08559999999999995,0.5,flight,-0.799351
83,0.691667,jog,1.4173266138708782,-0.32721382289417017,-0.12011039116870914,-0.5975436769100111,0.9856877509185317,0.2565963115934526,0.35133189344852644,0.05051595872328899,0.6444684425245932,-0.2574994000479986,-0.1342692584593333,-0.37808975281977164,-13.296677678685326,32.21622333320802,-19.019909674845515,3.4796016478035416,8.595728768547692,-5.610655937290267,11.912031548217323,-7.111382090152263,24.758054249497167,-0.427537,0.13097899999999996,-0.792979,0.201474,0.040390999999999955,-0.842941,0.629011,0.090588,0.04996200000000006,0.00037999999999993594,0.5,flight,-0.792979
84,0.7,jog,1.4137765510620537,-0.2996519860794425,-0.09228369134765711,-0.4436491791913848,0.8941460866127136,0.27144935746401144,0.4627385095403823,-0.14376575063001706,0.9079563182527371,-0.1461658466338663,-0.11796471858873936,-0.0916836673466948,-0.42602457804206895,3.307552719876147,3.339337552028355,13.369328704170993,-23.314737711905416,31.61980987977275,13.360560832129282,1.9566230493932661,34.37010506097197,-0.435462,0.132278,-0.784644,0.188475,0.04190499999999997,-0.842936,0.623937,0.09037300000000004,0.05829200000000001,0.0,0.6516466337018354,single,-0.784644
85,0.708333,jog,1.379335173406931,-0.36349453978159685,-0.09840393615745104,0.3778359247694737,0.5359594319209114,-0.02883250496864881,0.8106324252970165,-0.2515300612024455,1.1437657506300218,-0.016680667226689025,-0.12708508340333946,-0.013920556822272598,-4.133130643840457,-7.661412900774522,-0.7344587555254888,41.74893984838987,-12.932234558073679,28.298263815826676,15.538843082584513,-1.0944875572542978,9.331946540792256,-0.44020099999999995,0.13321100000000008,-0.7742929999999999,0.176842,0.043875,-0.842232,0.617043,0.08933600000000008,0.06793900000000008,0.0,0.7851186051626813,single,-0.7742929999999999
86,0.716667,jog,1.371130309575226,-0.3686105111591001,-0.13522918166546444,0.023373784662854464,0.5298247695392069,0.09956872726534985,1.1874250059995128,-0.43868490520757913,1.1877849772018136,0.20734341252699715,-0.025677945764331033,0.00443964482841397,-0.9845048994126315,-0.6138674559039128,-4.418675966884224,45.211492764878024,-22.45678473783684,5.281884637843948,26.88073911131323,12.167883086034035,2.2030479542460317,-0.44173199999999996,0.13262700000000005,-0.7632669999999999,0.16714299999999999,0.046733000000000025,-0.8410679999999999,0.6088749999999999,0.08589400000000003,0.07780100000000001,0.0,0.6517091012162275,single,-0.7632669999999999
87,0.725,jog,1.323292931717282,-0.3061322452898108,-0.17016680667225875,0.132835916507023,0.530619781753777,0.35301855432773316,1.6048241929677296,-0.714748589943613,1.269170766830685,0.13824552982119248,-0.08292331693267772,-0.05424216968678809,-5.740714971552215,7.497691811987262,-4.192682708123681,50.08990603242777,-33.12896732701745,9.766685422881578,-8.292077607800948,-6.869719328974824,-7.042099425801344,-0.439386,0.12922199999999995,-0.7512730000000001,0.15726799999999996,0.048593,-0.840102,0.596654,0.08062899999999995,0.08882899999999994,0.0,0.7165180978783172,single,-0.7512730000000001
88,0.733333,jog,1.2883715348613851,-0.3417736709468452,-0.20532821312852645,0.6852476722003873,0.5349259887520506,0.24414639670666344,1.9701188047521836,-0.9001560062402434,1.066842673706945,0.09804392175687132,-0.03468138725548812,-0.1099243969758786,-4.190735252117682,-4.277142164530688,-4.219537556254356,43.837106898410234,-22.249779946793424,-24.280342388544256,-4.824385943156245,5.789263131788,-6.682134560073235,-0.43370499999999995,0.12456900000000004,-0.740672,0.147349,0.051152000000000086,-0.839307,0.581054,0.07341699999999995,0.09863500000000003,0.0,0.7477942734264171,single,-0.740672
89,0.741667,jog,1.2994960403167828,-0.36033117350611893,-0.2349412047036269,0.6860176107799479,0.16329462537127049,0.15514840283488035,2.1199904007679526,-0.8878089752819879,0.7383009359251292,0.05459563234941034,-0.02795776337893449,-0.10979121670266431,1.334833867938293,-2.2267221693393147,-3.553274727033911,17.983152869662817,1.4815251929752318,-39.42185478543528,-5.213377658682653,0.8067703235605549,0.01598035435736524,-0.42686699999999994,0.12017299999999997,-0.732561,0.13697399999999998,0.053922000000000025,-0.838264,0.5638409999999999,0.06625099999999995,0.10570299999999999,0.0,0.7903943459875462,single,-0.732561
90,0.75,jog,1.3024120964838541,-0.36157446297850954,-0.2220088803552155,0.8268557366739671,-0.6633136110657817,0.24273599338569407,2.5023400936037317,-0.9775591023640888,0.5472218888755538,0.022320892835715672,-0.062042481699266475,-0.10476419056762212,0.3499407376780685,-0.14920070471506086,1.5519409994493403,45.88379849223298,-10.770446067694778,-22.930402862063442,-3.8731236665900073,-4.090329811632286,0.6032672668957361,-0.41686799999999996,0.11503999999999992,-0.726151,0.126307,0.05641799999999997,-0.837287,0.543175,0.05862199999999995,0.11113600000000001,0.0,0.7936896390165995,single,-0.726151
91,0.758333,jog,1.3693747749909944,-0.3265330613224617,0.2239289571582895,3.2172655963861434,-4.347627394201217,-0.12766310020423038,2.7155886235449316,-1.0844833793351643,0.3502940117604662,0.05040201608064679,-0.0489619584783346,-0.009000360014401212,8.035842854570975,4.205136404181892,53.51468108886393,25.590847226832956,-12.831426493588742,-23.632290545432227,3.369869584175087,1.5697255755348396,11.492119351160508,-0.40564999999999996,0.10872400000000004,-0.725098,0.11531600000000003,0.05873100000000009,-0.8392280000000001,0.520966,0.049992999999999954,0.11413000000000006,0.0,0.8819293633805879,single,-0.725098
92,0.766667,jog,1.302735781137517,-0.30873530117590003,0.2518598512118999,3.839675543165368,-4.125733973504516,-0.11677543996040986,2.8830093592512656,-1.1768658507319527,0.2050635949124101,0.01103911687064813,-0.04703623710103926,-0.012838972882169017,-7.9960395792509775,2.135560372757589,3.351439171299564,20.088881174266252,-11.08500976683333,-17.426255921293127,-4.723170051595738,0.2310680798290557,-0.4605966963964276,-0.39248000000000005,0.10148899999999994,-0.725488,0.104551,0.060911999999999966,-0.841434,0.49703100000000006,0.040576999999999974,0.115946,0.0,0.9166815192139542,single,-0.725488
93,0.775,jog,1.3254530181207158,-0.34525381015240686,-0.4258970358814364,0.003674355060468596,-0.261267422823077,0.49723406350533883,3.0784831393255647,-1.2756510260410263,0.0667226689067561,0.004920196807873884,0.007200288011527631,-0.033961358454337856,2.7261774850832383,-4.382396373035722,-81.3340798143926,23.457791920592626,-11.854695224897778,-16.60157518368576,-0.7342997795240874,6.508643359242369,-2.534787660166657,-0.377872,0.09373600000000004,-0.721383,0.09354700000000005,0.06384900000000004,-0.838168,0.47141900000000003,0.029886999999999997,0.11678500000000003,0.0,0.9415613723604653,single,-0.721383
94,0.783333,jog,1.2784111364454724,-0.31345253810153395,-0.05184207368294635,1.554189090371398,-3.601169163759234,0.14993250251062346,3.260530421216882,-1.320172806912293,-0.004680187207489692,0.023640945637826056,0.03564142565702561,-0.023520940837633928,-5.645251611093699,3.8163052983167165,44.8883909994592,21.846547688865822,-5.34282741764877,-8.568685481128819,2.2465797227831925,3.4130730403814042,1.2529002300136833,-0.361355,0.08534700000000006,-0.72099,0.08309100000000003,0.0667580000000001,-0.837932,0.444446,0.018588999999999967,0.11694199999999999,0.0,0.9186495886884091,single,-0.72099
95,0.791667,jog,1.3232541396688142,-0.3460523158147319,-0.19726421886248696,0.8976893806173438,-1.969139617306146,0.18865459592992434,3.4559635229181396,-1.4857211423086045,-0.041396688264936594,0.03095752339812557,0.009479241660659903,-0.006359491240701227,5.3807299284067005,-3.911660392752303,-17.44926148062629,23.450096196455018,-19.864211110668364,-4.40562767667946,0.8779190977081185,-3.1392109426884462,2.0592092148947168,-0.34358099999999997,0.07584900000000006,-0.719691,0.07232100000000002,0.06972100000000003,-0.836341,0.415902,0.006128000000000022,0.11665000000000003,0.0,0.9450083994735146,single,-0.719691
96,0.8,jog,1.332173286931475,-0.35173406936276175,-0.3214928597143857,0.6121474177272838,-1.1951941358642613,0.25168229041916734,3.5161406456258093,-1.5141005640225533,-0.1411256450258017,0.020520820832830435,-0.00204008160325617,-0.02628105124204921,1.0703404851387035,-0.6818376992715507,-14.908033223556727,7.221543586663803,-3.405666832347136,-11.967953529444939,-1.2524544060116516,-1.3823740866333882,-2.390682827474847,-0.325382,0.06616299999999997,-0.718188,0.06139099999999997,0.072635,-0.833881,0.386773,0.006472000000000033,0.11569299999999993,0.0,0.9443233622954962,single,-0.718188
97,0.808333,jog,1.3309732389295714,-0.3630145205808332,-0.21936877475099825,0.721455531001234,-1.6241065222724398,0.3195328692919621,3.647905916236687,-1.5948637945517996,-0.18936757470298937,0.009360374414979384,0.009240369614783925,-0.01884075363014507,-0.14401152068926726,-1.3537082945003693,12.255380410823037,15.812464971904362,-9.691975342523342,-5.7892631317878465,-1.3393071424278356,1.3537082944966037,0.8928714282856365,-0.306075,0.055898,-0.717938,0.05037799999999998,0.07573700000000005,-0.83221,0.35645299999999996,0.01983900000000005,0.11427200000000004,0.0,0.9617038210073174,single,-0.717938
98,0.816667,jog,1.2925365970722182,-0.3288936885049163,-0.16474682025437332,-0.07811819927506675,-2.430746676389772,0.5193018872294092,3.7560595152387486,-1.6629469642428425,-0.21082313414926748,-0.0059995200383962215,0.0026397888168906074,-0.012119030477562166,-4.6120280606374955,4.094172315324775,6.55411021077808,12.977393688752175,-8.169326816779742,-2.574461176659221,-1.8430398912137615,-0.7920063352403728,0.8065422549295479,-0.28554399999999996,0.04478000000000004,-0.718322,0.039556000000000036,0.07850000000000001,-0.830938,0.3251,0.03371999999999997,0.11261599999999994,0.0,0.9770366460175143,single,-0.718322
99,0.825,jog,1.3531741269650919,-0.5564622584903449,0.12528501140046255,2.6664333001976357,-5.115088991806895,-0.7052084755402062,3.8353534141365992,-1.6991479659186561,-0.25585023400936213,-0.0032401296051841467,-0.012120484819395016,-0.021960878435137086,7.2767946589312595,-27.30932077108253,34.8052120070609,9.515648493681914,-4.34429397285659,-5.403468121936284,0.3311400975893556,-1.7713036885018312,-1.181068997668908,-0.26486,0.03525800000000001,-0.7214980000000001,0.028253000000000028,0.083036,-0.832165,0.293113,0.04777799999999999,0.11066699999999996,0.0,0.9578466828193911,single,-0.7214980000000001
100,0.833333,jog,1.3442937717508698,-0.3418936757470273,-0.2347293891755743,-0.8173489092834182,-1.4841229065945316,0.61194704570082,3.8534741389655425,-1.725549021960875,-0.3501740069602774,0.012000480019199396,-0.023520940837630285,-0.013080523220929374,-1.0656852531167644,25.749259899593994,-43.20345620737253,2.174573962431675,-3.1682534552044466,-11.319305526330838,1.8289463127785288,-1.3681094465660892,1.0656852531150456,-0.24395100000000003,0.02372799999999997,-0.72246,0.017150999999999972,0.08568900000000002,-0.830318,0.261102,0.061961000000000044,0.10785800000000001,0.0,0.9508871405640318,single,-0.72246
101,0.841667,jog,1.3596112311014992,-0.31929445644348503,-0.2952963762898868,-1.1159565942593404,-0.26705549779771276,0.9098617073953739,3.967602591792631,-1.7762179025677822,-0.3893688504919574,0.01931845452364063,-0.011039116870647982,-0.004439644828413137,1.8379480862286082,2.7116893812745473,-7.267457057152875,13.694318793747042,-6.079779290485594,-4.703004983402893,0.8780866935974535,1.4976990601130558,1.036822461305036,-0.22221599999999997,0.011585999999999985,-0.723244,0.005981000000000014,0.08825800000000006,-0.827894,0.22819699999999998,0.07667200000000007,0.10465000000000002,0.0,0.9621855688677423,single,-0.723244
102,0.85,jog,1.310092403696161,-0.35713428537141556,-0.16524660986440481,-0.6400198709808098,-0.9375938110408621,1.0115289170643418,4.114844593783784,-1.8280331213248626,-0.38413536541462123,-0.0054002160086424646,-0.0004800192007685152,-0.016320652826113696,-5.942496988520179,-4.540961109796097,15.606596234907379,17.669747028819607,-6.218074973848658,0.6280433310135873,-2.966359118238728,1.267142406081791,-1.425777990843714,-0.19884400000000002,-0.0006709999999999772,-0.725068,-0.004981000000000013,0.09123000000000003,-0.826653,0.193863,0.09190100000000001,0.10158499999999993,0.0,0.9713373810976136,single,-0.725068
103,0.858333,jog,1.3813752550101939,-0.38833553342133725,-0.23748949957997656,0.005548469897138371,-0.6444311441339126,1.4872007017361224,4.08820352814111,-1.8436337453498082,-0.4020160806432231,-0.012120484819394855,-0.004920196807880545,0.0019200768030723696,8.554284329057074,-3.7442995379721062,-8.669493545610397,-3.197055759351146,-1.872149768984218,-2.1457716582985453,-0.8064645158709183,-0.5328426265585037,2.1889751145068987,-0.176288,-0.012797999999999976,-0.7264390000000001,-0.016593000000000024,0.09442499999999998,-0.824658,0.15969499999999998,0.10722299999999996,0.09821899999999995,0.0,0.9779646002094133,single,-0.7264390000000001
104,0.866667,jog,1.2556995440364844,-0.31653467722582723,-0.2883369330453633,-1.1956918795100362,0.8278301072024954,2.2157179699859726,4.249220062395029,-1.8458123350132136,-0.454163666906648,-0.015958723302135228,-0.01715862730981582,0.0007199424046075229,-15.079878926531096,8.61541351038042,-6.101203919532879,19.320438475392297,-0.26140984682090984,-6.25720977482904,-0.4605517737869444,-1.4684941806977856,-0.14400460744718666,-0.15134000000000003,-0.025542999999999982,-0.7278209999999999,-0.02719100000000002,0.09692,-0.822249,0.12414900000000001,0.12246299999999999,0.09442800000000007,0.0,0.9609267903069826,single,-0.7278209999999999
105,0.875,jog,1.323412936517453,-0.3991359654386087,-0.17352694107763605,-0.43665376099465436,-0.20051634998935147,1.966559078971995,4.31009240369613,-1.8750750030001122,-0.4268570742829701,0.0014400576023055264,-0.00972038881555231,0.012600504020160865,8.12593213500159,-9.912551087577237,13.777750146133055,7.304973155058288,-3.5116606248528095,3.276922191729004,2.0879372260219227,0.892624324284589,1.4257244228433088,-0.126452,-0.03784200000000004,-0.729932,-0.03820699999999999,0.10016499999999995,-0.820698,0.08824500000000002,0.138007,0.09076600000000001,0.0,0.9733681254996134,single,-0.729932
106,0.883333,jog,1.4286571462858453,-0.38353534141365214,-0.03984159366374626,-0.9062968826861189,-0.5552671236816267,2.2194472727069994,4.272770910836416,-1.855874234969385,-0.4688587543501713,-0.04056162246489902,0.01992079683187313,-0.022680907236289558,12.629810364621612,1.8721497689855369,16.042883405002907,-4.478758293497439,2.3041843310604873,-5.040403224193095,-5.040403224193493,3.5570845610734807,-4.233938708322365,-0.10275200000000001,-0.05011100000000002,-0.733507,-0.050449999999999995,0.10352699999999992,-0.820555,0.052302000000000015,0.15363799999999994,0.08704800000000001,0.0,0.9157301471385766,single,-0.733507
107,0.891667,jog,1.3838492920566452,-0.46868250539957984,-0.0662347012239021,-0.35832746414307903,-0.3057991180642296,2.0731627988288257,4.34749220062398,-1.8395728341732747,-0.5271178305735581,-0.00791936645068525,-0.009239260859130571,-0.001559875209983105,-5.376512386513119,-10.216842330924909,-3.1669195536544263,8.965837507507128,1.9560116146040933,-6.9905299044141,3.9167573811151857,-3.4989270087597633,2.534321097468991,-0.07805299999999998,-0.061535999999999924,-0.737348,-0.06204900000000002,0.10735600000000001,-0.8200160000000001,0.016003999999999963,0.16889199999999993,0.08266800000000007,0.0,0.9795526749322109,single,-0.737348
108,0.9,jog,1.4260170406816186,-0.45721828873154496,0.05436217448697033,-0.814381201939341,-0.3982103511089549,2.28989596714127,4.435377415096585,-1.8453138125525046,-0.5203408136325439,-0.022680907236288725,-0.01260050402015004,0.01848073922956927,5.06033224828672,1.3757610306054038,14.47220397346357,10.54664760261666,-0.6889449633061213,0.8132745639042543,-1.7714557525025096,-0.40336531393489194,2.404969931543537,-0.05297599999999997,-0.07310300000000003,-0.7421369999999999,-0.07412099999999999,0.11106100000000008,-0.8203149999999999,0.021145000000000025,0.1841640000000001,0.07817799999999997,0.0,0.9469085177083123,single,-0.7421369999999999
109,0.908333,jog,1.461778471138862,-0.49573982959318774,0.09216368654746165,-0.7871711827614365,-0.41773240404000705,2.153771126299374,4.591743669746831,-1.8657146285851578,-0.4299771990879678,-0.0064802592103682935,0.014640585623419728,-0.017520700828033316,4.291543316601904,-4.622769814189743,4.536362901775071,18.764701146075534,-2.4481958517524767,10.844067508049559,1.9441555293316426,3.2690615196891897,-4.3203456207371795,-0.026894,-0.08451900000000001,-0.7464879999999999,-0.08635600000000002,0.11531400000000003,-0.821229,0.059462000000000015,0.19983300000000004,0.07474100000000006,0.0,0.9604428871287316,single,-0.7464879999999999
110,0.916667,jog,1.4203263738900764,-0.5376769858411234,0.0794336453083809,-0.45028240591249474,0.22929084473837175,2.08185304582234,4.458603311735026,-1.8456923446124178,-0.4629229661627035,0.006359491240703725,-0.006239500839938998,0.019558435325173415,-4.9738537615533,-5.032056185257425,-1.527482750069673,-15.975564916223089,2.4024818781785244,-3.9531757949046655,1.5406468023844397,-2.5054099428076033,4.449140407152202,-0.001572999999999991,-0.09542000000000006,-0.751008,-0.09813999999999998,0.11974299999999993,-0.821728,0.09656699999999999,0.215163,0.07072,0.0,0.9641799678973259,single,-0.751008
111,0.925,jog,1.4575783031321181,-0.5913836553462166,0.1454458178327116,-0.5147616594892588,0.5727009964807526,1.6493206536192406,4.759750390015581,-1.844233769350759,-0.43057722308892105,0.021720868834751706,0.00972038881555231,-0.01116044641785617,4.470410325458001,-6.445058142936872,7.921777574022611,36.13909495746472,0.175036032840385,3.8816444346312644,1.8434390488477037,1.9152633691937169,-3.6864132656941626,0.025944000000000023,-0.10585999999999995,-0.755808,-0.11010499999999998,0.12475199999999997,-0.823033,0.136049,0.23061199999999993,0.06722499999999998,0.0,0.9561936817752202,single,-0.755808
112,0.933333,jog,1.4885395415816767,-0.6306252250090073,0.235569422776919,-0.6542767058261688,0.4612077523970987,1.4628607282849257,4.635785431417297,-1.8105124204968452,-0.3835353414136606,-0.001200048001921288,-0.003120124804988687,0.013080523220928715,3.7154972338364147,-4.70917672660399,10.815265203913144,-14.876390087397745,4.046723731418932,5.645251611095752,-2.7506200452025924,-1.5409232713957894,2.9090327179629316,0.05217000000000001,-0.11569200000000002,-0.7609670000000001,-0.12251899999999999,0.129981,-0.824887,0.17468899999999998,0.24567300000000003,0.06391999999999998,0.0,0.9774984332805422,single,-0.7609670000000001
113,0.941667,jog,1.5644348452123737,-0.6761459083273221,0.27657787377009646,-0.52029529415657,0.5344748649662477,1.0793563210649746,4.660787137029002,-1.7961363090952598,-0.4037676985841093,-0.008039356851449872,-0.008159347252214599,0.03947684185265184,9.106707899051655,-5.462045034594969,4.920620469543694,2.999964676230546,1.7249953685607566,-2.4276886453622017,-0.8206514098306373,-0.6046583210014247,3.1673048514186366,0.07797499999999999,-0.12502600000000008,-0.766637,-0.135624,0.135548,-0.826863,0.21359899999999998,0.2605740000000001,0.060226,0.0,0.9314915404893823,single,-0.766637
114,0.95,jog,1.5516620664826732,-0.6879875195007848,0.2608904356174282,-0.1628984080665284,1.2395694856061321,1.031385426405386,4.705748229929241,-1.750870034801407,-0.38521540861634873,-0.022200888035520512,-0.02544101764070466,0.0834033361334454,-1.532794759354449,-1.4210501828228521,-1.8825678810354505,5.395546969907456,5.432170202070465,2.226363850685319,-1.6994517201572987,-2.0738834019549044,5.271390169302048,0.10425799999999999,-0.13388300000000009,-0.7720210000000001,-0.14873899999999998,0.141069,-0.828342,0.25299699999999997,0.2749520000000001,0.056320999999999954,0.0,0.8500348069425883,single,-0.7720210000000001
115,0.958333,jog,1.6120244809792326,-0.6987879515180605,0.42625705028200944,-0.8553547122951292,0.7282365843482104,0.9284387710060432,4.668306732269271,-1.7645505820232663,-0.3444137765510603,0.011160446417851175,-0.01284051362055428,0.09120364814592591,7.24377949076672,-1.2961036862205215,19.844787551251716,-4.493159445574146,-1.6417313358765437,4.89639170350273,4.003520275215594,1.5121209672567295,0.9360748844930366,0.129726,-0.142764,-0.778443,-0.16207900000000003,0.14678499999999994,-0.831134,0.29180500000000004,0.28954899999999995,0.05269100000000004,0.0,0.8453719535518718,single,-0.778443
116,0.966667,jog,1.6449484041276572,-0.7368610511159127,0.4289656827453765,-0.570047945778249,1.002175447395066,0.7306646481482281,4.61783057355408,-1.774898008159337,-0.2999760019198444,-0.0004799616030722306,-0.027117830573547726,0.13150947924165962,3.9505547334322504,-4.568406479223893,0.3250098948124592,-6.056654513461791,-1.2415918089837628,5.332106387234888,-1.3967372235329154,-1.713140983080554,4.836312826461891,0.154502,-0.15141499999999997,-0.784518,-0.17579200000000003,0.15270000000000006,-0.833613,0.33029400000000003,0.304115,0.049095,0.009050000000000002,0.77620476727493,single,-0.784518
117,0.975,jog,1.7243489739589732,-0.7470298811952456,0.3919356774270996,-0.4749445670819848,1.0029695074962672,0.7028070652596028,4.575303012120527,-1.7448697947918073,-0.2734909396375884,0.011880475219010759,-0.01656066242649379,0.1785671426857086,9.528449517738723,-1.2203084218568323,-4.443778389328839,-5.103511512486982,3.603529745293422,3.178334607255039,1.4833117511200171,1.2669108540806473,5.6471454991058945,0.178259,-0.15973000000000004,-0.7900630000000001,-0.190062,0.158787,-0.835391,0.368321,0.31851700000000005,0.045327999999999924,0.04672000000000004,0.7004557829042966,single,-0.7900630000000001
118,0.983333,jog,1.7340693627745043,-0.7675507020280861,0.537021480859233,-0.9205927537329728,0.6791645875718454,0.6157957777702435,4.517700708028302,-1.7850714028561034,-0.23940957638305393,0.02160086403456291,-0.011760470418821804,0.2503300132005275,1.1664933175964256,-2.4625970038209974,17.41099285156999,-6.912552993186631,-4.824385943153247,4.089927187631626,1.1664933175989571,0.5760460827639463,8.611888937335724,0.201455,-0.16820899999999994,-0.796533,-0.204332,0.16508500000000004,-0.8377800000000001,0.405787,0.333294,0.041247000000000034,0.08753000000000005,0.5807744524440601,single,-0.796533
119,0.991667,jog,1.7177825773938178,-0.790376769858417,0.5129589632829304,-0.744176018158699,1.0797839974562304,0.5033268635945475,4.396448284137293,-1.733141348692116,-0.1856251499880028,0.059395248380132715,-0.009599232061431418,0.30825533957283613,-1.9542579050499882,-2.7389090269175727,-2.8872711274661205,-14.549126936766287,6.231108011037659,6.453614878215915,4.534963324402451,0.2593278566583151,6.950483126026993,0.223779,-0.17606599999999994,-0.8023549999999999,-0.21815299999999999,0.17159200000000008,-0.839486,0.441932,0.347658,0.037131000000000025,0.12869000000000014,0.5,flight,-0.8023549999999999
120,1.0,jog,1.7026281051241978,-0.8534741389655426,0.39553582143286486,-1.3446682278295359,2.332968515554981,0.11130123437802383,4.253810152406079,-1.7053882155286109,-0.03828153126125027,0.11208448337933355,-0.020160806432264044,0.403696147845912,-1.8186094167310578,-7.5719871723419345,-14.091340675634836,-17.117260498165454,3.330509199988589,17.681941524871224,6.3229611183488075,-1.2674396220847932,11.453355126974136,0.245038,-0.18316500000000002,-0.8059700000000001,-0.23140699999999997,0.17853599999999992,-0.839418,0.476445,0.36170099999999994,0.03344799999999992,0.1655200000000001,0.5,flight,-0.8059700000000001
121,1.008333,jog,1.8051122044881969,-0.8815552622105054,0.6629065162606533,-1.067730884230819,0.3420099223628767,0.4803070332803731,4.115084603384175,-1.6219848793952008,0.032281291251651,0.1779671186847438,-0.04248169926796696,0.4362174486979518,12.29858386703468,-3.3698695841789355,32.08576681000731,-16.647731791900352,10.008800688036827,8.467877416644896,7.90623248594874,-2.6786142848557684,3.9027122107332413,0.264287,-0.18933500000000003,-0.811225,-0.24496600000000002,0.18552800000000003,-0.841307,0.5092530000000001,0.37486300000000006,0.030082000000000053,0.19918000000000002,0.5,flight,-0.811225
122,1.016667,jog,1.840652747780163,-0.8891288696904213,0.529997600191981,-0.26890872418476786,0.5376913140442504,0.42905479623510423,3.9599232061434786,-1.448764098872076,0.13786897048236002,0.2445404367650617,-0.03863690904728126,0.5505159587232973,4.264524033113264,-0.9087601967741552,-15.947794104712175,-18.617878238624343,20.784830876304703,12.669507947049222,7.988159116908736,0.46133791944872454,13.714724025119342,0.281949,-0.19399899999999998,-0.814493,-0.258268,0.192616,-0.841136,0.540217,0.386615,0.026642999999999972,0.23357,0.5,flight,-0.814493
123,1.025,jog,1.8557542301692238,-0.9141965678627112,0.5796231849274025,-0.08815614341589244,0.22379103730578606,0.39642801893894775,3.6764670586823804,-1.4450978039121694,0.11616464658586576,0.2874114964598587,-0.057362294491777606,0.5983439337573563,1.8122503767023719,-3.008244110439237,5.955308380585851,-34.01609833926566,0.4399729941085686,-2.6046230525014358,5.1447329526937935,-2.2471361387851334,5.739586587550635,0.297121,-0.19842300000000007,-0.818355,-0.271337,0.19975599999999993,-0.8409800000000001,0.568458,0.398179,0.022625000000000006,0.27374999999999994,0.5,flight,-0.818355
124,1.033333,jog,1.9479179167166345,-0.9893195727828975,0.6548661946477665,-0.8006585376454909,-0.23104159525748205,0.6844001222481371,3.410536421456799,-1.254530181207222,0.1754470178807111,0.33109324372974475,-0.09444377775110625,0.5966638665546522,11.060084789080653,-9.01512119527001,9.029522347337418,-31.912952985188646,22.869029485772707,7.114169122146203,5.2420193531603605,-4.449955989358934,-0.20161612896964523,0.309309,-0.200633,-0.8223499999999999,-0.28481,0.20721299999999998,-0.8414649999999999,0.5941190000000001,0.407846,0.019114999999999993,0.30885000000000007,0.5,flight,-0.8223499999999999
125,1.041667,jog,1.885049196064351,-0.94492440604753,0.5307175425966103,0.3624244049571136,0.18461866323530057,0.4630748503526769,3.089752819774476,-1.1099112071034571,0.17242620590353192,0.3642908567314664,-0.1772258219342427,0.6619870410367289,-7.543642986835223,5.3269938487363,-14.896646514417876,-38.4909529256454,17.35288866135921,-0.3624684397863259,3.983394888615583,-9.933050657923927,7.838153885538509,0.319349,-0.20200800000000008,-0.8253360000000001,-0.297484,0.213611,-0.840371,0.616833,0.41561900000000007,0.01503499999999991,0.3496499999999999,0.5,flight,-0.8253360000000001
126,1.05,jog,1.9011160446417525,-0.9500780031201157,0.491059642385685,0.6965777670735724,0.04198599622683315,0.4167938708972869,2.77475099003955,-0.9475579023160711,0.15396615864634225,0.4135365414616518,-0.1734069362774516,0.7507500300011867,1.9280989532462873,-0.6184563869657481,-4.759138390846586,-37.80173163745598,19.48317590152205,-2.2152942826340265,5.909718556364402,0.4582846101993305,10.651984755124952,0.326629,-0.20198699999999997,-0.828145,-0.30988,0.22008300000000003,-0.838207,0.636509,0.42207,0.010062000000000015,0.39937999999999996,0.5,flight,-0.828145
127,1.058333,jog,1.906276251050059,-0.9737189487579537,0.46417856714268785,0.7739775674747179,0.3556243642021843,0.4253065801266899,2.4390975639025827,-0.780871234849406,0.09384375375015146,0.4546981879275197,-0.23280931237250335,0.8151926077043166,0.6192495389783448,-2.8370269576188942,-3.225858063482227,-40.28002233732993,20.00320022400895,-7.214977186630426,4.939595159710581,-7.128570274217244,7.733418661122102,0.331069,-0.20038000000000006,-0.8312309999999999,-0.32197600000000004,0.22625699999999993,-0.835282,0.6530450000000001,0.426637,0.004051000000000027,0.45949,0.5,flight,-0.8312309999999999
128,1.066667,jog,1.9200863930885377,-0.9865610751139908,0.40388768898487576,0.9051473679099343,0.1975218401337023,0.4792169785824379,2.0815934725221794,-0.6433885289176791,-0.02159827213822873,0.6252699784017256,-0.28881689464841837,0.8911687065034732,1.6570844778591947,-1.5409318881733862,-7.234326632806771,-42.897059200912,16.496604983408435,-13.85193495180937,20.466977498704654,-6.720372243330284,9.116402543695235,0.332415,-0.19751999999999997,-0.834777,-0.332767,0.23207200000000006,-0.831221,0.6651819999999999,0.42959200000000003,0.0035560000000000036,0.5,0.46443999999999996,flight,-0.831221
129,1.075,jog,1.931597263890575,-0.978279131165248,0.3558142325693055,0.669618082790898,0.40120938598834766,0.42630395787475917,1.6854674186967669,-0.5259810392415776,-0.14640585623425056,0.6678267130685273,-0.29845193807752785,0.9719188767550785,1.3813597506345112,0.9938730287702984,-5.769045531689751,-47.53702794016755,14.089462339625891,-14.977509191890432,5.1070124405138655,-1.1562514615516102,9.690408046514579,0.330364,-0.19375100000000006,-0.838962,-0.343298,0.23773699999999998,-0.826087,0.673662,0.43148800000000004,0.01287499999999997,0.5,0.37125,flight,-0.826087
130,1.083333,jog,1.9173166926676721,-1.0008400336013281,0.31393255730229414,1.0180674372844853,-0.0061455077011227915,0.2467802745940296,1.39781591263648,-0.44377775111003415,-0.23220928837153154,0.8611544461778339,-0.3483739349573909,1.0567622704908004,-1.7137370962321585,-2.7074165889931257,-5.026002072124161,-34.51956150969421,9.864789167351733,-10.296823729422714,23.200255983355724,-5.99087926075389,10.181614512866966,0.326035,-0.18910900000000003,-0.8435130000000001,-0.352099,0.243174,-0.819897,0.678134,0.43228300000000003,0.02361600000000008,0.5,0.26384,flight,-0.819897
131,1.091667,jog,1.930285577153865,-0.9985601151908099,0.2770578353731761,0.5533231383256139,-0.012530893881394846,0.35379118369107376,1.0826733861291307,-0.30069594432446073,-0.4536837053035835,1.0358771298296336,-0.412167026637886,1.2306215502760014,1.5561416470114073,0.2735683237962882,-4.424612662481253,-37.814078054638266,17.16844333880203,-26.574804047522935,20.9650448346296,-7.654558636968604,20.861444658651823,0.318971,-0.18329299999999998,-0.849603,-0.359553,0.24806099999999998,-0.8119500000000001,0.678524,0.43135399999999996,0.037652999999999937,0.5,0.12347000000000008,flight,-0.8119500000000001
132,1.1,jog,1.8972758910356087,-0.9675987039481327,0.16308652346093547,0.447257548378093,-0.1856964939971543,0.0685939611802458,0.8137525501019877,-0.2844113764550512,-0.5231009240369525,1.2773310932437059,-0.46537861514459006,1.2332893315732423,-3.9613207870221645,3.7155179698399867,-13.67710451364918,-32.271791194904395,1.954226313381643,-8.330399463982697,28.97563463507356,-6.385646046646239,0.3201465615313611,0.309942,-0.17760000000000004,-0.855321,-0.364719,0.25224599999999997,-0.803032,0.674661,0.429846,0.05228900000000003,0.5,0.0,flight,-0.803032
133,1.108333,jog,1.9210368414736758,-0.97275891035643,0.10668426737068593,0.381931579024014,-0.15318128152087665,0.14102533019743563,0.5799831993279756,-0.20268810752430236,-0.6732269290771697,1.4808592343693905,-0.5395415816632781,1.1534861394455862,2.8514281096924705,-0.619249538977239,-6.768541472488907,-28.05344423065093,9.807184559072315,-18.015841238475772,24.424353909238746,-8.899911978721802,-9.576766125963855,0.298767,-0.17118299999999997,-0.8618199999999999,-0.368387,0.255856,-0.7943089999999999,0.667154,0.42703899999999995,0.06751099999999999,0.5,0.0,flight,-0.7943089999999999
134,1.116667,jog,1.8965682745380208,-0.9595632349412012,0.01667866570674336,0.34985897591667153,-0.23001774197119873,-0.10659629558828254,0.2890568754499678,-0.13438924886009135,-0.7662586993040502,1.6471082313414789,-0.572114230861526,1.0298776097912097,-2.935993152826354,1.5833543814769273,-10.799808215015823,-34.90836619606499,8.195207423111409,-11.162919393674077,19.94828377394854,-3.908405231371205,-14.831837011564144,0.28537,-0.16430599999999995,-0.8683449999999999,-0.37046599999999996,0.259085,-0.7858649999999999,0.6558360000000001,0.42339099999999996,0.08248,0.5,0.0,flight,-0.7858649999999999
135,1.125,jog,1.879035161406474,-0.9539181567262759,-0.08688347533900799,0.18428833448722384,0.010803451921354398,-0.2629777970408047,0.13308532341293428,-0.025801032041284373,-0.8444737789511659,1.8705148205928397,-0.6824672986919537,0.8631945277811197,-2.104057738095161,0.6774364832503752,-12.42795404365202,-18.717334937841706,13.031107262547458,-9.386185005054173,26.80986310468773,-13.24289785556566,-20.00276995200906,0.270821,-0.156572,-0.874658,-0.370537,0.261347,-0.777948,0.641358,0.417919,0.09671000000000007,0.5,0.0,flight,-0.777948
136,1.133333,jog,1.86151446057844,-0.935797431897281,-0.19332773310932963,-0.006165356452920415,-0.022927054134608212,-0.2777675941555216,0.09744389775590866,0.011400456018242243,-0.7601104044161827,2.199207968318754,-0.7905916236649451,0.7493099723989027,-2.1025682020921868,2.1745739624378992,-12.773821885314126,-4.277142164529694,4.464357141428892,10.124009904594262,39.44475551733077,-12.975438014279659,-13.666693313598707,0.256121,-0.148679,-0.879381,-0.367723,0.26255700000000004,-0.7700929999999999,0.623844,0.41123600000000005,0.10928800000000005,0.5,0.0,flight,-0.7700929999999999
137,1.141667,jog,1.7752579793616379,-0.9170866330693421,-0.278377729781614,0.0404969885938746,-0.13356146351174172,-0.5137328465489287,0.1924646028317713,0.05843532517398746,-0.5033597312214989,2.472522198224125,-0.8978881689464795,0.6838252939764778,-10.349949750036167,2.2451162500526483,-10.205183186019166,11.401572483304767,5.6437328000653775,30.807616174067896,32.79508398192569,-12.874555469346486,-7.857532808066281,0.24292999999999998,-0.14054900000000004,-0.881256,-0.361912,0.262717,-0.7620739999999999,0.604842,0.403266,0.11918200000000012,0.5,0.0,flight,-0.7620739999999999
138,1.15,jog,1.7428297131885444,-0.8949957998320105,-0.3030121204848221,-0.2979781139273087,-0.6824338066720029,-0.5846505424275906,0.2544101764070599,0.15204608184327728,-0.1400456018240744,2.617184687387519,-0.9111964478579313,0.5843033721348889,-3.8915476026753586,2.651006028720969,-2.9562451341903677,7.433766179681884,11.233740149920878,43.59943950527155,17.360193107331742,-1.5970573516682984,-11.943108345324593,0.23052699999999998,-0.13182399999999994,-0.879898,-0.354626,0.262582,-0.75468,0.585153,0.3944059999999999,0.12521799999999994,0.5,0.0,flight,-0.75468
139,1.158333,jog,1.6222248889955317,-0.8769950798031745,-0.3750150006000094,-0.33510838342572746,-0.41942471077306764,-0.7427548488218165,0.24600984039361098,0.01248049921996774,-0.09708388335533218,2.799351974078914,-0.9689187567502427,0.49225969038760625,-14.473157829474445,2.160172810372699,-8.640691241471982,-1.0080806448396427,-16.74853985639111,5.155612440746608,21.860948840920685,-6.926954145243062,-11.045683637019208,0.21905899999999998,-0.12441199999999997,-0.8775820000000001,-0.344817,0.26181600000000005,-0.747453,0.5638759999999999,0.386228,0.13012900000000005,0.5587206577630681,0.0,single,-0.747453
140,1.166667,jog,1.5956323494120779,-0.8532517398608248,-0.42044636429087223,-0.6942609043661152,-0.9116538689650239,-0.8902370892619464,0.2776577873770197,-0.008159347252221477,-0.16738660907127753,2.9996400287977525,-1.022318214542866,0.3779697624190153,-3.19084948205596,2.8489728752519947,-5.451327536700705,3.7974498420217544,-2.476583449986754,-8.435652233734904,24.03264395474468,-6.407422341327603,-13.71369426069032,0.208075,-0.117369,-0.875473,-0.333116,0.26040699999999994,-0.740799,0.541191,0.37777599999999995,0.13467399999999996,0.5,0.0,flight,-0.740799
141,1.175,jog,1.5647425897035567,-0.824672986919461,-0.46525861034440796,-0.8895671890558758,-1.3862419875263914,-1.1230362358816444,0.287051482059278,-0.0009600384015370048,-0.30013200528020634,3.220208808352278,-1.1245649825992732,0.2576503060122372,-3.706919441800145,3.429587536465055,-5.377684633809546,1.1272884534091143,0.8639516201469274,-15.930084748461116,26.469312319035357,-12.270102970887486,-14.438912325306132,0.19742800000000005,-0.11050500000000002,-0.874097,-0.31932099999999997,0.257908,-0.734775,0.516749,0.36841300000000005,0.13932200000000006,0.5,0.0,flight,-0.734775
142,1.183333,jog,1.5653426137045625,-0.802952118084731,-0.46141845673827225,-1.1211442986069518,-1.6397877360261974,-1.3336224797386091,0.288011520460816,-0.12240489619585146,-0.41401656066242964,3.340453618144756,-1.1453258130325314,0.10080403216128493,0.0720057603511087,2.6066085245086055,0.46083686621093783,0.11520921655322576,-14.573965893953625,-13.666693313599465,14.42995437327242,-2.491399307963334,-18.82230575434462,0.186784,-0.10483400000000004,-0.873702,-0.304529,0.25505500000000003,-0.73009,0.491313,0.35988900000000007,0.14361199999999996,0.5,0.0,flight,-0.73009
143,1.191667,jog,1.554835613150939,-0.8134149268058468,-0.5172786177105737,-1.4655983979003278,-1.7432642516976558,-1.5233388746283671,0.1693064554835595,-0.12287017038636448,-0.3221742260619126,3.4634029277657525,-1.1757859371250212,0.002879769618430053,-1.2607392072982162,-1.255436611604961,-6.702683102027961,-14.243468319805089,-0.05582843658663548,11.020198536179068,14.752736935564634,-3.6549224972989607,-11.749971507421902,0.17523699999999998,-0.09907900000000003,-0.8720760000000001,-0.288623,0.252035,-0.725755,0.46386,0.35111400000000004,0.14632100000000003,0.5,0.0,flight,-0.725755
144,1.2,jog,1.5294611784471526,-0.7863914556582372,-0.5017400696027875,-1.4979082995868636,-1.5256284293806308,-1.516374666650637,0.04332173286931519,-0.11292451698068327,-0.27385095403816395,3.6044641785671763,-1.26137045481821,-0.12648505940237717,-3.045053966613076,3.242946255563406,1.8647003609488002,-15.118771464568038,1.1935261497277452,5.799024603834043,16.928027217259693,-10.27055294530057,-15.52440045851535,0.16285299999999997,-0.09346700000000002,-0.870177,-0.271332,0.248077,-0.722628,0.434185,0.341544,0.14754899999999993,0.5010481427651075,0.0,single,-0.722628
145,1.208333,jog,1.5556222248889686,-0.7475099003960076,-0.4660986439457495,-1.6544561885776299,-2.0617010415139423,-1.5099600550220522,0.03924156966278843,0.02496099843994214,-0.16356654266170398,3.762870514820526,-1.4020160806432012,-0.22920916836673005,3.1394511510639136,4.665973270398284,4.277142164531065,-0.4896391703500165,16.546923727423856,13.234658751525027,19.009520731230904,-16.878150225007634,-12.327386171168977,0.150217,-0.08702999999999994,-0.867656,-0.252939,0.24262300000000003,-0.720654,0.403156,0.329653,0.14700199999999997,0.7165835116582875,0.0,single,-0.720654
146,1.216667,jog,1.5583153347732444,-0.8155747540196869,-0.3713702903767853,-1.5304658285860682,-2.0161505623325127,-1.4703922245551324,0.1504679625629951,0.096472282217421,-0.05207583393328596,3.8242140628750425,-1.3756899448044355,-0.34749220062395453,0.32314733432634823,-8.16712906451651,11.366493108827214,13.346099460068249,8.580667599889637,13.377814822224638,7.360636915588856,3.1588835899647396,-14.192828444591639,0.138484,-0.07942900000000003,-0.864995,-0.23405499999999999,0.23795500000000003,-0.720455,0.37253899999999995,0.31738400000000005,0.14454,0.6897160732403314,0.0,single,-0.720455
147,1.225,jog,1.5891035641425417,-0.7991119644785616,-0.38809552382094115,-1.5195118921398507,-1.402574321689806,-1.4353453140979786,0.14592583703348483,0.09084363374534915,-0.04248169926796999,3.933277331093175,-1.4981399255970038,-0.45985839433576564,3.694735313728169,1.9756137694857863,-2.0071082976305696,-0.5450768666158883,-0.6754648352420203,1.1513422135264368,13.088115710804104,-14.694585478527081,-13.484482624722087,0.12645800000000001,-0.07201300000000005,-0.862115,-0.21452100000000002,0.23212999999999995,-0.7210529999999999,0.34097900000000003,0.304143,0.14106200000000002,0.7048935668522072,0.0,single,-0.7210529999999999
148,1.233333,jog,1.5874234969398875,-0.7932317292691853,-0.36541461658466245,-1.0273714143749553,-1.260475617705398,-1.1031708562696103,0.07992319692787783,0.044401776071041024,-0.03864154566182717,4.013200528021158,-1.513860554422196,-0.5349813992559772,-0.20161612896366848,0.7056564513832184,2.72181774106311,-7.920633638018432,-5.573245850751056,0.4608368662117914,9.591167278049143,-1.8865509210599112,-9.01512119527328,0.11389600000000005,-0.06503300000000001,-0.859392,-0.19430699999999998,0.22612499999999996,-0.722466,0.308203,0.291158,0.136926,0.834567870776678,0.0,single,-0.722466
149,1.241667,jog,1.6233501319894301,-0.892008639308848,-0.40916726661867026,-0.7081822578673546,-0.3329062113541368,-1.1889095669227474,0.045356371490279164,0.018598512119032285,-0.03815694744420403,4.107991360691115,-1.5512359011278907,-0.616990640748733,4.310851337838056,-11.852281022277653,-5.249898012239917,-4.147687237532806,-3.096143982722407,0.05814713434402854,11.373990001194727,-4.484682830056932,-9.840321753390349,0.10074500000000003,-0.057443999999999995,-0.8563000000000001,-0.17359999999999998,0.22063100000000002,-0.724198,0.274345,0.278075,0.13210200000000005,0.8964644756876796,0.0,single,-0.724198
150,1.25,jog,1.6109444377775248,-0.8781951278051192,-0.2788911556462275,0.20454123122059184,-0.1753052693843436,-0.9266105703562421,0.04908196327853071,0.04236169446777816,-0.027121084843394462,4.174126965078639,-1.616464658586356,-0.6770670826833145,-1.4887428551428545,1.657687687954987,15.633758667039952,0.44708889814611563,2.8516959496875187,1.3243564863566146,7.93658999010246,-7.827764005576136,-7.209461410606271,0.08773000000000003,-0.04977300000000001,-0.854202,-0.152241,0.21447900000000003,-0.727516,0.23997100000000002,0.26425200000000004,0.12668599999999997,0.882868716573868,0.0,single,-0.727516
151,1.258333,jog,1.5972638905556422,-0.9177967118684817,-0.3415336613464588,0.12748952700476657,0.10492357971814459,-0.8411072967254314,0.006120244809788576,0.02256090243610023,-0.02484099363974568,4.260890435617465,-1.6714268570743045,-0.7340693627745191,-1.6417313358793635,-4.75238018281085,-7.517401380083025,-5.155612440746734,-2.37619009140503,0.273621889313429,10.41203294597706,-6.595727647659784,-6.840547232833923,0.07447099999999995,-0.041937,-0.8515630000000001,-0.13004500000000002,0.20819899999999997,-0.7307870000000001,0.20451599999999998,0.25013599999999997,0.120776,0.9431491551838189,0.0,single,-0.7307870000000001
152,1.266667,jog,1.7206623470122215,-0.9226061915046727,-0.2573794096472339,0.6839518557437242,-0.29292351390977595,-0.48191053182893584,0.013318934485244408,0.016438684905207245,-0.012119030477561334,4.312095032397375,-1.7537796976241722,-0.7932565394768365,14.806630244369856,-0.577091389031799,10.097702387715895,0.8637736591619604,-0.7346073351203429,1.526513458385439,6.144060088782073,-9.881550341956691,-7.101893052833812,0.06024200000000002,-0.034111,-0.8495189999999999,-0.10844799999999999,0.201272,-0.7352529999999999,0.16869,0.235383,0.11426599999999998,0.9593628769558143,0.0,single,-0.7352529999999999
153,1.275,jog,1.6455058202328245,-0.9018360734429453,-0.3706948277931028,0.41986669018756184,0.7704276576020301,-0.5646342880540416,0.028681147245888803,0.01644065762630499,-0.012240489619584646,4.339853594143809,-1.7693507740309748,-0.8529941197647954,-9.019143979286893,2.4925138679620367,-13.598394113268927,1.8435392728482582,0.00023673600116967417,-0.014575680070000416,3.331160655998322,-1.8686039129728558,-7.1687963864105955,0.046769000000000005,-0.02645900000000001,-0.8465320000000001,-0.08599599999999996,0.19404300000000002,-0.739272,0.13276499999999997,0.22050200000000003,0.10726000000000002,0.9412459690117423,0.0,single,-0.739272
154,1.283333,jog,1.6554662186487172,-0.9470778831153093,-0.3824552982119279,0.848168533393864,0.948554491058191,-0.8427826978212197,0.021000840033598665,0.016920676827073055,-0.016200648025921135,4.461178447137803,-1.8768750750029657,-0.8222728909156252,1.1952956217319712,-5.42923433005679,-1.4113129027750992,-0.9216737324240973,0.05760460827649768,-0.47523801828110157,14.55956474186871,-12.903432253928832,3.686694929697557,0.033148999999999984,-0.018425999999999998,-0.84348,-0.062616,0.18629500000000004,-0.742937,0.09576499999999999,0.20472100000000004,0.10054300000000005,0.9475647069961772,0.0,single,-0.742937
155,1.291667,jog,1.6621070314375204,-0.9013678905687739,-0.19210463162946892,0.8571749092675,-0.3911541457570698,-0.7417257403171007,0.02339812814974855,0.019798416126706728,-0.00803935685145175,4.497240220782425,-1.8928485721142783,-0.8502519798416266,0.7968337879533545,5.484760324758372,22.840252769673942,0.28765156181304674,0.3453010918686978,0.9792765988084401,4.327066672020992,-1.9166663200519412,-3.357222093352767,0.019491999999999954,-0.010749000000000009,-0.8419460000000001,-0.03898800000000002,0.17803199999999997,-0.748422,0.058479999999999976,0.18878099999999998,0.09352400000000005,0.9471879395975356,0.0,single,-0.748422
156,1.3,jog,1.651986079443149,-0.8489139565582438,-0.11184447377895447,0.16718980073530976,-0.17435429121176282,-0.7504409053640521,0.0072002880115208745,0.01848073922957402,-0.004920196807872153,4.45217808712341,-1.9647185887435084,-0.885755430217193,-1.2145628218374278,6.294723870218312,9.631604206229815,-1.9438185693300605,-0.15812755275803259,0.37431417779665704,-5.407672345975559,-8.624746985386876,-4.2605844684466385,0.005785999999999958,-0.0035209999999999964,-0.841055,-0.015654,0.168734,-0.754871,0.02143999999999996,0.172255,0.08618400000000004,0.9659416266394264,0.0,single,-0.754871
157,1.308333,jog,1.6518660746429974,-0.8570742829713311,0.0387615504620143,0.4459541938875662,-0.3414457083577763,-0.945593230935185,-0.01656066242649379,0.016920676827073506,-0.018360734429377384,4.547941917676747,-2.0296411856474523,-0.8768750750030091,-0.014401152064263602,-0.9792783407041243,18.07344584675029,-2.851428109686173,-0.18721497689913924,-1.6129290317419123,11.492119351174596,-7.791023269404124,1.0656852531122087,-0.008116999999999985,0.003762000000000043,-0.8415309999999999,0.008479000000000014,0.15896299999999997,-0.762501,0.016596,0.15520099999999992,0.07902999999999993,0.9500644467261198,0.0,single,-0.762501
158,1.316667,jog,1.658267338612898,-0.8806095512358926,0.11723062155027576,0.14768212858596766,-1.4177165337666449,-1.035444917177774,0.018598512119032285,0.012838972882165517,0.0059995200383962215,4.65466762658983,-2.0871130309574966,-0.8279337652987702,0.7680902291697452,-2.82400627124565,9.41553528776828,4.2187634443875455,-0.48976529216558173,2.9229966963970986,12.806060584723069,-6.8960697516251255,5.872487365519386,-0.021781999999999968,0.011207999999999996,-0.8424579999999999,0.03345099999999995,0.14890800000000004,-0.770378,0.05523299999999992,0.13770000000000004,0.07207999999999992,0.9610292802791531,0.0,single,-0.770378
159,1.325,jog,1.6659066362654664,-0.8953558142325769,0.07860314412577442,0.15959771235114512,-0.4586762695465857,-1.0268385490805607,0.02412096483858791,0.02352094083763726,0.013560542421697231,4.675867034681443,-2.079923196927898,-0.7356294251770134,0.9167523884037432,-1.7696223444959187,-4.635482710248613,0.6627208351800882,1.281887430153827,0.9073589803553437,2.544030732222889,0.8628145961356862,11.076963893166646,-0.03546300000000002,0.01886500000000002,-0.8430000000000001,0.05853300000000006,0.13903700000000002,-0.777163,0.09399600000000008,0.120172,0.06583700000000003,0.939471220954118,0.0,single,-0.777163
160,1.333333,jog,1.7130685227408842,-0.9446777871114668,0.3729749189967533,1.0545237019014808,-2.076355445686901,-1.2936983833302589,0.030961238449541757,0.017400696027834894,0.018480739229569023,4.697587903516057,-2.3445337813512164,-0.6761070442817595,5.659652763160557,-5.9188735004066935,35.326026025557866,0.820865667941165,-0.734458755526492,0.5904472348339981,2.60660852449464,-31.75454031241015,7.14297142628739,-0.049480000000000024,0.02688199999999996,-0.845954,0.083403,0.12737199999999999,-0.7859050000000001,0.13288300000000003,0.10049000000000002,0.06004899999999991,0.9332725229206759,0.0,single,-0.7859050000000001
161,1.341667,jog,1.7488600911927383,-0.8927285817134801,0.11855051595872422,-0.5283337597997986,1.0411291510992229,-0.8151776022474144,0.01295896328293725,0.029277657787380205,0.04211663066954689,4.6054715622750955,-2.170026397888212,-0.7317014638829024,4.294644642651169,6.233405975280493,-30.528486085677212,-2.1601002119756236,1.4251214014333498,2.836080086390487,-11.053076702779377,20.93921087869061,-6.6707966884021985,-0.06394700000000003,0.034565999999999986,-0.846591,0.10720999999999992,0.11672699999999997,-0.792991,0.17115699999999995,0.08216099999999998,0.05359999999999998,0.9118251964397728,0.0,single,-0.792991
162,1.35,jog,1.7538701548061535,-0.9127565102603946,-0.05208208328333588,-0.3773198440353199,2.9826389851910786,-0.7243628475897536,0.03564142565702466,0.016440657626304554,0.05532221288851494,4.631825273010838,-2.2835713428536697,-0.5937837513500446,0.6012316828771239,-2.4034475635322377,-20.476730978285985,2.722004365065044,-1.540501639394627,1.584733255606362,3.162571791160697,-13.625938433392001,16.550787535444062,-0.07826499999999997,0.042308999999999986,-0.845696,0.13119199999999998,0.10530400000000001,-0.797505,0.20945699999999995,0.06299500000000002,0.048190999999999984,0.8869469927063126,0.01809000000000005,single,-0.797505
163,1.358333,jog,1.7779911196448082,-0.9589583583343453,0.23496939877595502,1.2091898875706615,0.10050809076541799,-0.8715323524297212,0.05544221768871021,0.026641065642625944,0.060362414496579996,4.601584063362585,-2.3525741029641414,-0.5033001320052852,2.8946315659012227,-5.544443546615995,34.44755574934519,2.3761900914059435,1.224097925875613,0.6048483869032886,-3.6290903214032157,-8.280662439754268,10.858468660117625,-0.092619,0.05052200000000001,-0.847151,0.154721,0.09369100000000002,-0.803657,0.24734,0.04316900000000001,0.04349400000000003,0.8563645919091407,0.06506000000000006,single,-0.803657
164,1.366667,jog,1.8526517878569584,-0.9520038396928169,0.3861291096712299,0.5355803005766995,0.7181047609313015,-0.3596640499770834,0.05267578593712069,0.026157907367409923,0.07583393328533666,4.596472282217385,-2.3040556755459383,-0.46364290856731016,8.95856350037793,0.8344754789450868,18.137714290289622,-0.33194525457037416,-0.057974355077515874,1.8564337399515898,-0.613364668250582,5.821745550540286,4.7584861336662785,-0.10762000000000005,0.058674000000000004,-0.8497370000000001,0.17758799999999997,0.08242300000000002,-0.8107390000000001,0.285208,0.02374900000000002,0.03899799999999998,0.8400541760169656,0.11001999999999995,single,-0.8107390000000001
165,1.375,jog,1.859354374174985,-0.9494779791191704,0.321852874114963,0.7613363262063264,1.3480408491687783,-0.31779969340749065,0.04944197767911043,0.02316092643705754,0.14112564502580274,4.582863314532626,-2.388215528621167,-0.36313452538101865,0.8043425318644691,0.30311539345331545,-7.713456805024297,-0.3880725138617888,-0.35965209772619816,7.835318821608865,-1.6331414478289614,-10.099586352481644,12.061488441892768,-0.12270200000000003,0.06677899999999998,-0.851243,0.200283,0.070434,-0.816447,0.322985,0.0036550000000000193,0.03479599999999994,0.7478019662921762,0.15204,single,-0.816447
166,1.383333,jog,1.890675627025094,-0.9589583583343453,0.4060962438497508,0.7227595479604247,0.42416865891929934,-0.18891057470513506,0.05532221288851475,0.017280691227653223,0.1934477379095176,4.522500900036042,-2.3568942757710514,-0.3015720628825182,3.7587006900407167,-1.1376910134615321,10.109608752524728,0.7056564513865801,-0.7056564513865801,6.278902302137927,-7.2437794907698,3.758700690041516,7.38779101146058,-0.137996,0.07491400000000004,-0.853015,0.22221400000000002,0.05878500000000003,-0.822344,0.36021000000000003,0.016129000000000004,0.030671000000000004,0.6634274189614723,0.19328999999999996,single,-0.822344
167,1.391667,jog,1.9287257019438337,-0.9857211423086045,0.4636429085673218,0.9176374126165951,0.27384680228744374,-0.07782178874711687,0.0659947204223651,-0.01931845452364063,0.23326133909287095,4.469762419006436,-2.3664506839452684,-0.20722342212622907,4.565643738749641,-3.2112771747371056,6.905047362319485,1.2805984561855366,-4.391546166461912,4.777249962005404,-6.328111474634713,-1.146677246726292,11.320931216257309,-0.15352000000000005,0.08296799999999999,-0.854935,0.2433909999999999,0.04727799999999999,-0.8279350000000001,0.39691099999999996,0.03569,0.026999999999999913,0.5946902483415122,0.23000000000000004,single,-0.8279350000000001
168,1.4,jog,2.1120844833793484,-1.0771630865234756,0.7685107404296201,-0.24456022560785126,-3.7929197699727126,-0.6381519421029699,0.09276371054842562,-0.020640825633026168,0.2576503060122432,4.406336253450181,-2.4483379335173603,-0.07104284171366863,22.003933929619144,-10.973472244674415,36.58560324760603,3.21240731141975,-0.15869088076149648,2.9267931020487796,-7.611444324523613,-9.826863023172047,16.342323342441098,-0.17034699999999997,0.09177200000000002,-0.859192,0.262509,0.03585200000000005,-0.834931,0.43285599999999996,0.05591999999999997,0.024260999999999977,0.5423039889665738,0.25739,single,-0.834931
169,1.408333,jog,1.9627985119404476,-1.1449657986319213,0.08016320652825996,2.359351078586299,2.1675147097027203,-0.7464180755964906,0.11160446417856355,-0.09300372014880075,0.3372134885395357,4.295571822872843,-2.1851674066962334,0.05556222248889919,-17.91503317399474,-8.136650919050101,-82.60500826849251,2.260980874851506,-8.683894697680705,9.547963821827805,-13.292263359814811,31.581726487594175,15.193215432925191,-0.18577300000000002,0.10053800000000002,-0.85705,0.281948,0.027183999999999986,-0.835136,0.467721,0.07335400000000003,0.02191399999999999,0.5,0.28086,flight,-0.835136
170,1.416667,jog,1.9228461723062469,-0.9384449244060681,0.42764578833694256,0.7749566024230559,0.9257557138094201,0.23136634358442965,0.11135109191264723,-0.14314854811615338,0.4134869210463239,4.017278617710654,-2.177465802735819,0.11519078473722351,-4.7938972443246355,24.78052246530563,41.694574251102615,-0.03040223973078033,-6.0168980042420905,9.152079734436002,-33.39251321840575,0.9241185457660995,7.154855081392543,-0.20087,0.10716600000000004,-0.857168,0.299403,0.01685800000000004,-0.83774,0.500273,0.090308,0.019428,0.5,0.30571999999999994,flight,-0.83774
171,1.425,jog,1.967358694347742,-0.8315132605304022,0.29701188047521443,-1.2986380276195246,3.2712241685967203,0.46453393763053535,0.1678867154686205,-0.21084843393735483,0.5246609864394485,3.7939517580702504,-2.0556822272890596,0.19380775231008798,5.3417163136318555,12.832312957597985,-15.67669601124755,6.784546208565015,-8.124311270994871,13.341421504034876,-26.800295168654742,14.61461363815639,9.434413485282983,-0.21586499999999997,0.112338,-0.855271,0.3146239999999999,0.0066569999999999685,-0.8386,0.5304889999999999,0.10568100000000002,0.01667099999999999,0.5,0.33329000000000003,flight,-0.8386
172,1.433333,jog,2.0745229809192622,-1.0870034801392168,0.5175807032281352,-0.9171481240794945,-0.018446042331091782,-0.3615109676002152,0.23352934117364282,-0.24840993639746012,0.43141725669027087,3.5384615384615854,-1.9194767790711782,0.26629065162606735,12.860228797734466,-30.660052755168238,26.469317503050856,7.877430181810023,-4.507560597636581,-11.189695157707723,-30.66005275515029,16.345307598449853,8.698295849751593,-0.23120600000000008,0.11932599999999999,-0.855989,0.326823,-0.00028000000000000247,-0.840694,0.5580290000000001,0.11960599999999999,0.015294999999999948,0.5,0.34704999999999997,flight,-0.840694
173,1.441667,jog,2.115190784737202,-0.9601631869450382,0.3316534677225783,-1.6132934647309727,1.0784382636560543,-0.1384800072957247,0.16726661867050585,-0.2414206863450922,0.5687544996400254,3.203623710103171,-1.8448524118070446,0.3111351091912621,4.879746078466458,15.219617613892199,-22.3094835019865,-7.950890629126046,0.8386429148509557,16.47915082190467,-40.17732521699208,8.954207735077155,5.380904435468489,-0.24744000000000005,0.12531599999999998,-0.854013,0.335894,-0.007653000000000021,-0.840865,0.583334,0.132969,0.013148000000000049,0.5,0.36852000000000007,flight,-0.840865
174,1.45,jog,2.0529221168846923,-0.8970358814352667,0.42157686307452547,-1.2263869769354805,0.7778284750332831,-0.058396918131061494,0.1671666866674722,-0.389535581423257,0.6447857914316635,2.893195727829132,-1.6941077643105868,0.35197407896316235,-7.47253904386299,7.575579684360027,10.79123909179743,-0.011992320056840824,-17.77449838931551,9.12411997979584,-37.25284798680447,18.090081302827212,4.900872407524378,-0.263154,0.12954500000000002,-0.852153,0.342896,-0.014295000000000002,-0.841445,0.60605,0.14384000000000002,0.01070800000000005,0.5,0.39292000000000005,flight,-0.841445
175,1.458333,jog,2.0322812912516186,-0.8659546381855123,0.5132605304212049,0.06684487106568862,0.9847846266939133,0.031533728267728774,0.39289571582862615,-0.22596903876154933,0.686187447497888,2.5594623784950965,-1.7333493339733301,0.40345613824552323,-2.476998155895034,3.7298983859058947,11.002480180808572,27.08856704201968,19.628770270215387,4.968397463845404,-40.04960390423973,-4.709176726598175,6.1780942376527035,-0.27681500000000003,0.134878,-0.850712,0.34728899999999996,-0.021523000000000014,-0.84236,0.624104,0.156401,0.008352000000000026,0.5,0.41648,flight,-0.84236
176,1.466667,jog,2.0761939044876754,-0.8468922486201276,0.176505879529641,-0.2392435985510912,1.5758699262728477,0.07245640653919419,0.48848092152628614,-0.25929925605951637,0.646268298536128,2.2227021838253345,-1.432205423566142,0.2191024718022593,5.269092060962036,2.2873037635451303,-40.407325520946756,11.469307139148285,-3.999306131265619,-4.789914682236708,-40.40799072111452,36.13437849858336,-22.120670319566525,-0.290047,0.13977500000000004,-0.846797,0.34851,-0.026401000000000008,-0.842005,0.638557,0.16617600000000005,0.0047920000000000185,0.5,0.4520799999999999,flight,-0.842005
177,1.475,jog,1.971318852754072,-0.7971918876754943,0.39289571582862615,-0.5360577152779449,1.148260646749449,0.3763637571180339,0.5766230649225873,-0.5010200408016281,0.7854314172566776,1.8906756270250435,-1.3603744149765735,0.12300492019680549,-12.58550962841733,5.964281884631272,25.96781906864051,10.577480306768225,-29.00765447523191,16.700242256155914,-39.8447806072585,8.620065833381416,-11.532167479353431,-0.30166899999999996,0.142243,-0.843526,0.347838,-0.031093999999999983,-0.844254,0.649507,0.173337,0.0007279999999999509,0.49271999999999994,0.5,flight,-0.843526
178,1.483333,jog,2.0957638305532456,-0.8363134525381095,0.08160326413056763,-1.692044467349426,2.324426127387299,-0.0016745483014104867,0.6828273130925266,-0.4971798871954933,0.8480739229569265,1.5695427817112904,-1.2964118564742684,-0.03216128645145721,14.9339946956888,-4.694775574536848,-37.356588467306054,12.745019581176084,0.46083686621083125,7.517401380085137,-38.53748293696822,7.675814052838801,-18.62068962537671,-0.313443,0.145069,-0.837139,0.343453,-0.03492799999999996,-0.845202,0.656896,0.17999699999999996,0.008063000000000042,0.41937,0.5,flight,-0.837139
179,1.491667,jog,2.0441564674825785,-0.8233741300695857,0.23950083993280327,-1.1919129911306277,0.3370678576306663,0.4464212088801071,0.7456203503719709,-0.5766738660907056,1.0201583873290054,1.2836573074153819,-1.2293016558675216,-0.16630669546436305,-6.192388177425804,1.5525944886637517,18.946193400796066,7.534561708596571,-9.538514386274503,20.648483845941637,-34.303512634498,8.052579866420238,-16.096161388637487,-0.3242649999999999,0.147125,-0.830633,0.33711499999999994,-0.038310999999999984,-0.848584,0.6613799999999999,0.185436,0.01795100000000005,0.32048999999999994,0.5,flight,-0.830633
180,1.5,jog,1.959198367934743,-0.8147125885035463,0.12768510740429181,0.3153078055367686,-0.28025460537674796,0.2999487241103821,0.9404776191047708,-0.5905436217448763,1.220448817952729,1.0370814832593445,-1.1598463938557657,-0.30541221648866135,-10.195379760930805,1.0394265649873342,-13.418424640407114,23.383807600240207,-1.664437255990739,24.035813107371354,-29.590282510025162,8.334964840004384,-16.693330256126192,-0.332754,0.148993,-0.8215269999999999,0.3294309999999999,-0.041187,-0.852193,0.6621849999999999,0.19018,0.030666000000000082,0.19334,0.5,flight,-0.8215269999999999
181,1.508333,jog,1.9647185887435608,-0.8300732029281255,-0.03960158406335587,0.22026752231367375,1.1810947769613922,0.33367295630475013,1.101164046561868,-0.8131525261010519,1.2776911076443163,0.8205928237129706,-1.0788431537261587,-0.46321852874115416,0.6624529951779571,-1.843347464848108,-20.07520598435728,19.283142620556657,-26.71413708822485,6.8693495369720035,-25.97967833269841,9.720777646658798,-18.937514970898146,-0.33995,0.149134,-0.81055,0.3198970000000001,-0.04325999999999999,-0.855723,0.6598470000000001,0.19239399999999998,0.04517300000000002,0.04827000000000009,0.5,flight,-0.81055
182,1.516667,jog,1.9940004799615905,-0.7952963762898901,0.08939284857211303,-0.718903160891484,-0.2568511891854908,0.5142289082094448,1.3458123350131892,-0.9666426685865066,1.358891288696894,0.589392848572113,-0.9538036957043378,-0.5909527237820927,3.5135458624945386,4.1728853657589475,15.478093668762648,29.35544617846405,-18.41734371075756,9.743242266927902,-27.74177767468872,15.003534679844009,-15.326877254732134,-0.345352,0.14770599999999998,-0.7999700000000001,0.3081910000000001,-0.04458100000000001,-0.861393,0.6535430000000001,0.19228699999999999,0.061422999999999894,0.0,0.5,flight,-0.7999700000000001
183,1.525,jog,1.9267970718829013,-0.799831993279739,-0.18960758430337696,0.07001824500439176,0.9423602790715211,0.38697807313990024,1.4424576983079491,-1.0860434417376796,1.3348133925357162,0.35605424216968307,-0.879875195007809,-0.6798271930877301,-8.064731558705125,-0.5442958106142897,-33.48139120070713,11.597907511671764,-14.328665924777885,-2.8894631178660815,-28.00175283840539,8.871774954581719,-10.665362931193828,-0.34938800000000003,0.14532099999999998,-0.7872669999999999,0.295102,-0.04524800000000001,-0.865478,0.64449,0.190569,0.07821100000000003,0.0,0.5,flight,-0.7872669999999999
184,1.533333,jog,1.9306372254889848,-0.7914316572662756,-0.165486619464778,0.07555816639671423,-0.9250938234314823,0.3746072898517833,1.6735869434777115,-1.2570502820112532,1.2064082563302296,0.24996999879995446,-0.7335893435737276,-0.8646345853834005,0.460836866204657,1.008080644841378,2.8946315658944606,27.736618885126408,-20.521641698496413,-15.409232713966675,-12.730618429104373,17.555004372264346,-22.17777418644752,-0.35153,0.141441,-0.7758349999999999,0.28109700000000004,-0.044766,-0.871304,0.632627,0.186207,0.09546900000000003,0.0,0.5,flight,-0.7758349999999999
185,1.541667,jog,1.9397648188145333,-0.7703383729301814,-0.32997360211182764,-0.4009467505527697,0.32914297711868423,0.7013046517165012,1.7404607631389808,-1.3940484761219387,1.1709863210943368,0.18598512119030114,-0.49412047036238166,-0.848452123830109,1.0952235811793558,2.5309916410000786,-19.736858968928818,8.024216422038702,-16.438468215825303,-4.250292204930831,-7.677571107469947,28.733966068076615,1.9417400471912423,-0.35319100000000003,0.136243,-0.7633260000000001,0.26648099999999997,-0.042464,-0.8756250000000001,0.619672,0.178707,0.11229900000000004,0.0,0.5,flight,-0.7633260000000001
186,1.55,jog,1.9063962558501952,-0.7971918876754943,-0.39637585503420114,-0.3366142384286779,-0.8891245062470626,0.5291476403187053,1.8382335293411347,-1.5640225609024108,1.07716308652344,0.11892475699027323,-0.1584063362534459,-0.6281051242049576,-4.004387731229751,-3.2225506714643557,-7.968589094248451,11.733201272309158,-20.397706081899564,-11.259238518048129,-8.047565606627474,40.287307585375,26.442697662924232,-0.35375900000000005,0.129853,-0.751047,0.251586,-0.03714099999999998,-0.877556,0.605345,0.16699399999999998,0.12650899999999998,0.0,0.5,flight,-0.751047
187,1.558333,jog,1.852994119764812,-0.7759510380415287,-0.5519020760830508,-0.6058186138048771,-1.381684839522761,0.6420025209971431,2.0388815552622366,-1.6770670826833178,0.999039961598473,0.23484939397575957,-0.003480139205568404,-0.4503780151206089,-6.408512670752865,2.5490039162325524,-18.66389308158539,24.07872625958283,-13.565885249118937,-9.375149996996017,13.91151289877444,18.591887321238318,21.328106214370614,-0.35221,0.12234400000000004,-0.738123,0.23810199999999992,-0.03070399999999998,-0.87671,0.590312,0.15304800000000002,0.13858700000000002,0.0,0.5,flight,-0.738123
