frame_id,timestamp,gait_type,root_linear_velocity_x,root_linear_velocity_y,root_linear_velocity_z,root_angular_velocity_x,root_angular_velocity_y,root_angular_velocity_z,left_linear_velocity_x,left_linear_velocity_y,left_linear_velocity_z,right_linear_velocity_x,right_linear_velocity_y,right_linear_velocity_z,root_acceleration_x,root_acceleration_y,root_acceleration_z,left_acceleration_x,left_acceleration_y,left_acceleration_z,right_acceleration_x,right_acceleration_y,right_acceleration_z,left_pos_rel_x,left_pos_rel_y,left_pos_rel_z,right_pos_rel_x,right_pos_rel_y,right_pos_rel_z,step_length,step_width,step_height,left_contact_prob,right_contact_prob,support_type,max_foot_height
<<<<<<< HEAD
<<<<<<< HEAD
1,0.008333,jog,-0.04104164166567437,-0.08964358574340947,-0.030961238449535636,0.13910645144182834,0.19765404493854918,-0.35322385922095223,0.004800192007685108,-0.012000480019199447,0.02976119044761769,0.0007200288011461046,0.0015600624025009907,-0.0036001440057605,0.0,0.0,0.0,0.0,0.0,0.0,0.0,0.0,0.0,-0.08071399999999995,-0.08776399999999995,-0.90811,0.019376999999999978,0.170188,-0.9054800000000001,0.10009099999999993,0.25795199999999996,0.00262999999999991,0.9459223341217771,0.9670514260016003,double,-0.9054800000000001
2,0.016667,jog,-0.041276697864185495,-0.10715142788577305,-0.027477801775862096,0.35471666202403057,0.08270929901214019,-0.2735934386004858,0.0019198464122889367,-0.00251979841613256,0.041876649868010804,0.0015598752099880916,0.0049196064314804095,0.0014398848092150374,-0.028204487462338432,-2.100772995244009,0.41797896252382283,-0.34561382234175314,1.1375907851052178,1.4537388313406663,0.100773507180464,0.4031130344347754,0.6047550773908732,-0.08035399999999981,-0.08689199999999997,-0.907532,0.01973400000000014,0.171122,-0.905239,0.10008799999999995,0.25801399999999997,0.0022929999999999895,0.9300061709372277,0.9681398689857803,double,-0.905239
=======
1,0.008333,stand,-0.04104164166567437,-0.08964358574340947,-0.030961238449535636,0.13910645144182834,0.19765404493854918,-0.35322385922095223,0.004800192007685108,-0.012000480019199447,0.02976119044761769,0.0007200288011461046,0.0015600624025009907,-0.0036001440057605,0.0,0.0,0.0,0.0,0.0,0.0,0.0,0.0,0.0,-0.08071399999999995,-0.08776399999999995,-0.90811,0.019376999999999978,0.170188,-0.9054800000000001,0.10009099999999993,0.25795199999999996,0.00262999999999991,0.9459223341217771,0.9670514260016003,double,-0.9054800000000001
2,0.016667,stand,-0.041276697864185495,-0.10715142788577305,-0.027477801775862096,0.35471666202403057,0.08270929901214019,-0.2735934386004858,0.0019198464122889367,-0.00251979841613256,0.041876649868010804,0.0015598752099880916,0.0049196064314804095,0.0014398848092150374,-0.028204487462338432,-2.100772995244009,0.41797896252382283,-0.34561382234175314,1.1375907851052178,1.4537388313406663,0.100773507180464,0.4031130344347754,0.6047550773908732,-0.08035399999999981,-0.08689199999999997,-0.907532,0.01973400000000014,0.171122,-0.905239,0.10008799999999995,0.25801399999999997,0.0022929999999999895,0.9300061709372277,0.9681398689857803,double,-0.905239
>>>>>>> 3b0d06690e55fb02323d988053aa126fb7c3a6e7
=======
1,0.008333,stand,-0.04104164166567437,-0.08964358574340947,-0.030961238449535636,0.13910645144182834,0.19765404493854918,-0.35322385922095223,0.004800192007685108,-0.012000480019199447,0.02976119044761769,0.0007200288011461046,0.0015600624025009907,-0.0036001440057605,0.0,0.0,0.0,0.0,0.0,0.0,0.0,0.0,0.0,-0.08071399999999995,-0.08776399999999995,-0.90811,0.019376999999999978,0.170188,-0.9054800000000001,0.10009099999999993,0.25795199999999996,0.00262999999999991,0.9459223341217771,0.9670514260016003,double,-0.9054800000000001
2,0.016667,stand,-0.041276697864185495,-0.10715142788577305,-0.027477801775862096,0.35471666202403057,0.08270929901214019,-0.2735934386004858,0.0019198464122889367,-0.00251979841613256,0.041876649868010804,0.0015598752099880916,0.0049196064314804095,0.0014398848092150374,-0.028204487462338432,-2.100772995244009,0.41797896252382283,-0.34561382234175314,1.1375907851052178,1.4537388313406663,0.100773507180464,0.4031130344347754,0.6047550773908732,-0.08035399999999981,-0.08689199999999997,-0.907532,0.01973400000000014,0.171122,-0.905239,0.10008799999999995,0.25801399999999997,0.0022929999999999895,0.9300061709372277,0.9681398689857803,double,-0.905239
>>>>>>> 3b0d06690e55fb02323d988053aa126fb7c3a6e7
3,0.025,jog,-0.03900156006239154,-0.11016440657625998,-0.026281051242045987,0.07638303983283201,0.284581731699939,-0.3819290767684383,0.0022800912036470954,0.05700228009120403,0.008160326413056355,0.0013200528021100738,0.007920316812660443,0.0025201008040321837,0.27302745731356703,-0.3615719057346611,0.14361580869028073,0.04323110420714733,7.142935138285923,-4.046120659420911,-0.028779840138967696,0.36009964972759306,0.12963110462224245,-0.08000999999999991,-0.08549899999999999,-0.907245,0.020070000000000032,0.17210599999999987,-0.904999,0.10007999999999995,0.25760499999999986,0.0022459999999999702,0.9039524180612568,0.9635137482361196,double,-0.904999
4,0.033333,jog,-0.026281051242045987,-0.12600504020160752,-0.02976119044762102,0.3865872450945507,0.2841961447629432,-0.20725096014248431,-0.004200168006721138,0.005640225609013348,0.03984159366374643,-0.0006000240009639692,0.004560182407294191,-0.0012000480019196116,1.5265221193262395,-1.9009520731246303,-0.41763341000540416,-0.7776622117326574,-6.1636930855863055,3.8019041462486585,-0.23041843310620944,-0.4032322579342676,-0.44643571414278116,-0.07982599999999995,-0.08440200000000009,-0.9066649999999999,0.02028399999999997,0.17319399999999985,-0.9047609999999999,0.10010999999999992,0.25759599999999994,0.0019040000000000168,0.9325708985124141,0.9730375621743543,double,-0.9047609999999999
5,0.041667,jog,-0.012359011279093378,-0.15634749220063043,-0.08987281017518593,-0.03546158543627613,0.12701689230987362,-0.3808258101085926,-0.010199184065288308,0.007319414446854902,0.04859611231101542,0.00035997120230084524,0.008879289656842993,0.0016798656107511545,1.6705111546619398,-3.6408029756446973,-7.212817341920435,-0.7198243410807738,0.20148654161765703,1.0504582010161976,0.11519020917504372,0.5182514098330696,0.34556198856140696,-0.0798080000000001,-0.08303799999999995,-0.905511,0.020389999999999908,0.17457100000000003,-0.903998,0.10019800000000001,0.257609,0.0015129999999999866,0.9163476221499671,0.9697967241130767,double,-0.903998
6,0.05,jog,-0.020520820832850506,-0.1648865954638169,-0.053522140885628997,0.20871550511148793,0.20503592024703918,-0.2197539020904358,-0.01908076323053165,-0.012720508820372197,0.04872194887795472,0.0022800912036470954,0.010080403216125402,0.004320172806911601,-0.9794563247038435,-1.0247333809176125,4.36225480493903,-1.0658321331145255,-2.4048869875467536,0.01510099207239869,0.23042361710623427,0.14413939268959663,0.31684953752075434,-0.07979599999999998,-0.08177000000000012,-0.904659,0.020580000000000043,0.176029,-0.903516,0.10037600000000002,0.2577990000000001,0.0011430000000000051,0.9102516609164083,0.9699005628560267,double,-0.903516
7,0.058333,jog,-0.014280571222846542,-0.1308052322092926,-0.03156126245049961,0.02731860955136804,0.28128880720800054,-0.2602444819639357,-0.03792151686067238,-0.008400336013415631,0.02568102724108951,0.0009600384015370216,0.009840393615734485,0.004680187207488817,0.7488599075967796,4.089927187630421,2.635410828648672,-2.260980874851882,0.5184414744937678,-2.7650211972717154,-0.15841267276011925,-0.028802304139075592,0.04320345620751422,-0.07999299999999998,-0.08074999999999988,-0.904182,0.02070700000000003,0.17720099999999994,-0.903214,0.10070000000000001,0.2579509999999998,0.0009680000000000799,0.9223948339650903,0.9720885274759585,double,-0.903214
8,0.066667,jog,-0.014758819294441228,-0.1880249580033446,-0.05099592032637493,0.2728917922642515,0.2507879111552201,-0.17333105715944838,-0.07367410607150136,-0.04355651547877528,0.07583393328533723,0.008399328053757437,0.022558195344381686,-0.004919606431485405,-0.05738517777714009,-6.865817829859849,-2.3319723873140528,-4.2899675078988455,-4.218404063518076,6.0178672959260515,0.8926433467987058,1.5260141263075593,-1.151883086030024,-0.080484,-0.07954600000000012,-0.903125,0.02089999999999992,0.1789559999999999,-0.90283,0.10138399999999992,0.258502,0.0002949999999999342,0.8094173452598249,0.9561020853742683,double,-0.90283
9,0.075,jog,-0.0016800672026831276,-0.17820712828515323,-0.051002040081604354,0.1058723931863207,0.36192993126506473,-0.15912569589483674,-0.12948517940718265,-0.07728309132366368,0.05568222728909151,-0.0012000480019279396,0.010200408016307547,0.0018000720028802516,1.5695130315322345,1.178186693650711,-0.0007344000035313197,-6.697596704149927,-4.047350995426428,-2.418301451607553,-1.1519712055304674,-1.4829937991208628,0.8063936678705942,-0.0815490000000001,-0.07870500000000002,-0.902236,0.02090399999999981,0.18052599999999996,-0.90239,0.1024529999999999,0.259231,0.00015399999999998748,0.730548331687237,0.9826211576493431,double,-0.902236
10,0.083333,jog,-0.004080163206539,-0.18720748829953252,-0.02916116644665703,0.14434827361327227,0.3316152076916655,-0.14957408431027477,-0.21864874594983663,-0.05424216968677505,0.021840873634945572,0.0009600384015370207,0.03612144485780709,0.03180127205088134,-0.2880230413843598,-1.080086405181721,2.62100967658074,-10.700055987357963,2.7650211972745233,-4.061124883492849,0.2592207372452848,3.1106488469338203,3.600288017280819,-0.083337,-0.07759699999999992,-0.901811,0.02094599999999991,0.18238700000000008,-0.901882,0.1042829999999999,0.259984,7.099999999993223e-05,0.6220687606173314,0.9197745995404512,double,-0.901811
11,0.091667,jog,0.0019198464122889385,-0.20602351811854688,-0.04691624670026764,0.2210531445881142,0.43285154249778335,-0.10984118234038293,-0.1509479241660646,-0.13018958483321375,0.062275017998559994,-0.00767938564912911,0.01847852171826105,-0.00479961603071735,0.7199435587746511,-2.257742958845018,-2.1304391952976505,8.123448738153598,-9.112960780710191,4.851709186898782,-1.036647954243597,-2.116981418232068,-4.391755229373496,-0.08461099999999999,-0.07696499999999995,-0.900901,0.02086600000000005,0.18425800000000003,-0.901531,0.10547700000000004,0.261223,0.0006300000000000194,0.6456387758365814,0.9657028895417552,double,-0.900901
12,0.1,jog,0.008280331213233488,-0.22116884675387466,-0.03720148805952624,0.17533096274280224,0.3221734164968647,-0.06946414699030384,-0.23772950918036828,-0.1369254770190877,0.06468258730349266,-0.03564142565702526,-0.020640825633032624,-0.011760470418816846,0.7632887076616518,-1.8175121367248006,1.16581766959575,-10.414206769987233,-0.8083393958807084,0.2889198733868554,-3.3555790241084993,-4.6945094625337385,-0.8353359400095391,-0.08666099999999988,-0.07626299999999997,-0.900052,0.020500000000000185,0.185929,-0.901319,0.10716100000000006,0.262192,0.0012670000000000181,0.5175554001109873,0.9286117117808378,double,-0.900052
13,0.108333,jog,0.009960398415943277,-0.22500900035999646,-0.041881675267002635,0.13047955279148044,0.3647831033409365,-0.14668091054203636,-0.1809672386895555,-0.16680667226689108,0.08352334093363684,-0.008760350414015336,0.0387615504620273,-0.0002400096003834229,0.2016161289703336,-0.4608368662092653,-0.5616449306943954,6.811744928694687,-3.585886865211018,2.260980874852297,3.2258580634837326,7.128570274218165,1.3825105986359574,-0.088252,-0.07577800000000012,-0.899007,0.02034400000000014,0.18812699999999993,-0.900972,0.10859600000000014,0.26390500000000006,0.0019649999999999945,0.547177735471617,0.9337668441076672,double,-0.899007
14,0.116667,jog,0.01727861771060042,-0.24862011039117732,-0.034197264218860025,0.209701031964937,0.4086222346476462,-0.004578717040646735,-0.33105351571873687,-0.14362850971920943,-0.03167746580273579,-0.008039356851456585,0.036477081833463126,0.006599472042236554,0.8781160660735703,-2.8331065552172823,0.9220555613322058,-18.008912530499305,2.7811570131607426,-13.822990969087174,0.08651230652252823,-0.27411430628319755,0.820672143342929,-0.0911550000000001,-0.07490299999999994,-0.8989860000000001,0.020132999999999956,0.1905030000000001,-0.900632,0.11128800000000005,0.26540600000000003,0.0016459999999999253,0.4835400000000001,0.9367816440838561,single,-0.8989860000000001
15,0.125,jog,0.02544101764069112,-0.24792991719667623,-0.03312132485300062,0.10089992179369486,0.2986793641045449,-0.09704947901496945,-0.22980919236770822,-0.1300852034081466,0.029641185647426422,-0.009480379215188088,0.026161046441837227,-0.0001200048001921278,0.9795271726977931,0.08282649639998657,0.12911788861867324,12.14980479431522,1.6252617677982515,7.358532515320085,-0.17292960083181383,-1.2379737659457468,-0.8063694758704772,-0.09328200000000009,-0.07392100000000013,-0.898463,0.019841999999999915,0.19278699999999982,-0.900357,0.113124,0.26670799999999995,0.0018939999999999513,0.5381748100585133,0.9536231516646325,double,-0.898463
16,0.133333,jog,0.02172086883475178,-0.27577103084124943,-0.028801152046083977,0.07757395066095289,0.6497248143820099,-0.08406821312594169,-0.14472578903153935,-0.06060242409696115,-0.07548301932077331,-0.02676107044280115,0.04020160806434609,-0.015240609624385216,-0.44643571414128635,-3.341067280039983,0.5184414744889766,10.210416817012936,8.33826704802417,-12.615409212552459,-2.0737658979494835,1.684934792092746,-1.8145451607095975,-0.09466899999999989,-0.07212799999999997,-0.898852,0.019438000000000066,0.19542000000000015,-0.9002439999999999,0.11410699999999996,0.2675480000000001,0.0013919999999999488,0.695888999569968,0.9155968608415743,double,-0.898852
17,0.141667,jog,0.031677465802740896,-0.2613390928725724,-0.011759059275249785,0.13504567647801255,0.19430390362010355,-0.07233799816751911,-0.16426685865132937,0.0035997120230351048,0.06491480681545489,-0.011399088072948938,0.01631869450442936,-0.0009599232061436382,1.194696060473859,1.7316940207195906,2.044887541496788,-2.3447407751127987,7.703640043196113,16.84639142503342,1.843290421148578,-2.8657203695604494,1.713545286566068,-0.09630200000000011,-0.06991999999999998,-0.898213,0.019079000000000068,0.19773400000000008,-0.900154,0.11538100000000018,0.26765400000000006,0.0019409999999999705,0.6861484809917802,0.9667851918990678,double,-0.898213
18,0.15,jog,0.0368414736589532,-0.3033721348853788,-0.022080883235338154,0.33184963915679433,0.24583983587099043,-0.13883075197854944,-0.1519260770430803,-0.015360614424565686,0.06792271690867677,0.027241089643582985,-0.007560302412087385,0.029401176047042114,0.6197057309747146,-5.0441668082090905,-1.238668421947481,1.48095303111113,-2.2753301869195695,0.36096364973261424,4.6370068062560765,-2.865594253752157,3.6434776494882666,-0.09787500000000016,-0.06752000000000002,-0.8974629999999999,0.018998999999999988,0.20019900000000002,-0.899725,0.11687400000000014,0.26771900000000004,0.0022620000000000973,0.6988372801891942,0.9320199316285954,double,-0.8974629999999999
19,0.158333,jog,0.04956198247929874,-0.31849273970960684,-0.024840993639740436,0.2302109874603573,0.20751363828939923,-0.2684263045226605,-0.10740429617183096,-0.020640825633032624,-0.037921516860674846,-0.008280331213260135,-0.006240249610003958,0.004800192007680107,1.5265221193262366,-1.814545160713794,-0.3312264975881771,5.342827417646623,-0.6336506910436738,-12.701816124967182,-4.262741012461669,0.1584126727569214,-2.952236174170405,-0.09918300000000002,-0.06503799999999993,-0.897572,0.018516999999999895,0.202801,-0.899478,0.11769999999999992,0.26783899999999994,0.0019059999999999633,0.7880110553943493,0.9809571795749217,double,-0.897572
20,0.166667,jog,0.04919606431485734,-0.34797216222700983,-0.055435565154783054,0.012586786352280816,0.34333954021554286,-0.3347385463473472,-0.18922486201103167,-0.09635229181664103,-0.14986801055915513,0.01691864650827293,0.015838732901370393,-0.014878809695224262,-0.04390666719959173,-3.5372477222705734,-3.6710548974133173,-9.817682486105188,-9.084649170099391,-13.432504643446146,3.0236354357491053,2.6492659600881123,-2.3612913010444383,-0.10116999999999998,-0.06294099999999991,-0.898359,0.01824799999999982,0.20583299999999993,-0.89914,0.1194179999999998,0.26877399999999985,0.0007810000000000317,0.5590162052325234,0.9540989882240674,double,-0.898359
21,0.175,jog,0.05232209288370119,-0.38113524540982546,-0.05268210728430089,0.13147928570973555,0.5585318155839527,-0.3472625954097216,-0.09204368174729223,-0.08568342733710611,-0.06288251530061179,0.006000240009613062,-0.028561142445693154,-0.0056402256090241866,0.3751384337986149,-3.9797291711047302,0.33042816158432414,11.662208119973561,1.2803149501421982,10.438676978104352,-1.3102611902867989,-5.3281981695744225,1.1086744373215047,-0.10237300000000005,-0.06047899999999995,-0.8984439999999999,0.017862000000000045,0.20877100000000004,-0.898748,0.12023500000000009,0.26925,0.000304000000000082,0.7626293942764149,0.9504589428717949,double,-0.8984439999999999
22,0.183333,jog,0.05484219368773902,-0.38605544221769145,-0.05172206888275037,0.08474198958878335,0.18040600741330576,-0.33940532943072393,-0.02496099843993589,-0.11856474258970215,-0.10452418096723905,0.024360974438971925,-0.025441017640717725,0.007560302412096544,0.3024241934522779,-0.590447234833311,0.1152092165547243,8.05024400664302,-3.9459156669381983,-4.997199767985987,2.203376266573725,0.3744299537952029,1.5841267276035904,-0.10303799999999996,-0.05824999999999991,-0.898884,0.017608000000000068,0.21177599999999996,-0.898254,0.12064600000000003,0.2700259999999999,0.0006300000000000194,0.7333023245354346,0.9336569453832892,double,-0.898254
23,0.191667,jog,0.054475641948665235,-0.39644828413726546,-0.037077033837293424,0.17810814805142486,0.2335740637105913,-0.4143958802616132,-0.024958003359729513,-0.08963282937365641,-0.06599472042236554,-0.024118070554343115,0.010559155267589144,0.044396448284136664,-0.04398269007364862,-1.2470412670475166,1.7572636243648825,0.00035938087429546704,3.4715518617765433,4.623165412151844,-5.817020037594792,4.319675174982822,4.419983905932336,-0.10370000000000013,-0.05569299999999999,-0.899125,0.016952999999999996,0.21516800000000003,-0.897575,0.12065300000000012,0.270861,0.0015499999999999403,0.8098812567187909,0.8984731678248107,double,-0.897575
24,0.2,jog,0.06216248649946214,-0.4246969878795099,-0.04884195367815263,0.12623548961871353,0.18287068810484383,-0.4541528227424279,0.009840393615761124,0.016200648025920573,-0.03012120484819405,0.006600264010550363,-0.013080523220918593,0.005520220808832873,0.922458244425405,-3.389980048271258,-1.4118468547772949,4.175974676045914,12.700525308961584,4.304994068663322,3.686347601691282,-2.836874893616671,-4.665333910392866,-0.104136,-0.05201900000000004,-0.8989689999999999,0.016489999999999894,0.21859800000000007,-0.897122,0.1206259999999999,0.2706170000000001,0.001846999999999932,0.9406848968905206,0.9554352788160652,double,-0.897122
25,0.208333,jog,0.06312252490097273,-0.4353774150966007,-0.047401896075833935,0.10359551860748878,0.2237538381163446,-0.4880897523526142,-0.00852034081365108,-0.05856234249370517,-0.10908436337453527,0.002400096003829237,-0.003000120004819854,0.003000120004799869,0.11520921654993249,-1.2817025341522699,0.17281382483123725,-2.203376266580133,-8.971917739064674,-9.47595806148343,-0.5040403224194332,1.2096967738028037,-0.3024241934516993,-0.10473299999999997,-0.04887900000000012,-0.899483,0.015983999999999998,0.22220099999999987,-0.896702,0.12071699999999996,0.27108,0.0027810000000000334,0.7931617479851678,0.964065636620818,double,-0.896702
26,0.216667,jog,0.06299496040318073,-0.4412047036237013,-0.04811615070794148,0.10440776011238745,0.04428569355118033,-0.5521541981575656,-0.017758579313659328,-0.01511879049674206,-0.018958483321334086,0.005639548836108738,0.0013198944084719558,0.0002399808015361169,-0.015306515213822728,-0.6992186857572074,-0.08570369955694068,-1.1084999400057882,5.212809214898376,10.81424046714676,0.3887032436140507,0.5183602607741546,-0.33119020917491593,-0.10540600000000011,-0.045328000000000035,-0.89924,0.01550600000000002,0.225889,-0.8962990000000001,0.12091200000000013,0.27121700000000004,0.0029409999999999714,0.9499065025519167,0.9609284750586157,double,-0.8962990000000001
27,0.225,jog,0.07320292811712456,-0.4560182407296319,-0.0318012720508905,0.09401567215467835,0.1036908136051987,-0.5180604425945121,0.02616104644186383,0.0033601344053662495,-0.02736109444377761,-0.00252010080403801,0.002760110404402281,-0.003240129605184114,1.2250051258782941,-1.77769556053409,1.957863753396252,5.270565913299307,2.2175596906406208,-1.0083536688399757,-0.979197124702597,0.17283283282495185,-0.4176299540045876,-0.10579800000000006,-0.04150000000000009,-0.899203,0.014874999999999972,0.22971199999999992,-0.896061,0.12067300000000003,0.271212,0.003141999999999978,0.9366596419835049,0.9603358846971859,double,-0.896061
28,0.233333,jog,0.0703228129125135,-0.4646585863434651,-0.02808112324492455,0.14245439847002625,-0.1570529625143124,-0.5488844930027303,-0.01512060482417477,0.016920676827066675,-0.024480979239169882,-0.013560542421700426,0.0002400096003909168,0.002040081603263671,-0.3456276496593141,-1.0368829489779423,0.44643571414447936,-4.953996311777098,1.627330183811402,0.34562764965891357,-1.3249059903591032,-0.3024241934491014,0.6336506910413753,-0.10650999999999988,-0.03748700000000005,-0.899173,0.014175999999999966,0.23358600000000007,-0.89581,0.12068599999999985,0.2710730000000001,0.003363000000000005,0.9443657694539205,0.9435112642320642,double,-0.89581
29,0.241667,jog,0.07871370290376667,-0.48524118070553707,-0.033357331413487054,0.11469272459498484,-0.012677829422377022,-0.474914959344097,-0.005039596832265132,0.03635709143270518,-0.012119030477561455,-0.024838012958944885,-0.03299736021118621,-0.020158387329013903,1.0068262528501555,-2.469713746348937,-0.6330943326808877,1.2096241890940318,2.332183178022384,1.4833151861781204,-1.353188209412585,-3.9881653241633317,-2.663603183618626,-0.10720799999999997,-0.03313999999999995,-0.898996,0.01331300000000013,0.23735499999999998,-0.8957,0.1205210000000001,0.27049499999999993,0.0032959999999999656,0.9355772095753822,0.8904437778643745,double,-0.8957
30,0.25,jog,0.09012360494419124,-0.49837993519741625,-0.059762390495619586,-0.039719129315910526,0.22361817936294057,-0.6142481345565501,0.017520700828030644,0.03924156966278242,-0.014760590423617537,-0.01752070082805729,-0.02316092643707063,0.03744149765990717,1.3692430145715295,-1.576713607569803,-3.1687338392094695,2.707344012996011,0.34615123365861544,-0.31699987352167047,0.878112580209719,1.1804192696646552,6.91226268917809,-0.10781299999999994,-0.028659999999999908,-0.898621,0.012415999999999983,0.24131499999999995,-0.89489,0.12022899999999992,0.26997499999999985,0.00373100000000004,0.924267452014816,0.8837162135975465,double,-0.89489
31,0.258333,jog,0.08100324012960312,-0.5090603624144807,-0.05088203528140898,0.11110299477664777,0.18092056326034917,-0.5118199421719556,0.009360374414979321,0.07464298571941701,-0.024840993639745512,-0.025921036841473,-0.03420136805470651,0.0075603024120957365,-1.094487557252866,-1.2817025341491055,1.0656852531154002,-0.9792783406997891,4.248339860390576,-1.2096967738063122,-1.0080806448356812,-1.3249059903559233,-3.585886865211989,-0.1084099999999999,-0.02379600000000015,-0.898404,0.011525000000000007,0.24527199999999993,-0.8944030000000001,0.1199349999999999,0.2690680000000001,0.004000999999999921,0.8679618437796234,0.8873647843699349,double,-0.8944030000000001
32,0.266667,jog,0.07907367410609391,-0.48080153587714064,0.006599472042226563,-0.13983107488435947,0.3708653532615644,-0.49030991464885537,0.0350371970242331,0.060835133189349015,-0.00011999040076805845,0.007079433645312118,0.02135829133669442,-0.023158147348211967,-0.23152940046906817,3.39078792144709,6.897229100508218,3.0809722353316245,-1.6568097588274513,2.9662830860304092,3.959739679239871,6.666625796904354,-3.685919097709104,-0.10877700000000012,-0.01928200000000002,-0.8984599999999999,0.010924999999999851,0.24945700000000004,-0.894651,0.11970199999999998,0.26873900000000006,0.0038089999999999513,0.8829941477819612,0.9080946062356847,double,-0.894651
33,0.275,jog,0.09048361934476398,-0.4845793831753233,-0.026881075243009846,0.2088642438743894,0.21793284600755047,-0.4484150026804107,0.014640585623419532,0.063482539301572,-0.016800672026881153,-0.018720748829958517,-0.023400936037434827,0.007680307212288646,1.369248198568346,-0.4533598101743226,-4.017826387283844,-2.4476912757486478,0.3177014415244171,-2.0017618656081875,-3.096145742862178,-5.371322137780998,3.7007625777631685,-0.10940900000000009,-0.014715000000000034,-0.898376,0.010014999999999885,0.2533000000000001,-0.8943629999999999,0.11942399999999997,0.2680150000000001,0.004013000000000044,0.8878661250988215,0.9083094271253691,double,-0.8943629999999999
34,0.283333,jog,0.09180367214687465,-0.5203408136325607,-0.02532101284050903,0.27349698458700467,0.33702958499735447,-0.25955047605028314,0.008760350414015352,0.04944197767911676,-0.017880715228608752,-0.017040681627248866,-0.03492139685587927,0.013200528021120756,0.15841267276019141,-4.291543316601162,0.1872149768991742,-0.7056564513865589,-1.6849347920863156,-0.1296103686220571,0.2016161289703175,-1.382510598637282,0.662452995179662,-0.110101,-0.009966999999999837,-0.898314,0.009108000000000116,0.25734500000000016,-0.894042,0.11920900000000012,0.267312,0.0042719999999999425,0.9111653709712189,0.8888828198939893,double,-0.894042
35,0.291667,jog,0.08783297336215218,-0.5181185505159369,-0.060115190784734006,0.01731878328880547,0.22865215168310374,-0.18344943902909178,0.0007199424046283331,0.043436525077990534,-0.013678905687545342,-0.009479241660659965,-0.06251499880009517,-0.023878089752819485,-0.47644573850761607,0.2666502419754939,-4.174967355918519,-0.9647717793840905,-0.7205966644019943,0.5041768107827461,0.9073002119737092,-3.3109673559174317,-4.449078206616295,-0.11082700000000001,-0.005287000000000042,-0.897927,0.008296999999999999,0.261142,-0.89374,0.11912400000000001,0.266429,0.004187000000000052,0.924091383728605,0.8454832528989555,double,-0.89374
36,0.3,jog,0.10740429617183131,-0.4958598343933799,-0.0447617904716271,0.13526155740548113,0.07950651382748752,-0.18851909226408423,-0.01776071042842162,-0.017880715228603756,-0.02160086403456139,0.00024000960036427117,-0.07740309612384595,0.045721828873154964,2.348652683268832,2.6711527808180833,1.8424817368423068,-2.2177670506480256,-7.358363171318185,-0.9506730285630706,1.1663568055951352,-1.786643144575881,8.352324328090079,-0.11186999999999991,-0.0013039999999999718,-0.8977339999999999,0.007403999999999966,0.264629,-0.892986,0.11927399999999988,0.265933,0.0047479999999999745,0.944678712680473,0.8026887752310798,double,-0.892986
37,0.308333,jog,0.12264490579624074,-0.5142205688227621,-0.05748229929195898,0.12173543158130244,0.2100455823637587,-0.07663865651001635,-0.02220088803553354,0.01392055682227343,-0.009840393615744437,-0.028561142445692963,-0.09540381615265785,0.048961958478338764,1.8289463127816352,-2.2033762665765226,-1.526522119324592,-0.5328426265584905,3.816305298317179,1.4113129027741393,-3.456276496586717,-2.160172810369833,0.38883110586628905,-0.1130770000000001,0.0030970000000001274,-0.897337,0.006143999999999927,0.268119,-0.8920990000000001,0.11922100000000002,0.26502199999999987,0.005237999999999965,0.9533483750931669,0.7626657986695095,double,-0.8920990000000001
38,0.316667,jog,0.15634749220063132,-0.5082793376529794,-0.09455243580513743,0.13564747747000927,-0.6452432325276809,0.08635284588743916,-0.02975761939045205,0.0025197984161059316,-0.003719702423805674,0.09323254139669211,-0.04103671706264296,0.06479481641468705,4.043986849578927,0.7128907091172029,-4.448060536738501,-0.9067352237723247,-1.3679815702144906,0.734424189097528,14.614072935251473,6.523530008401152,1.8997909690842787,-0.11462800000000017,0.007353999999999861,-0.89658,0.005617999999999901,0.27201299999999984,-0.8907710000000001,0.12024600000000008,0.264659,0.005808999999999953,0.9498418755343973,0.740700551657826,double,-0.8907710000000001
39,0.325,jog,0.13932557302291645,-0.4891395655826175,-0.10764430577223484,0.10114099505604406,0.08780751909406924,0.004002633857736962,-0.056282251290031046,-0.005760230409195459,0.020520820832832933,0.0740429617184792,-0.12408496339853295,0.13152526101043985,-2.0427120098061677,2.2968645230243374,-1.571087239541264,-3.183083151275517,-0.9936432047643532,2.908979149962619,-2.3028416750525422,-9.96618820783507,8.007973670437119,-0.11625799999999997,0.011382000000000003,-0.895512,0.005074000000000023,0.2750549999999998,-0.888778,0.121332,0.2636729999999998,0.006734000000000018,0.8996952400556953,0.6070053917042895,double,-0.888778
40,0.333333,jog,0.15672626905076595,-0.5108604344173993,-0.13248529941197607,0.7466723331466777,-0.5983196776521724,0.1926038492506172,-0.029881195247829877,-0.01980079203170445,-0.0027601104044164457,-0.020400816032641773,-0.17292691707668656,0.17424696987879582,2.0881670500239453,-2.606608524514797,-2.9810384783080868,3.1682534552023562,-1.6849347920927669,-2.793823501409989,-11.333706678401681,-5.861268892134133,5.126810136608193,-0.11781300000000017,0.015473999999999988,-0.894431,0.00359799999999999,0.277871,-0.8862220000000001,0.12141100000000016,0.262397,0.00820899999999991,0.9400793254941189,0.5073483303313926,double,-0.8862220000000001
41,0.341667,jog,0.17590592752579384,-0.4820014398848012,-0.11423086153108507,0.022186461961626894,0.10775284733243944,0.04954500958873022,-0.029757619390451854,-0.04127669786415882,0.02939764818814518,0.06455483561314218,-0.12934965202782714,0.13942884569234487,2.3013749070107843,3.462802319726184,2.190357317121548,0.014827916652030645,-2.576902547690707,3.858622341320086,10.193862688478985,5.2288534975833185,-4.1778406751201,-0.11952700000000016,0.019147000000000025,-0.893234,0.00266999999999995,0.28081,-0.8841079999999999,0.12219700000000011,0.261663,0.009126000000000078,0.9020558064600332,0.5739968883296912,double,-0.8841079999999999
42,0.35,jog,0.19320772830911956,-0.4880595223809016,-0.10620424816991669,0.09571837283299106,0.16414760580494442,-0.02675348013232615,-0.03228129125163247,-0.016800672026884594,-0.020640825633025196,0.10848433937357713,-0.3988959558382204,0.29329173166926686,2.0762991459649296,-0.7269989794912298,0.9632321326255124,-0.3028527374511725,2.9372405900965184,-6.004857052822572,5.271751321305059,-32.34685033126052,18.46428488862623,-0.1214059999999999,0.02307400000000004,-0.892521,0.001964000000000077,0.28155300000000016,-0.880779,0.12336999999999998,0.2584790000000001,0.01174200000000003,0.9302706018430171,0.38258000000000003,single,-0.880779
43,0.358333,jog,0.2010080403216232,-0.4946597863914487,-0.09708388335534097,0.267708451283754,0.050135169386348974,-0.03514603072581761,-0.036001440057598186,-0.02664106564261893,0.02556102244089728,0.0159606384255296,-0.48985959438379023,0.3207728309132362,0.9360748844958128,-0.7920633638001989,1.0944875572513717,-0.44643571414445,-1.180894469666902,5.544443546612539,-11.103288245295468,-10.916073268399069,3.2978638238292617,-0.12338099999999996,0.026974000000000053,-0.8914989999999999,0.00042199999999992244,0.281593,-0.877297,0.12380299999999989,0.25461899999999993,0.014201999999999937,0.9140540232177596,0.35797999999999996,single,-0.877297
44,0.366667,jog,0.20038396928246444,-0.4800815934725123,-0.10115190784736337,0.15292824372319216,0.13178390586530112,-0.18953187952102998,-0.024358051355912534,-0.03767698584112373,-0.03047756179505604,0.002519798416132558,-0.4868010559155236,0.32901367890568656,-0.07488253409632382,1.7492432108155032,-0.4881238891315568,1.3970948766121478,-1.324204487461578,-6.724092180939916,-1.6127717793852927,0.3669952565714716,0.9888226532817773,-0.1252540000000002,0.03066100000000005,-0.8909100000000001,-0.0012270000000000891,0.2815369999999999,-0.873712,0.12402700000000011,0.2508759999999999,0.017198000000000047,0.9096034707386247,0.32802000000000003,single,-0.873712
45,0.375,jog,0.21000840033600415,-0.4771390855634213,-0.09984399375975724,0.2643816974771418,0.04462039312440952,-0.3331759712339452,-0.017520700828030703,-0.023880955238216817,-0.007560302412096569,0.15684627385094807,-0.6687867514700665,0.5553822152886121,1.1549779255417907,0.3531150736938696,0.156955968751487,0.8205148839411794,1.6555898959446713,2.750181133200471,18.51991784889186,-21.839157032826517,27.165310978390266,-0.1271500000000001,0.03443799999999997,-0.890141,-0.0016700000000000603,0.27993999999999986,-0.868252,0.12548000000000004,0.2455019999999999,0.021888999999999936,0.9490525010657097,0.2811100000000001,single,-0.868252
46,0.383333,jog,0.23472938917557587,-0.5103804152166174,-0.09144365774631492,0.3745584944524375,0.15134147741752255,-0.5197975787472868,-0.02532101284050903,-0.020400816032641773,-0.02616104644185809,0.05916236649466914,-0.6156246249849837,0.4180967238689559,2.966637326241663,-3.989119123148467,1.0080806448388735,-0.9360748844927813,0.41763341000540644,-2.2321785707142165,-11.722537784264873,6.379710366624614,-16.474917967077467,-0.12931700000000013,0.03852100000000003,-0.889597,-0.0031330000000000524,0.27906300000000006,-0.8640059999999999,0.12618400000000007,0.24054200000000003,0.02559100000000003,0.9304429223786526,0.24409000000000008,single,-0.8640059999999999
47,0.391667,jog,0.2464602831773456,-0.5159587233021318,-0.06827453803694866,0.5468037121431637,0.13291030864125655,-0.548452372437322,-0.016678665706730152,-0.01931845452364742,-0.02063834893208524,0.09275257979360593,-0.7692584593232734,0.44732421406287565,1.4075946726385566,-0.6693434227879049,2.7800719593671994,1.0369986961577717,0.12987299124002316,0.6626706875177398,4.030503155619962,-18.434585353766444,3.5070182618094203,-0.13151000000000002,0.04265999999999992,-0.8892,-0.00441400000000014,0.27695199999999986,-0.8597090000000001,0.12709599999999988,0.23429199999999994,0.029490999999999934,0.9452956933042747,0.20509,single,-0.8597090000000001
48,0.4,jog,0.24180967238687984,-0.47053882155286775,-0.04668186727468752,0.5389704051720842,-0.08437788995883859,-0.865040109717893,-0.017760710428421502,-0.015840633625347468,-0.03168126725068994,0.15336613464539867,-0.8805952238089301,0.4582983319332758,-0.558095618680638,5.450606234161026,2.591224140436944,-0.12985056062538644,0.41735520200407256,-1.325203206360813,7.273917538916654,-13.360946176125788,1.3169468223209049,-0.13367299999999993,0.04644899999999996,-0.8890750000000001,-0.005150999999999906,0.2735350000000001,-0.8555010000000001,0.12852200000000003,0.22708600000000012,0.03357399999999999,0.9339597933245636,0.16425999999999996,single,-0.8555010000000001
49,0.408333,jog,0.2842913716548748,-0.4759390375614933,-0.0006000240009639708,0.8342268310705114,0.410910520294113,-0.9334920685019067,-0.011040441617662452,-0.007440297611905274,-0.019320772830913456,0.2314892595703651,-1.0195607824313069,0.5075003000120013,5.098007832472705,-0.6480518431087929,5.530042394542622,0.8064645158717229,1.0080806448388593,1.4833186631197066,9.375149996995875,-16.6765340960491,5.9044723483410095,-0.13613399999999998,0.05035299999999987,-0.889231,-0.005591000000000124,0.26900499999999994,-0.851267,0.13054299999999985,0.21865200000000007,0.037964,0.9608939603112221,0.12035999999999997,single,-0.851267
50,0.416667,jog,0.3080153587712963,-0.46844252459804725,-0.04967602591792957,-0.7006247799996287,1.5785846059175404,-1.7283441071215038,-0.004439644828421493,-0.026277897768174827,-0.012359011279097531,0.31953443724502995,-1.0998320134389248,0.4456443484521228,2.846650721912829,0.8995095948459382,-5.888649138104818,0.7920322521287441,-2.2603311922569636,0.8353445586532179,10.564576154867384,-9.63177717873984,-7.422120417552009,-0.13873800000000003,0.05403800000000003,-0.8889199999999999,-0.005495000000000028,0.26374300000000006,-0.847139,0.133243,0.20970500000000003,0.04178099999999996,0.9510390315003074,0.08219000000000004,single,-0.847139
51,0.425,jog,0.2991719668786853,-0.48241929677186157,-0.034681387255488354,0.7663489006931601,0.04425596218814561,-1.129611500858941,-0.006720268810759168,-0.0020400816032561833,-0.01152046081843263,0.43525741029641857,-1.3121324852994152,0.45997839913596694,-1.0612494770924086,-1.6772797520478047,1.799428616637616,-0.2736858253135342,2.908654285961683,0.10063008048300766,13.887312258657015,-25.477075706287163,1.7201548882568307,-0.14128700000000016,0.05804100000000001,-0.888727,-0.004361000000000059,0.256829,-0.843017,0.1369260000000001,0.19878799999999996,0.04571000000000003,0.9775126601478219,0.042899999999999994,single,-0.843017
52,0.433333,jog,0.34081363254529484,-0.5304212168486826,-0.0244809792391673,1.085200624126237,0.26915623821220025,-1.0474489045978077,0.021000840033605604,-0.0013200528021100684,-0.0038401536061447392,0.501860074402963,-1.232569302772096,0.33133325333013175,4.997199767983843,-5.760460827651605,1.2240979258755562,3.3266661279688776,0.08640691241403,0.9216737324238401,7.992639398361232,9.547963821831123,-15.438035018100882,-0.14395200000000008,0.062450000000000117,-0.888555,-0.003019000000000105,0.25097800000000015,-0.840052,0.14093299999999997,0.18852800000000003,0.04850299999999996,0.9643502921456478,0.014969999999999983,single,-0.840052
53,0.441667,jog,0.3609311255099492,-0.53503719702424,-0.0436765058795336,0.7520255201515706,0.22161730240047076,-0.9854520386581888,-0.014758819294441314,-0.009599232061444739,-0.017278617710583047,0.5413966882649505,-1.3878089752820078,0.24430045596352384,2.4139060432750763,-0.5538733112019976,-2.303278934529207,-4.290815854097327,-0.9934220373571776,-1.6124866935971183,4.74401414230714,-18.62727051954794,-10.44310023597413,-0.14708299999999985,0.06682900000000003,-0.888335,-0.001514999999999933,0.24387099999999995,-0.837652,0.14556799999999992,0.17704199999999992,0.050683000000000034,0.9588863825909795,0.0,single,-0.837652
54,0.45,jog,0.3766950678027109,-0.511700468018724,-0.047521900876029075,0.554965719713793,0.07310507695923826,-1.1224118949328437,-0.023400936037461472,-0.0134405376214916,-0.020880835233409313,0.6723868954758192,-1.5071402856114167,0.22476899075962942,1.8917487450811967,2.800519501441963,-0.4614658582137832,-1.0370954929821339,-0.4609751062098698,-0.4322833940749131,15.71945364344992,-14.32033005273112,-2.3438695792504913,-0.15041700000000002,0.07098100000000018,-0.888113,0.0009490000000000887,0.235576,-0.835383,0.1513660000000001,0.16459499999999982,0.052730000000000055,0.9431312148931887,0.0,single,-0.835383
55,0.458333,jog,0.3916956678267327,-0.5331813272530884,-0.08412336493460512,0.33915252624990583,0.10196468532147511,-1.0074736655088905,-0.023040921636861927,-0.020520820832850555,-0.00648025921036825,0.7772710908436437,-1.6165846633865408,0.18576743069722929,1.800144008642968,-2.5778062203725467,-4.39235138108438,0.04320345621019396,-0.8496679720819599,1.7281382482948637,12.586606908415302,-13.133850687042415,-4.680374422464926,-0.15387300000000015,0.07525300000000001,-0.887466,0.004161999999999999,0.22654799999999997,-0.8331339999999999,0.15803500000000015,0.15129499999999996,0.05433200000000005,0.9474542020666329,0.0,single,-0.8331339999999999
56,0.466667,jog,0.41000719942404606,-0.556635469162447,-0.1003119750419903,0.589328820645554,0.20954919526477508,-1.018609158814789,-0.049316054715615405,-0.023038156947440578,-0.0008399328053755765,0.9138468922486006,-1.68478521718262,0.14086873050155907,2.1972080150363977,-2.814271887372036,-1.9424778146610464,-3.152763748350546,-0.3020561692572619,0.6767850257970563,16.387785145783155,-8.183411782586896,-5.387413030437986,-0.1577010000000001,0.07969999999999988,-0.886637,0.00836099999999984,0.21714599999999984,-0.831124,0.16606199999999993,0.13744599999999996,0.055513000000000035,0.9092693942461466,0.0,single,-0.831124
57,0.475,jog,0.3974558982359282,-0.4204968198728168,-0.077763110524419,-0.2801536310096032,-0.1492200331441631,-1.1927350703763049,-0.03336133445337827,-0.03396135845434225,0.020640825633025196,0.97443897755912,-1.6949477979119236,0.06300252010080391,-1.5062163912297972,16.33729140641192,2.7059719809878016,1.9146430171891484,-1.3108366142927754,2.577794124373074,7.271341090905983,-1.2195584698552218,-9.344319020851476,-0.16129100000000007,0.08292100000000002,-0.8858170000000001,0.013168999999999986,0.206526,-0.8299510000000001,0.17446000000000006,0.12360499999999996,0.05586599999999997,0.9135194918013403,0.0,single,-0.8299510000000001
58,0.483333,jog,0.40417616704665804,-0.4952598103924126,-0.06408256330253596,0.06589217604517114,-0.024308818440803067,-1.0543489684030634,0.0337213488539511,-0.012000480019199396,0.023760950438017868,1.1200048001919807,-1.7002280091203528,0.020520820832833766,0.8064645158682129,-8.971917739061025,1.6417313358793932,8.050244006639756,2.635410828650277,0.3744299537972709,17.4685974598416,-0.633650691039136,-5.098007832469695,-0.1643779999999999,0.08694800000000003,-0.885085,0.019133999999999984,0.19648500000000002,-0.829246,0.1835119999999999,0.109537,0.05583899999999997,0.9283968565452021,0.0,single,-0.829246
59,0.491667,jog,0.40556755459565125,-0.48260139188864487,-0.06983441324693675,0.26919881626718006,0.06344708664814781,-1.2413075499504,-0.015718742500585685,-0.015958723302128462,0.007319414446844072,1.271058315334781,-1.9580033597311994,0.05663546916246697,0.1669531496272144,1.5188887093553807,-0.6901667799856944,-5.932336375634358,-0.474951197855659,-1.9728264928214279,18.124971819390467,-30.93056762789134,4.3334111266658475,-0.16788899999999995,0.09083700000000006,-0.8844420000000001,0.0263469999999999,0.18418900000000016,-0.828192,0.19423599999999985,0.0933520000000001,0.05625000000000002,0.9607241400448385,0.0,single,-0.828192
60,0.5,jog,0.4010560422416854,-0.5065402616104693,-0.0877235089403623,0.3092155635801129,-0.2232678357229216,-1.0486786627980214,-0.010200408016334211,-0.003360134405366261,0.006720268810752506,1.307692307692303,-1.8745949837993694,-0.0472818912756518,-0.5414031386014476,-2.872779277790048,-2.146777354305243,0.6622266271752655,1.5118911432571982,-0.07190035234508194,4.396254933099984,10.009405488039151,-12.470582075857319,-0.17131600000000002,0.09503000000000017,-0.883655,0.03390199999999988,0.17278900000000008,-0.827855,0.2052179999999999,0.07775899999999991,0.05579999999999996,0.9788851789934052,0.0,single,-0.827855
61,0.508333,jog,0.4246969878795085,-0.4898595943837636,-0.08772350894036171,0.2858278082722357,-0.06981155193981478,-1.067891613058046,-0.00900036001440621,-0.010560422416907193,0.025441017640705152,1.3433337333493462,-1.8807152286091255,-0.11820472818912704,2.8370269576170646,2.0017601376101792,6.994684842532158e-14,0.14401152069218728,-0.8640691241498742,2.2465797227832196,4.277142164531748,-0.7344587555209555,-8.511080872851908,-0.17493000000000003,0.099024,-0.8827119999999999,0.041557000000000066,0.1611990000000001,-0.828109,0.2164870000000001,0.06217500000000009,0.05460299999999996,0.951701898455555,0.0,single,-0.828109
62,0.516667,jog,0.4401247900168017,-0.5103191744660531,-0.0887928965682706,0.41595311619509356,0.05476433100124585,-1.023024636559903,0.004319654427663454,0.008879289656816402,0.017638588912887224,1.5062395008399458,-1.9870410367170896,0.005039596832253493,1.8511881614222836,-2.4549532136176695,-0.12831625004906272,1.5982738711386777,2.3325788425394416,-0.9362165500141555,19.547128328605773,-12.758076326849617,14.788135951689613,-0.1785619999999999,0.10335099999999997,-0.881825,0.0504420000000001,0.14889200000000002,-0.827327,0.22900399999999999,0.045541000000000054,0.054497999999999935,0.9663093724695697,0.0,single,-0.827327
63,0.525,jog,0.45409816392655633,-0.5439817592703563,-0.10680427217089328,0.36146969822911074,0.2871450355677692,-0.8510083089441609,0.008760350414015293,0.000480019200781832,0.016440657626304773,1.5359414376575005,-1.9079563182527084,-0.12372494899795823,1.6768719440483089,-4.0396717633869,-2.161451530375928,0.5329048345556006,-1.0079527728350575,-0.1437575046900812,3.564374993106264,9.490545837559214,-15.452363594169107,-0.1822729999999999,0.10788799999999998,-0.880798,0.05945700000000009,0.13752600000000004,-0.827468,0.24173,0.029638000000000053,0.05332999999999999,0.968941391379682,0.0,single,-0.827468
64,0.533333,jog,0.47593903756149647,-0.5147005880235241,-0.1240849633985346,0.21565858365563953,0.2891965026398994,-0.9472167913650233,0.001800072002865278,-0.0012000480019279496,0.03936157446297911,1.598343933757348,-2.0150006000240195,-0.17688707548302132,2.621009676579904,3.513881104864086,-2.073765897952896,-0.8352668200108098,-0.20161612897033446,2.7506200452027536,7.488599075944806,-12.845827645663274,-6.3797103666222945,-0.18622399999999995,0.1121669999999999,-0.879436,0.06881000000000004,0.12502400000000002,-0.827908,0.255034,0.012857000000000118,0.05152800000000002,0.9342983612874103,0.0,single,-0.827908
65,0.541667,jog,0.4720422366210792,-0.5419966402687869,-0.11291096712262569,0.29483818033010434,0.21005327354900935,-0.7742308642391155,0.006959443244554005,-0.002759779217648674,0.025437964962803244,1.724622030237564,-2.051715862730963,-0.09719222462203012,-0.46757870655354544,-3.275264248291644,1.3407722913257532,0.6190750230008024,-0.18715277366459232,-1.6706994840623661,15.152159404873432,-4.40547908650625,9.562617093951356,-0.19009999999999994,0.11666100000000013,-0.878283,0.0792489999999999,0.11244200000000015,-0.827777,0.26934899999999984,0.004218999999999973,0.05050600000000005,0.9558053455641617,0.0,single,-0.827777
66,0.55,jog,0.48025921036842006,-0.5897035881435069,-0.14028561142445348,0.36680480615038563,0.04225736180471886,-0.8036874679991343,-0.002520100804038002,0.00552022080883119,0.0549621984879393,1.7173886955478235,-2.0144005760230552,-0.10812432497299836,0.9860762927326099,-5.7250627474762705,-3.285088719768112,-1.1375907894626145,0.99363974876753,3.543049745006112,-0.868034884164239,4.478013525489915,-1.3119045182969153,-0.19412300000000005,0.12162099999999998,-0.876656,0.08955799999999992,0.10056999999999983,-0.827509,0.28368099999999996,0.021051000000000153,0.04914699999999994,0.907839707748034,0.008530000000000038,single,-0.827509
67,0.558333,jog,0.5796231849273892,-0.5743429737189755,-0.2050882035281516,-0.08347530948738395,1.008589201983756,-0.6900886508722028,-0.08052322092884848,-0.08700348013921677,0.08172326893075726,1.7358694347774144,-2.0351614064562704,-0.18072722908916444,11.924153913232932,1.843347464842379,-7.7766221173285395,-9.36074884493114,-11.10328824529567,3.211456911414642,2.2177774186476773,-2.491399307958164,-8.712697001820082,-0.19962400000000002,0.12568200000000007,-0.874266,0.09919300000000009,0.08839700000000006,-0.827306,0.2988170000000001,0.03728500000000001,0.04696,0.7600214862058821,0.030399999999999927,single,-0.827306
68,0.566667,jog,0.5604751619870477,-0.5855531557475352,-0.12275017998559976,0.08868608219420603,0.4440659285841676,-0.7774180801596343,0.06611471082312982,-0.041276697864158544,0.09887209023278126,1.8809695224381802,-2.047876169906385,-0.19222462203023685,-2.2975789465252356,-1.3451142342884135,9.879772443310681,17.595144198701366,5.486774931012464,2.057693940727606,17.410617669878167,-1.5256495620487733,-1.3795767867857358,-0.20374400000000015,0.13021800000000017,-0.872419,0.11019799999999991,0.07621000000000011,-0.827885,0.31394200000000005,0.054008000000000056,0.04453399999999996,0.7901679838484924,0.05466000000000004,single,-0.827885
69,0.575,jog,0.5047401896075807,-0.4921396855874172,-0.17880715228609204,-0.4537468963983527,0.7377832747473471,-0.5998800079957655,0.033361334453378494,-0.06000240009602443,0.12432497299892052,1.8646345853834385,-2.139085563422554,-0.2247689907596324,-6.688464224105066,11.210064821807132,-6.727105760289547,-3.93056238686567,-2.2471741547901183,3.0544681106611655,-1.960270857403312,-10.945565044542171,-3.9054804667461696,-0.20767200000000008,0.1338189999999999,-0.8698929999999999,0.12153000000000003,0.06248600000000004,-0.828268,0.3292020000000001,0.07133299999999987,0.04162499999999991,0.7632983267382061,0.08374999999999999,single,-0.828268
70,0.583333,jog,0.4676587063482567,-0.5185407416296653,-0.140765630625222,0.014830028365879832,0.6649987502717927,-0.4115611361822658,-0.043201728069112495,-0.025081003240117944,0.08112324492979721,1.8802352094083703,-2.115684627385091,-0.13572542901715928,-4.44995598935844,-3.1682534552079704,4.565165205912623,-9.187935020099683,4.190735252118845,-5.184414744884571,1.872149768982566,2.8082246534817092,10.685654835290139,-0.21192900000000003,0.13793100000000003,-0.868044,0.133301,0.049177000000000026,-0.828226,0.34523000000000004,0.088754,0.03981800000000002,0.8412161943288556,0.10181999999999997,single,-0.828226
71,0.591667,jog,0.5825533957283437,-0.7580993520518355,-0.17590592752579268,0.37503291124249866,0.7877615295377068,-1.130909049795995,0.016078713702913066,-0.08315334773218735,0.1293496520278371,1.862371010319161,-2.0968322534196995,-0.16282697384209271,13.786259824824358,-28.744733671966447,-4.216498308203795,7.113083965925739,-6.9681238891371455,5.7867059152915195,-2.143532408112441,2.262103907534349,-3.251925224973989,-0.21665,0.14355600000000002,-0.8655,0.14396699999999996,0.038020000000000165,-0.828117,0.36061699999999997,0.10553599999999985,0.037383000000000055,0.7423162103946601,0.12617000000000012,single,-0.828117
72,0.6,jog,0.6018240729629231,-0.36121444857794127,-0.17748709948398195,-0.4908473751465272,1.6811898686918763,0.5018866215433172,-0.019560782431313664,-0.012480499219954748,0.11664466578663178,1.9495979839193724,-2.030841233649367,-0.18396735869434858,2.312573771100383,47.62809354060937,-0.18974822491171064,-4.276910612531748,8.481081064710578,-1.5246593353180653,10.467655538246989,7.919239142005639,-2.5369476601771335,-0.22182800000000014,0.1464620000000001,-0.863049,0.15519799999999995,0.0241070000000001,-0.828171,0.3770260000000001,0.12235499999999999,0.034877999999999965,0.801783191607302,0.15121999999999997,single,-0.828171
73,0.608333,jog,0.593903756150228,-0.5318612744509748,-0.11016440657625952,-0.28858937741605845,0.8163952098708829,0.06114763604493301,-0.0015600624025009842,-0.03264130565223195,0.1305652226089045,1.8751950078003077,-2.1387255490219523,-0.1557662306492262,-0.9504760365648726,-20.478438242293624,8.07904631077909,2.1601728103699274,-2.419393547615159,1.6705336400183188,-8.92871428285905,-12.946635710138581,3.3842707362441202,-0.22679000000000005,0.15062200000000003,-0.861043,0.1658750000000001,0.010717000000000088,-0.828551,0.39266500000000015,0.13990499999999995,0.032491999999999965,0.7756790123240129,0.17508000000000007,single,-0.828551
74,0.616667,jog,0.5743940484761368,-0.6174706023518267,-0.09479241660668021,-0.05440741936500301,0.628079646988255,-0.1324554216169876,-0.0682745380369358,0.04535637149027977,0.15106791456683505,1.9042476601871887,-2.093352531797477,-0.161027117830574,-2.3409776426795315,-10.27229756429715,1.8444912370505635,-8.005096668398751,9.358972539298314,2.460126224853693,3.4860394032734825,5.4443265208154,-0.6312559612848356,-0.23214599999999996,0.15614600000000012,-0.8589939999999999,0.17695799999999995,-0.00158299999999989,-0.8291029999999999,0.4091039999999999,0.157729,0.029891,0.7135459713511616,0.20109,single,-0.8291029999999999
75,0.625,jog,0.5805832233289184,-0.6985479419176562,-0.06864274570983014,0.1813766502554246,0.4156271398894159,-0.23155213846832515,0.06372254890193627,-0.11880475219009268,0.192007680307212,1.8924756990279605,-2.0956438257530223,-0.1338053522140886,0.7427306915614498,-9.72966993469689,3.1380860310632372,15.840284044026344,-19.70012284655847,4.912968407581516,-1.4126918467812475,-0.2749662733163653,3.2667425436799813,-0.23645300000000002,0.16097699999999993,-0.856822,0.1878900000000001,-0.013225000000000042,-0.829646,0.42434300000000014,0.17420199999999997,0.027175999999999978,0.6089825178728311,0.2282400000000001,single,-0.829646
76,0.633333,jog,0.6463458538341642,-0.7194287771510798,-0.04764190567622453,0.023579276894809074,0.4198197748471351,-0.20417451885886143,0.020400816032641638,-0.057122284891385926,0.1964478579143157,1.893915756630253,-2.06036241449657,-0.08460338413536474,7.891831333882815,-2.505800460029216,2.520201612097147,-5.198815896951211,7.40219216353132,0.5328426265575062,0.17281382482807767,4.233938708322596,5.904472348340772,-0.24166900000000013,0.16649599999999998,-0.854788,0.19828599999999996,-0.02439900000000006,-0.829954,0.4399550000000001,0.19089500000000004,0.024834000000000023,0.6573351588686211,0.25166000000000005,single,-0.829954
77,0.641667,jog,0.6592272618190448,-0.7494600431965454,-0.015958723302128566,0.034911157606252005,0.5829343883660101,0.12627129390706932,-0.00779937604991386,-0.0563954883609279,0.18022558195344432,1.8622510199184146,-1.9953203743700623,-0.02675785937125057,1.5456453065611533,-3.6034636483640208,3.801677750671484,-3.3837523497187014,0.08720860696640637,-1.9465173939130649,-3.799464448264761,7.804420461544047,6.940907699077814,-0.247228,0.17227199999999998,-0.853153,0.20831200000000005,-0.03478200000000009,-0.830044,0.45554000000000006,0.20705400000000007,0.023109000000000046,0.684993202169059,0.26891000000000004,single,-0.830044
78,0.65,jog,0.6908676347053868,-0.7525501020040936,0.0034801392055616963,-0.07977551360254155,0.4926149146473078,0.049542783137232746,-0.012000480019199396,-0.0925237009480468,0.2161286451458054,1.8857554302172015,-1.971558862354489,-0.04296171846873823,3.7969966262260764,-0.3708218897813739,2.3327568111952695,-0.504152642419959,-4.335558932811562,4.308539924680299,2.8206420615368795,2.851495501688839,-1.9445408733334446,-0.253085,0.17777200000000004,-0.8513809999999999,0.21826900000000005,-0.04493999999999998,-0.8304309999999999,0.47135400000000005,0.22271200000000002,0.020950000000000024,0.6076557704345997,0.29050000000000004,single,-0.8304309999999999
79,0.658333,jog,0.7776311052442219,-0.8217928717148719,0.01284051362055445,0.044733519926432895,0.38513654390331875,-0.21910328398098897,0.03732149285970875,-0.14208568342734726,0.19656786271451043,1.848793951758091,-1.9864394575783262,-0.06732269290771764,10.412032945978138,-8.309464743883234,1.1232898613935964,5.918873500409048,-5.947675804548292,-2.3473877872669084,-4.435554837286801,-1.7857428565747329,-2.923433870032357,-0.2592540000000001,0.18343599999999993,-0.84985,0.22719500000000004,-0.054645000000000055,-0.831099,0.48644900000000013,0.238081,0.018750999999999962,0.5910033961141938,0.3124900000000001,single,-0.831099
80,0.666667,jog,0.8620110391168736,-0.8974082073434073,0.02075833933285066,-0.05370034296392706,0.18958879018166,-0.3911597358759132,0.044876409887220255,-0.07667386609069225,0.27717782577393507,1.8166546676265678,-1.8921286297095994,-0.023038156947443756,10.12478208215156,-9.073114426270077,0.9500630804291038,0.9065175218996213,7.848790177184366,9.672421773389011,-3.8564055833360777,11.316394032724512,5.31371921769541,-0.2660640000000001,0.1902760000000001,-0.847713,0.2351509999999999,-0.06293499999999996,-0.831464,0.501215,0.2532110000000001,0.01624900000000007,0.5148874099573919,0.33751,single,-0.831464
81,0.675,jog,0.9084363374534902,-0.8649945997839735,0.04392175687027192,-0.06205155223347462,0.3266469236521497,-0.4881178024920066,-0.06576263050521909,-0.2299291971678892,0.022800912036482518,1.7927517100683996,-1.860914436577448,-0.11820472818912704,5.571258650739995,3.8897884986719853,2.7797212933422735,-13.277215935730096,-18.39137538427893,-30.526450706522436,-2.8684696457660004,3.7458530099785583,-11.42044536681662,-0.27418200000000004,0.19556799999999996,-0.847889,0.24251999999999996,-0.07123400000000002,-0.832815,0.516702,0.266802,0.015074000000000032,0.5996111581955907,0.3492600000000001,single,-0.832815
82,0.683333,jog,0.9805592223688951,-0.9314772590903777,0.04368174726989491,-0.008333601244851933,0.09301431148616489,-0.5676572325923537,0.08688347533900799,-0.13560542421697896,0.3859354374174998,1.7436697467898927,-1.761430457218301,-0.06888275531021198,8.655092393544418,-7.978238246298426,-0.02880230413740712,18.318265431924694,11.319305526330385,43.57788616116892,-5.890071196268732,11.938555065300347,5.918873500409878,-0.281629,0.20219999999999994,-0.845037,0.24887900000000007,-0.07814999999999994,-0.8337530000000001,0.5305080000000001,0.2803499999999999,0.01128399999999996,0.5,0.38715999999999995,flight,-0.8337530000000001
83,0.691667,jog,1.0887928965682694,-0.885529157667373,0.0682745380369482,-0.08574099668587364,0.07590585778872476,-0.802613634224206,0.07079433645309406,-0.09767218622511234,0.23470122390208598,1.699424046076292,-1.7090232781377366,-0.1198704103671697,12.98700194376931,5.513331104272187,2.950898820140761,-1.930542222931822,4.551624429069634,-18.146653889538356,-5.309059360883183,6.288358420994009,-6.118029164501718,-0.29011299999999995,0.20876599999999979,-0.84365,0.25396799999999997,-0.085013,-0.835321,0.5440809999999999,0.2937789999999998,0.00832900000000003,0.5601883024869114,0.41670999999999997,single,-0.835321
84,0.7,jog,1.049441977679117,-0.9896795871835102,0.09408376335053571,-0.17013376708553793,0.27137031659708033,-1.0492954376120163,0.05340213608544735,-0.1767670706828092,0.3399735989439611,1.6009840393615948,-1.6342253690147912,-0.11016440657626432,-4.7222991586646685,-12.498551483995948,3.097230926867604,-2.0871475300188247,-9.491765805555932,12.633190332638438,-11.813273336697229,8.97610813907909,1.164767045590479,-0.29841299999999993,0.21554000000000006,-0.8416009999999999,0.258564,-0.09038400000000002,-0.837023,0.5569769999999999,0.3059240000000001,0.004577999999999971,0.5,0.45422,flight,-0.837023
85,0.708333,jog,1.1498859954398104,-0.9659186367454625,0.09732389295571856,-0.01754667963381198,0.17331918219260095,-1.0326523728360388,0.027241089643582895,-0.2419296771870886,0.31309252370094676,1.5322212888515478,-1.5603024120964724,-0.14460578423136838,12.053764281854425,2.8514281096901013,0.38883110586617414,-3.139451151069765,-7.819825573536438,-3.2258580634842495,-8.251860135611029,8.871109674585208,-4.133130643838224,-0.30776799999999993,0.22157300000000002,-0.839803,0.26175000000000004,-0.095337,-0.839039,0.569518,0.31691,0.0007639999999999869,0.5,0.49236,flight,-0.839039
86,0.716667,jog,1.1526277897768096,-1.0185985121190189,0.09179265658747418,-0.02220665179975456,0.010265418407610293,-0.8397220602675071,0.13714902807774002,-0.19270458363330742,0.35433165346771955,1.4950803935685064,-1.608831293496505,-0.32721382289416684,0.32898900131979236,-6.321079358478034,-0.6636952685678345,13.187897580292331,5.906538703357429,4.948299708036055,-4.4565509098921465,-5.822999928009632,-21.91121174259624,-0.31623100000000004,0.228456,-0.837615,0.26460400000000006,-0.10025600000000001,-0.842531,0.5808350000000001,0.328712,0.0049160000000000315,0.45083999999999996,0.5,flight,-0.837615
87,0.725,jog,1.1989679587183564,-0.9780391215648837,0.11832473298932575,-0.008323102723465531,0.16348356286534943,-1.0840969368707032,0.16284651386056223,-0.2469698787951679,0.36013440537621877,1.2616104644185877,-1.348853954158182,-0.14580583223328994,5.5610427146942545,4.867321559358637,3.1839765272833085,3.0838216468045663,-6.512095903259448,0.6963580833432459,-28.01751219847844,31.198528661745502,21.769829672492328,-0.32486499999999996,0.23454799999999998,-0.8356,0.2651260000000001,-0.10334599999999994,-0.844732,0.589991,0.3378939999999999,0.009132000000000029,0.40868,0.5,flight,-0.8356
88,0.733333,jog,1.1681267250690004,-0.9174366974678831,0.13536541461657292,-0.29656238810449786,-0.0159136726973576,-0.9941944668554378,0.14388575543021062,-0.5648625945037798,0.5085803432137255,1.1089643585743316,-1.2107284291371623,-0.1807272290891637,-3.701096081765973,7.272581794911834,2.0449635938134048,-2.2753820269232605,-38.14865183110652,17.81422510950511,-18.31826543192793,16.575726031563573,-4.1907352521149175,-0.33340000000000003,0.23748599999999986,-0.83249,0.264633,-0.10579000000000005,-0.847366,0.598033,0.3432759999999999,0.014876,0.35124,0.5,flight,-0.83249
89,0.741667,jog,1.3777297816174776,-0.7275017998560338,-0.01079913606910535,-1.028110576510972,2.152589147993409,-1.3822967666599721,0.2961363090952905,-0.5453563714902598,0.4112071034317277,0.9318454523638223,-1.0575953923686152,-0.22510199184065435,25.150354757436816,22.79036448426331,-17.538343014840304,18.268604951413575,2.3405595168610653,-11.683854065514554,-21.252568539778053,18.374494452669538,-5.324545566533587,-0.3424139999999999,0.23900400000000022,-0.8289730000000001,0.26091700000000007,-0.10854099999999989,-0.849152,0.603331,0.3475450000000001,0.020178999999999947,0.29821,0.5,flight,-0.8289730000000001
90,0.75,jog,1.5649825993039752,-1.0175207008280172,-0.08064322572902953,0.45953098256531183,2.4223872129998707,-0.7206278227591488,0.22680907236288725,-0.4256570262810721,0.34621384855394055,0.728189127565095,-0.9642385695427794,-0.23496939877594855,22.47123697185849,-34.80366026304838,-8.381626024231837,-8.31960119193603,14.364496004942666,-7.799502565437046,-24.439736565309786,11.203266869775039,-1.184136197683206,-0.353565,0.24393599999999993,-0.825416,0.25394399999999995,-0.108097,-0.850438,0.607509,0.35203299999999993,0.02502199999999999,0.2497800000000001,0.5,flight,-0.825416
91,0.758333,jog,1.0998439937597433,-1.1213248529941173,0.1287651506060226,-0.21189877455464937,-1.581072788832553,-0.4401815092688989,0.28501140045601897,-0.5156606264250543,0.3415336613464526,0.46405856234249954,-0.8094323772950885,-0.2896915876635053,-55.81886541992439,-12.456996539793561,25.130010360620574,6.984558753525919,-10.80086405183989,-0.5616449306957824,-31.69693570413949,18.577486169169596,-6.566925343520521,-0.360355,0.24898299999999995,-0.823643,0.24864600000000003,-0.10549799999999998,-0.853925,0.609001,0.35448099999999994,0.03028200000000003,0.19718000000000013,0.5,flight,-0.823643
92,0.766667,jog,1.3644108471322396,-0.8669306455483655,0.07259419246459925,0.24430492527170475,0.2713913367461792,-0.5523084687209261,0.31869450443964564,-0.5401967842572633,0.31197504199664267,0.23122150227980706,-0.6155507559395245,-0.3802495800336001,31.74548276607845,30.524862904458033,-6.739975778908526,4.041649146103535,-2.944103411592166,-3.546750581930655,-27.938212150551212,23.263933447991985,-10.866089797227662,-0.36907,0.251706,-0.8216479999999999,0.23920199999999991,-0.10340299999999991,-0.857699,0.6082719999999999,0.3551089999999999,0.036051000000000055,0.13949,0.5,flight,-0.8216479999999999
93,0.775,jog,1.1585263410536302,-1.0198007920316643,0.007920316812673734,-0.02727842373057625,0.1278101528926675,-0.09815571683652709,0.3549741989679592,-0.5899435977438977,0.3091323652946099,-0.10116404656185331,-0.351974078963166,-0.46501860074402823,-24.70712901459361,-18.34515138405114,-7.76117552525204,4.353737492897322,-5.969856412652616,-0.3411348496379145,-39.8878613754541,31.630466455821114,-10.172689392827047,-0.37576599999999993,0.25528799999999996,-0.819138,0.22870500000000005,-0.09783800000000009,-0.86164,0.604471,0.35312600000000005,0.04250199999999993,0.07498000000000005,0.5,flight,-0.819138
94,0.783333,jog,1.3112924516980824,-0.9656786271451111,-0.045721828873151106,-0.2963725095812089,0.28394001798870566,-0.5946308269914897,0.41545661826471686,-0.6396255850234136,0.31981279251170347,-0.3399735989439578,-0.15612624504980302,-0.41293651746070215,18.332666583997796,6.49491958316977,-6.437314974898036,7.2581806428367015,-5.962076956620226,1.2817025341526047,-28.658292617557503,23.50268017681085,6.250099997999108,-0.3832310000000001,0.25800500000000004,-0.816092,0.21494500000000005,-0.09109199999999995,-0.8647,0.5981760000000002,0.349097,0.048607999999999985,0.013920000000000043,0.5,flight,-0.816092
95,0.791667,jog,1.347012239020863,-1.0068394528437425,-0.10487161027118247,-0.36760545222692725,0.7514873844094666,-0.7023045310361354,0.3906887449004227,-0.6538276937844967,0.3353731701463864,-0.44972402207824047,-0.03443724502038925,-0.3172546196304272,4.286031596205941,-4.938903971518014,-7.097405975285686,-2.9719070511511827,-1.7041167219921969,1.8670959484860588,-13.168997256333315,14.601511882578935,11.480909266891551,-0.3912009999999999,0.2609469999999998,-0.812423,0.199971,-0.08298800000000006,-0.86647,0.5911719999999999,0.3439349999999999,0.054046999999999956,0.0,0.5,flight,-0.812423
96,0.8,jog,1.2216488659546425,-0.9929197167886812,-0.06684267370695156,0.22591953583857058,-0.018464538601421145,-0.1084917369727882,0.49921996879874286,-0.6499459978398947,0.23208928357134084,-0.4358574342973663,-0.008760350414015293,-0.18408736349453908,-15.044206536207842,1.6704351440131169,4.563654933905046,13.024267838511904,0.46582214623808404,-12.394562171492275,1.6640570959887346,3.0813506067891336,15.980709964705099,-0.39722100000000005,0.26380500000000007,-0.809932,0.18615899999999996,-0.07478699999999994,-0.867447,0.58338,0.338592,0.05751499999999998,0.0,0.5,flight,-0.809932
97,0.808333,jog,1.0506420256810318,-1.398055922236895,-0.2125285011400436,-0.8834579644640831,-1.4851502184192193,0.0020043065118584354,0.4863794551782217,-0.6937477499100071,0.45157806312252935,-0.18528741149646033,0.026161046441850768,-0.10032401296051892,-20.52164169850141,-48.61828938536151,-17.482998611915683,-1.5409232713934125,-5.256420505233744,26.339707134428238,30.0696055203298,4.19073525211405,10.052004144248281,-0.4019229999999999,0.26967399999999997,-0.804398,0.17586000000000002,-0.06291900000000006,-0.866512,0.5777829999999999,0.332593,0.062114,0.0,0.6461296031874662,single,-0.804398
98,0.816667,jog,1.1713462922966131,-0.8777297816174725,-0.10487161027116915,-0.3211522373382297,0.15059527117770669,0.17143314963447426,0.6187904967602372,-0.7481401487880901,0.6901847852171782,0.05651547876169854,-0.09911207103431571,-0.13690904727621722,14.483353325603598,62.43414214295878,12.917793480786372,15.888053945526103,-6.526565740110702,28.630516210060836,29.01402570892213,-15.031571571414151,-4.389852929649391,-0.4065280000000001,0.27075400000000005,-0.797772,0.16656899999999997,-0.05642999999999998,-0.8667790000000001,0.5730970000000001,0.32718400000000003,0.06900700000000004,0.0,0.7029717129517388,single,-0.797772
99,0.825,jog,1.078243129725188,-0.8387135485419388,-0.16560662426497785,0.0310589107600003,-0.05769312243543182,1.2536671800148984,0.6087843513740732,-0.7029881195247777,0.6539061562462553,0.2145685827433131,-0.12144485779431442,-0.10596423856954314,-11.172826421627985,4.682135254474266,-7.288493218985871,-1.2007854777588094,5.418460250007539,-4.353609620895628,18.967131163040442,-2.6800416128643842,3.713525585824357,-0.4104399999999999,0.27188500000000004,-0.790943,0.15937200000000007,-0.05045300000000008,-0.866282,0.569812,0.3223380000000001,0.07533900000000004,0.0,0.5527337667042074,single,-0.790943
100,0.833333,jog,1.0850834033361283,-0.8323532941317682,-0.22260890435617944,-0.06825775686167221,-0.387163915065848,0.25110996846250605,0.8589943597743871,-0.9811592463698726,0.8489139565582584,0.18240729629184682,-0.16308652346093766,-0.12228489139565604,0.8208656679395508,0.7632610596628588,-6.840547232833476,30.026402064120113,-33.3818704962311,23.401872112324774,-3.85950875452612,-4.997199767985487,-1.9585566814007964,-0.4123239999999999,0.2706449999999999,-0.782014,0.15185000000000004,-0.04487600000000003,-0.8654459999999999,0.564174,0.31552099999999994,0.08343199999999995,0.0,0.544102745070766,single,-0.782014
101,0.841667,jog,1.0549556035517105,-0.8730501559875082,-0.26493880489560484,-0.2438241246185755,-0.5348527256555905,0.7558850401634366,1.135589152867752,-1.2658987281017227,0.9866810655147522,0.06947444204463545,-0.11243100551955346,-0.13198944084473102,-3.6150467703884797,-4.883232764067645,-5.079181730192594,33.18872007359764,-34.16600452745955,16.530730616329823,-13.550858440989982,6.078175898894147,-1.1644527776667752,-0.411652,0.267371,-0.7715829999999999,0.14363700000000001,-0.03853700000000004,-0.8643379999999999,0.555289,0.30590800000000007,0.09275500000000003,0.0,0.6886916427128525,single,-0.7715829999999999
102,0.85,jog,1.1462858514340684,-1.0051602064082716,-0.28657146285851043,1.0816061969680595,0.05144201746932715,0.4328635619585413,1.1785671426857278,-1.2592103684147584,0.824672986919483,-0.03312132485298758,-0.11136445457818893,-0.03468138725549025,10.960068148608991,-15.853840204099917,-2.5960227964605527,5.15756508076038,0.80263526784643,-19.441747101316537,-12.31198450709516,0.12799123261304898,11.677433528050122,-0.41138299999999994,0.265254,-0.7623230000000001,0.13380900000000007,-0.031089000000000033,-0.862239,0.545192,0.296343,0.0999159999999999,0.0,0.7979146046463971,single,-0.7623230000000001
103,0.858333,jog,1.1476059042361633,-0.9002760110404389,-0.3198127925117025,0.4711624443948828,-1.0480188944627236,0.21032677329372432,1.4740189607584295,-1.620184807392287,0.7951518060722387,-0.09132365294611887,-0.03888155526220924,-0.04524180967238699,0.15841267275829846,12.586606908416217,-3.989119123147961,35.45563639417983,-43.318665423920216,-3.5426834090056625,-6.984558753525867,8.698295849751517,-1.2673013820828867,-0.4086629999999999,0.259255,-0.753032,0.12348500000000007,-0.023911000000000016,-0.859951,0.532148,0.28316600000000003,0.10691899999999999,0.0,0.8181987786568965,single,-0.753032
104,0.866667,jog,1.1297096232301556,-0.8302135829133727,-0.2760979121670279,0.7287492627053281,-0.8731089775957991,0.27915732541600013,1.5814734821214356,-1.7818574514039014,0.6873050155987573,-0.02867770578353619,0.02711783057356141,0.01811855051595863,-2.147381930166524,8.406818829741612,5.245366012080019,12.893511082674184,-19.399165348165972,-12.940579610448998,7.516912306525442,7.919292756871973,7.602635011800574,-0.404898,0.251324,-0.745003,0.11383100000000002,-0.016765999999999948,-0.857499,0.518729,0.26808999999999994,0.11249600000000004,0.0,0.9276184988177459,single,-0.745003
105,0.875,jog,1.0487219488779438,-0.9931597263890454,-0.3019320772830856,0.5474234568739422,-1.2749559196528777,0.17911330548481136,1.809552382095284,-1.9375975039001472,0.5807032281291239,-0.015480619224774415,0.004920196807867223,-0.013560542421697049,-9.718909678652517,-19.55431938985624,-3.1002238228798245,27.37056281937446,-18.689553881704683,-12.792726205404175,1.5837137356008302,-2.663822604787483,-3.8016432182473956,-0.39855799999999986,0.24345399999999995,-0.7376480000000001,0.10496300000000003,-0.00844900000000004,-0.8550960000000001,0.5035209999999999,0.251903,0.117448,0.0,0.9647333089563235,single,-0.7376480000000001
106,0.883333,jog,1.127325093003717,-1.0668426737069516,-0.37873514940598035,-0.25889873587372286,-0.7471146636021955,-0.9300500952354739,2.0002400096003643,-2.1654866194647804,0.44845793831752967,-0.007080283211332174,-0.04704188167526057,-0.03336133445337722,9.432754605276967,-8.842307370443532,-9.216737324240304,22.883430637835065,-27.34778777926704,-15.870069580174448,1.0080806448388584,-6.2356988459291465,-2.3761900914052667,-0.39128399999999997,0.23429899999999992,-0.730755,0.09550999999999998,4.900000000007676e-05,-0.852218,0.48679399999999995,0.23424999999999985,0.12146299999999999,0.0,0.9031603892107622,single,-0.730755
107,0.891667,jog,1.1319894408447453,-0.8089752819774362,-0.5359971202303845,0.07965815023580984,1.6989798272762917,0.3094946323259983,2.1389488840892725,-2.304535637149021,0.36921046316294864,0.0075593952483844025,-0.04415646748260584,-0.014038876889849611,0.5596769667660465,30.941611678607742,-18.86992690477622,16.643733439993884,-16.684547358320316,-9.508936303645486,1.7566208854951597,0.34622200535814074,2.3185094268691766,-0.3828920000000001,0.221835,-0.723211,0.08613899999999997,0.0064229999999999565,-0.847868,0.4690310000000001,0.21541200000000005,0.1246569999999999,0.0,0.9217548698463874,single,-0.723211
108,0.9,jog,1.9692787711508288,-1.0219608784351426,-0.3366134645385737,-2.3575431328670886,-5.221630796603666,-6.089184465588713,2.27433097323893,-2.407896315852624,0.2838113524540977,0.006120244809795156,-0.0031201248049886453,-0.015720628825152842,100.47873878628106,-25.559293946682534,23.926995762847707,16.24650055798113,-12.403777595536129,-10.248303217190756,-0.17270496082914205,4.924558103638188,-0.20181830496858563,-0.38034999999999997,0.21028600000000008,-0.718041,0.06978000000000006,0.014913000000000065,-0.845194,0.45013000000000003,0.19537300000000002,0.12715299999999996,0.0,0.971406549604423,single,-0.718041
109,0.908333,jog,1.150606024240985,-0.8603144125765086,-0.27769110764431293,0.4539014498878428,-1.4659122954230148,0.056428648040045305,2.4154566182647437,-2.504020160806461,0.18156726269050766,0.012720508820345667,0.04356174246969945,-0.039241569662786975,-98.24465941555877,19.398351837109736,7.0709656659379965,16.935754833291146,-11.53532280737285,-12.269781562893435,0.7920633638006206,5.602048154888819,-2.8226258055483435,-0.3698100000000001,0.196589,-0.714214,0.06029799999999996,0.022445000000000048,-0.843207,0.43010800000000005,0.17414399999999997,0.12899300000000002,0.0,0.9000092012393658,single,-0.714214
110,0.916667,jog,1.1675065994720353,-0.8627309815214753,-0.2658987281017493,0.0762917410031974,-1.1861083781544706,0.09911291987018203,2.509239260859117,-2.7117830573553854,0.08507319414446961,0.00011999040077138805,-0.03395728341733034,-0.010799136069114364,2.0279067951824015,-0.2899650761899028,1.4149723473198386,11.253016869975113,-24.929553221612988,-11.578361956567953,-1.5119412550484979,-9.30153898332484,3.4128190057202294,-0.35862800000000006,0.1811790000000001,-0.7112890000000001,0.050568999999999975,0.029352000000000045,-0.841081,0.40919700000000003,0.15182700000000005,0.1297919999999999,0.0,0.9406111487590187,single,-0.7112890000000001
111,0.925,jog,1.5615024600984002,-1.026641065642619,-0.4863794551782019,-1.2180511950919515,0.11914967778408786,-1.882898438915778,2.6239049561982397,-2.6733469338773563,-0.010800432017281454,-0.008880355214210751,-0.05724228969159471,-0.003000120004799849,47.28139453094483,-19.66999689441294,-26.458745598998163,13.760433858048993,4.612519318136192,-11.505295351224127,-1.0800846771849397,-2.7943125254127286,0.9359193644923176,-0.34977500000000006,0.16745699999999997,-0.707326,0.03748299999999993,0.03742999999999996,-0.837053,0.387258,0.130027,0.12972700000000004,0.0,0.9033255583886739,single,-0.707326
112,0.933333,jog,1.2725309012360546,-0.99003960158407,-0.08472338893555632,0.6200120076703702,-1.4825165089783028,-0.19111833266537245,2.7322692907716704,-2.8021120844834027,-0.09780391215648504,-0.011880475219004096,-0.00852034081362449,-0.005280211208448671,-34.677974182449084,4.392351381081166,48.20065597535693,13.004240318424532,-15.452436170172506,-10.44083525011453,-0.36002880172727375,5.846867740066083,-0.2736218893134336,-0.3376109999999999,0.15235699999999996,-0.707435,0.026780000000000026,0.04560900000000001,-0.8363910000000001,0.3643909999999999,0.10674799999999995,0.12895600000000007,0.0,0.9740929798544706,single,-0.707435
113,0.941667,jog,1.1568274538036882,-0.689824814014874,-0.09407247420206395,-0.5151006263364514,-1.580415460880094,1.1730378555136587,2.8610511159106893,-2.736501079913572,-0.1787856971442294,-0.02279817614591097,0.014278857691382209,-0.006479481641468453,-13.883303027641649,36.022892676889086,-1.1218004879418715,15.452582810057349,7.872690733120989,-9.717036835582402,-1.3100193096840402,2.735684965803519,-0.14390093988718178,-0.32340800000000003,0.1353000000000001,-0.708141,0.016948999999999992,0.051476999999999995,-0.835661,0.340357,0.08382300000000009,0.12751999999999997,0.0,0.95388341179103,single,-0.708141
114,0.95,jog,1.1549261970478883,-1.1281651266050736,0.4611784471378813,-0.2837481023961079,-6.375658823587594,-0.9392049874163539,2.881915276611092,-2.7983919356774636,-0.27433097323892996,-0.030601224048962865,-0.012240489619590475,-0.008640345613824946,-0.22815993709347202,-52.60294162848957,66.63277587182891,2.5037994360257945,-7.427199779658264,-11.465891767034854,-0.9364032044944156,-3.1824489752757623,-0.25931404924475143,-0.309017,0.12138199999999999,-0.71427,0.007070000000000021,0.06077599999999994,-0.839576,0.316087,0.06060600000000005,0.12530600000000003,0.0,0.9432128713784622,single,-0.71427
115,0.958333,jog,1.2497299891995668,-0.8927157086283383,-0.13260530421217065,-0.3681171822728316,0.07516821719777265,1.0101427502630138,2.9950798031921195,-2.8543141725668844,-0.3247329893195731,-0.012120484819394855,-0.02664106564261893,-0.003480139205567525,11.37691013460675,28.255060359622508,-71.25690043802345,13.58028640117929,-6.710936864205033,-6.048483869031914,2.2177774186448977,-1.728138248293339,0.6192495389724468,-0.294473,0.10503600000000002,-0.7158709999999999,-0.0034450000000000314,0.06799299999999997,-0.8384999999999999,0.29102799999999995,0.03704300000000005,0.12262899999999999,0.0,0.9508753315046062,single,-0.7158709999999999
116,0.966667,jog,1.233981281497466,-0.9254859611231128,-0.07055435565153798,-0.5248346753180149,0.027117690125351982,1.2795161175219858,3.2446604271657997,-3.045356371490266,-0.33597312215022507,-0.004919606431480372,0.0005999520038436186,-0.010679145668346306,-1.8896937487521808,-3.932115730114501,7.4455181858209984,29.947279094513835,-22.923230012404638,-1.3487080430347809,0.8640362836470395,3.2686606247255026,-0.8638116705997992,-0.27771599999999996,0.08736900000000003,-0.718083,-0.013769999999999949,0.07571100000000008,-0.838001,0.263946,0.011657999999999946,0.11991799999999997,0.0,0.9803781143976271,single,-0.718083
117,0.975,jog,1.2011280451218214,-0.8948757950318018,-0.1186847473898988,-0.6871426535830845,0.31301882997111724,1.6152060415591125,3.3193327733109648,-3.0264010560422685,-0.43249729989199914,0.005640225609026723,0.014640585623419728,-0.015600624024961755,-3.942546066920069,3.6733668656319733,-5.7758780437251005,8.961039979019048,2.274728842913444,-11.58336466359954,1.2672305340822263,1.684943432086432,-0.5906010268349327,-0.260065,0.06960699999999997,-0.7206980000000001,-0.023731999999999975,0.08328999999999998,-0.837142,0.23633300000000002,0.013683,0.11644399999999999,0.0,0.9631241436150058,single,-0.7206980000000001
118,0.983333,jog,1.1838473538941523,-0.8873154926197024,-0.07416296651866133,-0.9693873257762956,0.33160119839781105,2.012531906589473,3.5792631705268083,-3.229329173166912,-0.3739349573982953,-0.01920076803072703,-0.019560782431300078,-0.006000240009600531,-2.0737658979561973,0.9072725803551352,5.3428274176451795,31.192895381716365,-24.352348148883053,7.027762209732821,-2.98103847830957,-4.104328339699948,1.1520921655299634,-0.24010399999999998,0.050091,-0.723196,-0.03375700000000004,0.09052099999999996,-0.836574,0.20634699999999995,0.040429999999999966,0.11337800000000009,0.0,0.9532353236801756,single,-0.723196
119,0.991667,jog,1.2571394288456945,-0.9570434365250814,0.008639308855286944,-0.9312339611060251,-0.20591324784066767,2.0163624464968444,3.466522678185761,-3.0117590592752763,-0.5473962083033368,-0.005399568034552675,-0.029037676985837035,-0.00311975041996621,8.794345446549393,-8.366683933930808,9.93547820661732,-13.527776858777028,26.10632516098353,-20.813685013803994,1.6560115186194422,-1.1371363756343906,0.345631100268099,-0.22169099999999997,0.03296699999999997,-0.72783,-0.04427899999999996,0.09825499999999998,-0.836672,0.17741200000000001,0.06528800000000001,0.108842,0.0,0.9505004247387343,single,-0.72783
120,1.0,jog,1.2166086643465663,-0.9711988479539161,-0.017640705628226044,-0.4175590428864976,0.6045260245309118,1.892003627220576,3.3477739109564184,-3.01392055682226,-0.6163446537861491,0.028921156846266016,0.014040561622468889,0.011760470418816808,-4.863886295347175,-1.6987173201529626,-3.153727887137031,-14.250422084404452,-0.2593900812412917,-8.274144423714391,4.118651731767496,5.169595416813362,1.7856979285710977,-0.203932,0.015944999999999987,-0.7328189999999999,-0.054176,0.10646500000000003,-0.8364269999999999,0.149756,0.09052000000000004,0.10360800000000003,0.0,0.9429454610707991,single,-0.7328189999999999
121,1.008333,jog,1.282131285251425,-1.0055202208088445,0.053762150486020406,-0.7878693355091321,0.27134240939317045,2.0828968141208004,3.6723868954758547,-3.02460098403939,-0.6422656906276338,-0.0351614064562571,0.0387615504620143,0.06060242409696425,7.863029029744308,-4.118729491771119,8.568685481128897,38.95511634698659,-1.281702534156968,-3.1106488469320728,-7.69021520491104,2.966637326238526,5.861268892133432,-0.184014,-0.0008799999999999919,-0.7386189999999999,-0.06515300000000002,0.11516700000000002,-0.83637,0.118861,0.11604700000000001,0.09775100000000003,0.0,0.8665475937456257,single,-0.7386189999999999
122,1.016667,jog,1.3136549076073896,-1.0544756419486383,0.10907127429806117,-0.7742385710337178,0.31985289163287467,2.0242254078402633,3.5854331653467506,-3.0731941444684154,-0.6089512838972831,-0.010079193664503522,-0.011159107271419371,0.02507799376049907,3.7825320801493003,-5.874180602327024,6.6365639323302545,-10.433612926458299,-5.830712794459459,3.9974090149208585,3.009624765029204,-5.989999728033752,-4.262590633125139,-0.16508100000000003,-0.017703999999999942,-0.744603,-0.07618500000000006,0.12386200000000003,-0.83707,0.08889599999999998,0.14156599999999997,0.09246699999999997,0.0,0.9512654129472358,single,-0.744603
123,1.025,jog,1.3142925717028755,-1.079083163326543,0.1988479539181609,-0.9087454645316729,0.35059461724827556,2.1144382981690044,3.645265810632454,-3.0842433697348146,-0.6510260410416459,0.0038401536061481215,-0.0055202208088312625,0.040321612864515306,0.07652275236840761,-2.9530206861760346,10.773632499712056,7.180204642470149,-1.3259600703707282,-5.049172824236541,1.6703884880177333,0.6766934432483092,1.8293074647805563,-0.14565700000000004,-0.034412999999999916,-0.751685,-0.08710499999999999,0.13280800000000004,-0.838391,0.05855200000000005,0.16722099999999995,0.08670599999999995,0.0,0.9318691601587041,single,-0.751685
124,1.033333,jog,1.342133685347387,-1.091323652946091,0.24828993159725804,-0.5681098682201993,0.6889943793327865,2.05939056703482,3.539661586463406,-2.9719188767550224,-0.70718828753149,-0.015840633625347256,-0.0008400336013415484,0.05472218888755431,3.341067280032533,-1.4689175110461816,5.933274652477651,-12.673013820838348,13.479478336708295,-6.739739168347913,-2.3617889393369773,0.5616449306959838,1.7281382482945824,-0.12734499999999993,-0.05008400000000002,-0.759647,-0.09842099999999998,0.141895,-0.840004,0.02892399999999995,0.191979,0.08035700000000001,0.0,0.9050416862403261,single,-0.759647
125,1.041667,jog,1.3579313654907892,-1.1643868490521034,0.2764578833693324,-0.2723098404468759,0.8801310315604676,1.7153120492948821,3.8497720182386144,-3.0994720422366857,-0.6437485001200021,0.025317974562030866,-0.020398368130550362,0.08039356851452001,1.8955699716105596,-8.766882182147086,3.3798838219432334,37.21027499102643,-15.305155445364257,7.612165516137405,4.938637891454153,-2.346812398513221,3.0803191297055657,-0.10657799999999995,-0.06621100000000002,-0.767316,-0.10952700000000004,0.15142900000000004,-0.841638,0.0029490000000000904,0.21764000000000006,0.074322,0.0,0.8554680051106338,single,-0.767316
126,1.05,jog,1.395895835833406,-1.201128045121776,0.36601464058561667,-0.7386066594913216,0.9752086991007862,1.4264805238503864,3.8397935917435957,-3.035521420856776,-0.6431057242289582,-0.005520220808831116,-0.007200288011527536,0.12648505940237464,4.555918677861044,-4.409119893156365,10.747240755584146,-1.197459077765331,7.674381540850691,0.07713619237296032,-3.700731473762324,1.5838329676014156,5.531200154548642,-0.08621299999999998,-0.08149700000000004,-0.775725,-0.12120500000000001,0.1613779999999999,-0.843634,0.03499200000000002,0.24287499999999995,0.067909,0.0,0.7886499268114534,single,-0.775725
127,1.058333,jog,1.433457338293543,-1.2200888035521578,0.38665546621865926,-0.7386696792811577,0.8525300675653292,1.171852213622207,3.8759150366015054,-3.011040441617689,-0.6218648745949902,0.0037201488059526618,-0.017760710428408415,0.12516500660026458,4.507560597640388,-2.2753820269269016,2.476998155891369,4.3347467728201154,2.9378350220913223,2.549003916232832,1.1088887093224364,-1.2673013820810004,-0.15841267276011917,-0.06585999999999992,-0.09642099999999998,-0.7841290000000001,-0.133119,0.17139700000000002,-0.845813,0.06725900000000007,0.267818,0.06168399999999996,0.0,0.7892107343860508,single,-0.7841290000000001
128,1.066667,jog,1.5151187904967554,-1.2663786897048215,0.45116390688744384,-1.0071438668201174,0.8866728281850155,0.8874078261219013,3.8946484281257185,-2.972162227021824,-0.6214302855771477,0.020158387329020363,-0.03203743700504142,0.20794336453083576,9.798590377155243,-5.554341990960327,7.74039364876219,2.2478271567330235,4.66501255049973,0.052146510420258176,1.972430828301845,-1.7130701435844609,9.932608343001025,-0.04602899999999999,-0.11063699999999999,-0.793068,-0.14557799999999999,0.18168400000000007,-0.84784,0.099549,0.29232100000000005,0.05477200000000004,0.0,0.6477327371868105,single,-0.793068
129,1.075,jog,1.4495379815192682,-1.2700108004320168,0.40633625345014174,0.05389910746028267,2.316652972941642,0.4926564553210106,3.956438257530327,-2.9278771150846206,-0.5844233769350826,0.0808832353294082,0.012120484819395016,0.2350894035761455,-7.870011877773646,-0.4358707220923201,-5.379533593820055,7.415076131598369,5.314426009504839,4.441006677314949,7.2872732509766465,5.299162585435838,3.257654991636864,-0.025139000000000022,-0.12445200000000001,-0.801324,-0.15698299999999998,0.19236799999999998,-0.849267,0.13184399999999996,0.31682,0.04794299999999996,0.020569999999999977,0.5851505240070086,single,-0.801324
130,1.083333,jog,1.5555022200887798,-1.27925117004678,0.5496219848793756,-0.7038546725091309,0.6018518727321674,0.5794646876961553,3.967478699147904,-2.890315612624457,-0.5508220328813069,0.086883475339019,-0.005280211208453526,0.34357374294971166,12.716217277032257,-1.108888709319932,17.194975570530588,1.324905990348791,4.5075605976434385,4.032322579356186,0.7200576034574203,-2.0881670500237894,13.018641470486532,-0.005039999999999989,-0.13787700000000003,-0.8104939999999999,-0.16922099999999995,0.20298399999999994,-0.850984,0.16418099999999997,0.34086099999999997,0.040490000000000026,0.09510000000000002,0.5,flight,-0.8104939999999999
131,1.091667,jog,1.532517398608141,-1.321694264458868,0.5347972162227177,-0.697648084241955,1.128066440321105,0.3405286601617021,4.008639308855367,-2.8743700503960303,-0.48572114230862407,0.1361891048716125,-0.032277417806571736,0.4188864890808816,-2.757957941041418,-5.092763908338008,-1.7788299324043941,4.938878054651261,1.9133144022590718,7.81148195016608,5.9162022477315155,-3.239405639323101,9.036806591213269,0.015595999999999999,-0.1508170000000001,-0.818999,-0.18085799999999996,0.21372999999999998,-0.85195,0.19645399999999996,0.36454700000000007,0.03295099999999995,0.17049000000000003,0.5,flight,-0.818999
132,1.1,jog,1.5448217928716905,-1.3447737909516204,0.606624264970592,-0.5017031637450236,0.6232017701155467,0.44584015935678145,4.013440537621431,-2.829593183727288,-0.44425777031080427,0.23520940837632634,-0.019200768030726772,0.5352214088563447,1.476586375080912,-2.7696539652888457,8.619590633370096,0.5761704987476641,5.373438937806489,4.975803671885164,11.882911737034933,1.5692607435311094,13.96074880300745,0.03616699999999995,-0.16318999999999995,-0.827756,-0.19177100000000002,0.22477599999999998,-0.852545,0.22793799999999997,0.3879659999999999,0.02478899999999995,0.25210999999999995,0.5,flight,-0.827756
133,1.108333,jog,1.570502820112814,-1.3739349573983135,0.5838233529341237,0.11834135365361405,1.076824982908124,0.24009094716747142,3.975279011160488,-2.7620304812192784,-0.3831753270130842,0.22404896195847462,-0.13104524180967142,0.5091803672146928,3.0818465427965505,-3.4994799528013147,-2.736218893131944,-4.579566357967515,8.10784861490583,7.330186403182601,-1.3393071424279153,-13.421873728422616,-3.1250499989982146,0.056206000000000034,-0.17475699999999994,-0.8358140000000001,-0.20299100000000003,0.23513300000000004,-0.853167,0.25919700000000007,0.40989,0.017352999999999952,0.3264699999999999,0.5,flight,-0.8358140000000001
134,1.116667,jog,1.5952723782097311,-1.3927285817134432,0.5415166786657013,0.2627709449830995,0.9393895765707813,-0.05551567119520946,3.9095272378209445,-2.7207823374129863,-0.27153827693784305,0.3010559155267669,-0.19402447804175274,0.4736021118310506,2.972109202893806,-2.255054513454465,-5.0763948006265975,-7.889581634214438,4.949381306250522,13.395374379078511,9.240095220577357,-7.556903795546057,-4.269049122107266,0.07549300000000003,-0.18582500000000002,-0.8425900000000001,-0.21377699999999994,0.24512299999999998,-0.8537330000000001,0.28926999999999997,0.430948,0.011143000000000014,0.38856999999999997,0.5,flight,-0.8425900000000001
135,1.125,jog,1.639385575423036,-1.4312972518900913,0.6189847593903808,-0.06500155826109079,0.565009036907274,-0.006769441897821615,3.8960758430337563,-2.6941077643106,-0.1999279971198867,0.35257410296412134,-0.20664826593063929,0.6105844233769401,5.293795417413329,-4.628425558220145,9.296541548623567,-1.6142319437403427,3.201076815359,8.59357732124769,6.182429789674174,-1.5149151432721302,16.438534926903962,0.09429799999999999,-0.19634800000000002,-0.849414,-0.22449999999999998,0.255328,-0.853803,0.31879799999999997,0.451676,0.004388999999999976,0.45610999999999996,0.5,flight,-0.849414
136,1.133333,jog,1.6505460218408874,-1.461538461538481,0.6734669386775473,-0.12483500415646291,0.40464972503631363,-0.0995567044230147,3.7425897035881737,-2.592943717748732,-0.03924156966278614,0.3681747269890781,-0.26689067562702795,0.5955838233529407,1.3393071424278786,-3.629090321419657,6.538123039381612,-18.419073496409943,12.140171194272035,19.28314262055707,1.8721497689855886,-7.229378338700254,-1.8001440086402887,0.11173099999999997,-0.20577599999999996,-0.8553529999999999,-0.235186,0.26528300000000005,-0.854452,0.346917,0.471059,0.0009009999999999296,0.5,0.49099000000000004,flight,-0.854452
137,1.141667,jog,1.6870650347972054,-1.4662826973841991,0.7619390448764134,-0.09832770846786498,0.07885514617375045,-0.4007134740720539,3.6238300935924888,-2.474322054235642,0.03347732181425478,0.33201343892487917,-0.33273338132949415,0.630909527237816,4.381931000278103,-0.5692627604653362,10.61580347958549,-14.250013198426206,14.233460944695103,8.725568931730304,-4.339007447108071,-7.9004926448842925,4.2387453665556825,0.12787199999999999,-0.21417699999999995,-0.8614240000000001,-0.24647900000000006,0.27473000000000003,-0.8555440000000001,0.37435100000000004,0.488907,0.005879999999999996,0.5,0.44120000000000004,flight,-0.8555440000000001
138,1.15,jog,1.6863074522981019,-1.4701788071522877,0.6095043801752059,0.2363263265422138,0.10355587973260752,-0.4386910242577536,3.47161886475462,-2.3700948037921723,0.11256450258010356,0.4308172326893094,-0.3424936997479958,0.6770670826833128,-0.09091353643388,-0.4675518742455963,-18.292891479804258,-18.26607810366859,12.507770364031053,9.490841325554962,11.856929528912891,-1.1712850616226758,5.539128218588413,0.14274900000000001,-0.22167600000000004,-0.865565,-0.25694100000000003,0.2841269999999999,-0.854981,0.39969000000000005,0.505803,0.010584000000000038,0.5,0.39416000000000007,flight,-0.854981
139,1.158333,jog,1.7341893675746782,-1.4792991719668633,0.4980199207968216,0.1409166654914838,-0.6039965473897944,-0.18035028225591374,3.272650906036186,-2.260410416416619,0.19452778111124075,0.43069722788911574,-0.3388935557422163,0.6990279611184321,5.746059675576087,-1.0944875572513522,-13.378670272216771,-23.877110130616845,13.162652991185787,9.835986863210818,-0.014401152069319375,0.4320345620760173,2.6354108286474145,0.15556899999999999,-0.22818499999999997,-0.8680939999999999,-0.267803,0.29363000000000006,-0.853306,0.42337199999999997,0.521815,0.014787999999999912,0.5,0.35212000000000004,flight,-0.853306
140,1.166667,jog,1.7519798416127013,-1.4721622270218633,0.45656347492202193,0.03830308265596073,-0.384427014613237,-0.4103281377335859,3.050875929925661,-2.067074634029316,0.20470362371010697,0.4828413726901973,-0.3388528917686708,0.6798656107511534,2.13468610967403,0.8563648842092864,-4.974375554931663,-26.610868263802427,23.19843801143591,1.2210034315894431,6.256796832383313,0.004879286482543687,-2.2992981002254766,0.166394,-0.233143,-0.870193,-0.27837999999999996,0.303075,-0.851445,0.44477399999999995,0.536218,0.018747999999999987,0.5,0.31252,flight,-0.851445
141,1.175,jog,1.7457098283931023,-1.4857794311772181,0.43093723748949336,0.5487024025739231,-0.2638438355273011,-0.43628541825413936,2.8033121324852526,-1.947437897515869,0.21912876515060317,0.5286211448457836,-0.3675747029881043,0.9151566062642355,-0.7524316836192079,-1.634129863837105,-3.0752715027634845,-29.708844046610345,14.356982660919822,1.7310862163081657,5.493792410366677,-3.446755216540623,28.236048903525496,0.17520700000000003,-0.23699000000000003,-0.871958,-0.28852199999999995,0.31239300000000003,-0.84741,0.46372899999999995,0.5493830000000001,0.024548000000000014,0.5,0.25451999999999997,flight,-0.84741
142,1.183333,jog,1.7314292571703023,-1.4786991479659388,0.39121564862594016,0.9353802097246714,-0.1483374033893304,-0.6696121939512953,2.543261730469241,-1.7883115324613112,0.21804872194887984,0.4842193687747567,-0.326533061322466,0.942637705508229,-1.7137370962198668,0.8496679720724057,-4.766781334879823,-31.20729653378304,19.095927643652857,-0.12961036862154626,-5.328426265573901,4.925194007636945,3.29786382383221,0.18197200000000002,-0.23956999999999995,-0.873401,-0.29891499999999993,0.321994,-0.842815,0.48088699999999995,0.561564,0.030586000000000002,0.5,0.19413999999999998,flight,-0.842815
143,1.191667,jog,1.7357811375089902,-1.4925605951523737,0.308255339572837,0.9123096185779195,0.108430186177491,-0.7197173105056462,2.2967362610990953,-1.6370290376769754,0.1262299016078701,0.5104391648668044,-0.3840892728581695,1.113750899927997,0.5221838659332743,-1.6632406031239246,-9.954440731113811,-29.580689869227697,18.1524471783459,-11.017377050757025,3.146123841138411,-6.906192888853259,20.531940775109998,0.186647,-0.240774,-0.874918,-0.309127,0.33123199999999997,-0.836102,0.495774,0.572006,0.03881599999999996,0.5,0.11184,flight,-0.836102
144,1.2,jog,1.7257890315612754,-1.4759390375615098,0.21864874594983882,0.6664409607128834,-0.5170800401251217,-0.6231648530428591,2.0541221648866133,-1.5197407896316002,0.030961238449537586,0.5199807992319645,-0.41977679107164684,1.1964478579143283,-1.1991006777529,1.9946666975715919,-10.753221363614426,-29.114856139743708,14.075152771556013,-11.43269688687548,1.1450419254962412,-4.28267349255702,9.924031919636628,0.18938300000000002,-0.24113900000000005,-0.876482,-0.31917500000000004,0.3400329999999999,-0.827954,0.5085580000000001,0.581172,0.048528000000000016,0.5,0.014719999999999844,flight,-0.827954
145,1.208333,jog,1.7430697227888823,-1.4818192727708879,0.13176527061082732,0.4459347704189542,-0.3247426763713758,-0.6220878217352049,1.8600744029760865,-1.3684147365894392,-0.058442337693506874,0.5951038041521612,-0.47269890795629976,1.150846033841332,2.0737658979487086,-0.7056564513834128,-10.42643409804512,-23.286662895778633,18.159852759169365,-10.728858291496808,9.015121195271263,-6.350908062480739,-5.47243778627091,0.190358,-0.24019400000000002,-0.878067,-0.328741,0.34844200000000003,-0.819462,0.519099,0.588636,0.05860500000000002,0.5,0.0,flight,-0.819462
146,1.216667,jog,1.717902567794612,-1.4683225341972985,0.03467722582193295,0.2792024218794036,-0.5684886459138706,-0.7239526202997438,1.6858651307895698,-1.220542356611496,-0.13378929685625296,0.583273338132961,-0.517878569714431,1.0925125989921016,-3.019817013951371,1.6194790705051125,-11.649633403995228,-20.90344038715143,17.74326613606265,-9.040911826583576,-1.4195423589153422,-5.421125720918181,-6.999452225729719,0.19009099999999998,-0.23812899999999998,-0.879471,-0.338197,0.3563630000000001,-0.810646,0.528288,0.594492,0.06882500000000003,0.5,0.0,flight,-0.810646
147,1.225,jog,1.7140285611424144,-1.4586583463338176,-0.012240489619590149,0.4210212863156956,-0.4449739122320689,-0.7694465807862081,1.5225009000359744,-1.0907236289451336,-0.2524900996039808,0.9414376575062827,-0.5912636505460133,1.197047881915257,-0.4648993942394752,1.1597489335750293,-5.630351067025354,-19.60449187010591,15.57887047478219,-14.244666116371743,42.98143758230115,-8.806561962268205,12.544735740208036,0.188495,-0.23506300000000002,-0.881473,-0.344635,0.363591,-0.800569,0.53313,0.598654,0.08090399999999998,0.5,0.0,flight,-0.800569
148,1.233333,jog,1.7089883595343942,-1.4456978279131334,-0.13656546261850266,-0.0024716674487476765,-0.6864154103439855,-0.8352671801962858,1.3916956678267263,-0.9612384495379923,-0.3494539781591293,1.070442817712723,-0.5786631465258655,1.2565702628105215,-0.6048483868979069,1.5553244234590615,-14.919593543611382,-15.69725575534013,15.538843082580405,-11.636130871852805,15.481238474311946,1.5121209672564382,7.142971426288859,0.18585100000000002,-0.231026,-0.883247,-0.34995599999999993,0.37081600000000003,-0.78896,0.5358069999999999,0.601842,0.09428700000000001,0.5,0.0,flight,-0.78896
149,1.241667,jog,1.7005039596832145,-1.4336453083753207,-0.2050635949124007,-0.05863505843676828,-0.6906893306955911,-0.804772752471142,1.3330933525317867,-0.8484521238300864,-0.48620110391168336,1.1763858891288517,-0.5947924166066656,1.2583393328533616,-1.0180465384184778,1.4461866496055473,-8.219118345800037,-7.0317152981688364,13.533276422834781,-16.408342422912526,12.712151597807521,-1.9353575810895123,0.21227142342693672,0.18278899999999998,-0.226149,-0.8855900000000001,-0.3543240000000001,0.37780700000000006,-0.776764,0.5371130000000001,0.603956,0.10882600000000009,0.5,0.0,flight,-0.776764
150,1.25,jog,1.685947437897532,-1.4182167286691592,-0.28297131885276655,-0.21648452782287766,-0.5684919547226418,-0.7302143676583553,1.1664466578663257,-0.7725909036361525,-0.5814232569302827,1.3693747749910194,-0.6893075723029083,1.3117724708988507,-1.7468524883814456,1.8515036248843941,-9.349300844877783,-19.998403295987345,9.103710571695023,-11.427115446849903,23.159592687167834,-11.342272374444205,6.412233054780942,0.17845999999999998,-0.220769,-0.888077,-0.356962,0.383881,-0.7634749999999999,0.535422,0.6046499999999999,0.1246020000000001,0.5,0.0,flight,-0.7634749999999999
151,1.258333,jog,1.6889475579023285,-1.392655706228259,-0.3847353894155719,-0.5739802789750521,-0.871044526749823,-0.7420847089327635,0.9336373454938282,-0.6383055322212968,-0.6926677067082746,1.4365774630985315,-0.7434297371894885,1.2318492739709697,0.36002880172764473,3.0674453907236803,-12.212176954614938,-27.938235014100528,16.11488916534944,-13.349867968077868,8.06464515870787,-6.494919583173007,-9.591167278036938,0.172166,-0.21448300000000003,-0.8906430000000001,-0.359065,0.389291,-0.750004,0.531231,0.603774,0.14063900000000007,0.5,0.0,flight,-0.750004
152,1.266667,jog,1.6594672426205788,-1.3946484281257385,-0.47036237101031975,-0.6141596294189092,-1.0730886533468194,-0.5870125779049582,0.6885049196064262,-0.3982481401487837,-0.8322534197264153,1.4811615070794248,-0.922486201103908,1.172306215502751,-3.5373548454223114,-0.23910749909761825,-10.274415838102616,-29.41353802344613,28.80458268208679,-16.748945646525037,5.349657305122749,-21.485056865180965,-7.144595448550295,0.164074,-0.20617900000000003,-0.893659,-0.360551,0.39322599999999996,-0.736314,0.524625,0.599405,0.15734499999999996,0.5,0.0,flight,-0.736314
153,1.275,jog,1.6351854074163115,-1.3693747749910128,-0.5693027721108861,-0.7345039770030366,-0.8588157891598992,-0.5710309018009074,0.3799351974078998,-0.1113644545781856,-0.9033961358454421,1.7219488779551406,-0.9657986319452799,1.1351254050162105,-2.9139367819833817,3.0329596945548984,-11.87332306499067,-37.02984785773782,34.42741936524669,-8.53746743298061,28.895640330699386,-5.197699608949037,-4.461875733414242,0.153614,-0.19569600000000004,-0.896443,-0.3598279999999999,0.396589,-0.7221110000000001,0.513442,0.5922850000000001,0.17433199999999993,0.5,0.0,flight,-0.7221110000000001
154,1.283333,jog,1.5933037321492594,-1.3675747029880976,-0.6163446537861442,-0.6621096577344184,-0.8394301783845217,-0.515146514572318,-0.039241569662785934,0.18144725789031405,-0.7370694827792985,1.74330973238926,-1.0231609264370436,1.0777631105244008,-5.02600207212905,0.216017281041063,-5.645251611095321,-50.303224177448506,35.13881104866129,19.959996767807592,2.563405068297001,-6.883750689039081,-6.88375068904461,0.14001,-0.182788,-0.897449,-0.358578,0.399459,-0.707994,0.498588,0.582247,0.18945500000000004,0.5,0.0,flight,-0.707994
155,1.291667,jog,1.532397408207373,-1.3354931605471851,-0.711903047756189,-0.6539186344581579,-1.106912042938727,-0.4562670569758516,-0.011999040076794013,0.10295176385889296,-0.23374130069594856,1.9406047516199065,-1.1965442764579037,0.9958003359731412,-7.308174219088972,3.8494771347387866,-11.466089989206449,3.2688420429556566,-9.418705787307726,60.394550285980266,23.673508427003885,-20.804337655491175,-9.834746166458016,0.127139,-0.17079999999999998,-0.893464,-0.35517600000000005,0.40061700000000006,-0.693762,0.482315,0.5714170000000001,0.19970200000000005,0.5738478418078572,0.0,single,-0.693762
156,1.3,jog,1.4849393975758767,-1.2673706948277694,-0.7350294011760399,-0.8255271381636604,-1.6733120852431274,-0.5564431050279319,0.17496699867994425,-0.04764190567622723,-0.2097683907356257,2.1378855154205825,-1.2958118324732866,0.9290771630865104,-5.695189083342796,8.175022887245232,-2.7752734213189147,22.436822123693148,-18.071963222743015,2.8768642698094857,23.674638641626363,-11.912583225174739,-8.00710103043677,0.11622299999999999,-0.160636,-0.889087,-0.349735,0.40037999999999996,-0.6798949999999999,0.465958,0.561016,0.20919200000000004,0.5378613136389554,0.0,single,-0.6798949999999999
157,1.308333,jog,1.4474978999160086,-1.2286091443657823,-0.8157926317052722,-1.4449710717823128,-1.8818698011923907,-0.6295874929952007,0.25477019080763463,-0.20736829473178872,-0.36445457818313043,2.280451218048742,-1.445577823112938,0.8334333373334984,-4.4931594455620285,4.651572118323234,-9.691975342521664,9.576766125967971,-19.167933404003715,-18.56308501710142,17.10856865812562,-17.972637782269615,-11.477718199089509,0.106284,-0.152126,-0.8853260000000001,-0.342794,0.3985719999999999,-0.6661520000000001,0.449078,0.5506979999999999,0.21917399999999998,0.5,0.0,flight,-0.6661520000000001
158,1.316667,jog,1.3933285337172934,-1.1937844972402165,-0.8406527477801793,-1.36637030561899,-1.0822228207492681,-0.7571818205760882,0.2417806575473943,-0.235421166306696,-0.3872090232781349,2.4748020158387147,-1.5251979841612455,0.7210223182145358,-6.49980395952902,4.178623365198645,-2.982975290965555,-1.5586193016846925,-3.3660753029646093,-2.7303149862016185,23.320230116387243,-9.553655033394168,-13.488243234816633,0.096687,-0.144139,-0.881547,-0.333781,0.39581000000000005,-0.653137,0.43046799999999996,0.539949,0.22841,0.5,0.0,flight,-0.653137
159,1.325,jog,1.4060962438497657,-1.1736469458778405,-0.8157926317052722,-2.118493505735664,-1.2755192660381287,-0.641777393265599,0.16224648985959586,-0.18936757470298937,-0.17496699867994892,2.5388215528621387,-1.6944677787111666,0.5388215528621186,1.5321865033568307,2.416602827598252,2.9833332623193747,-9.544481901811974,5.526652058527186,25.47006175425272,7.682651748880906,-20.313187873505655,-21.864966440947896,0.086322,-0.13593700000000003,-0.876207,-0.32434199999999996,0.39147,-0.641849,0.410664,0.527407,0.23435799999999996,0.5,0.0,flight,-0.641849
160,1.333333,jog,1.378735149405952,-1.1114844593783615,-0.7813512540501404,-2.251130733587614,-0.7005298449331668,-0.827009611247208,0.16236649465978356,-0.01380055202208112,-0.042841713668545535,2.641185647425851,-1.7718708748349659,0.4494179767190607,-3.283462671764448,7.459796771808219,4.133130643841494,0.014401152068606584,21.068885477127708,15.855668428105254,12.284182714953834,-9.288743084579131,-10.728858291498424,0.076186,-0.12678999999999999,-0.8700530000000001,-0.313822,0.385967,-0.6315930000000001,0.39000799999999997,0.512757,0.23846,0.7191839953205947,0.0,single,-0.6315930000000001
161,1.341667,jog,1.3392128629709883,-1.1325893928485906,-0.7537796976242056,-2.7018957067180285,-0.05956468749454733,-0.7030508960308997,0.12550995920326613,0.005159587233023286,-0.04415646748260226,2.7233021358291847,-1.9118070554355986,0.3074154067674655,-4.742294988596659,-2.5323894252735215,3.3083221053438097,-4.422430460345348,2.275034707835945,-0.15775783705984542,9.853190353171996,-16.79099839220487,-17.038945278569464,0.066071,-0.117308,-0.864139,-0.302287,0.379473,-0.622749,0.36835799999999996,0.49678100000000003,0.24139,0.7780818167521917,0.0,single,-0.622749
162,1.35,jog,1.3590543621744633,-1.1226449057962125,-0.7459498379935066,-2.3607084315520335,0.5080784544636346,-0.8177109334138688,0.0474018960758422,0.0319212768510721,-0.06456258250329945,2.8847953918156195,-1.951398055922199,0.20508820352813947,2.3810751474228553,1.1933861817326274,0.9396207405134893,-9.373342508991069,3.211531215414418,-2.44883175575385,19.37996591700852,-4.751110102796085,-12.279755578942064,0.055140999999999996,-0.107687,-0.858461,-0.289573,0.37256700000000004,-0.614824,0.344714,0.48025400000000007,0.243637,0.8562966527212408,0.0,single,-0.614824
163,1.358333,jog,1.3688947557902433,-1.0957638305532322,-0.6714268570742911,-1.3798500871459862,0.7420193339232736,-1.0086538405051135,0.039361574462978846,0.040441617664707434,-0.03984159366374679,2.997959918396764,-2.077403096123873,0.08100324012960367,1.1808944696724026,3.2258580634801954,8.943115434923339,-0.9648771886311565,1.0224817969081257,2.9666373262393964,13.580286401193487,-15.121209672587938,-14.890791239474012,0.044062000000000004,-0.098219,-0.853198,-0.275998,0.36438699999999996,-0.608554,0.32006,0.46260599999999996,0.24464399999999997,0.8848646862599138,0.0,single,-0.608554
164,1.366667,jog,1.3755699544036375,-1.1592272618190427,-0.5496760259179292,-0.8558059441732926,0.9522466326159764,-0.9585483023838199,0.053275737940964366,0.023638108951284046,-0.02771778257739384,3.0196784257259215,-2.1629469642428423,-0.045356371490279164,0.8009597568267472,-7.61500255169306,14.60893102428137,1.6695660520740836,-2.0162597448312045,1.4547409510862557,2.6060123985070236,-10.264443018834704,-15.16194043915069,0.033042,-0.08836100000000002,-0.8488479999999999,-0.262296,0.35602199999999995,-0.604351,0.295338,0.444383,0.24449699999999996,0.8924342588750338,0.0,single,-0.604351
165,1.375,jog,1.3985359414376703,-1.189727589103579,-0.5343813752550066,-0.8115008168651565,1.3919030062552722,-0.631110973944219,0.026281051242049925,-0.0007200288011527728,-0.025201008040321233,3.1111244449778246,-2.221048841953695,-0.22164886595463873,2.7560286852313767,-3.6601856815716562,1.8354314968105978,-3.2394919835491045,-2.923093454030606,0.3020250254497337,10.973961268679219,-6.972504225471398,-21.155945573546283,0.021607,-0.078453,-0.844605,-0.248025,0.347428,-0.601745,0.269632,0.425881,0.24286000000000008,0.9393025970235666,0.0,single,-0.601745
166,1.383333,jog,1.353054122164899,-1.1996879875195092,-0.48157926317053656,0.38881356741814455,1.552883058108616,-0.6400320828309554,-0.006480259210368502,-0.005040201608062748,-0.028201128045122786,3.228009120364845,-2.2670106804272367,-0.36085443417736823,-5.458036634197972,-1.1952956217365063,6.336506910412881,-3.9315145148708415,-0.5184414744881813,-0.36002880172825885,14.026722115327177,-5.515641242474771,-16.7053364001837,0.010277999999999999,-0.068498,-0.840827,-0.232401,0.338534,-0.6007389999999999,0.242679,0.407032,0.24008800000000008,0.9510470459777708,0.0,single,-0.6007389999999999
167,1.391667,jog,1.3880489560835028,-1.216822654187657,-0.39572834173266114,-0.08832498236217294,0.9595143357042394,-0.17377362499852744,-0.004799616030717518,0.005159587233019818,-0.030117590592751663,3.467122630189559,-2.2974562035037054,-0.5687544996400271,4.199044146700675,-2.055995520536075,10.301286469627403,0.20166104867422252,1.2238767507898354,-0.22995710914673176,28.691325872895646,-3.653170515534966,-24.94601217454491,-0.00133,-0.058314000000000005,-0.83778,-0.215074,0.329528,-0.602181,0.213744,0.387842,0.235599,0.9484483291150718,0.0,single,-0.602181
168,1.4,jog,1.383895355814245,-1.1644065762630633,-0.32449297971918317,0.1966096485952311,0.519255889607202,-0.16573762713487733,0.0025201008040322066,0.01464058562342639,-0.004320172806912473,3.359654386175477,-2.394815792631724,-0.6384255370214856,-0.498451970389745,6.2901809581896275,8.548585385032835,0.8784011562162236,1.1377653174614977,3.095813966859405,-12.896705149895974,-11.683618040083964,-8.360858920131905,-0.012840999999999998,-0.04848899999999998,-0.8351120000000001,-0.19861,0.31927500000000003,-0.604797,0.185769,0.367764,0.23031500000000005,0.9742144771161894,0.0,single,-0.604797
169,1.408333,jog,1.3213728549141734,-1.2293291731669023,-0.3159726389055503,0.18465596630388073,-0.020664402429569875,-0.6621678708407662,0.014520580823232676,0.015120604824191171,-0.009240369614784512,3.386295451818013,-2.478099123964922,-0.7693507740309478,-7.503000228017583,-7.791023269391313,1.0224817969078062,1.4401152069123078,0.057604608276103815,-0.5904472348340276,3.197055759334636,-9.994399535965021,-15.711656907411477,-0.023731,-0.038119000000000014,-0.8325560000000001,-0.181403,0.30886899999999995,-0.6085750000000001,0.157672,0.34698799999999996,0.22398099999999999,0.961816801676682,0.0,single,-0.6085750000000001
170,1.416667,jog,1.3614110871130571,-1.166546676265922,-0.12371010319174751,-0.2517471205030561,-0.5929472957661813,-0.3038899467127167,0.01739860811135139,0.017878569714424416,-0.0008399328053755933,3.4206863450924585,-2.530117590592793,-0.8746100311975196,4.804203527583928,7.533296964360625,23.069658712959733,0.3453356477224343,0.330929312482997,1.0079717793867384,4.126577066768217,-6.2417166580119865,-12.630100451952702,-0.034932000000000005,-0.028247999999999995,-0.831532,-0.164241,0.297505,-0.614833,0.129309,0.325753,0.21669900000000009,0.9583980400313659,0.0,single,-0.614833
171,1.425,jog,1.3474138965558389,-1.1304452178086906,-0.10440417616704935,0.4724123286995404,-0.6305580938324683,-0.6352336406918028,0.011760470418816546,0.018600744029759482,0.0027601104044163906,3.560542421696806,-2.5539421576862655,-1.0136805472218757,-1.679730056068405,4.33234830880005,2.3168039151203437,-0.6766035872476592,0.08666438441558304,0.43202246607367345,16.783400528542522,-2.859062413713195,-16.689129488101972,-0.046062000000000006,-0.018673000000000023,-0.830639,-0.145799,0.285643,-0.62241,0.099737,0.30431600000000003,0.208229,0.9630347553483207,0.0,single,-0.62241
172,1.433333,jog,1.3994959798392062,-1.1718468738749686,0.00024000960037759599,-0.14670118869126458,-0.30454021667235287,-0.5266305915829994,0.02052082083283352,0.018120724828994794,0.007800312012480044,3.520220808832385,-2.6740669626785247,-1.095523820952848,6.250099998004051,-4.968397463851958,12.55780460427552,1.0512841010460883,-0.05760460827609411,0.60484838690312,-4.838787095214324,-14.415553221200083,-9.821585711145202,-0.057553,-0.008756999999999987,-0.830576,-0.128127,0.27312500000000006,-0.6315409999999999,0.070574,0.2818820000000001,0.19903500000000007,0.9525567700804002,0.0,single,-0.6315409999999999
173,1.441667,jog,1.3818094552435698,-1.138708903287728,0.09011279097672803,0.38300937894851367,-0.5949233650478579,-0.7497897347508385,0.02651787856971423,0.014158867290617482,0.010679145668346306,3.5826733861290827,-2.7203023758099274,-1.19666426685864,-2.1222131744223924,3.976238371399124,10.783871055477531,0.7195893612767775,-0.47538487381536865,0.3454324041116199,7.493709778821338,-5.547805751308173,-12.13588263808391,-0.068848,0.0008510000000000184,-0.831238,-0.109785,0.25994399999999995,-0.642265,0.040937,0.2590929999999999,0.18897300000000006,0.9468305758552806,0.0,single,-0.642265
174,1.45,jog,1.3544941797672037,-1.2041281651266145,0.09312372494899868,0.7416994886573509,-0.26362444663547685,-1.2020214651053567,0.021720868834753583,0.019920796831873394,0.015840633625345178,3.658826353054156,-2.779431177247107,-1.2506900276011172,-3.2779641757309963,-7.850625445684275,0.3613265297336702,-0.5756641947630733,0.6914592033188486,0.6194033309731092,9.13872157987208,-7.095740002061697,-6.483350623122251,-0.07995400000000001,0.011051000000000005,-0.831882,-0.09058300000000001,0.246817,-0.653463,0.010629,0.235766,0.178419,0.944233623157613,0.0,single,-0.653463
175,1.458333,jog,1.343213728549118,-1.1974078963158334,0.11868474738989564,0.9548637984960731,0.7412445522860713,-1.0152603576945254,0.030961238449537437,0.019440777631104363,0.003360134405376186,3.616944677787048,-2.8449537981518804,-1.3171726869074516,-1.3537082945020453,0.8064645158743441,3.0674453907232104,1.108888709322416,-0.057604608276613845,-1.4977198151888604,-5.026002072135765,-7.863029029733866,-7.978238246289833,-0.090889,0.021191000000000015,-0.832843,-0.071636,0.233088,-0.665428,0.019253,0.21189699999999997,0.16741499999999998,0.938811933251896,0.0,single,-0.665428
176,1.466667,jog,1.5005999520038686,-1.218862491000743,0.32253419726422783,0.5070722857407434,-0.16794685646644886,-0.5297361555028779,0.0434365250779946,0.018238540916725266,0.039116870650348703,3.7738180945525084,-2.9672426205904094,-1.294816414686849,18.88483602768823,-2.5743454145560394,24.459977186745387,1.4969146422435087,-0.14425686517628022,4.290465112187809,18.823304147523803,-14.673484813838654,2.6825380634272826,-0.103033,0.031501,-0.8352050000000001,-0.052691,0.218517,-0.678907,0.050342000000000005,0.187016,0.15629800000000005,0.8979446547877843,0.0,single,-0.678907
177,1.475,jog,1.534981399255943,-1.2653306132245066,0.4975399015960531,0.10556590736751074,-1.6908354097062983,-0.5135831321041148,0.035401416056641634,0.025561022440899438,0.062042481699267314,3.6947077883114674,-2.9867994719788262,-1.3626545061802238,4.125938707797151,-5.576397722760434,21.0015245808019,-0.9642516526284443,0.878732932218174,2.751183373205113,-9.493616493584495,-2.3469160432517033,-8.140896615069426,-0.115529,0.04225800000000002,-0.8388340000000001,-0.034694,0.204172,-0.694408,0.080835,0.16191399999999997,0.14442600000000005,0.8735539677872685,0.0,single,-0.694408
178,1.483333,jog,1.5517820712828652,-1.2331693267730797,0.4722188887555572,1.1681033476868257,0.04955172908607374,-0.2777192488842401,0.05316212648505989,0.024000960038399112,0.10056402256090317,3.858394335773466,-3.0888035521421155,-1.3662546501860207,2.0161612896822767,3.859508754521445,-3.0386430865830025,2.1313705062304598,-0.18721497689911676,4.622769814188913,19.643171422296906,-12.240979258765181,-0.4320345620781139,-0.128017,0.052733999999999975,-0.8419310000000001,-0.015473,0.18870899999999996,-0.709728,0.11254399999999999,0.13597499999999998,0.13220300000000007,0.8062405528553498,0.0,single,-0.709728
179,1.491667,jog,1.5464362850971818,-1.229661627069826,0.4535637149027917,1.537862418370529,0.9948494695063665,0.1442994215601225,0.08567314614830748,0.0201583873290137,0.07127429805615464,3.7898968082553126,-3.140748740100762,-1.379049676025908,-0.6414430268398531,0.42089029316698845,-2.2384417869888833,3.9010102787673797,-0.4610718393790954,-3.5144857817072612,-8.219045778516065,-6.232923921123822,-1.5352802783641868,-0.140191,0.06314999999999998,-0.8451169999999999,0.0032240000000000046,0.17278200000000002,-0.725001,0.14341500000000001,0.10963200000000003,0.12011599999999989,0.8112447637661307,0.0,single,-0.725001
180,1.5,jog,1.6206648265930772,-1.2750510020400927,0.5075003000120097,1.0600491691185672,0.09647074049696597,0.29055498907737065,0.09252370094803876,0.009120364814595126,0.15252610104404332,3.7986319452778443,-3.331813272530933,-1.3135725429017262,8.907781290759162,-5.446942874147024,6.472649119070989,0.8220994599461585,-1.3246156863576954,9.750606382802044,1.0482583730387354,-22.92866103806225,7.857570277712982,-0.152925,0.073851,-0.848075,0.021373000000000003,0.155643,-0.740176,0.174298,0.081792,0.10789900000000008,0.7022863615300251,0.0,single,-0.740176
181,1.508333,jog,1.6504260170406986,-1.3769350774031102,0.6143045721828911,1.0160097637017873,-1.7968374420120123,-0.2323149129071192,0.06432257290291671,0.005400216008639134,0.22188887555502465,3.9519980799232317,-3.217088683547371,-1.32845313812554,3.5714857131431237,-12.226578106686475,12.817025341519546,-3.384270736244127,-0.4464357141432889,8.323865895953674,18.40467234434043,13.76750137808266,-1.7857428565719349,-0.166142,0.08537,-0.851345,0.04055199999999998,0.14030900000000002,-0.756365,0.206694,0.054939000000000016,0.09498000000000006,0.6148549017546756,0.0,single,-0.756365
182,1.516667,jog,1.603191744660413,-1.2789776817854477,0.49640028797696495,1.3558239046468794,-0.14034622438602323,0.35839573170558864,0.06671466282697334,-0.026157907367409923,0.29493640508759095,3.9190064794816144,-3.347372210223157,-1.314014878809684,-5.667659272892404,11.75394715834674,-14.147382314125904,0.28702782866050136,-3.7866718713761482,8.765002343720392,-3.9586753589653294,-15.63277257928786,1.7324525217009794,-0.178947,0.09581100000000001,-0.853024,0.059852000000000016,0.12307100000000001,-0.771453,0.238799,0.027260000000000006,0.08157099999999995,0.5,0.0,flight,-0.771453
183,1.525,jog,1.672626905076219,-1.3085323412936634,0.6084243369734867,0.9578300022666679,0.44915984778410817,0.4591775004301156,0.08976359054362257,-0.06900276011040411,0.3276131045241835,4.047761910476454,-3.4592583703348474,-1.187447497899927,8.332552551998889,-3.5467010090262745,13.443423616527399,2.765981965276543,-5.141587992679057,3.9213607868226172,15.451269770171667,-13.426876288454494,15.188693256901248,-0.192137,0.10614000000000001,-0.855364,0.07964399999999999,0.10514899999999999,-0.7864180000000001,0.271781,0.0009910000000000196,0.06894599999999995,0.5,0.0,flight,-0.7864180000000001
184,1.533333,jog,1.738869554782161,-1.2835713428536915,0.540981639265556,0.9219513976458927,0.9189765837746687,0.4248520690314355,0.1562462498499913,-0.10164406576263045,0.34501380055201636,4.064322572902846,-3.5052202088082893,-1.1246849873994769,7.949435942150595,2.9954396303817914,-8.093447462850063,7.9782382462939605,-3.917113362801604,2.088167050021905,1.9873589855264373,-5.5156412424626335,7.531802532155169,-0.205325,0.115989,-0.856997,0.099022,0.086636,-0.800298,0.304347,0.02935299999999999,0.056699000000000055,0.5,0.0,flight,-0.800298
185,1.541667,jog,1.8812095032397762,-1.2885769138469165,0.7369810415166904,1.1091032874363125,1.0729321610312705,0.3675836251360865,0.11507079433645524,-0.1329493640508782,0.4647228221742342,4.090112790976797,-3.573794096472351,-1.0471562275018196,17.07942746071728,-0.6006204695494561,23.518046826390467,-4.940659408871712,-3.7563352877667806,14.363933479988017,3.0945786025860373,-8.228208263026504,9.302706971161358,-0.22004400000000002,0.12562,-0.859266,0.11743099999999998,0.067591,-0.815167,0.33747499999999997,0.058029,0.044099,0.5,0.05901000000000001,flight,-0.815167
186,1.55,jog,1.8088323532941004,-1.3265330613224307,0.498739949597981,-1.410143371274382,-1.532653954879604,0.4192769991890893,0.16308652346093558,-0.1660866434657353,0.466578663146518,4.213248529941124,-3.6459858394335125,-0.8702748109924238,-8.685605417697651,-4.554919893857369,-28.590074633229957,5.7621179796567255,-3.976632595086584,0.22270982506705556,14.776879750908972,-8.663355689566822,21.226619045888963,-0.233758,0.13529000000000002,-0.859534,0.13746699999999998,0.048263000000000014,-0.8265750000000001,0.37122499999999997,0.087027,0.03295899999999996,0.5,0.17041,flight,-0.8265750000000001
187,1.558333,jog,1.7307092283691528,-1.1674066962678615,0.6735869434777427,1.6804893598631183,0.7968193672995704,0.8533724302727961,0.20460818432737507,-0.2665306612264516,0.5349813992559755,4.13320532821317,-3.582983319332807,-0.8444737789511659,-9.375149996993684,19.095927643654214,20.982478564714185,4.982798615917421,-12.05376428185734,8.208656679402154,-9.605568430091797,7.560604836278194,3.0962476948587625,-0.24647500000000003,0.142797,-0.860689,0.157487,0.028134000000000006,-0.839225,0.403962,0.114663,0.02146400000000004,0.5,0.28536000000000006,flight,-0.839225
