frame_id,timestamp,gait_type,root_linear_velocity_x,root_linear_velocity_y,root_linear_velocity_z,root_angular_velocity_x,root_angular_velocity_y,root_angular_velocity_z,left_linear_velocity_x,left_linear_velocity_y,left_linear_velocity_z,right_linear_velocity_x,right_linear_velocity_y,right_linear_velocity_z,root_acceleration_x,root_acceleration_y,root_acceleration_z,left_acceleration_x,left_acceleration_y,left_acceleration_z,right_acceleration_x,right_acceleration_y,right_acceleration_z,left_pos_rel_x,left_pos_rel_y,left_pos_rel_z,right_pos_rel_x,right_pos_rel_y,right_pos_rel_z,step_length,step_width,step_height,left_contact_prob,right_contact_prob,support_type,max_foot_height
1,0.008333,stand,0.041761670466820465,-0.05304212168487381,0.001320052802123397,-0.198082989161858,0.08627845234381226,0.15740980189626827,-0.0031201248049753352,-0.0020400816032561785,0.01248049921996879,-0.00012000480020878171,-0.019800792031691078,0.019920796831873214,0.0,0.0,0.0,0.0,0.0,0.0,0.0,0.0,0.0,0.040711000000000164,-0.06646299999999994,-0.9096690000000001,-0.14259500000000003,0.09432699999999994,-0.907549,0.1833060000000002,0.16078999999999988,0.0021200000000000108,0.9782910686246031,0.9319870176882545,double,-0.907549
2,0.016667,stand,0.053755699544036945,-0.04847612191025569,0.004439644828408175,-0.41537673616090276,0.012867910610440837,0.12630792921583786,-0.011039116870674708,-0.005279577633807897,0.013198944084473327,0.00023998080154277791,0.0003599712023141669,-0.0025197984161267318,1.4391683557975135,0.5478761428627454,0.37432109746637604,-0.9502030316413933,-0.38870842699204683,0.08620648722156658,0.043194816624857156,2.41909806023581,-2.6926560172786105,0.04017099999999996,-0.06610300000000002,-0.909596,-0.14304099999999997,0.0947340000000001,-0.907607,0.18321199999999993,0.16083700000000012,0.0019889999999999075,0.9700023998079812,0.9758488857386048,double,-0.907607
3,0.025,stand,0.03492139685587918,-0.04884195367812603,-0.003240129605184117,-0.2454416796204667,-0.12907645564364145,0.09447974465265953,-0.011280451218026696,-0.0031201248049753352,0.013200528021120931,0.0010800432017458032,-0.000840033601341563,-0.0007200288011519335,-2.2602067308481657,-0.04390156820716917,-0.921609796422932,-0.028961280133443956,0.2591447052481174,0.00019008000091256554,0.10081152048518244,-0.14400633669215526,0.21598099303669724,0.0397860000000001,-0.06572200000000006,-0.909459,-0.14332299999999987,0.09513399999999994,-0.907586,0.18310899999999997,0.160856,0.0018730000000000135,0.9705967831258541,0.9786930771777238,double,-0.907586
4,0.033333,stand,0.0793231729269198,-0.0934837393495842,-0.003240129605184117,-0.1691216917433581,0.18649213733255754,-0.0856284915518266,-0.013200528021127384,0.0024000960038292308,0.012840513620544756,-0.00216008640346496,-0.0031201248050019815,0.0042001680067203055,5.328426265575498,-5.35722856971777,0.0,-0.23041843310940693,0.6624529951763549,-0.043203456207389315,-0.38883110586952635,-0.2736218893148228,0.590447234834062,0.03901500000000002,-0.06492300000000006,-0.909325,-0.14400199999999996,0.09588699999999994,-0.907524,0.18301699999999999,0.16081,0.0018010000000000526,0.9690478330096457,0.9725556414935885,double,-0.907524
5,0.041667,jog,0.06371490280778247,-0.06815454763620397,-0.002159827213818393,-0.04557561311249602,0.08674882440014652,-0.09151800389094138,-0.01139908807294891,0.002039836813047004,0.010199184065274777,-0.0023998080153744927,0.002999760019204794,-0.006839452843772469,-1.8728425868895284,3.039259864816442,0.12962591689053557,0.21615550134130948,-0.04322764468229262,-0.31693419189704564,-0.02876429228576105,0.7343274327101962,-1.3246485301767186,0.038389000000000006,-0.064338,-0.9092220000000001,-0.14455300000000015,0.09648000000000012,-0.907563,0.18294200000000016,0.16081800000000013,0.001659000000000077,0.9742812488036419,0.9703358786267529,double,-0.907563
6,0.05,jog,0.06456258250329142,-0.04836193447737084,0.013200528021114061,-0.3210556464347634,0.16299693505417823,-0.10195289426876965,-0.009720388815552351,-0.004080163206512357,0.012360494419776871,-0.00024000960036427057,0.004680187207489649,0.0007200288011519335,0.10172563248637298,2.3752085874034723,1.8433163608463283,0.2014519689663458,-0.7344293795223042,0.25936761724494106,0.25918617724831655,0.20165932896734132,0.9071740843543024,0.03777000000000008,-0.06396899999999994,-0.909229,-0.14509299999999992,0.09692200000000006,-0.907667,0.182863,0.160891,0.0015619999999999523,0.9729242055200884,0.9764777854053603,double,-0.907667
7,0.058333,jog,0.0752430097203808,-0.06240249609985311,-0.00408016320652568,-0.17247141820705003,-0.02666991443882966,-0.05132890876212602,-0.006600264010577016,-0.005760230409222129,0.008880355214208498,-0.018360734429385545,0.0224408976358979,0.0054002160086403335,1.2817025341520918,-1.6849347920895557,-2.073765897952687,0.37442995379519206,-0.20161612897033146,-0.41763341000460497,-2.1745739624410505,2.1313705062292394,0.5616449306958359,0.03708800000000001,-0.06349699999999991,-0.909121,-0.14587299999999992,0.09762900000000008,-0.907588,0.18296099999999993,0.161126,0.0015330000000000066,0.9792097480035604,0.9355139901822991,double,-0.907588
8,0.066667,jog,0.06995440364770819,-0.04199664026876054,0.016198704103671253,-0.2817346811004177,0.10124982859488328,-0.13628528250850797,-0.006479481641468501,-0.008039356851456592,0.011039116870650354,-0.005879529637624878,0.0035997120230350957,0.006479481641468709,-0.6345819621637394,2.4485068191855723,2.433269415670378,0.014492724875031726,-0.27347329520451913,0.2590306763189172,1.4976247650300774,-2.2607614126305258,0.12950151581813965,0.03645100000000001,-0.0632140000000001,-0.909164,-0.14650499999999989,0.0980089999999999,-0.907669,0.1829559999999999,0.161223,0.001495000000000024,0.9748075715623464,0.9692816704761109,double,-0.907669
9,0.075,jog,0.07440297611905261,-0.06564262570503727,-0.012360494419772508,-0.022794467384100042,-0.08725794909944608,-0.12807004113014686,-0.00468018720747633,-0.00732029281169648,0.007560302412096557,-0.010080403216125411,-0.0068402736109412915,0.012840513620544768,0.5338500505633533,-2.837631757623515,-3.427240912449752,0.2159239690378222,0.08629113641667017,-0.4174744340038161,-0.5041249944198412,-1.252848390012768,0.7633543716639942,0.035792000000000046,-0.0627279999999999,-0.9089980000000001,-0.14720899999999992,0.098499,-0.907459,0.18300099999999997,0.1612269999999999,0.001539000000000068,0.9808044412176241,0.9551103454769944,double,-0.907459
10,0.083333,jog,0.0859234369374701,-0.04200168006721135,0.010680427217089363,-0.35971864170146045,0.1229532725751867,-0.13863145309982924,-0.003960158406330218,-0.016200648025920573,0.005400216008640329,-0.00588023520940426,-0.006120244809795177,0.0013200528021121544,1.382510598634042,2.8370269576174136,2.765021197271313,0.08640691241402997,-1.065685253117015,-0.2592207372442369,0.5040403224194345,0.08640691241403027,-1.382510598635858,0.03504300000000016,-0.06251299999999982,-0.909042,-0.14797399999999983,0.09879800000000005,-0.907537,0.18301699999999999,0.16131099999999987,0.0015049999999999786,0.9707830821458332,0.9706344003065317,double,-0.907537
11,0.091667,jog,0.09047276217904296,-0.07295416366689973,-0.020758339332864154,-0.02804242479737756,-0.14029551448212882,-0.17705724819508076,-0.0044396448284215,-0.020638348932092765,0.0046796256299495,-0.004679625629964278,-0.002879769618420086,0.007919366450683961,0.5458753589600275,-3.7140009118896575,-3.7723501979785867,-0.057533767949517964,-0.5324815102198458,-0.08646392832863323,0.14406162460282962,0.38882591689165985,0.7918542894854584,0.03425199999999995,-0.06207699999999994,-0.9088299999999999,-0.1487670000000001,0.09938200000000008,-0.9072979999999999,0.18301900000000004,0.16145900000000002,0.0015319999999999778,0.9639617953924117,0.9686151717794559,double,-0.9072979999999999
12,0.1,jog,0.06780271210847548,-0.03384135365413335,0.012600504020163404,-0.47555808231022895,0.1800908170411102,0.01110045012919182,-0.015120604824201415,-0.027121084843400853,0.006840273610944403,-0.007800312012478302,-0.004200168006721135,0.009600384015360631,-2.7205148290612575,4.693724950529983,4.003221331216552,-1.2817664701523948,-0.7779594277340792,0.25928812924455785,-0.3744973457955143,-0.15845414476191622,0.20173017696827894,0.03356099999999995,-0.062021000000000104,-0.908878,-0.149397,0.09962899999999997,-0.907323,0.18295799999999995,0.16165000000000007,0.001554999999999973,0.9470069376551884,0.9626775880464463,double,-0.907323
13,0.108333,jog,0.0951638065522674,-0.06828273130925742,-0.027241089643583034,-0.13236722989438732,-0.02309815698424859,-0.11737387149569983,-0.022560902436080055,-0.016680667226675785,0.019920796831873436,-0.008160326413051366,-0.005400216008649082,0.007920316812672523,3.283462671761904,-4.133130643840646,-4.781182486949055,-0.8928714282825688,1.2529002300162098,1.5697255755345065,-0.04320345620701609,-0.14401152069218143,-0.20161612896773184,0.03258000000000005,-0.06159099999999995,-0.908485,-0.150258,0.10015299999999994,-0.90703,0.18283800000000006,0.1617439999999999,0.001454999999999984,0.9426492971012221,0.9644682169939468,double,-0.90703
14,0.116667,jog,0.08411327093833237,-0.0309575233981391,0.006959443244540729,-0.28317974071155033,0.07151261341509327,-0.15964437905798734,-0.02111831053517829,-0.017158627309815707,0.019318454523638052,-0.008519318454515498,-0.006479481641468495,0.007439404847612131,-1.3259581970164407,4.478666656001715,4.103735647723029,0.1730971803337851,-0.05735062192703636,-0.07227529496464882,-0.043075598927781504,-0.12950151581706412,-0.057704819421693296,0.031702999999999815,-0.061475999999999864,-0.908382,-0.15103,0.10035700000000003,-0.907026,0.1827329999999998,0.1618329999999999,0.0013560000000000239,0.9443821517406695,0.9647152564419783,double,-0.907026
15,0.125,jog,0.11352454098162633,-0.047161886475442935,-0.002400096003842556,-0.14180635586858056,0.04721197839371887,-0.06561975656895201,-0.029041161646448294,-0.030481219248767153,0.01356054242169691,-0.012480499219981291,-0.0009600384015370224,0.00828033121324849,3.529493584938675,-1.9446013533305953,-1.1231896373914907,-0.9507801645589837,-1.5987749836735217,-0.6909770913165902,-0.47536070628414695,0.6623596831791044,0.10091520048438259,0.03051500000000007,-0.061336999999999975,-0.908249,-0.15208,0.10074199999999989,-0.906937,0.18259500000000006,0.16207899999999986,0.0013119999999999798,0.9262816526034319,0.961866202723215,double,-0.906937
16,0.133333,jog,0.12840513620543664,-0.044881795271822414,-0.011880475219003978,0.0007958695891186287,0.07370069683011553,-0.10924641539382456,-0.02424096963878979,-0.00840033601344227,0.011400456018240673,-0.007920316812660436,-0.0070802832113188744,0.003120124804992195,1.785742856571499,0.2736218893100347,-1.137691013459908,0.5760460827623305,2.6498119807182126,-0.25922073724423805,0.5472437786296473,-0.7344587555240426,-0.6192495389723138,0.02924300000000013,-0.06103299999999989,-0.9080550000000001,-0.1532159999999998,0.10105700000000006,-0.9068120000000001,0.18245899999999993,0.16208999999999996,0.0012429999999999941,0.9532096682710074,0.969116077836035,double,-0.9068120000000001
17,0.141667,jog,0.10415166786658182,-0.0103191744660464,0.014758819294454587,-0.06528973684429826,0.1503295443953849,-0.09046379888268723,-0.026157907367416848,-0.007439404847612988,0.01475881929445646,-0.0051595872330232,-0.005399568034565979,0.005399568034557236,-2.9101833859917057,4.147182722075366,3.1964596248450476,-0.23001412630514315,0.11530251569825821,0.4029713554374605,0.3312610486725753,0.2016696876353371,0.2735113066432741,0.028156999999999988,-0.06100899999999987,-0.908055,-0.1541269999999999,0.10109800000000002,-0.90689,0.1822839999999999,0.1621069999999999,0.0011649999999999716,0.9484301011222129,0.9729902392293934,double,-0.90689
18,0.15,jog,0.1461658466338582,-0.027601104044156038,-0.009000360014406239,0.050350606997884934,0.11721338506111116,0.02599441170260406,-0.0334813392535603,-0.004320172806929917,0.019320772830913182,-0.004920196807893885,-0.006480259210368228,0.002400096003840262,5.041903128198289,-2.0739145059533928,-2.8512155656859237,-0.8788469802164217,0.37432281779468,0.5474563226277113,0.028728000135523134,-0.12968812862141468,-0.3599510417277057,0.026660000000000128,-0.06081500000000006,-0.9078189999999999,-0.15538600000000002,0.10127399999999998,-0.9067949999999999,0.18204600000000015,0.16208900000000004,0.0010240000000000249,0.9351721031825743,0.9756215421152072,double,-0.9067949999999999
19,0.158333,jog,0.15156606264250727,-0.01572062882513874,-0.010440417616698446,-0.13675783604120723,0.06778636482273,-0.030691818662925904,-0.033841353654159995,-0.003240129605184114,0.018000720028801237,-0.0030001200047931973,-0.009000360014392916,0.003960158406336047,0.6480518431116119,1.4257140548442684,-0.17281382482805785,-0.043203456210212134,0.12961036862424116,-0.15841267276034368,0.23041843310940677,-0.3024241934507003,0.18721497689857003,0.025115,-0.06071100000000018,-0.907582,-0.15667399999999998,0.10132999999999992,-0.906675,0.18178899999999998,0.1620410000000001,0.0009069999999999911,0.9358872178943056,0.9737957218941486,double,-0.906675
20,0.166667,jog,0.15214782817375158,-0.019198464122889353,-0.015118790496755382,0.04182522963076725,0.14136780931238557,0.15130578897314512,-0.02903767698582352,-0.00023998080151613449,0.018478521718262475,-0.007799376049913808,-0.006119510439167651,0.02495800335973118,0.06980627924697742,-0.41730685118197874,-0.5613598368198861,0.5763950885932891,0.35998905731557196,0.057331616206052025,-0.5758646562419734,0.34567429508342484,2.5195398312209156,0.023605000000000098,-0.06055299999999986,-0.907302,-0.158007,0.10143900000000006,-0.9063410000000001,0.1816120000000001,0.1619919999999999,0.0009609999999999896,0.9426342136323008,0.9456319899630803,double,-0.9063410000000001
21,0.175,jog,0.17112684507379466,-0.006600264010550386,-0.020400816032641773,0.08734135261335875,0.08585649617552325,0.15821792741004742,-0.027121084843400943,0.00012000480018213558,0.0175207008280332,0.003480139205575043,-0.00816032641305138,0.005640225609024603,2.277573130930413,1.5118444872601704,-0.6338684190431303,0.23000025710099367,0.043200000203800666,-0.11494310455169521,1.3535959744976453,-0.2449077131745751,-2.3182260591271597,0.02195300000000011,-0.06049700000000002,-0.9069860000000001,-0.15940399999999988,0.10142600000000002,-0.906124,0.181357,0.16192300000000004,0.0008620000000000294,0.9461859528422059,0.9738590251905497,double,-0.906124
22,0.183333,jog,0.17040681627264798,0.012480499219954623,-0.00888035521421078,0.03174017690287515,0.17164127767141177,0.17660004364910054,-0.02796111844472909,-0.0010800432017191559,0.01500060002400096,0.007560302412087385,-0.006720268810759145,0.008040321612864639,-0.08640691241409908,2.2897831789877587,1.3825105986356634,-0.10080806448195688,-0.1440115206889824,-0.3024241934516067,0.4896391703482945,0.17281382482806118,0.2880230413824594,0.020300000000000207,-0.06060999999999983,-0.906787,-0.16076099999999993,0.10126600000000008,-0.905983,0.18106100000000014,0.1618759999999999,0.0008040000000000269,0.9470847470247155,0.970424050914203,double,-0.905983
23,0.191667,jog,0.17506599472043408,0.008999280057601053,-0.027717782577391527,0.10429388635294072,0.05436911755473672,0.34436336455932604,-0.019678425725948263,-0.0021598272138317128,0.009239260859131133,0.012598992080636145,-0.006479481641468495,0.012359011279097531,0.5590566891991955,-0.4177128824518319,-2.260310458744988,0.9938436187641972,-0.1295637163561982,-0.6913053953527504,0.6045943926744367,0.028892148942962558,0.518201303843639,0.018677000000000055,-0.06070299999999995,-0.906479,-0.162115,0.10113700000000003,-0.905649,0.18079200000000006,0.16183999999999998,0.0008299999999999974,0.963589179192766,0.9603656275178112,double,-0.905649
24,0.2,jog,0.17100684027361196,0.021600864034569643,-0.01860074402976312,0.01710423406483691,0.17617715537636727,0.24351272683693878,-0.014880595223810498,0.013800552022091343,0.0030001200048002754,0.017640705628239425,-0.00036001440057305197,0.022680907236289218,-0.4871180183393871,1.51225056725892,1.0940883892509778,0.5757626907641619,1.9153221211956128,-0.7487268515937662,0.6050298269054694,0.7343654435251936,1.2386770619454792,0.017128000000000032,-0.06076799999999993,-0.9062990000000001,-0.1633929999999999,0.10095399999999999,-0.905305,0.18052099999999993,0.16172199999999992,0.0009940000000000504,0.9658074053512662,0.9421669577515581,double,-0.905305
25,0.208333,jog,0.19764790591623163,0.019320772830922615,-0.041521660866442975,0.10217288689300316,0.1307049918871719,0.3710885303510081,-0.009480379215161457,0.0020400816032561833,0.008280331213248504,0.035641425657025376,0.009000360014392946,0.010560422416896855,3.1970557593447424,-0.2736218893132165,-2.7506200452033975,0.648051843111611,-1.4113129027763338,0.6336506910414307,2.160172810366734,1.1232898613903781,-1.4545163589814463,0.015402000000000138,-0.06091200000000008,-0.9058839999999999,-0.16474299999999986,0.10086799999999985,-0.904871,0.180145,0.16177999999999992,0.0010129999999999306,0.9787473264418916,0.9261248427792081,double,-0.904871
26,0.216667,jog,0.1958243340532849,0.028677705783522675,-0.03815694744419596,0.02759563773597123,0.11946199349436427,0.4613255072974594,-0.007799376049940451,-0.006119510439167651,0.018958483321334294,0.04091672666185798,0.007559395248384352,0.01463882889368856,-0.2188111186641152,1.1227421349412108,0.4037333120046809,0.20170424348704152,-0.9790727192733173,1.2812757509102208,0.6329854817413724,-0.1729019397658498,0.4893696276447925,0.013704999999999856,-0.06120199999999998,-0.905408,-0.16603400000000001,0.100692,-0.904431,0.17973899999999987,0.16189399999999998,0.0009770000000000056,0.9643433516940632,0.9167147278031975,double,-0.904431
27,0.225,jog,0.1882875315012517,0.04908196327854355,-0.03156126245049958,-0.30714402150852466,0.07990072258414119,0.39178381831566583,-0.019440777631104685,-0.004200168006721135,0.001680067202688121,0.05076203048122667,0.01092043681748028,0.028921156846273607,-0.9044524843433577,2.448608843756253,0.7915138597979569,-1.397024070702535,0.23033030510578598,-2.0734928739524974,1.1814837176729487,0.40334112193638844,1.7139479122266932,0.01197399999999993,-0.06164600000000009,-0.905131,-0.16717999999999988,0.10037399999999996,-0.903927,0.1791539999999998,0.16202000000000005,0.0012039999999999829,0.9667330714776383,0.888902314895305,double,-0.903927
28,0.233333,jog,0.19200768030721763,0.03588143525738953,-0.05184207368294583,-0.06301627216000857,-0.017012160330771364,0.4422597651462443,-0.030601224048949237,0.005760230409222125,-0.016440657626305033,0.052922116884664985,0.03996159846392853,0.04896195847833935,0.44643571414447814,-1.5841267276075852,-2.4337946996815347,-1.3393071424270422,1.1952956217380597,-2.174573962437674,0.2592207372420874,3.485078800725816,2.4049923955437085,0.010118999999999989,-0.06189699999999987,-0.904836,-0.16833900000000002,0.10040800000000005,-0.903087,0.178458,0.16230499999999992,0.0017490000000000006,0.9413127311069112,0.8451241566267043,double,-0.903087
29,0.241667,jog,0.18694504439644252,0.037437005039607715,-0.07103431725462422,-0.14032790523808109,-0.13640328251568926,0.4134684098531932,-0.010079193664503622,-0.004199664026878729,-0.005519558435325295,0.05651547876171242,0.06299496040316761,0.07751379889608859,-0.6074677118760639,0.18665344159085545,-2.302884997801589,2.4624466504014473,-1.1950917249941058,1.3104270687520716,0.43116893173115506,2.763782330122287,3.425946774387966,0.008477000000000068,-0.062243999999999966,-0.90429,-0.16942599999999985,0.10062099999999996,-0.901849,0.17790299999999992,0.16286499999999993,0.0024410000000000265,0.9796084952202175,0.784316828599299,double,-0.901849
30,0.25,jog,0.1942877715108647,0.05172206888276369,-0.07212288491539208,-0.27949840855350744,-0.1770829937492449,0.4790650117684891,-0.008280331213260135,-0.005760230409222125,-0.01068042721708853,0.10044401776070754,0.043561742469699016,0.1143645745829831,0.881162500230671,1.7142762322280047,-0.1306333446259276,0.21587212903437963,-0.18727545689948333,-0.6193290269726667,5.271635545301221,-2.3320794351936374,4.422269973226268,0.006788999999999934,-0.06272300000000008,-0.903778,-0.17020799999999991,0.10055299999999989,-0.9002950000000001,0.17699699999999985,0.16327599999999998,0.003482999999999903,0.9755155568150269,0.70129986132455,double,-0.9002950000000001
31,0.258333,jog,0.1748469938797606,0.06420256810271853,-0.0772830913236505,-0.2380307339425733,-0.22708357013549021,0.4292661785495937,-0.007200288011514356,-0.00960038401537024,-0.009360374414976615,0.12648505940236301,0.04080163206528355,0.15024600984039393,-2.3329866351979063,1.4977198151871918,-0.6192495389725701,0.12961036862423878,-0.4608368662124234,0.15841267276034066,3.1250499989986253,-0.33122649758976075,4.3059444686680575,0.005271999999999943,-0.06333800000000012,-0.903212,-0.17061100000000007,0.10035799999999995,-0.8983990000000001,0.175883,0.16369600000000006,0.004812999999999956,0.9746344431977423,0.617550180963689,double,-0.8983990000000001
32,0.266667,jog,0.18706503479719996,0.06851451883847812,-0.09143268538517395,-0.35565614647510535,-0.35105704963434814,0.4818188473038086,-0.004919606431480405,-0.011519078473706968,-0.011159107271418403,0.17434605231580574,0.04343652507800386,0.19858411327093817,1.4660476262826192,0.5173926968753999,-1.6978154621458412,0.2736598968123289,-0.23022491700704661,-0.21583067631890884,5.7428597208354555,0.3161618685769508,5.800108402993063,0.0036720000000001196,-0.06400499999999987,-0.902543,-0.170717,0.10014900000000015,-0.8959820000000001,0.17438900000000013,0.16415400000000002,0.006560999999999928,0.9720408347655258,0.48805017022227665,single,-0.8959820000000001
33,0.275,jog,0.18540741629666666,0.08532341293653249,-0.08436337453498215,-0.27553222947877754,-0.30695760046547577,0.3922118929698635,-0.0034801392055750194,-0.01188047521901726,-0.011880475219008726,0.2001680067202683,0.015000600023992583,0.21336853474138856,-0.19892217695107428,2.017147977685624,0.8483512360724554,0.1727429768277187,-0.04336934421100337,-0.08656761641549499,3.0987584788746485,-3.412447504381514,1.7742015445158204,0.0020979999999999333,-0.06481500000000007,-0.901939,-0.17059400000000013,0.09956299999999996,-0.893501,0.17269200000000007,0.16437800000000002,0.008438000000000057,0.971403052234094,0.42737376051646647,single,-0.893501
34,0.283333,jog,0.19704788191526765,0.0891635665426545,-0.07344293771750239,-0.026269551295742467,-0.2639078460405458,0.3640036946965386,0.002880115204611072,-0.012600504020163448,-0.017520700828032993,0.2608904356174398,-0.030241209648389607,0.23388935557422388,1.3969117507021507,0.46083686620929104,1.3105048382911055,0.7632610596647194,-0.08640691241403921,-0.6768541472488037,7.286982946978477,-5.429234330059079,2.462597003820398,0.00048000000000003595,-0.06566300000000003,-0.9014730000000001,-0.17006199999999994,0.09856799999999999,-0.8909400000000001,0.17054199999999997,0.16423100000000002,0.010533000000000015,0.9637124630111022,0.39466999999999997,single,-0.8909400000000001
35,0.291667,jog,0.2337413006959514,0.12658987281017844,-0.008519318454528819,0.7092333557760108,-0.30200325222108737,0.11354426884672322,-0.0011999040076872453,-0.011039116870648055,-0.0069594432445405216,0.27273818094552044,0.0014398848092167015,0.278137748980081,4.402858025040042,4.490797488303804,7.790211094669248,-0.48956314042456356,0.18735146982426096,1.2672495300566906,1.4216157101128664,3.8014272207350945,5.309382458106198,-0.0014780000000000904,-0.06681000000000004,-0.90146,-0.16973700000000003,0.09752499999999997,-0.888551,0.16825899999999994,0.164335,0.01290900000000006,0.9781586705999923,0.37091,single,-0.888551
36,0.3,jog,0.22164886595463057,0.1242049681987159,-0.055802232089289555,0.002603105910528899,-0.21767987766034463,0.1972637792591379,-0.00444017760708542,-0.014400576023028713,-0.008400336013440632,0.3247329893195853,0.010560422416907264,0.29101164046561934,-1.4511502149671012,-0.2862000013755606,-5.674176603235432,-0.38884838586321646,-0.4033912339350373,-0.17291404882996686,6.239626589951394,1.0945082932546004,1.5449287754156233,-0.003361999999999865,-0.06796499999999983,-0.901065,-0.16887799999999986,0.09657800000000016,-0.8856609999999999,0.165516,0.164543,0.015404000000000084,0.9712454152391793,0.34596000000000005,single,-0.8856609999999999
37,0.308333,jog,0.31009240369616353,0.16236649465980488,-0.18156726269050524,1.1892309551884068,-0.802447582677287,0.3462638172067627,-0.006840273610941258,-0.011520460818444211,-0.005760230409216276,0.378375135005394,0.05700228009119047,0.3159726389055553,10.61364907494691,4.5795663579849775,-15.092407368440558,-0.2880230413843547,0.34562764965612497,0.3168253455207422,6.437314974896015,5.573245850747991,2.995439630377521,-0.006002999999999981,-0.06941400000000009,-0.8996,-0.16830900000000004,0.0956999999999999,-0.8815149999999999,0.16230600000000006,0.16511399999999998,0.018085000000000018,0.9756934728182652,0.31914999999999993,single,-0.8815149999999999
38,0.316667,jog,0.29109671226299866,0.17950563954883014,0.02327813774898351,1.239365074447899,-0.14497282850210252,0.08213613064405646,0.036597072234221435,0.006359491240710471,-0.0607151427885772,0.38864890808735425,0.029037676985850355,0.3492920566354708,-2.2793006279295636,2.0565328640539193,24.579481694203256,5.212064536256652,2.145422613289511,-6.594061960566504,1.2327541495032777,-3.3554839339261187,3.998010286766939,-0.008123999999999798,-0.07085699999999995,-0.9003,-0.16749599999999987,0.09444600000000003,-0.878798,0.15937200000000007,0.16530299999999998,0.02150200000000002,0.8813722279472138,0.28498,single,-0.878798
39,0.325,jog,0.2774510980439316,0.17004680187207435,-0.12288491539661833,-0.07444967969046214,-0.07016275949830703,0.24921774213853434,0.0141605664226377,-0.05136205448219047,-0.012000480019200854,0.4645385815432547,0.05976239049561939,0.29977199087963396,-1.6375392078563558,-1.1351059254477078,-17.540267988191676,-2.692488396925914,-6.926862561250535,5.845993372060019,9.107125099712007,3.687113105696497,-5.942645596524257,-0.01031800000000005,-0.07270200000000004,-0.899376,-0.165937,0.09352700000000003,-0.8752759999999999,0.15561899999999995,0.16622900000000007,0.02410000000000001,0.9089781191945115,0.259,single,-0.8752759999999999
40,0.333333,jog,0.31057242289692083,0.1838473538941669,-0.07680307212288198,0.13848038332565643,0.17470848623768484,0.12361813436511573,0.004560182407294202,-0.009960398415943292,-0.008400336013440424,0.5886235449417916,0.09600384015360913,0.37537501500060083,3.974717971077562,1.6561324879506274,5.530042394544157,-1.1520921655278435,4.968397463848229,0.4320345620737356,14.890791239474039,4.3491479248757745,9.072725803548188,-0.012868000000000102,-0.07431700000000019,-0.898806,-0.1636200000000001,0.09279499999999996,-0.871508,0.150752,0.16711200000000015,0.027298000000000044,0.9769921242149306,0.22702000000000006,single,-0.871508
41,0.341667,jog,0.3065754739620796,0.20218382529396867,-0.06923446124310645,0.3739786228999517,0.11405964209585868,0.06432103381945924,-0.007919366450671875,-0.0032397408207342476,-0.027837772978161878,0.7104631629469713,0.11651067914566153,0.3580513558915284,-0.47959550454058086,2.2002005519320553,0.9081606527208455,-1.4974260688704182,0.8064143982732227,-2.3323058512984685,14.619584593854045,2.460623829139954,-2.078672799264746,-0.015488999999999975,-0.07602900000000012,-0.898461,-0.160254,0.09208099999999997,-0.8679469999999999,0.14476500000000003,0.1681100000000001,0.03051400000000004,0.9514615304357794,0.19486000000000003,single,-0.8679469999999999
42,0.35,jog,0.3032521300851977,0.23448937957518495,-0.025921036841473,0.09891932916787749,0.2643357557662563,-0.0009809289434544104,-0.014760590423628412,-0.021240849633970015,0.07896315852634132,0.7787111484459358,0.14172566902675993,0.30193207728309257,-0.3988172179145497,3.876821586609428,5.197818840949665,-0.8209797159434242,-2.160219466366952,12.816624445518237,8.190085863310292,3.025919822524716,-6.734582816324972,-0.018139000000000016,-0.07816000000000001,-0.8975869999999999,-0.156292,0.09130799999999994,-0.865215,0.13815299999999997,0.16946799999999995,0.032371999999999956,0.8615138481924883,0.17628,single,-0.865215
43,0.358333,jog,0.2991719668786833,0.2586103444137643,-0.021840873634933842,-0.40836469951901505,0.36012985164175126,-0.007693577598598513,0.006840273610941258,-0.004920196807867223,-0.008880355214208461,0.8841953678147139,0.2094083763350521,0.29761190447617736,-0.4896391703485383,2.894631565892144,0.48963917035151105,2.5922073724432475,1.9585566813995827,-10.541643314598515,12.658612668760064,8.122249766985707,-0.5184414744888028,-0.02057500000000012,-0.08035599999999987,-0.897479,-0.15141700000000002,0.09089800000000003,-0.862553,0.1308419999999999,0.1712539999999999,0.03492600000000001,0.9795972231988439,0.15074000000000004,single,-0.862553
44,0.366667,jog,0.33021358291336383,0.25749940004799365,0.005759539236853484,0.35453848424574136,0.30959620686568146,-0.2434787005290443,0.009119270458385764,0.007079433645312118,-0.04235661147108238,0.9210463162946975,0.28821694264458997,0.26061915046796236,3.724695948485781,-0.13330265967970212,3.3117846018463286,0.2734577450737346,1.439840467144148,-4.016829404472508,4.421760076791885,9.4562714554281,-4.438775378955479,-0.02325099999999991,-0.08244299999999982,-0.89788,-0.14649299999999998,0.09115400000000007,-0.860429,0.12324200000000007,0.1735969999999999,0.03745100000000001,0.9268304478597865,0.12549000000000005,single,-0.860429
45,0.375,jog,0.33385335413416034,0.24072962918518892,-0.022080883235324904,0.23215631248282304,0.24978897836294076,-0.21341125242532222,-0.005760230409222144,-0.03096123844954904,0.020280811232449437,1.0637225489019566,0.3278531141245739,0.15756630265210667,0.4367900180963057,-2.012453001656639,-3.3409843360348566,-1.7856115285740963,-4.5650632539135065,7.51679139607968,17.121832786182587,4.756530838831638,-12.366836411359168,-0.02608099999999991,-0.08470700000000009,-0.8975270000000001,-0.14041099999999995,0.09187999999999996,-0.858932,0.11433000000000004,0.17658700000000005,0.038595000000000046,0.937570265165472,0.11404999999999998,single,-0.858932
46,0.383333,jog,0.35089403576143585,0.24528981159245647,-0.037321492859721826,-0.18209155369906319,0.361461665555041,-0.3860312115160681,-0.0015600624025009946,-0.022200888035533686,-0.007680307212288489,1.1327253090123603,0.4132965318612625,0.15168606744269822,2.044963593816819,0.5472437786232521,-1.8289463127801464,0.504040322419436,1.0512841010458869,-3.3554684321058437,8.28066243974606,10.253620273213581,-0.7056564513870708,-0.029017999999999988,-0.08693600000000012,-0.89728,-0.13389600000000002,0.09327999999999992,-0.8573569999999999,0.10487800000000003,0.18021600000000004,0.03992300000000004,0.9607606934899198,0.10077000000000003,single,-0.8573569999999999
47,0.391667,jog,0.35361171106311856,0.2565394768418492,-0.006119510439167651,-0.19860563358578062,0.6558659063813924,-0.364542172387046,-0.0004799616030855554,-0.01763858891287462,-0.012239020878329681,1.1720662347012227,0.5016798656107628,0.13006959443244465,0.32609494860603633,1.349851841779783,3.7439383753964655,0.12960172779162926,0.5474321001510752,-0.5470018797745606,4.720533439988282,10.605151637809008,-2.593769259689651,-0.031969000000000136,-0.089221,-0.897331,-0.12707500000000005,0.09532300000000005,-0.8562219999999999,0.09510599999999991,0.18454400000000004,0.04110900000000006,0.964209567773014,0.0889100000000001,single,-0.8562219999999999
48,0.4,jog,0.37321492859713584,0.280331213248516,-0.013920556822260108,-0.3189244388463838,0.5465688254755503,-0.4776632253096635,0.0020400816032828165,-0.021000840033605604,-0.013080523220928958,1.2722908916356601,0.5655826233049259,0.06300252010080433,2.3524802032901957,2.8551225737029546,-0.9361630124915906,0.3024172814554616,-0.403486273938674,-0.10098432048473212,12.027439929729624,7.668637668806292,-8.04837085463099,-0.03506199999999993,-0.09173199999999992,-0.897324,-0.119583,0.09770000000000012,-0.855581,0.08452100000000007,0.18943200000000004,0.041742999999999975,0.9586244401582553,0.08256999999999998,single,-0.855581
49,0.408333,jog,0.3788551542061784,0.2730109204368214,0.021360854434165476,0.29509033488637676,0.5473670873389322,-0.5068128418335068,-0.00036001440057305316,-0.018960758430322914,-0.018600744029761102,1.3783751350054165,0.6525861034441325,0.07584303372134911,0.6768541472509962,-0.8784702762144035,4.233938708319414,-0.28802304138436047,0.24481958517733055,-0.6624529951796662,12.730618429107965,10.440835250114818,1.5409232713962333,-0.03822199999999998,-0.09416499999999983,-0.8976569999999999,-0.11125399999999996,0.10086300000000004,-0.855127,0.07303199999999999,0.19502799999999987,0.04252999999999996,0.9557272453645971,0.07470000000000004,single,-0.855127
50,0.416667,jog,0.36789056875448756,0.2703383729301726,-0.05591552675785529,0.02836446176460965,0.5193186088486832,-0.3923251859179735,-0.03275737940964332,-0.006839452843795984,-0.05567554595632355,1.4100071994240262,0.751979841612673,-0.0020398368130553285,-1.3156450026026891,-0.3206800463941446,-9.272423949126553,-3.8873728112635275,1.4544403151580176,-4.448620341560164,3.795544086706219,11.926294476666712,-9.345196848380654,-0.04156099999999985,-0.09647500000000009,-0.897655,-0.10256900000000002,0.104877,-0.8546779999999999,0.06100800000000017,0.2013520000000001,0.04297700000000004,0.89173604223262,0.07023000000000001,single,-0.8546779999999999
51,0.425,jog,0.2884915396615959,0.36193447737908496,-0.05616224648986261,-0.6737832067204309,0.9752189460844404,-0.44398150132743885,0.03432137285488865,0.029281171246865908,-0.01884075363014515,1.4114964598584039,0.7929917196687957,-0.06060242409696385,-9.528264621731891,10.991972212758021,-0.029607552142963626,8.049772262634361,4.33464827681051,4.420351893217147,0.178718400861358,4.921622231624004,-7.027791585732469,-0.043679000000000134,-0.09924699999999986,-0.8973439999999999,-0.09321100000000004,0.10846900000000015,-0.854715,0.04953199999999991,0.207716,0.04262899999999992,0.918515208958556,0.07371,single,-0.854715
52,0.433333,jog,0.3810152406096141,0.29725189007560926,-0.03516140645625663,0.04245752085047892,0.652820569499338,-0.5522873357221029,0.0018000720028919003,-0.01320052802112733,-0.014160566422656853,1.4987399495979743,0.8741149645985752,-0.0549621984879393,11.10328824529195,-7.762220965255662,2.520201612097191,-3.9027122107280223,-5.098007832472466,0.561644930695821,10.469637554250577,9.73517879872545,0.6768541472488333,-0.046838999999999964,-0.10183399999999998,-0.897169,-0.083897,0.11327600000000004,-0.85488,0.037058000000000035,0.21511000000000002,0.04228900000000002,0.9675956175519318,0.07711000000000001,single,-0.85488
53,0.441667,jog,0.40064794816416016,0.2927765778737715,-0.032277417806571305,0.260199656878786,0.7100318802144154,-0.5163135595568621,0.0007199424046016947,-0.010319174466046434,-0.021598272138229017,1.4908807295416608,0.9780417566594751,-0.05099592032637439,2.3557364476297287,-0.5369945046601636,0.3460509538859299,-0.129605183380155,0.3457347678282832,-0.8924532896054962,-0.9430309642804774,12.47021742991367,0.47591530616329814,-0.050172000000000105,-0.10436000000000001,-0.89708,-0.07481099999999996,0.11898700000000006,-0.855036,0.024638999999999855,0.22334700000000007,0.04204399999999997,0.9600872814031929,0.07956000000000002,single,-0.855036
54,0.45,jog,0.3578543141725569,0.3272530901236211,-0.06312252490099896,-0.1634766501485417,0.11885651711759329,-0.34746260785652283,0.004320172806929902,-0.006240249609977291,-0.025801032041281532,1.5247809912396293,1.036001440057598,-0.07452298091923605,-5.135441496652233,4.137346963860489,-3.701560913767853,0.4320449300765862,0.48949056235078925,-0.5043513624207965,4.068194131521458,6.955440225383742,-2.823360205551609,-0.05311799999999989,-0.1071390000000001,-0.8967689999999999,-0.065087,0.12489299999999992,-0.855131,0.011969000000000118,0.23203200000000002,0.04163799999999995,0.9551763373914639,0.08362000000000003,single,-0.855131
55,0.458333,jog,0.42301692067682817,0.32365294611783946,-0.03288131525260976,0.2472742361830429,0.8524293200599558,-0.5559406048810334,0.04308172326893065,-0.004440177607112066,0.025801032041281705,1.467778711148462,1.0828033121324885,-0.08508340333613382,7.81982557353551,-0.4320345620762791,3.6290903214195693,4.651572118324834,0.21601728103506887,6.1924953897231925,-6.840547232829414,5.616449306959139,-1.2673013820830183,-0.05628399999999989,-0.10987300000000011,-0.89628,-0.0563809999999999,0.13121899999999997,-0.8555659999999999,9.700000000001374e-05,0.24109200000000008,0.04071400000000003,0.9159787839061753,0.09286,single,-0.8555659999999999
56,0.466667,jog,0.4082073434125285,0.3339332853371703,-0.055795536357083904,0.19410962830087286,0.3633124682336578,-0.3737379256498272,0.008519318454515498,0.002879769618433403,-0.015478761699064137,1.5081593472522112,1.0982721382289367,-0.13138948884089247,-1.7770071111470653,1.2335420229578653,-2.7494865736110055,-4.147156805185399,0.87832340119336,-4.953178994521934,4.845288709353165,1.8561106427223613,-5.556285757710415,-0.059614999999999974,-0.11263200000000007,-0.8959440000000001,-0.04721399999999998,0.13758899999999996,-0.8561960000000001,0.012400999999999995,0.250221,0.039748000000000006,0.9701641563569591,0.10251999999999994,single,-0.8561960000000001
57,0.475,jog,0.4297371894875873,0.35953438137525573,-0.11052442097684663,-0.007875036603410938,0.38438522812585224,-0.3249281716126114,0.06456258250329158,0.10308412336492803,0.031921276851074196,1.5593423736949457,1.2144485779431229,-0.12252490099604027,2.58368487640212,3.072254414746847,-6.567728863526084,6.725460704281318,12.025003449717374,5.688232155302826,6.142208861482605,13.94173043491978,1.0637930931059902,-0.0626580000000001,-0.11476900000000012,-0.894757,-0.037801000000000085,0.14471299999999998,-0.856296,0.024857000000000018,0.2594820000000001,0.03846100000000008,0.7904128962220337,0.11538999999999999,single,-0.856296
58,0.483333,jog,0.42769710788430165,0.3782551302051985,-0.11928477139084787,-0.48945375794091556,0.19148519054251706,-0.19656090751431549,-0.007080283211332174,-0.01212048481938153,0.02736109444377752,1.5599423976958993,1.2575303012120451,-0.10980439217568647,-0.24481958517768654,2.2465797227820365,-1.0512841010441858,-8.597487785266225,-13.825105986356544,-0.5472437786267438,0.07200576034484583,5.170013592814359,1.5265221193272231,-0.06628100000000003,-0.11802199999999996,-0.8935350000000001,-0.028366000000000002,0.15204000000000006,-0.856217,0.03791500000000003,0.270062,0.03731800000000007,0.9487471937957745,0.12682,single,-0.856217
59,0.491667,jog,0.45596352291816916,0.3104151667866575,-0.07655387568994802,0.8483492136549756,0.5726527375824778,-0.5006560487820342,0.008519318454542141,0.005039596832265116,-0.006239500839932795,1.6160307175425992,1.240580753539714,-0.12467002639788867,3.3916984681866427,-8.140144398673023,5.12729730032395,1.8718024557084594,2.059045074591628,-4.031748894133703,6.7300599768058404,-2.0337830180382923,-1.7837334079916234,-0.0700099999999999,-0.12056699999999987,-0.892949,-0.018697999999999992,0.15979200000000005,-0.856618,0.05131199999999991,0.2803589999999999,0.036331,0.9804987397919176,0.1366900000000001,single,-0.856618
60,0.5,jog,0.4765390615624706,0.39181567262691486,-0.1072842913716625,-0.22194698345478944,0.6001610626680299,-0.3513747796779072,0.021000840033605746,0.007320292811696492,-0.004800192007680332,1.594863794551789,1.2889715588623578,-0.11712468498739952,2.4691634038523342,9.768451438888464,-3.687797393701494,1.4978425031877638,0.2736944653103783,0.17272396882904908,-2.540132364191803,5.80712892387423,0.9054771883462346,-0.07380599999999993,-0.12377100000000008,-0.892095,-0.009379000000000026,0.16726799999999997,-0.8567,0.0644269999999999,0.29103900000000005,0.035394999999999954,0.9620796224425197,0.14605000000000007,single,-0.8567
61,0.508333,jog,0.41353654146165064,0.33001320052801003,-0.15036601464057883,0.9499697668104206,-0.4328486116031291,-0.08980053113521946,-0.011640465618626345,-0.00408016320651234,-0.03456138245529807,1.3525741029641167,1.3304932197287787,-0.1335653426137035,-7.560604836291817,-7.4165933156011725,-5.1700135928136515,-3.9171133628023465,-1.3681094465629167,-3.5714857131426396,-29.075926027561646,4.982798615915117,-1.9729578334698097,-0.07734899999999989,-0.12655499999999986,-0.89113,-0.0015539999999999443,0.175605,-0.85656,0.07579499999999995,0.3021599999999999,0.03456999999999999,0.9388390709132505,0.1543,single,-0.85656
62,0.516667,jog,0.4982001439884891,0.36261099112072204,-0.23794096472281837,0.8892434692326454,0.9340383913275946,-0.4204226496009461,0.007559395248371081,0.021478281737452632,-0.007919366450684001,1.5561555075594051,1.4161267098632164,-0.03755699544036508,10.158819597652862,3.9114219573688733,-10.508153357600197,2.3037990001196946,3.0667680518316676,3.1967861776594937,24.427814326288644,10.27519680038856,11.520080054396324,-0.08143800000000001,-0.129398,-0.889213,0.0072630000000000194,0.1843849999999999,-0.85489,0.08870100000000003,0.3137829999999999,0.03432299999999999,0.9598206310577629,0.15676999999999996,single,-0.85489
63,0.525,jog,0.5011400456018169,0.4346573862954517,-0.1140045601824076,-0.0016224970771090172,0.10618415451991957,-0.041879483314303224,0.005280211208440274,-0.002520100804038002,-0.02664106564262559,1.5273010920436674,1.3856954278171172,-0.024960998439937477,0.3528023056915622,8.645913257497822,14.872963463387766,-0.2735130253127082,-2.879921101822937,-2.246693770783813,-3.4626683686232607,-3.6518999215287544,1.5115801032554363,-0.08557000000000003,-0.13304100000000008,-0.8884850000000001,0.015813999999999995,0.19230999999999998,-0.854148,0.10138400000000003,0.32535100000000006,0.03433700000000006,0.9545400690154586,0.15662999999999994,single,-0.854148
64,0.533333,jog,0.44809792391696257,0.4014160566422611,-0.29113164526581803,0.6984892983414862,-0.8369673807024771,-0.23046679995208932,0.015120604824201566,0.017040681627275626,-0.0010800432017281183,1.6513860554422355,1.4462978519140839,0.06864274570982856,-6.365309214551161,-3.9891191231478342,-21.256100454027607,1.1808944696701527,2.3473877872691475,3.0674453907233534,14.890791239477888,7.272581794907867,11.232898613916584,-0.08917799999999998,-0.13624399999999992,-0.886068,0.025841000000000003,0.201017,-0.85115,0.11501899999999998,0.3372609999999999,0.034918000000000005,0.9619874284724471,0.15082000000000007,single,-0.85115
65,0.541667,jog,0.5566354691624567,0.4049676025917916,-0.16990640748739647,1.6670457048810239,0.5581488719247385,-0.27270048278705095,0.01883849292056174,-0.02051835853133453,-0.01955843532517383,1.5452363810894945,1.4168466522678127,-0.007079433645307908,13.023463552375,0.4261514218299102,14.54586486422134,0.4461108826926021,-4.506724281090697,-2.2172296764393535,-12.736941966971468,-3.5338612486526233,-9.08593464784448,-0.09365999999999997,-0.13979000000000008,-0.884815,0.03408,0.20945000000000003,-0.849793,0.12773999999999996,0.3492400000000001,0.035022,0.9432739466894853,0.14977999999999997,single,-0.849793
66,0.55,jog,0.5282611304452176,0.4832593303732132,-0.31513260530421294,0.9176250589139875,-0.43882322060582707,-0.4616429405453839,-0.010560422416907193,0.059762390495632714,0.013080523220928958,1.5468618744749807,1.4143765750629922,-0.006960278411136715,-3.4050568483426047,9.39538314909652,-17.427840851651972,-3.5280109609346946,9.63407524624588,3.9168316988002707,0.19506700893870457,-0.2964211214233168,0.01429920006854584,-0.09815000000000007,-0.14331899999999997,-0.88208,0.04256800000000005,0.21720899999999999,-0.847225,0.14071800000000012,0.36052799999999996,0.03485499999999997,0.8965301180816736,0.15145000000000003,single,-0.847225
67,0.558333,jog,0.570142805712241,0.4638185527421148,-0.11376455058203151,0.46784882087024177,0.7071220230689386,-0.18678739255299795,-0.002640105604220172,0.019080763230531823,-0.0078003120124806695,1.4969398775951157,1.4075363014520696,-0.030601224048962032,5.026002072125734,-2.3329866351972393,24.165133171988874,0.9504760365639137,-4.881990551434209,-2.505800460027579,-5.990879260754283,-0.8208656679374301,-2.837026957617369,-0.1029230000000001,-0.14702499999999996,-0.881197,0.050290999999999975,0.22507299999999997,-0.846532,0.15321400000000007,0.37209799999999993,0.03466500000000006,0.9653633723674112,0.15335,single,-0.846532
68,0.566667,jog,0.5315574754019559,0.4889608831293387,-0.22114230861530046,0.8051911517762076,-0.39928313407715116,-0.42916122814848257,0.0016798656107727896,0.011879049676007733,-0.0026397888168945625,1.510319174466033,1.3872090232781324,-0.023638108951284046,-4.629869247694361,3.016838299402894,-12.884300219974577,0.5183550773929599,-0.8641364956232344,0.6192132464106153,1.6053871935345705,-2.4390782546120766,0.8355069711636589,-0.10733899999999985,-0.15100100000000005,-0.879376,0.058448000000000055,0.23255900000000007,-0.844886,0.1657869999999999,0.3835600000000001,0.03449000000000002,0.9795262868622335,0.15510000000000002,single,-0.844886
69,0.575,jog,0.5634225369014818,0.44557782311293787,-0.11340453618145846,6.400178195877449,-1.4235169344931138,-1.5138748843740608,0.007080283211305621,0.0007200288011727575,0.004320172806912265,1.5107404296171938,1.432857314292579,0.04896195847833942,3.823960338356683,-5.20617544898611,12.92904985405532,0.6480760351053498,-1.3391360704230262,0.8352288040089874,0.050552640244914765,5.4780140422953165,8.712356585818329,-0.11197500000000005,-0.15470799999999996,-0.8783949999999999,0.06634200000000001,0.24078599999999994,-0.843533,0.17831700000000006,0.3954939999999999,0.03486199999999995,0.98612428731476,0.15138000000000007,single,-0.843533
70,0.583333,jog,0.5666626665066584,0.49273970958837465,-0.2913716548661917,1.4105241965671995,0.89202569140119,-0.4256394571023939,0.010920436817480244,-0.010200408016334142,0.010680427217088704,1.488659546381849,1.3704548181927203,0.08556342253690176,0.38883110586542635,5.659652763162917,-21.35690851850864,0.4608368662156014,-1.3105048382943543,0.7632610596635561,-2.6498119807205867,-7.488599075946038,4.392351381082706,-0.11660599999999999,-0.158899,-0.8758779999999999,0.07402500000000001,0.2481,-0.8403919999999999,0.190631,0.406999,0.03548600000000002,0.9693870130353236,0.14514,single,-0.8403919999999999
71,0.591667,jog,0.5771538276937778,0.4968802495800372,-0.2133429325653867,1.0485259979099846,0.7275938140528797,-0.36455684382149006,0.015118790496768604,-0.020158387329007044,0.01691864650827906,1.374850011999039,1.4184065274778008,0.07151427885769075,1.2588386353634828,0.49682505299526003,9.362697660283708,0.5037621405433559,-1.194861928566454,0.7485264328282107,-13.656051641805757,5.753744814624449,-1.6857623805148667,-0.1212899999999999,-0.16320800000000002,-0.873959,0.0806730000000001,0.25578,-0.838018,0.201963,0.418988,0.035941,0.9494151151950299,0.14059,single,-0.838018
72,0.6,jog,0.634945397815924,0.5981039241569703,-0.3498139925597057,1.7035679633547347,0.39564200936063215,-0.19303958901854418,0.009960398415943358,-0.0325213008520236,0.03672146885875477,1.3769350774031068,1.4306972278891272,0.11616464658586409,6.935265825290618,12.147326842305782,-16.377182286609894,-0.619031810971474,-1.4836089671206851,2.376433739406683,0.2502178572024302,1.4749430470810654,5.358258457719158,-0.1264979999999999,-0.16846299999999992,-0.870738,0.08685600000000004,0.262718,-0.8341350000000001,0.21335399999999993,0.4311809999999999,0.03660299999999994,0.9165781999438887,0.13397000000000003,single,-0.8341350000000001
73,0.608333,jog,0.5295811832473277,0.5133805352214071,-0.009960398415943227,-1.106872134684561,-1.2043873007524486,-0.7444516682321825,-0.0003600144005996972,-0.03876155046202711,0.05172206888275498,1.39733589343573,1.3646945877834982,0.06420256810272393,-12.644211516692163,-10.167213360801973,40.784062659757716,-1.2384990779482796,-0.7488599075967218,1.8001440086403637,2.4481958517488467,-7.920633638020975,-6.235698845930631,-0.13091400000000009,-0.173064,-0.870224,0.09408700000000003,0.26981199999999994,-0.833517,0.22500100000000012,0.44287599999999994,0.036707000000000045,0.8922740125480217,0.13293,single,-0.833517
74,0.616667,jog,0.7054235661147109,0.620470362371005,-0.24706023518117756,2.222137811784271,0.42655325619335477,0.20981494282807212,0.008399328053757487,-0.03911687065035401,0.05531557475402015,1.3899688024957997,1.3479721622270389,0.10247180225582019,21.099397992246722,12.849751277849581,-28.449704435473443,1.0510370115619432,-0.04263501179828461,0.4311862096550502,-0.8839801943761001,-2.0065305443315817,4.591940743112128,-0.13672300000000004,-0.17856099999999997,-0.867704,0.09979199999999999,0.2758750000000001,-0.830604,0.23651500000000003,0.45443600000000006,0.03710000000000002,0.8862203507310102,0.129,single,-0.830604
75,0.625,jog,0.554062162486495,0.45301812072483716,0.01140045601823543,-1.8827172694832233,-0.29546492545914277,-0.8722694428957444,0.02124084963399652,-0.029281171246839065,0.05316212648505905,1.4311772470898767,1.3124924996999794,0.16896675867034605,-18.164094999185803,-20.09507280045207,31.016523604873626,1.5410442313979336,1.1803311416674553,-0.2584241292405004,4.945211159735611,-4.257729812439616,7.979713958301403,-0.14116299999999993,-0.18257999999999996,-0.867356,0.107101,0.283037,-0.829291,0.24826399999999993,0.46561699999999995,0.038065000000000015,0.8928296737901378,0.11935000000000001,single,-0.829291
76,0.633333,jog,0.6282251290051697,0.5573022920916791,-0.23112924516980382,0.33392999752234354,0.21285638182320887,-0.46128605901695596,0.04104164166567419,-0.025081003240144593,0.033841353654146145,1.31741269650786,1.3036121444857687,0.11196447857914309,8.899911978720077,12.514601148066909,-29.104728331697856,2.376190091404967,0.5040403224162312,-2.3185854831288646,-13.652292161528399,-1.0656852531154055,-6.84054723283364,-0.14605599999999996,-0.18743300000000007,-0.865148,0.11284399999999994,0.28925599999999996,-0.826432,0.2588999999999999,0.47668900000000003,0.03871599999999997,0.9019819986588243,0.11284,single,-0.826432
77,0.641667,jog,0.6526277897768181,0.6057115430765503,-0.12910967122629854,-0.7394787829632141,-0.10987002758718477,-0.28651613630676936,-0.010319174466046434,-0.005519558435324065,0.08819294456443529,1.2409407247420232,1.2948164146868317,0.12227021838252998,2.928085045794165,5.808645426550446,12.24136956365561,-6.1628049114135965,2.347185601730338,6.521669175700678,-9.1759025396973,-1.05540314362095,1.2365898492184968,-0.15158099999999997,-0.192527,-0.863337,0.11774699999999994,0.294999,-0.8243370000000001,0.2693279999999999,0.487526,0.038999999999999924,0.8517233595425315,0.11000000000000004,single,-0.8243370000000001
78,0.65,jog,0.6731069242769653,0.6303852154086212,-0.14832593303732267,-1.0981760323227716,-0.26863341861968965,-0.22752602141167638,0.03084123364934005,-0.004440177607085391,0.02736109444377773,1.2492499699987984,1.238929557182282,0.10488419536781425,2.4575944437954003,2.9609591182132315,-2.3060436590692475,4.939446551708426,0.12953088062386534,-7.300114019039638,0.9971493167856952,-6.706691168192663,-2.0864062180145995,-0.156933,-0.1978169999999999,-0.861873,0.12254799999999999,0.30006999999999995,-0.822227,0.279481,0.49788699999999986,0.03964599999999996,0.9308880465525324,0.10354000000000002,single,-0.822227
79,0.658333,jog,0.7215888635545543,0.6703468138725586,-0.06960278411136808,-2.7606245511728122,0.9255555161777388,0.12309218797178141,0.0369614784591357,-0.010800432017298254,0.04704188167526744,1.2179287171486928,1.1891275651026219,0.0962438497539907,5.818065435928175,4.795583639018083,9.44715575734493,0.7344587555257058,-0.7632610596679372,2.3617889393363605,-3.758700690040317,-5.976478108683624,-1.0368829489767952,-0.16263800000000006,-0.20349300000000003,-0.860901,0.1266839999999999,0.304393,-0.820845,0.28932199999999997,0.5078860000000001,0.04005599999999998,0.8986790186640703,0.09944000000000008,single,-0.820845
80,0.666667,jog,0.5826733861291018,0.7626589872810151,0.19270458363330742,-6.916423502287868,-1.0416255303625548,-0.03793633928732213,0.09311255099593281,-0.09503239740819508,0.20410367170626165,1.200863930885522,1.146268298536099,0.06611471082313398,-16.66852380914944,11.076574683040057,31.474366180066415,6.737589697239823,-10.107027284724763,18.84590713114867,-2.047610542737057,-5.142700571936946,-3.6152074551063693,-0.16671799999999992,-0.21064099999999997,-0.860806,0.13183599999999995,0.3075899999999999,-0.8219,0.2985539999999999,0.5182309999999999,0.038905999999999996,0.5939368805424432,0.11093999999999998,single,-0.8219
81,0.675,jog,0.7265090603624119,0.7049081963278423,-0.22164886595464242,-0.7390241986095969,-1.2589229395116956,-0.23589349052381947,0.07776311052441848,-0.038281531261245276,0.15036601464058508,1.1342853714148537,1.0981639265570602,0.08424336973478919,17.260971346851015,-6.930372129265879,-49.72440292667084,-1.842006536843186,6.810376352688055,-6.448776798953119,-7.989746726349212,-5.772755547706543,2.175526090442233,-0.17212399999999994,-0.21683399999999986,-0.857706,0.13523399999999997,0.310867,-0.8193509999999999,0.3073579999999999,0.5277009999999999,0.03835500000000003,0.7107360137203039,0.11645,single,-0.8193509999999999
82,0.683333,jog,0.734669386775473,0.6959078363134588,-0.009240369614783925,0.011092233431325638,0.450096420469771,-0.24668853861635748,0.08592343693747095,0.03012120484819435,0.13488539541581787,1.1105244209768474,1.0397215888635647,0.07716308652346138,0.9792783407009666,-1.0800864051822414,25.49003916234975,0.9792783406999341,8.208656679400006,-1.8577486169167583,-2.8514281096851697,-7.01336105766183,-0.849667972078228,-0.17752999999999997,-0.22238199999999986,-0.856505,0.138366,0.313732,-0.818631,0.31589599999999995,0.5361139999999999,0.03787399999999996,0.7287672489194732,0.12125999999999998,single,-0.818631
83,0.691667,jog,0.7738180945524344,0.7287017038636847,0.04547636189105055,0.6693164701914694,1.0338544384844284,-0.7425582672389063,0.0861531077513788,-0.08675305975522242,0.18250539956803336,1.0277177825773913,1.0101991840652749,0.04199664026877772,4.697469135704481,3.9349493100822777,6.565482542096719,0.027558293005500768,-14.023789849221966,5.713943382795191,-9.936001727796436,-3.542405183380082,-4.219635979683632,-0.183261,-0.22917799999999988,-0.855363,0.140482,0.3160780000000001,-0.8186599999999999,0.323743,0.545256,0.03670300000000004,0.633876644104441,0.13297000000000003,single,-0.8186599999999999
84,0.7,jog,0.7742709708388422,0.7886715468618843,0.30493219728789617,1.0312748273139387,1.5765501723644533,-0.8713445430209665,0.12696507860314568,-0.022440897635924755,0.20532821312852712,0.9386775471018921,0.9367574702988181,-0.059642385695428055,0.05434732826206426,7.1966690265450834,31.13594568544918,4.897632407508371,7.717768165042392,2.738847181146522,-10.685255667286695,-8.813358186302349,-12.197171002544906,-0.18865500000000002,-0.23593700000000006,-0.856193,0.14185199999999998,0.31731200000000004,-0.821698,0.330507,0.5532490000000001,0.03449499999999994,0.5959118626876514,0.15505000000000002,single,-0.821698
85,0.708333,jog,0.7665906636265357,0.757950318012716,-0.14136565462618594,1.223498718449706,0.5140289415059364,-0.6302045375685449,0.1372854914196603,0.03444137765512385,0.12552502100083932,0.8825153006120174,0.853834153366129,-0.05112204488179456,-0.9216737324260735,-3.6866949296973797,-53.55788454507143,1.2384990779448655,6.8261460807690355,-9.576766125967534,-6.739739168351666,-9.951196079765836,1.0224817969078914,-0.19389899999999993,-0.2419659999999999,-0.853969,0.142818,0.31811100000000003,-0.820946,0.33671699999999993,0.5600769999999999,0.033023000000000025,0.6846957133428195,0.16976999999999998,single,-0.820946
86,0.716667,jog,0.7252219822414211,0.8798896088312909,-0.2764578833693251,-1.9410418977300457,-0.6632202778974094,-0.18620467819766948,0.14170866330691956,-0.06827453803696153,0.3171346292296591,0.7950563954883574,0.7872570194384436,-0.11099112071034259,-4.963844658641026,14.631544374678903,-16.20977066752317,0.5307381674177148,-12.32492388913902,22.991313682363614,-10.494229076513006,-7.988616981963628,-7.183714402273527,-0.1987620000000001,-0.24986799999999998,-0.849022,0.14339999999999997,0.31733900000000004,-0.819567,0.3421620000000001,0.567207,0.02945500000000001,0.5,0.20545000000000002,flight,-0.819567
87,0.725,jog,0.888875555022202,0.8487939517580776,-0.24492979719188507,2.0375776846869673,-0.45832409839461125,0.789819018497326,0.1419656786271651,0.08364334573382384,0.17400696027841273,0.7645505820232897,0.666386655466215,-0.0871234849393989,19.639214302265973,-3.731628113910183,3.783521682160123,0.03084307215235257,18.23087528750591,-17.176007314442302,-3.6608440495701333,-14.505023877622671,2.864230861747738,-0.2049859999999999,-0.256244,-0.845531,0.14236400000000005,0.31581899999999996,-0.8182520000000001,0.34734999999999994,0.572063,0.027278999999999942,0.6005945897721052,0.22721000000000002,single,-0.8182520000000001
88,0.733333,jog,0.8421936877475159,0.9161166446657864,0.30745229809191676,0.7947896216873228,1.1264582924597448,-0.39309062788272847,0.13536541461658624,0.03708148325934399,0.2397695907836303,0.602184087363488,0.545661826473066,-0.19848793951757937,-5.602048154888497,8.079046310777448,66.28850297417492,-0.7920633638040128,-5.587647002817672,7.8918313338794315,-19.4847587495261,-14.487558981537076,-13.364269120146405,-0.21087599999999995,-0.26356899999999994,-0.846095,0.14036399999999993,0.312732,-0.822468,0.3512399999999999,0.576301,0.023627000000000065,0.5369536604075653,0.26373,single,-0.822468
89,0.741667,jog,0.7618190544756388,0.9828413726901842,0.16966642668586926,-1.0551855085267252,-0.6850527100871123,-0.4116771943389072,0.16738660907126615,-0.012239020878335383,0.20134389248860193,0.5081593472522213,0.3927285817134616,-0.263498920086395,-9.644184457868677,8.00632685677925,-16.53298193017138,3.842235955685156,-5.917987057556953,-4.610714938208374,-11.282066248052226,-18.350521329446284,-7.800693612768902,-0.21582999999999997,-0.27186199999999994,-0.845831,0.13824999999999998,0.30781400000000003,-0.8260780000000001,0.35407999999999995,0.579676,0.01975299999999991,0.5631316192016342,0.30247,single,-0.8260780000000001
90,0.75,jog,0.8576743069722771,1.0001200048001955,-0.10536421456858776,-0.3826605944817717,0.19816541574262142,-0.16235365929748072,0.11760470418816474,0.04776191047640667,0.28153126125044897,0.4034561382455386,0.2179287171486898,-0.3357734309372355,11.503090423213475,2.073518793953098,-33.00499715042072,-5.974067548674092,7.200399778560159,9.622869166188252,-12.564887676308928,-20.976822820685353,-8.673288233630165,-0.221997,-0.2797980000000001,-0.842607,0.13446500000000006,0.301296,-0.827998,0.35646200000000006,0.5810940000000001,0.014608999999999983,0.5,0.35390999999999995,flight,-0.827998
91,0.758333,jog,0.8277931117244607,1.1047641905676104,0.09552382095283998,-2.7658840451426,0.24565098578217395,-0.04529342254633588,0.15156606264250677,0.12012480499220274,0.24684987399495917,0.24096963878553826,0.017040681627262078,-0.3704548181927261,-3.5858868652125624,12.557804604273914,24.107528563713778,4.07552603556245,8.6838946976834,-4.161932947976678,-19.499159901596023,-24.107528563713775,-4.161932947976771,-0.22763199999999995,-0.288003,-0.841346,0.129575,0.29223200000000005,-0.831881,0.35720699999999994,0.5802350000000001,0.009465000000000057,0.5,0.40535,flight,-0.831881
92,0.766667,jog,0.773098152147843,1.1771058315334824,0.2109431245500417,-5.172196380877968,0.4470657550701152,0.4637203078549094,0.17122630189584404,0.07979361651069612,0.34101271898248303,0.13882889368851467,-0.11615070794336146,-0.4458843292536627,-6.562870119584586,8.680302491705344,13.849208494984685,2.359039987201509,-4.839355469343274,11.298637507502328,-12.255908938927787,-15.981688213417842,-9.050817261931495,-0.23264800000000008,-0.29714799999999986,-0.8402620000000001,0.12428899999999998,0.2814540000000001,-0.8373550000000001,0.35693700000000006,0.578602,0.002906999999999993,0.5,0.47093,flight,-0.8373550000000001
93,0.775,jog,0.823352934117362,1.0748829953198074,0.07392295691827042,1.3523274075766112,-1.4721192367669897,-0.5476979245725191,0.21408856354254174,0.10440417616703741,0.4063362534501363,0.06240249609983953,-0.25333013320533737,-0.4634585383415314,6.030815068945005,-12.267231034882345,-16.44307783892604,5.143677144689491,2.9533852941727097,7.8391377016264245,-9.17153457202386,-16.4621895190178,-2.1089894501222357,-0.23772500000000008,-0.3052349999999999,-0.837492,0.11794799999999994,0.270386,-0.8418329999999999,0.355673,0.5756209999999999,0.004340999999999928,0.45659000000000005,0.5,flight,-0.837492
94,0.783333,jog,0.7902316092643721,1.1038041521661015,-0.09588383535341431,-0.31951756892637817,-0.679298437235335,-0.3418231168605767,0.28693147725909685,0.19620784831394072,0.4352574102964156,0.02340093603744846,-0.2674906996279786,-0.3434537381495295,-3.9747179710776686,3.470677648661276,-20.377630177809465,8.74149930595893,11.016881332881814,3.4706776486594975,-4.68037442246387,-1.6993359441547307,14.401152069123123,-0.241919,-0.3127979999999999,-0.833066,0.11155800000000005,0.25895900000000005,-0.843896,0.35347700000000004,0.571757,0.010830000000000006,0.3917,0.5,flight,-0.833066
95,0.791667,jog,0.841372690184781,1.0747540196784167,-0.06551475881929952,0.6572482766397968,-0.6516800509064761,-0.4785153683933446,0.33669306455483006,0.24250059995198142,0.46340292776577574,-0.08327333813295874,-0.26637868970482154,-0.3174946004319625,6.136438795345396,-3.4857370395589897,3.6439976642806045,5.970912802463743,5.554685821699105,3.3771919209695107,-12.799888909336019,0.13343051633754105,3.1148473383209536,-0.24612500000000004,-0.3197340000000001,-0.8286579999999999,0.10385199999999994,0.24778200000000006,-0.845996,0.349977,0.5675160000000001,0.017338000000000076,0.32662,0.5,flight,-0.8286579999999999
96,0.8,jog,0.8639145565822544,1.0460818432737236,-0.16920676827071948,1.492819763899016,-1.1853136605566372,-0.3361466513411593,0.4285371414856565,0.4063362534501496,0.5645025801032018,-0.059522380895228474,-0.049921996879884946,-0.05856234249369978,2.7051321729837103,-3.440798800515179,-12.443538875725372,11.021730100903167,19.661064862374598,12.1324435782342,2.850228877682728,25.97584217267919,31.07311387714648,-0.249753,-0.32506499999999994,-0.822544,0.09615700000000005,0.238649,-0.845074,0.34591000000000005,0.5637139999999999,0.02252999999999994,0.2747,0.8378557949928753,single,-0.822544
97,0.808333,jog,0.8465138605544305,1.005280211208467,0.001320052802110086,4.4793532652411665,-2.7766293685980754,-0.598168090316488,0.4722188887555572,0.3931357254290275,0.41533661346454226,0.07692307692307795,0.09480379215169514,-0.1908076323052941,-2.088167050020888,-4.896391703498985,20.464037090223343,5.242019353162252,-1.5841267276037698,-17.90063202192018,16.374109902593023,17.367789395365584,-15.870069580174672,-0.252872,-0.33016599999999996,-0.819094,0.08974400000000005,0.231062,-0.8466750000000001,0.34261600000000003,0.561228,0.027581000000000078,0.22419,0.6224623958552535,single,-0.819094
98,0.816667,jog,0.8106551475881849,1.0479961603071564,-0.027477801775861888,0.6883693077155287,-0.9228453082701551,-0.04911892101008288,0.5495560355171578,0.5146388288936831,0.4560835133189309,0.1922246220302352,0.18634509239261035,-0.12203023758099266,-4.302701339842245,5.125503851534575,-3.455466112067645,9.279715234173272,14.579206079272211,4.889236843579111,13.835078606570237,10.984077302725524,8.252627156743571,-0.25504799999999994,-0.3346109999999999,-0.815064,0.08459000000000005,0.2238810000000001,-0.847463,0.339638,0.558492,0.032398999999999956,0.17601000000000006,0.5096311545333373,single,-0.815064
99,0.825,jog,0.8427937117484778,1.0880835233409492,0.032401296051841465,-0.4233904658017127,0.03311150488611983,0.07576631641532683,0.5545421816872709,0.5597023880955291,0.48181927277091496,0.20004800192007552,0.20508820352813828,-0.11844473778951246,3.856781970514007,4.810675991094822,7.185779170491288,0.5983614748725675,5.40784341795829,3.0884146708249514,0.9388431405064687,2.249263306795644,0.43027718606506965,-0.25744999999999996,-0.3390139999999999,-0.811319,0.07923400000000003,0.21652300000000002,-0.84872,0.336684,0.555537,0.03740100000000002,0.12599000000000005,0.5,flight,-0.811319
100,0.833333,jog,0.6780271210848459,1.0267610704428143,-0.12252490099603196,-2.0760223451131896,0.5393359349733077,0.7709222662474984,0.6080643225729057,0.6125045001800044,0.5389415576623053,0.10440417616705074,0.12432497299892387,-0.1360854434177361,-19.77278179090739,-7.358988707324447,-18.591887321237582,6.42291382282906,6.336506910413423,6.854948384902213,-11.477718199090889,-9.69197534251939,-2.1169693541609935,-0.25803299999999996,-0.34246599999999994,-0.805807,0.07445400000000002,0.20900300000000005,-0.8488330000000001,0.332487,0.551469,0.04302600000000001,0.06973999999999991,0.6469333599945505,single,-0.805807
101,0.841667,jog,0.7957763378929591,1.0380369570434242,-0.1635469162466994,0.3875575788121415,-0.48155305842335516,0.40866997920768305,0.7095032397408089,0.7435805135589105,0.5950323974082018,0.026157907367403265,0.0772738180945492,-0.10223182145428313,14.128775714916287,1.3529981522210075,-4.922248050236036,12.171696324442337,15.72786337639851,6.730362340520282,-9.388801151865476,-5.645686933570231,4.062109666840978,-0.258752,-0.3449199999999999,-0.799485,0.06803999999999999,0.20099600000000006,-0.848322,0.32679199999999997,0.545916,0.04883700000000002,0.01163000000000003,0.7820115675940352,single,-0.799485
102,0.85,jog,0.7389895595823897,0.9789991599664074,0.047041881675261195,-1.0194774154639832,1.8410911999517148,0.26744089415745337,0.9974798991959752,0.931717268690742,0.7976719068762823,-0.006000240009599778,-0.018000720028799336,-0.08640345613824613,-6.814685984707784,-7.084819042003765,25.271666617300195,34.55858147787939,22.57731370836832,24.317713844723674,-3.8591320505224216,-11.433401910878363,1.8994798171171419,-0.256598,-0.345314,-0.79323,0.061832,0.19268800000000008,-0.849434,0.31843,0.5380020000000001,0.05620400000000003,0.0,0.8525627625586452,single,-0.79323
103,0.858333,jog,0.7452298091923705,0.9738389535581362,0.0549621984879343,0.6887958816269515,-0.2586004489300795,-0.07430707708225476,0.9555982239289595,0.9913596543861801,0.8329533181327221,0.03000120004799849,-0.11244449777991992,-0.0501620064802592,0.7488599075939989,-0.6192495389740998,0.9504760365622312,-5.026002072124747,7.1573725783556785,4.233938708321091,4.320345620736604,-11.33370667840156,4.349147924875408,-0.254845,-0.3451679999999999,-0.786747,0.05587199999999992,0.18363600000000002,-0.8503099999999999,0.3107169999999999,0.5288039999999999,0.06356299999999993,0.0,0.7887861537878414,single,-0.786747
104,0.866667,jog,0.7513798896088344,1.0047996160307358,-0.03275737940964354,0.37320214755960773,-0.6355343041623309,0.16771501151066495,1.056395488360928,1.1951043916486712,0.9473242140628803,0.002159827213831727,-0.03719702423805174,0.008879289656827643,0.7379506139265606,3.714982298128116,-10.52550730712483,12.09470415550383,24.447412678484792,13.723409638847947,-3.3406974843012867,9.028974507063669,7.084388785347635,-0.25230300000000006,-0.34358200000000005,-0.778579,0.049628000000000005,0.174952,-0.849963,0.30193100000000006,0.518534,0.071384,0.0,0.9361615482781023,single,-0.778579
105,0.875,jog,0.8033121324852934,0.9897995919836658,0.018480739229567604,1.8055903795793065,0.5047458180870693,0.1519266876619054,1.2476899075962975,1.3301332053282189,1.0038401536061397,0.0033601344053795614,0.009840393615734445,0.0034801392055683576,6.232118429912254,-1.8000748886439268,6.148820189512892,22.956248558186584,16.204105805777882,6.782184032552402,0.14404262469072715,5.644715931091563,-0.6479239711099559,-0.24860000000000004,-0.3407459999999999,-0.7703679999999999,0.042962000000000056,0.166786,-0.850088,0.2915620000000001,0.5075319999999999,0.07972000000000001,0.0,0.9817246964894533,single,-0.7703679999999999
106,0.883333,jog,0.8274330973238876,0.9915996639865577,-0.11328453138124817,2.1041782425050988,0.1335479004852379,0.13905530317531656,1.257410296411863,1.3714148565942572,0.9925597023880914,0.036121444857793644,0.01788071522861696,-0.03864154566182624,2.894631565893923,0.216017281038268,-15.812464971896704,1.1664933176005559,4.9539963117770505,-1.35370829449756,3.931514514870268,0.9648771886334431,-5.05480437626238,-0.24501699999999993,-0.3375809999999999,-0.761153,0.03636800000000007,0.15867200000000004,-0.849466,0.281385,0.49625299999999994,0.08831300000000009,0.0,0.9069401655021452,single,-0.761153
107,0.891667,jog,0.7987760979121744,0.9874010079193771,-0.2522198224142141,-0.41600641391619375,1.9091178083232065,0.5383416126861026,1.7728581713463003,1.7449004079673525,0.8122150227981805,0.02807775377969256,0.043556515478762214,0.019798416126709795,-3.438564844218064,-0.5037984241877419,-16.670901251855856,61.848797088365764,44.81468099029246,-21.63963038035901,-0.9651657161148463,3.080849562052484,7.012234435869495,-0.23689899999999997,-0.3312680000000001,-0.752282,0.029945,0.150806,-0.8471989999999999,0.26684399999999997,0.4820740000000001,0.09491699999999992,0.0,0.9075411866605361,single,-0.752282
108,0.9,jog,0.8723148925956966,1.054242169686775,-0.2128885155406138,1.1532989239812612,-1.1180654986911074,-0.03989665202581658,1.7831513260530294,1.947677907116299,0.7185887435497382,0.0390015600624047,0.023040921636861774,-0.013200528021120669,8.825008362357122,8.021260262498208,4.719945622656921,1.2352279739264427,24.334273268804242,-11.23560293393038,1.3109091902930625,-2.4619697398176354,-3.9600316990075997,-0.22930899999999999,-0.32382299999999986,-0.7445200000000001,0.02300100000000005,0.14221300000000003,-0.845535,0.25231000000000003,0.4660359999999999,0.10101499999999997,0.0,0.9213612391089314,single,-0.7445200000000001
109,0.908333,jog,0.8480739229569315,1.0109204368174805,-0.37321492859715416,0.2615531607042677,0.34217258571648695,0.19902861772250235,2.0214808592343876,2.044281771270859,0.5145805832233353,0.0369614784591357,-0.008040321612869298,-0.019680787231489555,-2.9090327179605566,-5.1988158969512686,-19.239939164351593,28.600688009283616,11.59292741564392,-24.481958517509273,-0.24481958517568883,-3.7298983859031987,-0.7776622117327427,-0.21953100000000003,-0.31521199999999994,-0.7371219999999999,0.01624199999999998,0.133722,-0.8425889999999999,0.235773,0.44893399999999994,0.10546699999999998,0.0,0.9289340867852893,single,-0.7371219999999999
110,0.916667,jog,0.7846172306215397,1.017278617710587,-0.006719462442997906,1.0861951150312454,0.09505077099236219,-0.22485391940163535,2.1775857931365388,2.152867770578339,0.2951763858891254,0.02843772498200635,-0.0016798656107461464,-0.022558195344372357,-7.614193944731387,0.7629206735189022,43.97593786346933,18.73109358077154,13.029277574691529,-26.326397568299523,-1.022768595767853,0.7631936647615915,-0.34526135263772256,-0.20792199999999994,-0.305748,-0.7346060000000001,0.00994000000000006,0.12522999999999995,-0.842721,0.217862,0.43097799999999997,0.10811499999999996,0.0,0.9394378572635865,single,-0.7346060000000001
111,0.925,jog,0.7596303852154124,0.996519860794425,-0.23628945157806197,1.772002177691193,1.0681258378485807,-0.13082608327318848,2.1669266770670723,2.100324012960512,0.3451338053522147,0.036601464058562155,-0.00504020160806268,-0.013200528021120669,-2.9985413903908764,-2.491150475958471,-27.549500676234622,-1.279145094139735,-6.305503134264602,5.995130140776321,0.9796878767017607,-0.4032564499359798,1.1229649973900935,-0.196195,-0.29655,-0.729761,0.003915000000000002,0.11688399999999999,-0.840862,0.20011,0.41343399999999997,0.111101,0.0,0.9346096179448102,single,-0.729761
112,0.933333,jog,0.7740309612384513,1.015960638425543,-0.30361214448578605,-0.6976597950574371,-0.08141945383280244,0.0851735601364474,2.3063722548902152,2.290531621264867,0.16200648025921066,0.030841233649340462,-0.005880235209404319,-0.0032401296051841467,1.728138248294616,2.3329866351995974,-8.079046310779395,16.734138704325478,22.825826029564034,-21.976158057482987,-0.6912552993185822,-0.10080806448357688,1.195295621737263,-0.18342599999999998,-0.285929,-0.725881,-0.0022780000000000022,0.10836900000000005,-0.838359,0.18114799999999998,0.39429800000000004,0.11247799999999997,0.0,0.9473940936198035,single,-0.725881
113,0.941667,jog,0.7820974322054205,1.0059995200383829,-0.1628269738420977,-0.31774713082022005,0.7259220649611878,0.1205889881662957,2.4925605951523604,2.404487640988706,0.03539716822654037,0.020038396928248974,-0.012479001679877996,-0.006479481641468869,0.9678990841095702,-1.195238587372223,16.892869047718655,22.34081356637194,13.673628476582444,-15.191902091752977,-1.296236707594361,-0.7917886333661659,-0.3886911490622387,-0.16917100000000007,-0.2742739999999999,-0.724229,-0.008628999999999998,0.099881,-0.8370559999999999,0.16054200000000007,0.3741549999999999,0.1128269999999999,0.0,0.9592008130281651,single,-0.724229
114,0.95,jog,0.9380775231009282,0.9582383295331924,0.0646825873035008,1.7218996778646485,0.44701270852548264,0.012635407513860395,2.3772950918037066,2.492139685587444,-0.1591263650546029,0.02424096963877671,-0.009840393615734576,-0.010080403216128827,18.718359641846767,-5.731572123507847,27.30223942704915,-13.832413698386521,10.51866609849258,-23.343757744047167,0.5043288984192696,0.31664563352255426,-0.4321278740741618,-0.15717799999999993,-0.26149199999999995,-0.726094,-0.016244000000000036,0.09181400000000006,-0.8376790000000001,0.1409339999999999,0.353306,0.11158500000000005,0.0,0.9532716929551374,single,-0.726094
115,0.958333,jog,0.7730709228369173,0.979839193567736,-0.16464658586343864,0.29690709272912846,-0.7786883686117865,0.1250074524510878,2.4456978279131008,2.4612984519380707,-0.2581303252130058,0.026281051242059202,-0.0007200288011594248,-0.013560542421696633,-19.80158409504503,2.5922073724401105,-27.52060160409678,8.208656679394442,-3.701096081768051,-11.880950457026577,0.24481958517730518,1.0944875572513035,-0.41763341000453513,-0.14324000000000003,-0.2491469999999999,-0.726873,-0.022467000000000015,0.08364300000000002,-0.8364199999999999,0.12077300000000002,0.3327899999999999,0.10954699999999995,0.0,0.9506965065855462,single,-0.726873
116,0.966667,jog,0.7588192944564373,0.9516438684905161,-0.2495800335973068,0.5116313394523714,-1.0154896404990257,0.1367619818068309,2.503239740820721,2.482481401487857,-0.2658987281017493,0.02591792656587381,-0.010439164866804363,-0.02507799376049907,-1.7100586009695091,-3.3831683557978973,-10.191198432189525,6.904477190739116,2.5417506059258734,-0.9321337759471409,-0.04357147542421275,-1.166203031634853,-1.3819836019681244,-0.12870199999999998,-0.23638899999999996,-0.727009,-0.028575000000000017,0.07562500000000005,-0.834549,0.10012699999999997,0.312014,0.10753999999999997,0.0,0.9374251370214582,single,-0.727009
117,0.975,jog,0.9498379935197501,1.0414016560662611,-0.09336373454938961,-0.6840938876307816,0.7834799247402531,0.9198941239555529,2.8148325933037484,2.5277811112444697,-0.31105244209768806,0.012840513620541127,-0.012720508820358991,-0.019200768030721453,22.923160814030307,10.771365363704051,18.746705753980393,37.39263800348377,5.436182618098282,-5.418662426009742,-1.5693523275330377,-0.27377222531557044,0.7052952993852959,-0.11316100000000007,-0.22400300000000006,-0.728823,-0.036383000000000054,0.06684099999999993,-0.833931,0.07677800000000001,0.290844,0.10510799999999998,0.0,0.9560505458364792,single,-0.728823
118,0.983333,jog,0.8165126605064074,0.9848793951757986,-0.08244329773190812,0.22875972933978259,-0.18624251582294546,0.25819165124376336,2.667346693867743,2.608064322572892,-0.4807392295691819,0.012360494419772447,-0.023880955238203334,-0.012480499219968738,-15.99967994879901,-6.782942624560458,1.3105048382913052,-17.699015892956282,9.63437073424002,-20.363229025740207,-0.05760460827657235,-1.3393071424270127,0.8064645158709572,-0.09773799999999999,-0.21047700000000003,-0.732142,-0.04308400000000001,0.058435000000000015,-0.833348,0.05465399999999998,0.26891200000000004,0.10120600000000002,0.0,0.950591141533967,single,-0.732142
119,0.991667,jog,0.762179025677953,0.9652027837772961,-0.0705543556515389,-0.0672156801976613,-0.43614263855626134,0.533364117046162,3.0963522918166815,2.581233501319906,-0.3219342452603799,0.005159587233023217,-0.0075593952483844025,-0.0034797216222699715,-6.519514618245096,-2.3610044874613187,1.426558924930319,51.47655362958254,-3.2194409950787284,19.05507371115946,-0.864039739230774,1.958430524336336,1.0800069111709645,-0.07828499999999994,-0.197009,-0.734237,-0.04939300000000002,0.05032800000000004,-0.832789,0.028891999999999918,0.24733700000000003,0.09855199999999997,0.0,0.9836807663319078,single,-0.734237
120,1.0,jog,0.8633145325813036,1.0075603024121007,-0.01992079683187313,-1.7226719535360218,-0.5765231901816062,1.5488899116122818,2.8414736589463434,2.588743549741983,-0.48157926317052513,0.007320292811709766,-0.008760350414015293,-0.0020400816032640806,12.136746298253952,5.083105560398951,6.076270109164234,-30.586659410816875,0.9012418603236396,-19.158168475956387,0.2592950412440346,-0.14412038469109387,0.17276371282921935,-0.061800999999999995,-0.18383300000000002,-0.7380840000000001,-0.056526000000000076,0.04185899999999998,-0.83264,0.005274999999999919,0.225692,0.09455599999999997,0.0,0.980671526532263,single,-0.7380840000000001
121,1.008333,jog,0.7903516140645676,0.955598223928959,-0.020040801632068856,-1.3035731362988197,-0.2962633557314356,1.4636952090488795,3.01260050402019,2.73130925237012,-0.5378615144605833,-0.00024000960037759599,-0.013800552022078158,-0.0055202208088325115,-8.755900458026732,-6.2356988459309,-0.014401152069569986,20.5360428505758,17.108568658122902,-6.7541403204198565,-0.907272580353706,-0.6048483869030254,-0.41763341000461573,-0.04328299999999996,-0.16903599999999996,-0.742399,-0.063114,0.03378100000000006,-0.832519,0.019831000000000043,0.20281700000000003,0.09011999999999998,0.0,0.9752240215743921,single,-0.742399
122,1.016667,jog,0.8063354931605348,0.9695224382049467,0.023278137748983203,-0.423349919310068,-0.3489099241987964,0.9931819125128621,2.9894408447323975,2.7682985361170838,-0.5173986081113467,-0.0017998560115175344,-0.013438924886009136,0.0013198944084473853,1.9179120585513667,1.670772051354399,5.197856897174433,-2.7789367995911127,4.438358980917156,2.455352333721667,-0.18716659600911045,0.04339178498548349,0.8207481662202838,-0.025088999999999917,-0.1540450000000001,-0.746905,-0.06984899999999994,0.025588999999999973,-0.832702,0.04476000000000002,0.17963400000000007,0.08579700000000001,0.0,0.9772949892336856,single,-0.746905
123,1.025,jog,0.8558742349694098,0.9426377055082223,0.06444257770310988,-0.6619817748338084,-0.6458961383008268,1.3664188457291169,2.9681987279491358,2.748709948397969,-0.5931837273490997,0.0038401536061481215,-0.006360254410172833,0.010320412816512668,5.944886812537565,-3.2262969754859663,4.939930391710915,-2.549155980230638,-2.3507245552760168,-9.094578091654109,0.6768282272489748,0.8494744360778071,1.080105413184371,-0.007487000000000021,-0.13899499999999998,-0.7523850000000001,-0.07694899999999993,0.017681000000000058,-0.833153,0.06946199999999991,0.15667600000000004,0.08076799999999995,0.0,0.9788057570327213,single,-0.7523850000000001
124,1.033333,jog,0.984639385575408,0.9969998799951802,0.22272890915635862,-0.3729969176091134,-1.044782903568773,1.4539426851530188,2.98643945757826,2.718708748349884,-0.6225849033961247,-0.012120484819394694,-0.005040201608075936,0.03936157446297764,15.452436170166312,6.523721887310327,18.995119579172684,2.188975114499453,-3.6002880172907936,-3.528282256933212,-1.915353225194112,0.1584126727585352,3.4850788007277647,0.009194000000000035,-0.12464799999999998,-0.759429,-0.08525499999999997,0.009330999999999978,-0.834681,0.094449,0.13397899999999996,0.07525199999999999,0.0,0.930845516560711,single,-0.759429
125,1.041667,jog,0.8885289176866014,0.9785217182625604,0.12059035277178459,-0.9410974795865866,-0.3214903281667654,1.401529369225695,3.0323974082073963,2.9268058555316094,-0.5765538756899562,-0.029757619390452447,-0.02051835853130843,0.087592992560597,-11.532333559972216,-2.2172020317518837,-12.255646314443961,5.514512914463307,24.969655289384352,5.523281462223349,-2.1162868455793244,-1.8572302523677453,5.7873071871394615,0.027061,-0.10841100000000004,-0.765239,-0.09290799999999999,0.0010050000000000336,-0.834956,0.11996899999999999,0.10941600000000007,0.06971700000000003,0.0,0.8420702398187448,single,-0.765239
126,1.05,jog,0.932197287891499,0.9716788671546717,0.19632785311411763,-0.7684045856277155,-0.20591601172162402,1.187238885159219,2.9395175807031753,2.837753510140366,-0.5397815912636413,-0.0019200768030740096,-0.019080763230531317,0.034321372854913365,5.240414041149275,-0.8211749799458319,9.08886359562363,-11.146025141511995,-10.686708915305621,4.412850645183513,3.3406387360347956,0.17251833682672382,-6.392850078685071,0.043787999999999994,-0.09286099999999997,-0.771373,-0.100692,-0.0072510000000000074,-0.836306,0.14448,0.08560999999999996,0.06493300000000002,0.0,0.934473948034319,single,-0.771373
127,1.058333,jog,0.9617184687387542,0.9732389295571853,0.22272890915636454,-1.2828490916416773,0.2188787511499117,1.026770322276019,2.973598943957785,2.910716428657163,-0.6359054362174543,0.001800072002878601,-0.016440657626311653,0.026761070442818075,3.5426834090070156,0.18721497690071054,3.168253455207866,4.089927187640686,8.75590045803402,-11.535322807369958,0.4464357141428831,0.3168253455201834,-0.9072725803546573,0.060553000000000023,-0.076716,-0.778528,-0.10869099999999998,-0.015498000000000012,-0.837939,0.169244,0.061217999999999995,0.05941099999999999,0.0,0.9475677587090141,single,-0.778528
128,1.066667,jog,1.0388768898488108,1.1666666666666623,0.5093592512599019,0.44468576673826526,-1.0047476911820172,0.8448762566550216,2.9746820254379434,3.003359731221479,-0.506239500839929,-0.0011999040076739157,-0.014278857691382209,0.03323734101271866,9.258269871616987,23.209471695401433,34.39288962125452,0.12995938086855735,11.116307003157592,15.558667551898772,-0.35996832380039523,0.25939524057228547,0.7770903011639715,0.07668599999999998,-0.06140900000000005,-0.786992,-0.11735899999999999,-0.02534000000000003,-0.8419070000000001,0.19404499999999997,0.03606900000000002,0.05491500000000005,0.0,0.9396757284845265,single,-0.786992
129,1.075,jog,1.000240009600391,0.968678747149891,0.32869314772590436,-1.3552690769488036,0.5110623246608285,0.8319053522512715,2.924876995079834,3.066482659306406,-0.374294971798875,0.0032401296051841467,-0.03096123844953592,0.011520460818433123,-4.636611094254191,-23.759500722041654,-21.680799656066146,-5.976842716681857,7.575054372366208,15.83397684400038,0.5328253465568347,-2.001965769609248,-2.606129868509029,0.09272400000000003,-0.04392799999999997,-0.7928499999999999,-0.12566699999999997,-0.03366999999999998,-0.84455,0.218391,0.01025799999999999,0.05170000000000008,0.0,0.9446772664857368,single,-0.7928499999999999
130,1.083333,jog,0.9900396015840502,0.9623184927396925,0.37765510620424286,-1.7229978651438795,0.5042647074474462,0.7192581765234211,2.9881195247809362,3.0270010800431515,-0.4887795511820396,0.029881195247802635,0.010800432017284641,-0.022920916836673088,-1.2240979258778977,-0.7632610596661928,5.875670044202286,7.589407140417764,-4.737979030751696,-13.738699073942467,3.1970557593445363,5.011600920055182,-4.1331306438384265,0.10937399999999997,-0.02672299999999994,-0.80007,-0.13366800000000006,-0.04159899999999994,-0.847888,0.24304200000000004,0.014876,0.04781800000000003,0.021820000000000117,0.9347035905821475,single,-0.80007
131,1.091667,jog,1.1101511879049866,0.9550035997120471,0.19870410367170893,-3.5771129214685926,1.4309235207312143,0.16059884048130002,3.047396208303394,3.0422366210703706,-0.42452603791697463,0.030717542596596932,0.022318214542839335,0.01007919366450712,14.41223737952227,-0.8777169459617914,-21.472402511703542,7.112633012054113,1.828118673772429,7.709804807423347,0.10035365356303247,1.3820233411992937,3.9596964844229463,0.125519,-0.009328000000000003,-0.805264,-0.142664,-0.04937199999999997,-0.84946,0.268183,0.04004399999999997,0.04419600000000001,0.05804000000000009,0.9345260809244417,single,-0.805264
132,1.1,jog,1.1164046561862286,1.061322452898093,0.5582623304932087,-1.4041351926090675,0.16749987592790416,0.3652589840141286,3.0066002640105105,3.120484819392721,-0.40597623904955454,0.02676107044281403,-0.005880235209417485,0.08940357614304405,0.7504462115974991,12.758772733234606,43.1487131671059,-4.895709143511684,9.390159405058087,2.2260649066866387,-0.47479565027995113,-3.383949328243889,9.519306669691053,0.14127,0.007831000000000032,-0.813299,-0.15174400000000005,-0.05826500000000001,-0.853367,0.29301400000000005,0.06609600000000004,0.04006799999999999,0.09932000000000007,0.844153463264085,single,-0.813299
133,1.108333,jog,1.1332053282131365,1.1574462978519264,0.6983079323173013,0.19857374955008594,-0.5316440769584119,0.3422539013103385,2.9883595343814,3.0848433937357784,-0.44089763590543984,0.02928117124685278,0.0019200768030740608,0.11280451218048823,2.0161612896805448,11.535322807372424,16.806144464669845,-2.1889751144978598,-4.277142164519733,-4.190735252116359,0.3024241934523908,0.9360748844943739,2.808224653479467,0.156729,0.023892000000000024,-0.822792,-0.160943,-0.06789400000000001,-0.858246,0.317672,0.09178600000000003,0.035453999999999986,0.14546000000000003,0.8057354920847813,single,-0.822792
134,1.116667,jog,1.1810655147588092,1.0854331653467637,0.5511159107271459,-1.3300611221700267,0.05560220105289098,0.045883426161416864,2.9058075353971446,3.192824574034052,-0.38372930165586455,0.021118310535164823,-0.0013198944084453037,0.17230621550275843,5.742762964443525,-8.640884629849072,-17.66162966044567,-9.905447442315182,12.9567050993848,6.859651337841956,-0.9794649282082906,-0.38876544414678904,7.139633228014128,0.171103,0.04145500000000002,-0.8305830000000001,-0.17060999999999993,-0.07695099999999999,-0.861403,0.34171299999999993,0.11840600000000001,0.03081999999999996,0.19180000000000003,0.7106657207101095,single,-0.8305830000000001
135,1.125,jog,1.1796471858874469,1.1381255250210103,0.5550222008880394,-1.2007654098102336,-0.36094229066851513,-0.2635297299359642,2.9625585023401224,3.1383655346214145,-0.2002880115204631,0.02916116644665732,0.027601104044156315,0.23040921636865663,-0.17020627281438824,6.3233360943534205,0.46877357025003424,6.810388448695342,-6.53534614336231,22.013835369663163,0.9651813166317738,3.4706586406578523,6.972639009468227,0.18596000000000001,0.058123000000000036,-0.8368770000000001,-0.18019699999999994,-0.08620500000000003,-0.8641080000000001,0.36615699999999995,0.14432800000000007,0.027231000000000005,0.22769000000000006,0.6101973378155,single,-0.8368770000000001
136,1.133333,jog,1.167406696267863,1.0483619344773913,0.6405856234249373,-1.2438182328708525,-0.036140308442911585,-0.4989524025976431,2.841233649346,3.0751230049202194,-0.10848433937357535,0.03912156486258735,0.06552262090484237,0.29761190447618213,-1.4689175110505108,-10.772061747704278,10.268021425284848,-14.5595647418845,-7.589407140429104,11.016881332879947,1.1952956217364843,4.550764053844522,8.064645158709482,0.199908,0.07501199999999997,-0.843119,-0.18959900000000002,-0.094395,-0.866966,0.38950700000000005,0.16940699999999997,0.023847000000000063,0.26153000000000004,0.5,flight,-0.843119
137,1.141667,jog,1.2431005519558316,1.1533477321814178,0.6485481161507022,-1.0157308045843962,-0.20652725544776598,-0.16768754097951757,2.8086153107751146,3.023998080153565,-0.06443484521238285,0.05831533477321607,0.10931125509959061,0.3718502519798385,9.082536079669776,12.597287941447767,0.9554226932763162,-3.9138875175048136,-6.134500211981539,5.285516458026417,2.3030681438239227,5.25421576610846,8.907889069313152,0.212955,0.09060199999999996,-0.849061,-0.199473,-0.10309600000000002,-0.869272,0.412428,0.19369799999999998,0.02021100000000009,0.29789,0.5,flight,-0.849061
138,1.15,jog,1.253210128405152,1.1614064562582567,0.6185047401896123,-1.1343529410213846,-0.10685147023465354,-0.2364570264160766,2.7123484939397837,2.9642385695428124,0.036001440057602835,0.07548301932077241,0.11856474258970334,0.41881675267011065,1.213197701826535,0.9670855726435742,-3.605349329303988,-11.55248011944459,-7.171428130415578,12.052836345852226,2.060204553888935,1.1104629173302314,5.6362055310539505,0.22511399999999998,0.10562500000000002,-0.853915,-0.20928700000000006,-0.111786,-0.8709359999999999,0.43440100000000004,0.21741100000000002,0.017020999999999953,0.32979,0.5,flight,-0.853915
139,1.158333,jog,1.3156126245049573,1.1574462978518956,0.6600264010560379,-1.3059521279673278,-0.1956336954395811,-0.03944949465847118,2.5803432137285034,2.880595223808898,0.1408856354254147,0.08592343693748199,0.169326773070926,0.4267370694827723,7.488599075939543,-0.4752380182840554,4.982798615915623,-15.841267276044404,-10.037602992189228,12.586606908413541,1.2529002300143282,6.091687325239622,0.950476036560843,0.23565299999999997,0.11998399999999998,-0.858241,-0.219534,-0.12001999999999996,-0.87288,0.455187,0.24000399999999994,0.014638999999999958,0.35361,0.5,flight,-0.858241
140,1.166667,jog,1.2619390448764336,1.1613870890328986,0.49940004799616966,-0.2137310698563145,1.100759542729215,-0.4772812886526031,2.520638348932133,2.8911687065035387,0.1819054475641979,0.11075113990881026,0.20134389248859963,0.5247180225582048,-6.440314330276545,0.4728571131513156,-19.273620477546356,-7.164010654712219,1.268716426042818,4.9219836979582405,2.9790860296770756,3.8417469903616794,11.756773827145949,0.24614299999999997,0.13440000000000002,-0.8608870000000001,-0.229128,-0.128021,-0.872669,0.475271,0.262421,0.01178199999999996,0.38217999999999996,0.5,flight,-0.8608870000000001
141,1.175,jog,1.3145325813032247,1.1738869554782,0.6049441977678955,-0.510469772578182,0.18907804495228459,-0.3945664025225631,2.3502940117604316,2.698547941917627,0.22980919236769068,0.26209048361933585,0.22380895235809106,0.46285851434056546,6.311476830288033,1.5000439751951669,12.665804604791076,-20.44213814612964,-23.11541636696368,5.7486793235919755,18.161447703170882,2.695915020939762,-7.423437923633532,0.25477400000000006,0.14710499999999999,-0.864013,-0.237898,-0.135938,-0.873853,0.492672,0.283043,0.00983999999999996,0.40159999999999996,0.5,flight,-0.864013
142,1.183333,jog,1.3607344293771928,1.2409696387855615,0.5588623544941875,0.13052685431754565,0.47483891014786506,-0.3009367233732144,2.1920076803072313,2.560902436097467,0.3229329173166955,0.18048721948878851,0.2608904356174282,0.49189967598704465,5.544443546618087,8.050244006643712,-5.530042394540794,-18.995119579167383,-16.51812142327628,11.175294005640906,-9.79278340700205,4.449955989360071,3.485078800729563,0.26170099999999996,0.158104,-0.865979,-0.24773299999999998,-0.14410499999999998,-0.874411,0.5094339999999999,0.30220899999999995,0.008431999999999995,0.41568000000000005,0.5,flight,-0.865979
143,1.191667,jog,1.618670506359479,1.5583153347732095,0.6694264458843242,0.07111759179829585,-0.897305386292506,1.3775247537668351,2.0543556515478603,2.4366450683945122,0.3813294936405059,0.20290376769858234,0.30477561795056,0.49292056635468795,30.949853249614147,38.07843724353798,13.266629636445384,-16.516922097356606,-14.90969134904654,7.007028596569469,2.689770603526957,5.265800615926504,0.12249704435364692,0.26533199999999996,0.165424,-0.86838,-0.259532,-0.15455200000000002,-0.875882,0.524864,0.31997600000000004,0.007502000000000009,0.42498,0.5,flight,-0.86838
144,1.2,jog,1.3818552742109809,1.2307692307692406,0.5126605064202546,-0.7805498113278818,0.7167986131359313,-0.3805130884974473,1.8273130925237182,2.162606504260188,0.34861394455778605,0.23844953798151677,0.3012120484819435,0.5067802712108519,-28.4189646164047,-39.307104764667216,-18.812665242298213,-27.246196930774527,-32.88594313384455,-3.9260229308436507,4.26566306047459,-0.42764544205166877,1.663231111984168,0.26904399999999995,0.17318899999999998,-0.8697469999999999,-0.26906,-0.162298,-0.875931,0.538104,0.335487,0.006184000000000078,0.4381599999999999,0.5,flight,-0.8697469999999999
145,1.208333,jog,1.5984639385575141,1.5306612264490331,0.5439817592703624,1.5185118422772812,-1.5479079698526899,1.1041872538990856,1.6323052922116603,1.9750390015600279,0.30565222608903747,0.2686907476298994,0.28825153006119925,0.46729869194767076,25.994079484762924,35.988479020735305,3.75870069004047,-23.40187211233103,-22.509000684046192,-5.155612440747369,3.6290903214187105,-1.5553244234662214,-4.737979030742883,0.26932599999999995,0.17689199999999997,-0.871733,-0.28014100000000003,-0.172651,-0.87657,0.549467,0.34954299999999994,0.00483699999999998,0.4516300000000001,0.5,flight,-0.871733
146,1.216667,jog,1.3936885049196313,1.2550995920326575,0.28413726901848835,1.3979641584178244,0.5010069708262181,-0.6490085498159429,1.448644108471349,1.862610991120747,0.23974082073434577,0.2686585073194185,0.3848092152627815,0.5549556035517269,-24.57108634963844,-33.06475094988971,-31.178844522663667,-22.03757904251437,-13.49028203015156,-7.90873594368766,-0.003868527775490289,11.585995344562527,10.51798795345066,0.26978399999999997,0.181955,-0.8721030000000001,-0.289517,-0.179904,-0.874313,0.559301,0.36185900000000004,0.0022099999999999342,0.4779000000000001,0.5,flight,-0.8721030000000001
147,1.225,jog,1.4214568582743055,1.3042121684867154,0.30997239889595063,0.5560025217909645,-0.011315029222573353,-0.658335192748611,1.3080523220928608,1.4791791671666612,0.1922476899075937,0.30565222608903414,0.409936397455888,0.5661826473058823,3.3323356959886854,5.893744924283812,3.100339598879375,-16.871689232987613,-46.01365942086631,-5.699403675357164,4.439423829306974,3.0153824784718664,1.3472991424643226,0.268839,0.18341300000000002,-0.873084,-0.29881500000000005,-0.18735600000000002,-0.872178,0.5676540000000001,0.370769,0.0009059999999999624,0.5,0.49093999999999993,flight,-0.872178
148,1.233333,jog,1.4268570742829858,1.2988119524781143,0.27181087243489527,-0.031157314909991848,0.34571340362193,-0.6574003659731548,1.1522860914436681,1.2857314292571822,0.12216488659546387,0.32677307092284363,0.47197887915517955,0.592463698547947,0.6480518431153722,-0.6480518431058595,-4.579566357981005,-18.692695385718725,-23.21465713542311,-8.41027280836799,2.534602764167729,7.445395619739844,3.1538523031399186,0.266551,0.183304,-0.874331,-0.30798200000000003,-0.19424599999999997,-0.869506,0.574533,0.37754999999999994,0.004824999999999968,0.5,0.4517499999999999,flight,-0.869506
149,1.241667,jog,1.4114470842332467,1.2415406767458503,0.20974322054235162,0.21133842542704934,0.49878579523044553,-0.7851345837176877,0.9529637628989613,1.152987760979112,-0.02843772498199969,0.36789056875449844,0.5945524358051228,0.7354211663066893,-1.8490508818981244,-6.872003327605417,-7.447522425311156,-23.916766084077903,-15.927965956091823,-18.0708677198779,4.933705043395067,14.707650185978205,17.153523849141013,0.26273,0.182566,-0.876316,-0.316679,-0.19963800000000004,-0.8651249999999999,0.5794090000000001,0.38220400000000004,0.011191000000000062,0.5,0.38809000000000005,flight,-0.8651249999999999
150,1.25,jog,1.4164166566662806,1.2340093603744247,0.16764670586824737,-0.07391744136021386,0.49737015723182876,-0.9588588998751596,0.8075123004920269,1.028921156846283,-0.1374054962198509,0.4039361574462992,0.5775831033241463,0.7027481099244034,0.5963725468659438,-0.903794116335743,-5.051783832245846,-17.45487368377964,-14.888588039461181,-13.076655614766857,4.325643668762879,-2.036401353771354,-3.920923602818457,0.257656,0.180857,-0.878858,-0.325116,-0.20510799999999996,-0.860666,0.5827720000000001,0.38596499999999995,0.018191999999999986,0.5,0.31808000000000003,flight,-0.860666
151,1.258333,jog,1.4360974438977696,1.2866914676587193,0.05328213128525189,0.8401322856628223,-0.3828038229899833,-0.6746793270430128,0.6549861994479839,0.9087963518540837,-0.2431297251890098,0.4411376455058258,0.5117004680187243,0.6421456858274384,2.3617889393362783,6.322105758345753,-13.724297921876458,-18.30386427985653,-14.415553221192901,-12.6874149728981,4.464357141428891,-7.906232485950156,-7.272581794907667,0.251147,0.177708,-0.881328,-0.333407,-0.21156599999999998,-0.855759,0.584554,0.389274,0.025568999999999953,0.5,0.24431000000000008,flight,-0.855759
152,1.266667,jog,1.4289656827453698,1.2075833933285265,0.005399568034552603,-0.14403419767260758,0.5476939664458044,-0.9223409313567604,0.5226781857451365,0.7994960403167671,-0.3521718262538962,0.4726421886249095,0.5965922726181832,0.7715382769378397,-0.8557428788576577,-9.49220954285964,-5.74544795424753,-15.875691589014444,-13.114988185423053,-13.084005407353681,3.7802427548696236,10.186201655802524,15.525868863738944,0.243594,0.174307,-0.884308,-0.341377,-0.21665800000000002,-0.849374,0.584971,0.390965,0.03493400000000002,0.5,0.15066000000000007,flight,-0.849374
153,1.275,jog,1.394575783031333,1.2078483139325673,-0.07332293291732074,0.17052309739337795,0.10428466026828616,-1.0550216895894586,0.40789631585263786,0.6995079803192192,-0.4498979959198412,0.5057002280091177,0.6060242409696442,0.8131525261010519,-4.12695304380621,0.03179174415466478,-9.447077997344781,-13.774375362114444,-11.99904716159232,-11.727609464292078,3.9671234110414693,1.1318814774344392,4.99390965597175,0.235372,0.17007099999999997,-0.887446,-0.34878400000000004,-0.221673,-0.8419869999999999,0.584156,0.391744,0.04545900000000003,0.5,0.045410000000000006,flight,-0.8419869999999999
154,1.283333,jog,1.4088563542541455,1.2575303012120285,-0.12312492499699429,0.27308666636019563,0.012260211219385657,-0.8708192086544296,0.28417136685466926,0.546741869674778,-0.5223808952358014,0.5631825273010892,0.6553462138485417,0.8417136685467262,1.7137370962213134,5.962076956613499,-5.976478108685068,-14.847587783267302,-18.332666583995987,-8.698295849749067,6.898151841110099,5.918873500407613,3.427474192448556,0.226,0.16414799999999996,-0.890773,-0.355831,-0.22669100000000003,-0.833947,0.581831,0.390839,0.05682600000000004,0.5,0.0,flight,-0.833947
155,1.291667,jog,1.3927285817134902,1.2013438924886195,-0.21022318214542945,0.06855159962754447,-0.016423725399087395,-0.8067227072962928,0.13030957523398373,0.5017998560115292,-0.6672666186705186,0.5545956323494244,0.8308135349172207,0.9158867290616942,-1.9351778906474124,-6.741829700433169,-10.450954781429903,-18.46193803943946,-5.392610230771496,-17.384896020484753,-1.0303449666024624,21.05439417670773,8.900055257375735,0.215479,0.15831800000000001,-0.894582,-0.36281599999999997,-0.229779,-0.824562,0.578295,0.388097,0.07001999999999997,0.5,0.0,flight,-0.824562
156,1.3,jog,1.4113764550581769,1.2398895955838025,-0.2907716308652372,0.3602460765734653,-0.8454277590988661,-0.711575473063753,0.037561502460097734,0.3039721588863494,-0.6908676347053759,0.6839073562942409,0.7501500060002276,0.8099123964958429,2.237834314734948,4.625669398197808,-9.666200494396538,-11.130213941423781,-23.740273265951803,-2.8322352135913715,15.518027594481486,-9.680010670465812,-12.717428605046138,0.20403100000000002,0.15051900000000001,-0.8979159999999999,-0.36887799999999993,-0.23386,-0.81539,0.572909,0.384379,0.08252599999999999,0.5,0.0,flight,-0.81539
157,1.308333,jog,1.3742949717988866,1.202448097923928,-0.35305412216488985,0.07934623224399998,-0.5580107156273033,-0.8141330141350114,-0.06660266410656486,0.27709108364334895,-0.661586463458544,0.6959078363134588,0.9972398895955977,0.8791551662066562,-4.449955989354449,-4.493159445562801,-7.474197923875339,-12.500199995999466,-3.22585806348262,3.5138811048640592,1.4401152069144294,29.651972110329098,8.309464743887432,0.192024,0.142808,-0.9004869999999999,-0.37453099999999995,-0.23556999999999997,-0.805122,0.5665549999999999,0.378378,0.09536499999999992,0.5,0.0,flight,-0.805122
158,1.316667,jog,1.353971682265407,1.1796256299495957,-0.46664266858649994,0.8185177827341827,-1.043488218791978,-0.7938247737085297,-0.011279097672186126,0.15826733861290984,-0.5022798176145873,0.9084473242140553,1.2506599472042093,0.9341252699783963,-2.4385996560450383,-2.738477078753554,-13.629535207776485,6.638296908372728,-14.257708786949628,19.115268279812273,25.50269833220481,30.407974275091142,6.59588478182621,0.180646,0.134296,-0.900784,-0.37824399999999997,-0.23497800000000002,-0.793448,0.55889,0.369274,0.10733599999999999,0.5,0.0,flight,-0.793448
159,1.325,jog,1.2871714868594877,1.1144845793831843,-0.5190207608304408,0.6042439255203987,-0.9078460590478863,-0.91235119898164,0.02028081123244947,0.12792511700468107,-0.2466098643945782,0.9021960878435249,1.3542541701668178,0.9807992319692861,-8.016344102474502,-7.81723875751974,-6.285622494172727,3.787340562178793,-3.6412122414771453,30.68162165126742,-0.7501783715985161,12.431804027674248,5.601099482886143,0.170089,0.126075,-0.898514,-0.38145199999999996,-0.23298000000000002,-0.78095,0.551541,0.359055,0.117564,0.5357426118531403,0.0,single,-0.78095
160,1.333333,jog,1.2464898595943594,1.168726749069942,-0.5367814712588482,1.1688870028991087,-1.2696801410997862,-0.7737206148780224,0.08460338413536392,0.2046081843273693,-0.22812912516500258,1.0424816992679524,1.5120604824192703,0.9963998559942229,-4.8819905514373625,6.509320735240214,-2.131370506229104,7.71901750904996,9.202336172169314,2.2177774186457797,16.83494676880176,18.9375149708928,1.8721497689831403,0.16040700000000002,0.11804100000000001,-0.895942,-0.38315199999999994,-0.23011900000000002,-0.7681739999999999,0.5435589999999999,0.34816,0.1277680000000001,0.5,0.0,flight,-0.7681739999999999
161,1.341667,jog,1.2239020878329985,1.0571154307655604,-0.608351331893449,1.0109925395797,-1.3993788085159675,-0.8007444805633922,0.15250779937605285,0.24874010079194203,-0.2380609551235946,1.1719462443004747,1.6823854091672994,0.9772018238541117,-2.710315786100478,-13.392286813580967,-8.587696260451423,8.147877998642937,5.295406343241369,-1.1917242570904971,15.53450264369147,20.43735622126618,-2.303579570447749,0.151478,0.111304,-0.8928560000000001,-0.38358499999999995,-0.22490800000000002,-0.7549600000000001,0.535063,0.336212,0.13789600000000002,0.5,0.0,flight,-0.7549600000000001
162,1.35,jog,1.1786871474858784,1.0052802112084303,-0.6267850714028558,0.6355808986457715,-1.51600313103232,-0.9679621336298773,0.11928477139085353,0.11640465618624525,-0.23376935077402666,1.311532461298425,1.8486739469578461,0.9355574222968752,-5.426009882049591,-6.220475165862139,-2.2121372266178354,-3.9869228351372548,-15.880888588226867,0.5150131224730421,16.751016080396955,19.95542275177533,-4.997528087991809,0.14265,0.103897,-0.889581,-0.382478,-0.21788000000000002,-0.741941,0.525128,0.32177700000000004,0.14764,0.5214982583657723,0.0,single,-0.741941
163,1.358333,jog,1.143645745829845,1.072002880115214,-0.6026641065642646,0.6665233308128043,-1.8551142798041356,-0.8411024712800441,0.06660266410656486,0.005280211208447005,-0.13032521300852196,1.4622584903396272,1.9499579983199522,0.8435137405496306,-4.205136404180216,8.007040550436134,2.8946315658936017,-6.322105758345032,-13.335466816008552,12.413793083584022,18.08784699882439,12.154572346346692,-11.045683637014939,0.133675,0.095008,-0.885645,-0.379823,-0.210564,-0.7298899999999999,0.513498,0.305572,0.1557550000000001,0.7559118064543614,0.0,single,-0.7298899999999999
164,1.366667,jog,1.1119510439164761,0.8740100791936594,-0.6565874730021587,0.07438043471297408,-1.257717040602508,-0.9588326325291955,0.045596352291816314,0.0638348932085434,-0.08723302135829049,1.5903527717782442,2.0334773218142383,0.750539956803448,-3.803059984805451,-23.757235531743827,-6.470286349639269,-2.5205557733079416,7.025999760030711,5.17064934608005,15.370084165900652,10.021517097946425,-11.155961572616016,0.12478800000000001,0.08825599999999999,-0.8809,-0.375836,-0.20090100000000002,-0.718163,0.5006240000000001,0.289157,0.16273700000000002,0.8044699444205747,0.0,single,-0.718163
165,1.375,jog,1.0999639985599534,1.03588143525742,-0.5934237369494807,0.6373675539447053,-1.9637130565662537,-1.0565257050284376,0.017040681627265245,0.11460458418336808,-0.05244209768390782,1.6452658106324403,2.144005760230428,0.6630265210608488,-1.4385029829020568,19.425339741241096,7.5799515243824045,-3.4268175524482576,6.092606621243868,4.17507784403972,6.589828255633814,13.263943167669572,-10.502032370406814,0.11576399999999999,0.08057899999999998,-0.876392,-0.371292,-0.19166700000000003,-0.707693,0.48705600000000004,0.272246,0.16869899999999993,0.7880332235437391,0.0,single,-0.707693
166,1.383333,jog,1.0896435857434386,1.0164406576263116,-0.5606624264970661,0.6893137910948969,-1.6955599039399092,-0.9121929833832517,0.031201248049922286,0.07224288971558993,-0.05148205928237162,1.7778711148446127,2.1789271570863074,0.5336613464538638,-1.2384990779449119,-2.332986635198425,3.931514514870382,1.6993359441566267,-5.083606680400641,0.11520921655300675,15.913273036382291,4.19073525211566,-15.524441930515568,0.10694400000000001,0.07271100000000001,-0.872149,-0.365557,-0.18197999999999998,-0.698574,0.472501,0.254691,0.17357499999999992,0.8432716839179863,0.0,single,-0.698574
167,1.391667,jog,1.1005519558435242,1.032997360211176,-0.5803935685145121,0.05320502940744648,-1.5183829971581988,-1.0010342937301118,0.0073194144468441795,0.053515718742500426,-0.02867770578353747,2.0424766018718326,2.285337173026141,0.47900167986560654,1.3088997000342601,1.9866453785534168,-2.3675476382824354,-2.8655907851065425,-2.247080750310698,2.736303515578831,31.75011843379144,12.76818045834329,-6.558635299766834,0.097833,0.06454800000000001,-0.867551,-0.357707,-0.17154299999999997,-0.689745,0.45554,0.236091,0.1778059999999999,0.8980752348628027,0.0,single,-0.689745
168,1.4,jog,1.0858034321372956,1.0333613344533885,-0.5576623064922596,-0.12177498182869878,-0.5714909664383742,-0.8882368549106086,-0.02736109444377799,0.04800192007680322,-0.022920916836673282,2.109444377775135,2.3752550102004304,0.3529341173646977,-1.7698936404930665,0.043678656211757566,2.7278605570926096,-4.161827539976298,-0.6616823071759578,0.6908423073160014,8.036454566579035,10.79057208379816,-15.128712648615144,0.08855700000000001,0.056337,-0.8630950000000001,-0.34917699999999996,-0.16036099999999998,-0.682157,0.43773399999999996,0.21669799999999997,0.18093800000000004,0.9003034848366911,0.0,single,-0.682157
169,1.408333,jog,1.1210848433937164,1.0301212048481752,-0.5450618024720949,0.12597204114513338,-0.449398755062048,-0.9449763903282546,-0.025561022440897186,0.048121924876994064,-0.022440897635905004,2.325933037321447,2.5114604584182865,0.27169086763470257,4.233938708318757,-0.38883110586983116,1.512120967258423,0.21601728103693407,0.014401152068983798,0.05760460827652349,25.97967833269027,16.345307598446382,-9.749579950797278,0.079002,0.048154,-0.85874,-0.339137,-0.148017,-0.675351,0.41813900000000004,0.19617100000000004,0.1833889999999999,0.9017842594534828,0.0,single,-0.675351
170,1.416667,jog,1.2025437964963035,1.0640748740100996,-0.4694024478041878,-0.4275224669158165,-0.5277400078082065,-0.6644199883231093,-0.007559395248380275,0.03551715862731104,-0.025317974562035446,2.2718982481401926,2.517158627309866,0.12682985361171376,9.774292428916326,4.074114370281388,9.078396288445953,2.160022461305166,-1.5124509538856803,-0.34522161340658714,-6.483656009269893,0.6837255689440485,-17.381931128268725,0.06891699999999999,0.039582000000000006,-0.855039,-0.330225,-0.135907,-0.6703819999999999,0.399142,0.175489,0.18465700000000007,0.9262208089898069,0.0,single,-0.6703819999999999
171,1.425,jog,1.2022080883235118,1.0678027121084661,-0.41605664226568306,-0.06258466133575002,-0.11812511618435745,-0.7768451359670723,-0.003600144005760177,0.006480259210368121,-0.02676107044281736,2.3382935317412326,2.5487819512780074,0.005280211208446865,-0.0402865921986931,0.4473584661426203,6.401752734729842,0.4751291542805747,-3.484567312725599,-0.17317843283113996,7.967752742234346,3.7949506742038674,-14.586540550013773,0.058869,0.030738,-0.851795,-0.320758,-0.123566,-0.666871,0.379627,0.154304,0.18492399999999998,0.9537185636104375,0.0,single,-0.666871
172,1.433333,jog,1.2004080163206636,1.045361814472588,-0.3734549381975317,-0.28224987296385934,0.23837183061494163,-0.6463971127459278,-0.012840513620544933,0.005280211208448671,-0.03228129125165017,2.452298091923697,2.6161046441857896,-0.10680427217088805,-0.21601728103302154,-2.693015436922872,5.112408984537589,-1.1088887093225537,-0.144011520691163,-0.6624529951797503,13.681094465674482,8.079046310786362,-13.450676032561615,0.048759000000000004,0.022071000000000007,-0.8489519999999999,-0.310326,-0.110477,-0.6646489999999999,0.359085,0.132548,0.184303,0.941432821446956,0.0,single,-0.6646489999999999
173,1.441667,jog,1.215022798176137,1.0767938564914736,-0.2958963282937304,-0.09838956398336238,0.16094812278956017,-0.5174687611650065,-0.006719462443004509,0.010559155267577417,-0.021118310535157333,2.527477801775842,2.677585793136529,-0.2380609551235899,1.7536335319742342,3.7715433188007403,9.306288685361258,0.7344673839141321,0.6334226132863818,1.3394505299367352,9.020843514776143,7.377147702272492,-15.749541990964827,0.038577,0.013184999999999988,-0.846662,-0.299388,-0.09713600000000001,-0.664167,0.33796499999999996,0.110321,0.18249500000000007,0.9590857952082419,0.0,single,-0.664167
174,1.45,jog,1.2142085683427446,1.0225609024361053,-0.22872914916596432,0.20582907187514862,0.4427829984776366,-0.48320987335730375,-0.008640345613824634,0.02184087363494579,-0.010560422416896508,2.6110644425777267,2.716788671546889,-0.35977439097563907,-0.09771148846662879,-6.508214815236867,8.060383910688433,-0.2305152011064614,1.3538603584985571,1.2669972540814738,10.030798128151396,4.704533590586863,-14.606196550108038,0.028387,0.004846000000000003,-0.844844,-0.287748,-0.08301799999999998,-0.665259,0.316135,0.08786399999999998,0.179585,0.9570788236968918,0.0,single,-0.665259
175,1.458333,jog,1.2361694467778497,1.029281171246832,-0.1245649825992998,9.323432483524164e-06,0.0622795963087459,-0.7240506568287329,-0.019080763230528885,0.020400816032641367,-0.005400216008640239,2.635665426617013,2.747749909996352,-0.448457938317527,2.635410828645709,0.8064645158678158,12.500199995999363,-1.2529002300136887,-0.17281382482952093,0.6192495389723004,2.9522361741612895,3.715497233824831,-10.64245137908153,0.017927,-0.0035609999999999947,-0.843851,-0.27608600000000005,-0.06869799999999998,-0.667958,0.294013,0.06513699999999999,0.17589299999999997,0.9525824940555485,0.0,single,-0.667958
176,1.466667,jog,1.178305735541179,1.0004799616030915,-0.12347012239021805,-0.10391270892739386,0.30069103527473573,-0.9321405762528768,-0.0143988480921529,0.013438924886009493,-0.00047996160307182706,2.7149028077754336,2.793976481881501,-0.5752339812815075,-6.943089901208515,-3.455868687753899,0.13137271527258962,0.5617848738152236,-0.8353601087871378,0.5903832980043803,9.507725121000947,5.546744886627096,-15.211908203021705,0.007987,-0.011786999999999999,-0.842826,-0.26328,-0.053751,-0.671723,0.271267,0.041964,0.171103,0.9671636257071046,0.0,single,-0.671723
177,1.475,jog,1.2808112324492755,0.8838353534141207,-0.10140405616224288,0.2806797615465353,1.8847391830190394,-1.7751340226375094,-0.018000720028800835,0.006120244809791744,-0.0032401296051840604,2.9723988959557843,2.880835233409286,-0.6223448937957404,12.301151675038367,-13.99791289919222,2.6480338687117233,-0.4322419220746275,-0.8782767402157232,-0.3312334095898458,30.90076661230604,10.42346712201887,-5.653535643133579,-0.002836,-0.019101,-0.842008,-0.24918400000000002,-0.03711,-0.676064,0.246348,0.018008999999999997,0.16594399999999998,0.9678552856450774,0.0,single,-0.676064
178,1.483333,jog,1.1118444737789615,1.0183607344293866,-0.005040201608062748,0.4188485067972104,-0.13892711658674836,-0.29684037428939547,-0.015240609624385115,0.00960038401536031,-0.011160446417857153,2.8724348973959235,2.8330733229329437,-0.7436697467898794,-20.276822113322407,16.143691469490836,11.564125111506181,0.33122649758979295,0.417633410004632,-0.9504760365622422,-11.996159673570352,-5.731658523502064,-14.559564741886486,-0.012228000000000001,-0.027507000000000004,-0.842059,-0.234513,-0.021987999999999994,-0.682219,0.22228499999999998,0.00551900000000001,0.15983999999999998,0.9646840011384852,0.0,single,-0.682219
179,1.491667,jog,1.1748260139188773,1.0803935685145112,0.11747060235180522,-0.9507344726162318,1.1997898759370977,-0.6842395770543618,-0.007439404847612136,0.01667866570674336,0.0031197504199665846,2.9000479961602847,2.877249820014376,-0.8266138708903232,7.557180242370456,7.443344622645085,14.7001204655468,0.9360696876377393,0.8493258568974078,1.7134865416155063,3.3133067871803497,5.300755589324681,-9.95249869215781,-0.022081,-0.03637200000000001,-0.843012,-0.220135,-0.007013000000000005,-0.690087,0.198054,0.029359000000000003,0.15292499999999998,0.9691214081294511,0.0,single,-0.690087
180,1.5,jog,1.1897275891035752,1.0486019440777725,0.19680787231489139,-0.13672372332464003,0.9103382567885877,-0.871957258887054,-0.006480259210368469,0.02808112324493149,0.012240489619584646,3.0594023760950706,2.8623544941797934,-0.8846753870154874,1.7882605525858706,-3.815147538310207,9.520853229699615,0.11510208055246324,1.3683496385681309,1.0945324852535874,19.12329052379543,-1.7875106005739427,-6.967660641445424,-0.032049,-0.044876,-0.8445499999999999,-0.20455500000000001,0.008100999999999997,-0.6990989999999999,0.17250600000000002,0.052976999999999996,0.145451,0.9478151568338895,0.0,single,-0.6990989999999999
181,1.508333,jog,1.2806912276491178,1.1473658946357959,0.3726149045961902,-0.407884471988533,0.24874540893483812,-0.3836796374437993,-0.020160806432257483,0.013200528021120844,0.026761070442818075,3.1398055922237167,2.9793591743670023,-0.8544341773671044,10.916073268395944,11.852148152889024,21.0976877812673,-1.641731335880132,-1.7857428565715567,1.742539400364042,9.648771886313073,14.041123267395891,3.629090321418857,-0.042889000000000004,-0.054327,-0.847432,-0.189063,0.023367,-0.709324,0.14617400000000003,0.077694,0.138108,0.9399799351308984,0.0,single,-0.709324
182,1.516667,jog,1.3413726901847751,1.2652987760979024,0.40136789056875655,1.673204704181529,-0.6487911091674791,-0.5474227800209243,-0.013558915286776945,0.023038156947443756,0.03827693784497209,3.1877849772018005,2.9840412766978415,-0.8687305015598682,7.281193008838115,14.150813710355852,3.450082310123128,0.7921635643725087,1.1804210374757425,1.3817935447748892,5.757065632119448,0.5618073351138919,-1.7154216693980948,-0.054181,-0.06468,-0.850458,-0.17367500000000002,0.037691,-0.719909,0.119494,0.10237099999999999,0.13054900000000003,0.922187461198994,0.0,single,-0.719909
183,1.525,jog,1.3504140165606746,1.2036481459258481,0.48949957998319704,-0.055477286694353777,0.7203700844084596,-0.23031747247433287,-0.009840393615744725,0.03828153126125078,0.02892115684627431,3.102724108964387,2.935077403096151,-0.9842793711748544,1.0850025652105577,-7.398371555508804,10.576225778764107,0.4462404501418762,1.8292780887804105,-1.1227386293889192,-10.207712496989584,-5.875899868197657,-13.866419010558896,-0.065516,-0.074391,-0.8542959999999999,-0.15907300000000002,0.052119,-0.7321899999999999,0.093557,0.12651,0.12210600000000005,0.918371738698031,0.0,single,-0.7321899999999999
184,1.533333,jog,1.3490939637585269,1.1881675267010472,0.35641425657025994,-1.116653320914953,0.9449354668506368,-0.38505566198557306,-0.0022800912036481094,0.06216248649945944,0.05772230889235454,3.5114604584182763,2.866434657386246,-0.9529581183247168,-0.1584126727646382,-1.8577486169207558,-15.970877644657959,0.9072725803547922,2.8658292617554597,3.4562764965894304,49.050323947423735,-8.237458983547802,3.7587006900440536,-0.076777,-0.08377399999999999,-0.856785,-0.141054,0.06610400000000001,-0.743101,0.064277,0.149878,0.11368400000000001,0.85856648118917,0.0,single,-0.743101
185,1.541667,jog,1.2884569234461485,1.2362610991120948,0.5241180705543702,0.5371534314297717,1.5698387227520485,-0.06699131603003915,-0.016918646508279653,0.06923446124310118,0.12023038156947707,3.2481401487881585,2.873050155987575,-0.9948404127669968,-7.275862768464067,5.770767027963586,20.122847850265593,-1.7564861176664053,0.8485690837103272,7.5003686917595065,-31.595909482856104,0.7937963284532369,-5.025473295210076,-0.087656,-0.0935,-0.860151,-0.124722,0.079745,-0.75576,0.037065999999999995,0.17324499999999998,0.10439100000000001,0.7670539173277987,0.0,single,-0.75576
186,1.55,jog,1.3715348613944311,1.2266890675626814,0.5538221528860967,0.203556770423777,1.1349965435398521,-0.06942119076611511,-0.021360854434177005,0.06156246249849881,0.11088443537741247,3.53990159606378,3.0722428897155365,-0.8046321852873994,9.969751343847499,-1.1486897335189334,3.564632465105722,-0.5330862745586552,-0.9206766764193245,-1.1215584053839487,35.01277418404134,23.904084210723394,22.825900333564622,-0.09926299999999999,-0.103209,-0.863842,-0.106653,0.09512400000000001,-0.76708,0.007389999999999999,0.198333,0.09676200000000001,0.7856432043686357,0.0,single,-0.76708
187,1.558333,jog,1.3345733829353303,1.2560902436097556,0.6211448457938458,0.4214910266356791,1.3371789330798158,0.0069872441781568,-0.020880835233409514,0.03288131525260998,0.1952478099123987,3.570982839313605,3.00264010560425,-0.8593543741749733,-4.435554837285628,3.5282822569392214,8.079046310782392,0.05760460827643052,-3.4418753445204717,10.124009904594626,3.7298983859144808,-8.352668200082434,-6.566925343522663,-0.110558,-0.113402,-0.867391,-0.088017,0.109678,-0.779417,0.022541000000000002,0.22308,0.087974,0.6681746717507735,0.0,single,-0.779417
188,1.566667,jog,1.3282937365010694,1.2453803695704249,0.6460283177345696,0.2215830371346441,1.5313554464245436,0.03232915487809229,0.022678185745140206,0.03251739860811199,0.2734581233501295,3.4830813534916945,2.93988480921524,-0.9090472762178956,-0.75349729232792,-1.2850820781534302,2.985777770665183,5.2266643842751845,-0.04366650401943757,9.384486853579334,-10.547334511868256,-7.530033164028061,-5.962671231452116,-0.121439,-0.12351,-0.8704959999999999,-0.070059,0.1238,-0.792377,0.05138,0.24730999999999997,0.07811899999999994,0.5394718414113332,0.0,single,-0.792377
189,1.575,jog,1.4264970598824078,1.3355334213368657,0.5023400936037515,0.3712726892569772,0.8755202028401614,-0.21149159847605814,0.038881555262210855,0.09960398415936697,0.273130925237012,3.54086163446541,2.906516260650455,-0.8107524300972111,11.78487020056874,10.818798963931556,-17.243276626763393,1.944482121333349,8.050712294642459,-0.03926534418786648,6.933911073288863,-4.004386003214364,11.795853368616994,-0.13300199999999998,-0.133809,-0.872406,-0.05244,0.136891,-0.803319,0.080562,0.2707,0.06908700000000001,0.5111429676137578,0.0,single,-0.803319
190,1.583333,jog,1.3441737669506564,1.2635305412216264,0.849753990159592,0.9983280614638536,0.5362299538542717,-0.21785730644022014,0.11688467538701344,0.06072242889715393,0.42433697347893223,3.7745109804391523,3.0241209648385405,-0.6176647065882542,-9.879190319422777,-8.640691241478219,41.69133524010972,9.360748844929944,-4.665973270396299,18.145451607094394,28.03904307857173,14.113129027731143,23.17145367922159,-0.14322900000000002,-0.14383200000000002,-0.875951,-0.03218800000000001,0.15156200000000003,-0.815547,0.111041,0.29539400000000005,0.06040400000000001,0.5,0.0,flight,-0.815547
191,1.591667,jog,1.3896088312935206,1.3225341972642446,0.5410367170626436,-0.8176787097665753,1.2227513982645977,-0.5909086047324226,0.13702903767698846,0.1267098632109457,0.35373170146388955,3.6155507559395943,2.930405567554651,-0.7531797456203636,5.4517715794174615,7.079872335327486,-37.04310932288868,2.4171301043886966,7.917858688960048,-8.47195488541445,-19.073701043863817,-11.244948078220677,-16.26050384354595,-0.153668,-0.153798,-0.877512,-0.013636999999999982,0.164962,-0.826333,0.14003100000000002,0.31876000000000004,0.051178999999999975,0.5,0.0,flight,-0.826333
