frame_id,timestamp,gait_type,root_linear_velocity_x,root_linear_velocity_y,root_linear_velocity_z,root_angular_velocity_x,root_angular_velocity_y,root_angular_velocity_z,left_linear_velocity_x,left_linear_velocity_y,left_linear_velocity_z,right_linear_velocity_x,right_linear_velocity_y,right_linear_velocity_z,root_acceleration_x,root_acceleration_y,root_acceleration_z,left_acceleration_x,left_acceleration_y,left_acceleration_z,right_acceleration_x,right_acceleration_y,right_acceleration_z,left_pos_rel_x,left_pos_rel_y,left_pos_rel_z,right_pos_rel_x,right_pos_rel_y,right_pos_rel_z,step_length,step_width,step_height,left_contact_prob,right_contact_prob,support_type,max_foot_height
<<<<<<< HEAD
1,0.008333,jog,-0.07140285611425935,0.11304452178087104,-0.012480499219967956,0.04892457722306663,-0.12397643030198692,0.20860958727725723,0.012960518420736467,-0.00792031681268709,0.023880955238209264,0.0039601584063568675,0.0006000240009639692,0.006000240009600556,0.0,0.0,0.0,0.0,0.0,0.0,0.0,0.0,0.0,0.05114500000000022,0.10247699999999993,-0.903325,0.008942000000000005,-0.16625099999999993,-0.90678,0.04220300000000021,0.26872799999999986,0.003454999999999986,0.9182799035629523,0.9879762083561633,double,-0.903325
=======
1,0.008333,stand,-0.07140285611425935,0.11304452178087104,-0.012480499219967956,0.04892457722306663,-0.12397643030198692,0.20860958727725723,0.012960518420736467,-0.00792031681268709,0.023880955238209264,0.0039601584063568675,0.0006000240009639692,0.006000240009600556,0.0,0.0,0.0,0.0,0.0,0.0,0.0,0.0,0.0,0.05114500000000022,0.10247699999999993,-0.903325,0.008942000000000005,-0.16625099999999993,-0.90678,0.04220300000000021,0.26872799999999986,0.003454999999999986,0.9182799035629523,0.9879762083561633,double,-0.903325
>>>>>>> 3b0d06690e55fb02323d988053aa126fb7c3a6e7
2,0.016667,jog,-0.07703383729302032,0.11663066954643302,-0.014518838492925094,0.001240682106801153,-0.08578857393559867,0.24788640089707445,0.01931845452362079,-0.009239260859117195,0.029517638588912428,0.0032397408207608938,0.00251979841613256,0.0055195584353248655,-0.675663688356248,0.4303033076028285,-0.24458114626315547,0.7628913010420354,-0.15826062472163488,0.6763478942528394,-0.08644319481593156,0.23035450146011408,-0.05767717473910373,0.051948000000000105,0.10142800000000007,-0.9029579999999999,0.009611000000000258,-0.16720199999999985,-0.906613,0.04233699999999985,0.2686299999999999,0.003655000000000075,0.9026713118887314,0.9885361885865158,double,-0.9029579999999999
3,0.025,jog,-0.07860314412574705,0.1308052322092926,-0.017040681627262147,-0.07568079803351317,-0.0720566381343067,0.18717656272633212,0.014280571222819895,-0.013200528021127384,0.03696147845913869,0.0046801872074496795,0.001080043201719157,0.006480259210368234,-0.18832435290132332,1.7010155601655572,-0.30263328145170443,-0.6045701789032637,-0.47537107428419406,0.893296516287803,0.17286048082188715,-0.1727775368310816,0.11528870455338631,0.052721999999999714,0.10022799999999998,-0.902508,0.010304999999999787,-0.16828299999999996,-0.906417,0.04241699999999993,0.26851099999999994,0.003909000000000051,0.8913011814260903,0.9865562483485286,double,-0.902508
4,0.033333,jog,-0.08520340813632406,0.13872554902195305,-0.007560302412100714,-0.10771814200903773,-0.0382146273780331,0.23500544536074872,0.015480619224801127,-0.012480499219954633,0.03528141125645057,0.005280211208440295,0.003240129605184117,0.005640225609025005,-0.7920633638037928,0.9504760365607163,1.1376910134599103,0.14401152069857573,0.08640691241722677,-0.20161612896773354,0.07200576034928786,0.259220737245285,-0.10080806448376674,0.05356099999999997,0.09896800000000017,-0.9021509999999999,0.011058999999999708,-0.1694119999999999,-0.906307,0.04250200000000026,0.26838000000000006,0.0041560000000000485,0.8909412260891321,0.9860366337247911,double,-0.9021509999999999
5,0.041667,jog,-0.09395248380129326,0.13282937365013092,-0.015958723302128473,-0.10784591866030441,-0.09595898562981961,0.24815227095301418,0.015358771298311494,-0.01067914566834722,0.0309575233981283,0.005519558435350676,0.004679625629937631,0.0062395008399323834,-1.0498050953886728,-0.7074844458629868,-1.0077298884122579,-0.014620581532233362,0.21614513458212295,-0.5188250369957126,0.02871936967967125,0.1727257049140286,0.07190727512687521,0.054472000000000076,0.09777199999999997,-0.90176,0.011887999999999899,-0.1704800000000002,-0.906122,0.04258400000000018,0.26825200000000016,0.004361999999999977,0.8960958519328561,0.9840751947431114,double,-0.90176
6,0.05,jog,-0.16920676827074682,0.11172446897873432,-0.011280451218053341,0.1395503721369029,0.031728919608769876,-0.26598079958345644,0.016800672026884553,-0.019440777631104703,0.027001080043201252,0.005640225609013348,0.006360254410186099,0.004800192007680112,-9.030875371349282,-2.5326898681623184,0.5614151066932834,0.17303500882912023,-1.0514378930466197,-0.47479219427901675,0.014480640065123297,0.20168352097065492,-0.17272396882902577,0.05602200000000024,0.09667900000000018,-0.9014409999999999,0.01334499999999994,-0.1713579999999999,-0.905988,0.0426770000000003,0.2680370000000001,0.004547000000000079,0.8924085969305005,0.9837291309737091,double,-0.9014409999999999
7,0.058333,jog,-0.10740429617183105,0.14208568342734595,-0.00516020640825816,-0.07799810160240866,-0.126941128501093,0.014826263886549722,0.0180007200287592,-0.03276131045244087,0.03312132485299393,0.0060002400095864,0.005640225609013348,0.0038401536061447553,7.416593315602517,3.6434914734923356,0.7344587555256428,0.14401152068578524,-1.5985278796755273,0.7344587555253428,0.0432034562070145,-0.08640691241722677,-0.11520921655290489,0.05706699999999976,0.09522199999999992,-0.901122,0.014289999999999692,-0.17249500000000006,-0.905913,0.042777000000000065,0.267717,0.00479099999999999,0.868850860833037,0.984856078886233,double,-0.901122
8,0.066667,jog,-0.12491000719943239,0.12586993040557684,-0.0013198944084453137,-0.19589823618188273,-0.15549943044605047,-0.010323102832760554,0.020158387329007193,-0.028077753779679075,0.019318454523638277,0.007079433645338767,0.006119510439167655,0.004559635229181229,-2.1005172819296067,-1.9457347038359865,0.46080057593146706,0.2588993640806325,0.5619818421840407,-1.656211942567273,0.12949287686013525,0.057509578852208684,0.08633088829331337,0.05827599999999977,0.093939,-0.90095,0.015390000000000015,-0.17349300000000012,-0.905864,0.04288599999999976,0.2674320000000001,0.004913999999999974,0.8848649765722941,0.982650883613837,double,-0.90095
9,0.075,jog,-0.13020520820832876,0.11196447857912534,0.005400216008649082,-0.26455124029646937,-0.06559685446170475,-0.03341741053238555,0.022920916836679756,-0.023640945637825858,0.030841233649346034,0.005880235209377623,0.010200408016334194,0.0044401776071045645,-0.6354495390491268,-1.6687209680129023,0.8064455078716429,0.3315168015927716,0.5324382745533687,1.3827888066371974,-0.14390956869808536,0.4897272983519191,-0.014335488068722486,0.05955199999999983,0.09280900000000014,-0.900738,0.01652399999999976,-0.17434099999999986,-0.905872,0.043028000000000066,0.26715,0.005133999999999972,0.8734668333427871,0.9790277520014921,double,-0.900738
10,0.083333,jog,-0.12468498739949734,0.12876515060603633,0.0013200528021100728,-0.18589517171352757,-0.12020710002035688,-0.1504633001111147,0.0200408016320953,-0.02208088323532483,0.018240729629185076,0.02688107524303658,-0.02172086883475178,-0.057002280091203984,0.6624529951795776,2.0161612896809045,-0.4896391703514948,-0.3456276496561207,0.187214976899199,-1.512120967258004,2.520201612103557,-3.830706450388329,-7.373389859391395,0.06075800000000009,0.09155200000000008,-0.9005970000000001,0.017786999999999997,-0.17559499999999995,-0.906358,0.04297100000000009,0.267147,0.005760999999999905,0.8841299662453355,0.8888988413307449,double,-0.9005970000000001
11,0.091667,jog,-0.1342692584593344,0.11267098632109716,-0.007439404847612976,-0.23964778939423947,-0.008313673754053464,-0.14706115074273018,0.01931845452362081,-0.024358051355912576,0.021358291336692793,0.009479241660659981,0.01043916486680445,-0.005279577633788752,-1.1500205255384062,-1.931145222574895,-1.0510508339000544,-0.08667471903941588,-0.2732383154052971,0.3740774787026301,-2.0880529856463417,3.858895332560145,6.206227796666099,0.06203800000000004,0.09040999999999988,-0.9003570000000001,0.01898500000000003,-0.17644700000000002,-0.90634,0.04305300000000001,0.2668569999999999,0.005982999999999961,0.8773056407311582,0.9749053942511366,double,-0.9003570000000001
12,0.1,jog,-0.12624504980197168,0.10380415216607379,0.02028081123244625,-0.2213867779764468,-0.07310546477057207,-0.12277802949164497,0.022440897635897884,-0.018000720028785833,0.015120604824193088,0.00840033601344227,0.016320652826102705,-0.0037201488059526245,0.9629435566257912,-1.0640626611092483,3.326558991966783,0.3747081617997207,0.7629102756662351,-0.7485523235929077,-0.1294738566203901,0.7058067873872855,0.18713894489813107,0.0632769999999998,0.08939500000000011,-0.9004,0.020106999999999875,-0.177176,-0.90654,0.04316999999999993,0.2665710000000001,0.006140000000000034,0.8844332692690382,0.9687852927760656,double,-0.9004
13,0.108333,jog,-0.12132485299413129,0.13380535221408593,0.002880115204611067,-0.07395955612225781,-0.24662816505287055,-0.25314351042984795,0.03288131525262303,-0.03672146885877112,0.010320412816512997,0.00804032161286923,0.020520820832850523,-0.003000120004799864,0.5904472348302409,3.600288017282151,-2.0881670500222245,1.2529002300162189,-2.2465797227871476,-0.576046082764922,-0.04320345620701297,0.5040403224226355,0.08640691241482794,0.06456200000000001,0.087974,-0.9003380000000001,0.02118500000000001,-0.17811999999999983,-0.906589,0.043377,0.26609399999999983,0.0062509999999998955,0.8535561952523278,0.962928313464334,double,-0.9003380000000001
14,0.116667,jog,-0.12706983441323735,0.11699064074876041,0.010919126469876667,-0.06061047324044371,-0.4017579088843744,-0.16216732555678895,0.022318214542812246,-0.008519318454515498,0.008399328053755765,0.006359491240683785,0.02147828173745249,-0.001679865610751153,-0.6893426228828966,-2.017603967521659,0.9646041834971912,-1.2674706875222908,3.383987329524309,-0.23051173059242028,-0.20168350998145482,0.11488611766282285,0.15841785385753654,0.06580699999999973,0.0869279999999999,-0.900359,0.02229699999999979,-0.17891600000000007,-0.906694,0.04350999999999994,0.26584399999999997,0.0063349999999999795,0.8944457940792938,0.9625618412243492,double,-0.900359
15,0.125,jog,-0.12348493939759625,0.12060482419295854,-0.024840993639740475,-0.27786308808592447,-0.10104023152284036,-0.12751242221662076,0.02136085443417876,-0.0002400096003909172,0.009000360014400424,0.003120124805001984,0.02544101764071777,0.003600144005760503,0.4302046100613353,0.43371936207825906,-4.291386068596804,-0.11488780854836023,0.9935568047671413,0.07212672034617304,-0.3887395218626909,0.4755473302850455,0.6336264990413609,0.06701399999999991,0.08592099999999991,-0.900077,0.02335200000000004,-0.1797089999999999,-0.9064570000000001,0.04366199999999987,0.2656299999999998,0.006380000000000052,0.8975653082222125,0.9568612833647754,double,-0.900077
16,0.133333,jog,-0.12312492499699634,0.14424576983078416,-0.020520820832837166,-0.07930036586742856,-0.38202256734565665,-0.2098278536504932,0.02016080643230408,0.03372134885397786,-0.0019200768030723761,-0.003960158406303572,0.02664106564261902,0.022200888035521123,0.043203456210237114,2.8370269576173768,0.5184414744873761,-0.14401152068578887,4.075526035565672,-1.3105048382902664,-0.849667972075549,0.14401152068897727,2.232178570714101,0.06820800000000027,0.08500000000000019,-0.899922,0.024345000000000283,-0.18068899999999988,-0.906101,0.043862999999999985,0.26568900000000006,0.006179000000000046,0.8726509896975294,0.9418262023773423,double,-0.899922
17,0.141667,jog,-0.11639068874489053,0.11579073674107354,-0.020998320134393646,-0.11094997807714098,-0.22382846234883166,-0.1114488572166448,0.027717782577378298,0.017398608111331898,-0.004799616030717358,-0.02075833933287751,0.041396688264943665,0.03863690904727582,0.808043706756159,-3.414330824299338,-0.057295332560172975,0.9067645962412089,-1.9585722033412527,-0.34551706595212245,-2.0156204615519533,1.770533072033199,1.9721647482307099,0.06940900000000005,0.08417999999999992,-0.899787,0.025141999999999998,-0.18130899999999994,-0.905604,0.044267000000000056,0.26548899999999986,0.005816999999999961,0.8867032936958249,0.8994818259675937,double,-0.899787
18,0.15,jog,-0.11700468018720117,0.12876515060600968,-0.02100084003359235,0.06082771654108775,-0.2786333531098389,-0.11979387125199588,0.026161046441837185,0.021360854434178726,-0.008040321612864222,-0.029041161646474894,0.03444137765509732,0.039841593663747225,-0.07368192035409099,1.5569919434700743,-0.0003023999998445356,-0.18681580889728924,0.4754885782847504,-0.38890022586665807,-0.9939784367691559,-0.8346706600079612,0.1445679366940364,0.07060199999999983,0.08328500000000005,-0.899679,0.02587499999999987,-0.1820949999999999,-0.905097,0.04472699999999996,0.26537999999999995,0.005418000000000034,0.8879568178677679,0.8997648577063682,double,-0.899679
19,0.158333,jog,-0.1222848913956681,0.12804512180489022,-0.0396015840633688,-0.05798215572746105,-0.24516648808354558,-0.09521867302455145,0.018480739229594312,0.024480979239180706,-0.010320412816512982,-0.041761670466793785,0.014760590423628364,0.06504260170406821,-0.633650691043673,-0.08640691241083157,-2.2321785707160005,-0.9216737324184407,0.3744299537983892,-0.2736218893134234,-1.5265221193230385,-2.3617889393338456,3.0242419345158966,0.07177500000000014,0.082422,-0.899435,0.02654600000000018,-0.18303899999999995,-0.904225,0.045228999999999964,0.26546099999999995,0.004789999999999961,0.8981615837869832,0.868846440868122,double,-0.899435
20,0.166667,jog,-0.12682985361169458,0.10799136069113272,-0.06215502759779433,-0.03647683233160626,-0.1818742976339475,-0.012651643496569057,0.021718262538995267,0.017158627309815707,-0.017158627309814874,-0.07007439404851949,0.04583633309333838,0.0674346052315814,-0.5453518377761543,-2.406258832944263,-2.7061967283927895,0.388471719390563,-0.8786119425683936,-0.8205200975884193,-3.3972550494031295,3.72879081709983,0.2870174619046301,0.073013,0.0816650000000001,-0.89906,0.027018999999999682,-0.18355699999999997,-0.903145,0.04599400000000031,0.26522200000000007,0.004085000000000005,0.904873958886412,0.8208134420696789,double,-0.89906
21,0.175,jog,-0.13788551542062516,0.10548421936878391,-0.06792271690867116,-0.0791049790436644,-0.1014488525842687,0.047565754903092124,0.06228249129961783,0.029041161646448342,-0.03792151686067497,-0.05904236169446036,0.020280811232459638,0.07776311052442067,-1.326732486371128,-0.300868993441595,-0.6921504033213542,4.8679021673614145,1.4259611588422734,-2.4916464119596964,1.3238968383606338,-3.066785294717245,1.2394702139492733,0.07468099999999978,0.08102799999999988,-0.89881,0.027675999999999812,-0.18426699999999996,-0.901931,0.047004999999999963,0.26529499999999984,0.0031210000000000404,0.837974828932865,0.8337972027149144,double,-0.89881
22,0.183333,jog,-0.14712588503539523,0.10248409936396372,-0.08124324972999378,-0.06938956278986981,0.07020787242309426,0.07701301648218312,0.025921036841472914,0.02496099843993589,-0.0346813872554899,-0.075483019320745,0.06300252010079038,0.11556462258490313,-1.1088887093207798,-0.3600288017304923,-1.5985278796738998,-4.363549076940465,-0.4896391703483076,0.3888311058664427,-1.9729578334674938,5.126810136605149,4.536362901773963,0.07612299999999972,0.08038199999999995,-0.8984219999999999,0.028272999999999993,-0.18459599999999998,-0.900291,0.047849999999999726,0.26497799999999994,0.0018690000000000095,0.8980141715059988,0.747115607561602,double,-0.8984219999999999
23,0.191667,jog,-0.2023038156947534,0.07643388528917663,-0.06707463402927473,0.22725816830394244,0.19052072250516122,0.34315947342815933,-0.003119750419922894,0.013678905687565324,-0.03779697624190095,-0.09719222462202744,0.10115190784739002,0.14746820254379647,-6.620822013361905,-3.125775626924293,1.7000978762561836,-3.4846157021113244,-1.3537428308579982,-0.37384077110763647,-2.6048962444543338,4.577560324765971,3.828123345199581,0.07778300000000016,0.07985900000000012,-0.898178,0.02914900000000009,-0.18438999999999983,-0.8985029999999999,0.048634000000000066,0.26424899999999996,0.0003249999999999087,0.9295550779753671,0.6607815037568636,double,-0.898178
24,0.2,jog,-0.18600744029760458,0.0814832593303847,-0.08676347053882498,0.09180043505655634,0.35955613641441536,0.22130612456055992,0.028801152046057328,0.03192127685105931,-0.046441857674306745,-0.08340333613345872,0.10680427217086699,0.14508580343213737,1.9556432733887918,0.6059491229098831,-2.3627548913416816,3.8306615223785183,2.189172106503537,-1.0374272689794541,1.6547328079405617,0.6783108512512864,-0.28589932937226736,0.0795729999999999,0.0794459999999999,-0.8978419999999999,0.03000399999999992,-0.1841790000000001,-0.896571,0.049568999999999974,0.263625,0.001270999999999911,0.8945206652779975,0.6564108705513609,double,-0.896571
25,0.208333,jog,-0.19356774270971927,0.0800432017280661,-0.07980319212767518,0.21321592991380356,0.3666270858588763,0.19774305981688448,0.01404056162245566,-0.004560182407294202,-0.01404056162246482,-0.11868474738988469,0.2031681267250895,0.2293291731669276,-0.9072725803569799,-0.17281382483122476,0.8352668200107779,-1.7713417045003845,-4.377950229011593,3.8883110586633878,-4.233938708319458,11.564125111511188,10.109608752524956,0.0813029999999999,0.07874099999999995,-0.897294,0.0306280000000001,-0.1831529999999999,-0.8939950000000001,0.050674999999999804,0.26189399999999985,0.003298999999999941,0.9660445551356879,0.46701,single,-0.8939950000000001
26,0.216667,jog,-0.21538276937844844,0.09467242620589487,-0.06503479721622774,0.021658764021374982,0.6486569721543068,0.1689677935261358,0.00299976001919147,0.007679385649155741,-0.023998080153587543,-0.13270938324934609,0.2398608111350924,0.25593952483801224,-2.617593792744078,1.7553665080188094,1.7720656241237622,-1.3247902091749675,1.4686306763198862,-1.1948066392035894,-1.6828216774011742,4.402769907607735,3.1929867615892262,0.08312299999999984,0.07801600000000009,-0.896952,0.03131700000000004,-0.18194299999999997,-0.89132,0.0518059999999998,0.25995900000000005,0.00563199999999997,0.9577087027871898,0.44368,single,-0.89132
27,0.225,jog,-0.22524900996038702,0.09216368654747405,-0.055922236889471504,0.17585922094611134,0.44811714540788555,0.15469259202619015,0.0008400336013548856,0.00252010080403801,-0.012360494419776652,-0.16188647545902357,0.2758910356414315,0.2926917076683061,-1.1839962296818158,-0.30106080144255676,1.0935509812499968,-0.2591775372418796,-0.6191389469720061,1.3965661507033338,-3.5013911208061277,4.323799892756403,4.410438357169546,0.08500699999999983,0.07726900000000003,-0.8965890000000001,0.0318449999999999,-0.18041200000000002,-0.8884150000000001,0.05316199999999993,0.25768100000000005,0.008174000000000015,0.9789287988256188,0.4182600000000001,single,-0.8884150000000001
28,0.233333,jog,-0.33013320532823326,0.12180487219488627,-0.10368414736590498,-0.2773736286817759,0.14376161739225685,0.37616761840626955,0.007200288011514332,0.003960158406330218,-0.016560662426496953,-0.2222488899555938,0.32725309012359555,0.32113284531381203,-12.586606908417874,3.5570845610719064,-5.7316585235129525,0.7632610596615194,0.1728138248280579,-0.5040403224193324,-7.243779490768053,6.163693085583101,3.4130730403823244,0.08781799999999995,0.076287,-0.895863,0.032744000000000106,-0.17870000000000008,-0.884875,0.055073999999999845,0.2549870000000001,0.010987999999999998,0.9691877305257046,0.3901200000000001,single,-0.884875
29,0.241667,jog,-0.2546196304295611,0.07367410607150154,-0.04451643868489322,-0.04711969506595885,1.3733807453409697,-0.016908400190047718,0.004559635229179576,0.002399808015347855,-0.015478761699064605,-0.27177825773937686,0.3422126229901708,0.3363330933525326,9.06090411551144,-5.775229916412868,7.099557077155255,-0.3168529856413202,-0.18722706875238376,0.1298177018757319,-5.9430486901587685,1.7950003439615176,1.8238838539381557,0.08997799999999989,0.07569300000000001,-0.895621,0.0326010000000001,-0.1764619999999999,-0.8817010000000001,0.05737699999999979,0.2521549999999999,0.013919999999999932,0.9728102646170506,0.36080000000000007,single,-0.8817010000000001
30,0.25,jog,-0.2979719188767564,0.07428297131887036,-0.024480979239180706,-0.3270689452160422,1.73211232575401,-0.06309110166836393,0.003840153606148083,0.004200168006721135,-0.014040561622464772,-0.3250930037201572,0.41353654146166535,0.36949477979119283,-5.20248271297195,0.0730667523543525,2.4043513075378007,-0.08634124841371561,0.2160518410384349,0.17259091282849295,-6.398025438711184,8.559212585082742,3.9795615551014296,0.09249299999999994,0.07510899999999987,-0.8955339999999999,0.03237500000000004,-0.17363499999999998,-0.8784179999999999,0.060117999999999894,0.24874399999999985,0.01711600000000002,0.9747498315914458,0.3288399999999999,single,-0.8784179999999999
31,0.258333,jog,-0.2874114964598501,0.08940357614304542,0.02244089763591128,-0.11070867334007846,0.7871263553880502,-0.01849303889953193,0.0009600384015636704,0.00540021600864909,-0.01644065762630488,-0.4310572422896974,0.5541821672866941,0.3589343573742951,1.2673013820840426,1.8145451607074397,5.630850459029413,-0.34562764965611664,0.14401152069218273,-0.288023041382469,-12.716217277035934,16.878150225012494,-1.2673013820830168,0.09489600000000009,0.07440899999999995,-0.895858,0.031177999999999928,-0.16976199999999997,-0.875614,0.06371800000000016,0.24417099999999992,0.02024400000000004,0.9711142465979274,0.29756000000000005,single,-0.875614
32,0.266667,jog,-0.2982961363090936,0.09011279097671532,0.01991840652747772,-0.08695589074162863,0.5414578893869072,-0.10831032975269678,0.0038396928245778704,0.007679385649155741,-0.02003839692824578,-0.5844732421406099,0.6825053995680237,0.3754499640028802,-1.3060522977253985,0.08509897212261772,-0.30267471903450405,0.3455308882906404,0.2734784785825112,-0.4316941806984515,-18.40844730632498,15.397556069273993,1.9817142582895522,0.09741400000000011,0.07372200000000007,-0.896191,0.02879300000000007,-0.164825,-0.872651,0.06862100000000004,0.23854700000000006,0.023540000000000005,0.9636661484597542,0.26459999999999995,single,-0.872651
33,0.275,jog,-0.3333733349333896,0.1092043681747225,0.00588023520940424,-0.4382535354301396,0.15504277974686292,-0.11287513647481161,0.003240129605157457,0.010800432017271462,-0.02028081123244951,-0.6870274810992654,0.6631465258610221,0.3596543861754455,-4.209432212203994,2.2910809069971316,-1.6846479440865743,-0.07195046434902325,0.3745405457957169,-0.02909088013965324,-12.307000955076806,-2.323157771151031,-1.8955451610986045,0.10021899999999984,0.07290200000000002,-0.896409,0.025845999999999814,-0.16020900000000005,-0.869703,0.07437300000000002,0.23311100000000007,0.026706000000000008,0.9613254650295798,0.23293999999999992,single,-0.869703
34,0.283333,jog,-0.36361454458179476,0.1204848193927766,-0.04404176167046767,-0.7175334462351505,-0.09512123614919069,-0.11977361492417657,0.002160086403491612,0.012240489619590393,-0.02712108484339345,-0.8481939277570947,0.7697107884315562,0.3079323172926923,-3.6290903214214842,1.3537082944982752,-5.990879260755075,-0.12961036861464634,0.17281382483126537,-0.8208656679399923,-19.340747228828718,12.788223037385617,-6.206896541792066,0.10326700000000022,0.07200000000000006,-0.896268,0.02180800000000005,-0.1547989999999999,-0.8667699999999999,0.08145900000000017,0.22679899999999997,0.029498000000000024,0.95027719049905,0.20501999999999998,single,-0.8667699999999999
35,0.291667,jog,-0.35925125989920065,0.10235181185505061,-0.029277657787366296,-0.4582236011353293,0.41238579547170784,-0.29002346539635376,0.01031917446599308,0.007319414446828253,-0.035997120230381735,-0.907127429805616,0.7514998800095875,0.3029757619390445,0.523552277729075,-2.1757868415797894,1.7715507419128105,0.9790122465204535,-0.5904817821888811,-1.065039043315128,-7.071454529460195,-2.1851341999002507,-0.5947390633126712,0.10634699999999975,0.07120799999999994,-0.896324,0.01724199999999998,-0.149389,-0.864001,0.08910499999999977,0.22059699999999993,0.03232299999999999,0.9364072887128869,0.17676999999999998,single,-0.864001
36,0.3,jog,-0.37477499099963935,0.131165246609866,-0.047161886475469664,-0.5845778101017075,-0.5550243165833286,-0.23270352949868142,0.005520220808857872,0.00852034081365108,-0.022200888035521196,-1.015840633625341,0.7493099723988877,0.21360854434177298,-1.862922248942606,3.4577504805970793,-2.1461932903040215,-0.5758974747552165,0.14411692869588744,1.6556140879467867,-13.04610630261913,-0.26279942526097555,-10.72449509147627,0.10951599999999995,0.07018600000000008,-0.8961159999999999,0.011900000000000022,-0.1442380000000001,-0.8618279999999999,0.09761599999999993,0.21442400000000017,0.034287999999999985,0.9593132401099891,0.1571200000000001,single,-0.8618279999999999
37,0.308333,jog,-0.3825753030121151,0.1135245409816524,-0.0364814592583667,-0.6738007269032705,0.019148247987206733,-0.3057540122957043,0.008400336013442242,0.008880355214197428,-0.019320772830913328,-1.1474858994359811,0.7421096843873951,0.14484579383175264,-0.9360748844924687,-2.1169693541597896,1.2817025341537167,0.34562764965610915,0.043203456203809776,0.34562764965892906,-15.798063819829549,-0.8640691241440789,-8.251860135607831,0.11277399999999993,0.06931399999999988,-0.895973,0.00552599999999992,-0.139,-0.860317,0.10724800000000001,0.2083139999999999,0.03565600000000002,0.9618949326549744,0.14344000000000007,single,-0.860317
38,0.316667,jog,-0.38900887928968175,0.11555075593950451,-0.08027357811375505,-0.3963644649804091,-0.44481200908884827,-0.29608029335692754,-0.014638828893709889,0.03311735061194439,0.01487880969522436,-1.2603791696664421,0.7396208303335579,0.09071274298056287,-0.771967395916327,0.2431263448346668,-5.254633891935277,-2.764478630567826,2.9082067911863567,4.103621613407474,-13.546108738956285,-0.2986385953728422,-6.495446466425496,0.11589399999999994,0.068627,-0.89518,-0.0017359999999999598,-0.133799,-0.858892,0.1176299999999999,0.202426,0.03628799999999999,0.9347561582114094,0.13712000000000002,single,-0.858892
39,0.325,jog,-0.38605544221766347,0.09708388335534097,-0.012000480019199396,-0.22606584699628676,-0.15730903215668085,-0.3370578419906417,0.01800072002881242,0.02160086403456957,-0.016680667226689025,-1.3660146405856082,0.7482299291971636,0.03984159366374626,0.35442662570722083,-2.2161133546338,8.193099495326456,3.9169025468045326,-1.3820336706317975,-3.7872887221784772,-12.676763580843105,1.033133188960241,-6.104782109302339,0.11926099999999984,0.067998,-0.895219,-0.009902000000000077,-0.12837300000000007,-0.85846,0.12916299999999992,0.19637100000000007,0.036758999999999986,0.9455107577456494,0.13241000000000003,single,-0.85846
40,0.333333,jog,-0.399135965438638,0.09216368654747437,-0.029761190447621096,-0.17059203274364804,-0.16840448715103978,-0.29005476916571954,0.007800312012504974,0.026881075243010023,-0.01860074402976152,-1.493099723988971,0.8487939517580853,0.03084123364934525,-1.5697255755399688,-0.5904472348333878,-2.1313705062308586,-1.2240979258739315,0.6336506910404974,-0.23041843310602406,-15.25082004120522,12.068165433927987,-1.0800864051843313,0.1226520000000002,0.0674539999999999,-0.895126,-0.01901799999999998,-0.12206800000000007,-0.8579549999999999,0.14167000000000018,0.18952199999999997,0.037171000000000065,0.9439884745944218,0.12829000000000007,single,-0.8579549999999999
41,0.341667,jog,-0.4042476601871793,0.08087353011757148,0.011159107271419444,-0.12633294171168774,-0.12259628355847502,-0.3738281200815142,-0.007079433645338761,0.025677945764331203,0.0037197024238064817,-1.5998320134389281,0.7277417806575451,-0.028917686585072114,-0.613354301480835,-1.3547103947567645,4.910042922851033,-1.7854266448096616,-0.14436398832239242,2.678239315282935,-12.806850185979968,-14.525098524182866,-7.170496788387006,0.1259619999999999,0.066994,-0.895188,-0.028982000000000063,-0.11667699999999992,-0.858289,0.15494399999999997,0.18367099999999992,0.036899000000000015,0.95517591590028,0.13101000000000002,single,-0.858289
42,0.35,jog,-0.44713788551540923,0.11676467058683729,-0.0800432017280661,-0.6269786301343991,-0.38800922135779875,-0.1276823138765485,0.002760110404428936,0.029761190447621096,-0.000240009600384256,-1.6566662666506515,0.6595463818552693,-0.11052442097683997,-5.147032920704435,4.307109140677535,-10.944714868533033,1.1807925176728336,0.4900089623532825,-0.47518445028090095,-6.820383200734857,-8.183775207281416,-9.793199855006367,0.1297109999999999,0.06626899999999991,-0.894523,-0.03906100000000001,-0.11215400000000009,-0.858543,0.16877199999999992,0.178423,0.03598000000000001,0.9501835516088063,0.14020000000000005,single,-0.858543
43,0.358333,jog,-0.4796591863674561,0.1327253090123661,-0.16836673466937793,-1.2815147072585078,0.1461647786045658,-0.006700311839759285,0.010920436817453598,0.017760710428421502,-0.0034801392055683576,-1.7488299531981408,0.6263050522020956,-0.10152406096243802,-3.9027122107340353,1.9153532251924563,-10.59924792287429,0.9792783406965833,-1.4401152069122218,-0.38883110586632524,-11.060084789090233,-3.9891191231457426,1.080086405184437,0.13379899999999978,0.0653109999999999,-0.8931490000000001,-0.04963700000000015,-0.10804100000000005,-0.857986,0.18343599999999993,0.17335199999999995,0.035163000000000055,0.964770193171739,0.14837,single,-0.857986
44,0.366667,jog,-0.4916006719462459,0.11351091912645674,-0.09443244540437874,-1.2540631860608382,0.573103327795783,0.11265846378807166,0.005399568034565961,0.015958723302128462,-0.0035997120230375906,-1.8172546196304236,0.582073434125262,-0.12047036237100912,-1.4328636403635484,-2.305542342921687,8.871404999399942,-0.6624512578458882,-0.2162211574625676,-0.01434759028908482,-8.21030314762211,-5.307369579653657,-2.2733742990846038,0.13794099999999987,0.06449799999999994,-0.892392,-0.0606850000000001,-0.104136,-0.8582029999999999,0.19862599999999997,0.16863399999999995,0.034189000000000025,0.9712871442341682,0.15810999999999997,single,-0.8582029999999999
45,0.375,jog,-0.4735389415576641,0.11772470898837431,-0.15444617784710551,0.2025132667274899,-0.7714595059122914,-0.06707284232585282,-0.00012000480020878201,0.03492139685587927,-0.003480139205568381,-1.859234369374777,0.4935797431897328,-0.146165846633867,2.1674943464036813,0.5056750104305274,-7.201935970566053,-0.6623752351823781,2.2756118509241396,0.014349312068787938,-5.037771480181637,-10.619667698971492,-3.0835814548011453,0.14188599999999973,0.06380799999999986,-0.891134,-0.07223200000000007,-0.1010040000000001,-0.8581340000000001,0.2141179999999998,0.16481199999999996,0.03299999999999992,0.9415090289871823,0.1700000000000001,single,-0.8581340000000001
46,0.383333,jog,-0.4750990039601651,0.08928357134283664,-0.13896555862234433,-0.01948158364492486,0.356806786393376,-0.09951573800451598,-0.017160686427404356,0.05508220328813013,0.01608064322572933,-1.9351974078963041,0.5042601704068223,-0.16944677787111487,-0.1872149768991971,-3.4130730403861445,1.857748616916023,-2.0449635938072266,2.4193935476120134,2.347387787267222,-9.115929259753663,1.2817025341521033,-2.793823501409807,0.14570200000000022,0.063523,-0.889842,-0.08439899999999989,-0.09754599999999991,-0.858388,0.2301010000000001,0.1610689999999999,0.03145399999999998,0.9001789745443294,0.18546000000000007,single,-0.858388
47,0.391667,jog,-0.3833693304535704,0.01859851211904573,0.12574994000479203,2.4523830737689205,-1.1909677834749157,-0.5218713894706776,-0.006479481641468495,0.027597792176620138,0.009839212862970802,-1.978641708663319,0.4973602111831127,-0.168706503479722,11.00668028636844,-8.481528584568135,31.763318769754758,1.2816420429488662,-3.2978655041408644,-0.7489117305925751,-5.212899060116972,-0.8279288725353438,0.08882582090147285,0.14884300000000028,0.06359799999999982,-0.8908079999999999,-0.09769399999999995,-0.09355599999999997,-0.860842,0.24653700000000023,0.1571539999999998,0.029965999999999937,0.9499880035189086,0.20034000000000007,single,-0.860842
48,0.4,jog,-0.6174246969878715,0.181327253090101,-0.23784951398054963,-2.1883587995167466,1.179889127733785,0.4867062020451621,-0.011280451218079942,0.017760710428421502,-0.005880235209408404,-2.0140405616224557,0.44449777991118616,-0.1693267730709216,-28.087767494815807,19.52823004572838,-43.63367982543383,-0.576139394769162,-1.180497029665018,-1.8864092250544993,-4.248032276387441,-6.343745502451254,-0.07443532835708548,0.15389399999999998,0.06223500000000004,-0.8888750000000001,-0.10933199999999998,-0.09136299999999986,-0.860271,0.26322599999999996,0.1535979999999999,0.028604000000000074,0.9635892041069438,0.21396000000000004,single,-0.860271
49,0.408333,jog,-0.6042241689667482,-0.001800072002865266,-0.2295691827673177,0.7175235825499572,-0.1644313467301928,-0.32156875423633224,-0.002400096003855883,0.014040561622482305,-0.012360494419776692,-2.0224408976359114,0.39697587903514636,-0.14820592823712986,1.584126727603899,-21.976158057478308,0.9936794927675453,1.0656852531170142,-0.44643571414127037,-0.7776622117326658,-1.0080806448404789,-5.702856219373565,2.5346027641655806,0.15890899999999974,0.06236700000000006,-0.887065,-0.12115000000000009,-0.08804000000000012,-0.859593,0.28005899999999984,0.15040700000000018,0.02747199999999994,0.9685675480061795,0.22528000000000004,single,-0.859593
50,0.416667,jog,-0.5502759779217632,0.18226541876650426,-0.23554115670746895,-2.226496808748597,0.6066932241877764,0.10382366499296446,-0.004919606431480405,0.023278137748956713,-0.0004799616030722338,-2.0559155267578553,0.40040796736262807,-0.14074874010079103,6.473265064193065,22.086092004963927,-0.7165795464544334,-0.3023170659496664,1.1084204615400046,1.4255498940130127,-4.016634163900149,0.41181765388549374,0.8947909930812126,0.16345399999999977,0.06104199999999982,-0.885106,-0.1336980000000001,-0.08622200000000002,-0.858803,0.29715199999999986,0.14726399999999984,0.026302999999999965,0.9603380749458456,0.23696999999999996,single,-0.858803
51,0.425,jog,-0.5693027721108956,-0.06120244809792532,-0.24144965798630838,0.8787240905920464,0.33481400742170425,0.2736526912994513,-0.002040081603229537,-0.002640105604220154,0.0015600624024959984,-2.0843633745349828,0.3951758070322811,-0.11460458418336898,-2.2833066349612974,-29.217312716240272,-0.7090485154013499,0.3455568016621715,-3.1103136149258286,0.24481267317511546,-3.4138782883868437,-0.6278843550158372,3.1374242070589355,0.16818100000000014,0.06152999999999986,-0.883081,-0.14632299999999998,-0.08241900000000002,-0.857746,0.3145040000000001,0.14394899999999988,0.025334999999999996,0.9938613507527778,0.24665000000000004,single,-0.857746
52,0.433333,jog,-0.5947437897515828,0.121924876995068,-0.24588983559343214,0.21996628379262004,-1.8133852814237832,0.3925355510566833,-0.007560302412140652,0.0163206528261293,-0.009240369614784635,-2.0740429617184524,0.379335173406931,-0.10572422896915747,-3.053044238651995,21.976158057481406,-0.5328426265599111,-0.6624529951891386,2.2753820269230016,-1.2961036862211195,1.2384990779467606,-1.9009520731249288,1.065685253115502,0.17307399999999973,0.06065000000000009,-0.8811089999999999,-0.15864999999999996,-0.08027399999999996,-0.856578,0.3317239999999997,0.14092400000000005,0.02453099999999997,0.9662976133448198,0.25468999999999997,single,-0.856578
53,0.441667,jog,-0.5998320134389253,0.11531077513798837,-0.11615070794336146,3.1639136294109083,-3.3917919069448605,0.7241172839050365,-0.008039356851403353,0.01883849292056199,-0.006839452843771884,-2.0748740100792156,0.31389488840892327,-0.096352291816655,-0.6105379994411505,-0.7936287325509557,15.567449922014807,-0.057481934156791946,0.3021166420005646,0.28808696556428653,-0.09971782586551509,-7.852206023279112,1.1245424949007103,0.1780060000000001,0.059846000000000066,-0.880198,-0.17094300000000007,-0.078619,-0.856413,0.3489490000000002,0.13846500000000006,0.023785000000000056,0.9640101021386847,0.26215,single,-0.856413
54,0.45,jog,-0.5730229209168578,0.07104284171368601,-0.16224648985959608,0.4542681158833134,-0.44342489037642785,0.057809504612158176,-0.008760350414015293,0.0152406096243835,-0.012960518420737246,-2.066482659306365,0.30049201968079337,-0.0958838353534147,3.2172197914397485,-5.312364505496482,-5.531715098552073,-0.08652268842096919,-0.4317632660720598,-0.7345572515259015,1.0070023728369524,-1.6084085837189304,0.05621702426980647,0.18270800000000031,0.059380999999999906,-0.878954,-0.18338799999999988,-0.07670700000000008,-0.85586,0.3660960000000002,0.136088,0.02309400000000006,0.9635996429034054,0.2690600000000001,single,-0.85586
55,0.458333,jog,-0.5424216968678589,0.00648025921036825,-0.0884435377415084,0.9764988959094922,-0.05712840151865731,0.060951993420020986,-0.018000720028812537,0.008400336013442297,-0.008640345613824056,-2.063842553702159,0.3060122404896266,-0.02448097923916913,3.672293777630982,-7.747819813190677,8.856708522511445,-1.108888709324045,-0.820865667939664,0.5184414744885636,0.31682534551857083,0.6624529951797979,8.568685481128735,0.18707800000000008,0.05939699999999992,-0.878289,-0.19606600000000007,-0.07421100000000003,-0.855327,0.38314400000000015,0.13360799999999995,0.022962000000000038,0.9638964783565694,0.27038000000000006,single,-0.855327
56,0.466667,jog,-0.653707703383743,0.1071514278857463,-0.19654427645788658,-0.25342278941348295,-0.35693960273210834,-0.003832612421570993,-0.019078473722104642,0.005399568034565961,-0.01703863690904765,-2.036117110631149,0.2783777297816025,-0.018238540916726567,-13.353252521704336,12.079573875135344,-12.971050961888418,-0.1293200975872455,-0.36006335239696824,-1.0077143382797678,3.326787025559138,-3.3158760148816966,0.7490326760790204,0.19236700000000018,0.058549000000000184,-0.8767929999999999,-0.20758699999999997,-0.07278399999999996,-0.853841,0.39995400000000014,0.13133300000000014,0.022951999999999972,0.9564282634216443,0.27048,single,-0.853841
57,0.475,jog,-0.6206648265930598,0.03072122884915812,-0.11568462738509147,0.5953197923320643,-0.6136906261378996,0.0640013170759462,-0.012720508820372229,0.003720148805939314,-0.015480619224768689,-1.9966398655946205,0.23160926437057386,-0.014760590423616755,3.9653038270350733,-9.171990764021166,9.70354603057666,0.7629863076601979,-0.20153836896995692,0.18696960089751155,4.737458902739554,-5.612440346937331,0.4173707540033386,0.19743299999999997,0.05832400000000004,-0.875958,-0.21905299999999994,-0.07111,-0.853,0.4164859999999999,0.12943400000000005,0.022958000000000034,0.9660351315748423,0.27042,single,-0.853
58,0.483333,jog,-0.573862954518186,0.14088563542541743,-0.30685227409096616,-1.047858096678442,-0.26867892794141984,-0.3051566107566721,-0.004800192007658442,-0.004200168006721121,-0.004320172806912415,-1.9757590303612103,0.21432857314293266,-0.012840513620544287,5.6164493069571035,13.22025759945504,-22.941035246114712,0.9504760365671132,-0.9504760365607108,1.3393071424284446,2.505800460027617,-2.0737658979528533,0.2304184331060194,0.20217500000000022,0.05711500000000003,-0.873437,-0.2307349999999999,-0.07049799999999995,-0.8505499999999999,0.43291000000000013,0.12761299999999998,0.0228870000000001,0.9871604833427923,0.27113,single,-0.8505499999999999
59,0.491667,jog,-0.6936645068394298,0.11207103431725336,-0.2249820014398798,-0.3834917274164601,-0.09308867427162011,-0.20460671873527547,-0.00683945284376934,-0.007799376049913808,-0.012359011279097531,-1.9372450203983753,0.18886489080873084,0.017398608111350158,-14.375036275647188,-3.45747553493689,9.823646826384245,-0.24469172499530797,-0.43187041554987804,-0.9645834499862141,4.621311490620938,-3.055397448308351,3.6284043354804916,0.20789900000000006,0.056116000000000055,-0.871665,-0.24109900000000017,-0.06985799999999998,-0.84853,0.44899800000000023,0.12597400000000003,0.023135000000000017,0.9731075422713721,0.26865000000000006,single,-0.84853
60,0.5,jog,-0.7279491179647356,0.08784351374054443,-0.13356534261370856,0.43290049465530306,-0.4163381351771095,-0.01477618628902988,0.013920556822246877,-0.03132125285012209,-0.03120124804992247,-1.8919956798271913,0.1465258610344584,0.017520700828034034,-4.114317907753015,-2.9074187659557174,10.970437876655641,2.4913008119544306,-2.8227381255500235,-2.261158858853352,5.4301380740650576,-5.080886808385042,0.014651712070547999,0.21408099999999997,0.05512300000000003,-0.8708119999999999,-0.250799,-0.06936899999999979,-0.847271,0.46487999999999996,0.12449199999999983,0.023540999999999923,0.9227500330418,0.26458999999999994,single,-0.847271
61,0.508333,jog,-0.7317892715708522,0.0982839313572689,-0.15516620664826392,0.020615073815047937,-0.02766421162732907,-0.09977298832022138,0.0003600144005730508,-0.02388095523819001,-0.018000720028800758,-1.8415936637465253,0.10140405616224422,0.037081483259329,-0.46083686620863346,1.2529002300161318,-2.5922073724415298,-1.6273301838082046,0.8928714282889774,1.584126727603703,6.048483869034652,-5.414833177992796,2.347387787266877,0.22018199999999988,0.05410500000000007,-0.869669,-0.2600469999999999,-0.06934299999999993,-0.845669,0.4802289999999998,0.123448,0.02400000000000002,0.9501542502922955,0.26000000000000006,single,-0.845669
62,0.516667,jog,-0.8496520278377916,0.026037916966632223,0.026157907367416935,0.7861260451861428,0.3803731040829048,-0.38267187203548486,0.00035997120230084735,0.007199424046070233,0.020878329733621494,-1.7856971442284792,0.048476121910229326,0.03995680345572376,-14.142399360084005,-8.668828220618801,21.757153109633055,-5.183377994171351e-06,3.7293471663379436,4.665112762469699,6.707045778503288,-6.350844042718406,0.3450108227015573,0.22726599999999997,0.05394800000000011,-0.8697130000000001,-0.26784799999999986,-0.069156,-0.845554,0.49511399999999983,0.1231040000000001,0.02415900000000004,0.963187187529059,0.2584100000000001,single,-0.845554
63,0.525,jog,-0.7191887675506888,-0.016200648025920517,-0.23832953318133146,-0.024999526733846106,0.6096742063052343,0.11503898256545074,0.0010800432017191524,0.0134405376214916,0.012120484819392357,-1.7290291611664366,0.043921756870285246,0.046081843273731875,15.656217483151591,-5.068830552328401,-31.73976245634793,0.0864120964140528,0.7489635875940647,-1.0509834290446538,6.800429984644479,-0.5465456666199522,0.7350341795281514,0.2332679999999998,0.05419499999999999,-0.867626,-0.2762629999999999,-0.06865499999999991,-0.8431839999999999,0.5095309999999997,0.1228499999999999,0.024442000000000075,0.9697822395339801,0.2555799999999999,single,-0.8431839999999999
64,0.533333,jog,-0.8024720988839492,0.06684267370696577,-0.1000840033601355,-0.0002573842874960987,-0.013383373085652385,0.04006108772609303,0.01692067682709349,0.0009600384015370304,0.03672146885875477,-1.6746669866795019,0.012240489619590475,0.0459618384735387,-9.994399535972775,9.96559723183572,16.590127183631015,1.900952073127863,-1.4977198151871696,2.9522361741704835,6.523721887307716,-3.801904146249257,-0.014401152069263968,0.24009599999999987,0.05364599999999986,-0.866486,-0.2835310000000002,-0.06911,-0.841967,0.5236270000000001,0.12275599999999987,0.024518999999999957,0.9325937430129019,0.25481,single,-0.841967
65,0.541667,jog,-0.9822414206863408,0.2705783537316869,-0.03911687065034017,-1.7057263323173937,-2.680849654426657,-0.09581907912734847,0.0335973122150295,0.03419726421887312,0.08327333813294875,-1.6127909767218276,0.005039596832238439,0.03959683225341906,-21.57059296884932,24.4463258968946,7.315470687520381,2.001036163659213,3.9881480462366015,5.5857774507071785,7.424527232742238,-0.8640380114413224,-0.7637396472425713,0.24856199999999995,0.051676000000000055,-0.8654660000000001,-0.288786,-0.07132300000000003,-0.841311,0.5373479999999999,0.12299900000000008,0.024155000000000038,0.8398552641450899,0.25845000000000007,single,-0.841311
66,0.55,jog,-0.9161166446657997,0.14208568342734537,-0.2151686067442742,-1.0348232871651013,0.3046851862638804,-0.2779980937183982,-0.0021600864034383048,0.04092163686546541,0.08304332173286876,-1.526941077643121,-0.03420136805470629,0.023880955238209996,7.935290534086265,-15.419737226009962,-21.127053413408532,-4.291059476595182,0.8069569958709066,-0.02760307213248476,10.302399985444174,-4.709104150599372,-1.885980681052322,0.25617800000000024,0.050832999999999906,-0.862981,-0.293876,-0.07279199999999997,-0.839319,0.5500540000000003,0.12362499999999987,0.02366199999999996,0.8456605506841055,0.26337999999999995,single,-0.839319
67,0.558333,jog,-0.9252370094803737,0.09900396015838968,-0.1894875795031815,-0.2817694791384353,0.03682915153056454,-0.39909169814449885,-0.01380055202209148,0.04032161286452863,0.08784351374055084,-1.4738989559582403,-0.008640345613833273,0.017760710428416742,-1.0944875572511814,-5.170013592818443,3.0818465427928636,-1.3969117507084223,-0.07200576034282832,0.5760460827651662,6.365309214554318,3.067445390720419,-0.7344587555254182,0.26377300000000004,0.050344000000000166,-0.86067,-0.29844800000000005,-0.0736889999999999,-0.837592,0.5622210000000001,0.12403300000000006,0.023078000000000043,0.8372734860230062,0.26922000000000007,single,-0.837592
68,0.566667,jog,-0.7023038156947521,0.2813774898008188,0.16618670506358998,-4.3558551828289,1.717840786397374,-0.3540096279383096,-0.02459803215745515,0.04547636189103723,0.08459323254139572,-1.3926085913126849,-0.008039356851456533,0.011639068874489936,26.74984326681304,21.883072911258424,42.67749994801642,-1.2955939687261322,0.6185204015489035,-0.39000254369511544,9.75406343239198,0.07211288245461189,-0.7345382234133381,0.2694209999999999,0.04837800000000003,-0.86135,-0.30420099999999994,-0.07610099999999997,-0.83888,0.5736219999999999,0.124479,0.02246999999999999,0.8347629844682154,0.27530000000000004,single,-0.83888
69,0.575,jog,-1.2606504260170506,-0.06336253450136406,-0.31741269650786424,2.023368008757749,-0.0932169601404339,-1.1888381071160434,-0.029641185647412513,0.025441017640717982,0.0558022320892841,-1.3027721108844446,-0.012480499219954748,-0.0006000240009589786,-67.00427340961282,-41.37045773457171,-58.03424955855738,-0.6052026268999653,-2.4043374835376734,-3.4550582565836896,10.780808883744287,-0.5329584025558929,-1.4687498950496851,0.279679,0.049117999999999995,-0.85824,-0.30455199999999993,-0.075677,-0.83624,0.584231,0.12479499999999999,0.02200000000000002,0.8864740072430054,0.2799999999999999,single,-0.83624
70,0.583333,jog,-0.8432737309492218,0.054602184087347926,0.17808712348494354,-2.4654419267879795,1.7554549494522405,0.36438332811340307,-0.05388215528622847,0.038161526461036495,0.12936517460698405,-1.2047281891275758,-0.021360854434178657,-0.02412096483859425,50.087206896415104,14.156332483944738,59.46235689341242,-2.9090327179666216,1.526522119322988,8.827906218372691,11.765741240473815,-1.0656852531169894,-2.822625805548443,0.28625699999999976,0.04898099999999994,-0.858646,-0.30756400000000017,-0.07630999999999988,-0.837925,0.5938209999999999,0.12529099999999982,0.02072099999999999,0.7579317293198908,0.29279000000000005,single,-0.837925
71,0.591667,jog,-0.9776817854571612,0.2252219822414344,0.06551475881928621,-3.201976798295572,1.6958461969881469,0.229597416257497,0.0021598272138583416,0.0663546916246726,0.20398368130549402,-1.1029517638588668,0.01055915526756243,-0.03431725461962952,-16.127676326846466,20.47273795945346,-13.507603151626647,6.724499940015165,3.3829091869013546,8.953504523459252,12.212194056720449,3.830094756628371,-1.223456897172449,0.2944230000000001,0.04765699999999984,-0.8574919999999999,-0.308608,-0.07809900000000014,-0.838757,0.6030310000000001,0.12575599999999998,0.018734999999999946,0.6424739629017657,0.31265,single,-0.838757
72,0.6,jog,-0.8049921996879872,0.2613704548181967,0.356294251770074,0.7943994496512993,-0.352635088810933,0.382374762386767,-0.07512300492019934,0.03624144965798959,0.17280691227649225,-0.9855994239769712,0.01188047521901742,-0.06072242889715721,20.723579235470492,4.33799022882067,34.894934951492914,-9.274310828520147,-3.613733585345408,-3.7413619379577643,14.08284409959159,0.1585647367640709,-3.1687476632098805,0.300505,0.04578099999999985,-0.8590209999999999,-0.3101130000000001,-0.08017800000000008,-0.842232,0.6106180000000001,0.12595899999999993,0.016788999999999943,0.6801947751100499,0.33211,single,-0.842232
73,0.608333,jog,-1.1812072482899323,-0.033121324853013785,0.570982839313575,0.9946630410420293,-11.819949574430094,0.009204376868614922,-0.03036121444861151,0.07692307692309025,0.18828753150125938,-0.8509540381615179,0.023520940837643608,-0.10404416176646936,-45.14761173670269,-35.340427177632215,25.763661051662073,5.371629721779389,4.881990551434116,1.8577486169167237,16.158092621559188,1.396911750705165,-5.198815896953314,0.3100949999999998,0.04669800000000013,-0.86221,-0.307361,-0.07970599999999983,-0.847857,0.6174559999999998,0.12640399999999996,0.01435300000000006,0.6572530994347612,0.35646999999999995,single,-0.847857
74,0.616667,jog,-1.225101991840666,0.25989920806336986,0.6000719942404682,-1.3839492616815892,-8.62870383268791,1.4152161513973942,-0.10919126469879405,0.03599712023037781,0.18814494840412874,-0.7072234221262418,0.04811615070792848,-0.1412287017038642,-5.266947870258459,35.15965117787201,3.4904193576785936,-9.458849322076192,-4.910721945369891,-0.017108602967439327,17.24629422069558,2.951189089307057,-4.46178784945945,0.3193950000000001,0.04483199999999998,-0.865643,-0.303045,-0.08147100000000007,-0.854035,0.6224400000000001,0.12630300000000005,0.011608000000000063,0.6325121069212898,0.38391999999999993,single,-0.854035
75,0.625,jog,-0.5865834633385315,-0.02988119524780303,-0.6007440297611959,0.6288375525889144,8.07299508708867,-0.5066926129977088,-0.08088323532942045,0.011640465618626345,0.21768870754830055,-0.542181687267491,0.08892355694228964,-0.17460698427937188,76.6252884317931,-34.775039398916554,-144.1036870276802,3.3970994083011496,-2.9229154700289643,3.545392913017124,19.805800415066606,4.897084631508578,-4.005554131226154,0.32360900000000004,0.04517799999999994,-0.858823,-0.302675,-0.08048100000000002,-0.850484,0.6262840000000001,0.12565899999999997,0.008338999999999985,0.6124651571534991,0.41661000000000004,single,-0.850484
76,0.633333,jog,-0.980559222368882,-0.19752790111604818,-0.09024360974438639,1.9524653960445804,-0.7745240619989211,-0.658683581079823,-0.11328453138126149,0.03396135845434202,0.21528861154446136,-0.37465498619942805,0.12492499699986119,-0.21564862594503606,-47.27898224293158,-20.118409440566957,61.26250090205297,-3.8883110586632554,2.6786142848572636,-0.28802304138235774,20.104008288499017,4.320345620733398,-4.925194007639987,0.3308359999999999,0.04710700000000001,-0.856277,-0.29762599999999995,-0.07779400000000014,-0.851529,0.6284619999999999,0.12490100000000015,0.0047479999999999745,0.5906103961754012,0.45252,single,-0.851529
77,0.641667,jog,-1.0832733381329598,-0.2003839692824658,-0.10919126469882068,1.9343031875789638,-0.502535755255602,-0.47776916812523273,-0.12119030477561328,0.03179745620349907,0.25341972642188804,-0.1958243340532862,0.1745860331173497,-0.2559395248380139,-12.324707915056194,-0.3427007639090035,-2.2735367115952,-0.948616917968783,-0.2596474983012917,4.575367755870758,21.457961620607495,5.95884762628855,-4.834521105468932,0.338854,0.04904200000000003,-0.853255,-0.29023,-0.0746690000000001,-0.852752,0.629084,0.12371100000000013,0.0005030000000000312,0.5288320483086617,0.49496999999999997,single,-0.852752
78,0.65,jog,-1.385455418216713,-0.413296531861273,-0.13308532341293916,2.9146630682843613,1.500937647552125,-0.5097579351092526,-0.16164646585863213,0.040441617664710224,0.28057122284891195,-0.0297611904476209,0.19308772350896278,-0.31525261010440336,-36.263300142055904,-25.550529530637984,-2.8674017417638766,-4.854933527303333,1.0373408689800938,3.2583099036390015,19.92837436765446,2.220291658659908,-7.1178549461645515,0.3490519999999999,0.052823000000000064,-0.849808,-0.2789330000000001,-0.0696159999999999,-0.85427,0.627985,0.12243899999999996,0.004461999999999966,0.45538000000000006,0.5,flight,-0.849808
79,0.658333,jog,-1.1002040081603444,-0.3337333493339671,0.14052562102484625,1.4891220368310323,-0.6574686028970983,-0.8285548763116325,-0.18648745949838827,0.04356174246968613,0.3086523460938472,0.10248409936396474,0.2220088803552051,-0.35077403096124105,34.23153846830327,9.547963821829672,32.83462671760326,-2.981038478309897,0.3744299537952641,3.3698695841756248,15.87006958017363,3.4706776486550575,-4.262741012461059,0.3566659999999999,0.05596699999999988,-0.848407,-0.2689110000000001,-0.06498500000000007,-0.858364,0.625577,0.12095199999999995,0.009956999999999994,0.40043000000000006,0.5,flight,-0.848407
80,0.666667,jog,-1.3260139188864697,0.14590832733379824,-0.05279577633789208,-1.1426918250618794,0.050976564652899556,1.2872066328690208,-0.22810175185986778,0.06263498920087947,0.3791696664266825,0.16906647468202338,0.22270218382530185,-0.33057355411566913,-27.0950216854,57.55239700837073,-23.196711946572698,-4.993315618128053,2.2886065192216454,8.461401527817948,7.989245898495096,0.08318976123071037,2.423863312403619,0.3658159999999997,0.05527300000000013,-0.8448070000000001,-0.2564510000000002,-0.06434499999999987,-0.860679,0.6222669999999999,0.119618,0.015871999999999886,0.34128000000000003,0.5,flight,-0.8448070000000001
81,0.675,jog,-1.6674666986679654,-0.723748949957983,-0.4692187687507577,5.570404801160867,-3.2976204465847943,-2.548041312873569,-0.25345013800550614,0.08316332653304088,0.3978159126365036,0.16968678747150132,0.189487579503179,-0.2756510260410397,-40.97597261268382,-104.36304779692519,-49.97275799986366,-3.0419280145971745,2.4634990198201527,2.237639050740557,0.07444051235784671,-3.9859119551329325,6.59096700763581,0.377599,0.06199699999999986,-0.8375819999999999,-0.24114199999999997,-0.05673499999999998,-0.8590659999999999,0.618741,0.11873199999999984,0.021483999999999948,0.2851600000000001,0.5,flight,-0.8375819999999999
82,0.683333,jog,-1.708748349934,-0.37789511580464386,0.27913116524661846,0.18728005099264422,-0.31812430636422556,-2.553307841203651,-0.32413296531862346,0.09432377295093995,0.39277571102844616,0.0633625345013907,0.09336373454937627,-0.12564502580103395,-4.953996311776663,41.504120263211604,89.80558430305808,-8.482278568716904,1.3393071424335976,-0.6048483869023767,-12.75942073324272,-11.535322807368726,18.00144008640431,0.38913699999999984,0.0659320000000001,-0.836635,-0.226375,-0.052807999999999966,-0.862439,0.6155119999999998,0.11874000000000007,0.025803999999999938,0.24195999999999995,0.7185441113306819,single,-0.836635
83,0.691667,jog,-1.4025677945764305,-0.2365010799135985,0.1347492200623922,-0.9737410763924962,1.1097602816262007,-0.31128614312037717,-0.3753299736020847,0.107991360691132,0.38480921526277456,-0.08243340532758567,0.09179265658746086,-0.12191024718022418,36.73872754470447,16.965927032762693,-17.324447466309714,-6.143149542051938,1.6399793304765944,-0.9559030196390136,-17.494113250416998,-0.18851427428790501,0.44813758349049004,0.3976980000000001,0.06880299999999995,-0.834551,-0.21537300000000004,-0.050072000000000116,-0.864578,0.6130710000000001,0.11887500000000006,0.030026999999999915,0.19973000000000013,0.7109245269405846,single,-0.834551
84,0.7,jog,-1.3009720388815527,-0.19104764190568252,-0.02292091683666662,0.1402384260674077,0.9334588789133156,0.10969275687579681,-0.46465858634344304,0.17100684027361365,0.4807392295691883,-0.18468738749549635,0.041761670466820854,-0.08748349933997446,12.19197836251996,5.454630746179816,-18.921173274818223,-10.719862323456036,7.56216003629932,11.512062199257723,-12.270968698897349,-6.003958492816568,4.131374995829838,0.4046670000000001,0.07182,-0.830354,-0.20607100000000012,-0.048132000000000064,-0.865116,0.6107380000000002,0.11995200000000006,0.03476199999999996,0.15238000000000002,0.652361814538056,single,-0.830354
85,0.708333,jog,-1.14460578423137,-0.34381375255011465,-0.2439697587903581,1.9288537078621428,3.6640157153191093,0.780194974504827,-0.5315012600504018,0.11568462738509071,0.444977799111963,-0.18564742589703093,0.06300252010081682,-0.10644425777031107,18.76470114606769,-18.332666583995138,-26.52692211132732,-8.021441702503115,-6.638931103866881,-4.2915433165996815,-0.1152092165528112,2.549003916236155,-2.27538202692146,0.40977600000000014,0.07564900000000008,-0.8246129999999999,-0.19808000000000003,-0.04474199999999984,-0.86397,0.6078560000000002,0.12039099999999991,0.039357000000000086,0.10642999999999991,0.6282000825805489,single,-0.8246129999999999
86,0.716667,jog,-0.9800815934725091,-0.2261819054475522,-0.2407007439404772,1.5048240238498256,2.107980842736337,0.9670226664955806,-0.7191024718022668,0.09251259899208919,0.5427165826733819,-0.08591312694983602,-0.014518838492924985,-0.1067914566834639,19.741323585176335,14.114692476909232,0.392250401953549,-22.510344582657023,-2.7804209734822822,11.727715810105364,11.967158500983219,-9.301818885738086,-0.04166053673540141,0.41195099999999996,0.07830500000000007,-0.818084,-0.19062800000000002,-0.04297799999999996,-0.862854,0.602579,0.12128300000000003,0.044769999999999976,0.05229999999999996,0.7702883614781686,single,-0.818084
87,0.725,jog,-0.958718348733961,-0.06780271210847616,-0.05184207368294635,-0.6529253687620632,0.7074391741543649,2.2378786212256956,-0.696747869914827,0.373334933397323,0.7967118684747453,-0.019320772830922744,0.005640225609013399,-0.09540381615264747,2.5636919163024494,19.006263451227348,22.663946988783458,2.6826595328741245,33.700028129753555,30.480653522304785,7.99140215035568,2.419184459611013,1.3665715265590472,0.4141339999999998,0.08198099999999986,-0.811013,-0.18280000000000007,-0.042366000000000126,-0.863217,0.5969339999999999,0.12434699999999999,0.05220400000000003,0.0,0.837493653592366,single,-0.811013
88,0.733333,jog,-1.3152526101044084,-0.14916596663867754,-0.018480739229567604,-0.634056953981927,0.7607362805388608,0.3070178280021931,-1.009120364814575,0.38425537021482487,0.8227529101164013,0.012480499219981228,-0.01176047041880848,-0.11148445937837458,-42.785822797365405,-9.76398110286824,4.003520275216442,-37.48619883592305,1.3105048382937516,3.125049998998666,3.8163052983203936,-2.0881670500206173,-1.9297543772623356,0.41668499999999997,0.08642600000000011,-0.804003,-0.1717359999999999,-0.04122099999999995,-0.8639920000000001,0.5884209999999999,0.12764700000000007,0.05998900000000007,0.0,0.8120072681063613,single,-0.804003
89,0.741667,jog,-1.150707943364536,-0.15574754019678771,-0.05483561315095312,-0.43699014955030624,0.8900418543867279,1.1471476562315321,-1.2494600431965521,0.41000719942404884,0.8244540436765109,-0.007079433645312165,0.03995680345571377,-0.06323494120470395,19.743780506344297,-0.7897256489213119,-4.362235891694952,-28.83845432949106,3.089972307322309,0.2041196976373411,-2.3470041835005406,6.2055764188291995,5.789479022518706,0.41586199999999995,0.09114100000000014,-0.796675,-0.16220499999999993,-0.039590000000000014,-0.864062,0.5780669999999999,0.13073100000000015,0.06738699999999997,0.0,0.8747744001112472,single,-0.796675
90,0.75,jog,-1.1665666626664861,-0.17448697947915975,-0.06708268330732915,-0.36450576132282203,0.5151480962773897,1.0351524330454995,-1.5005400216008395,0.38509540381615315,1.0867634705388163,-0.017160686427457536,0.050042001680080404,-0.010680427217088496,-1.9031224411316556,-2.248822666791307,-1.4697072070533994,-30.13080264061999,-2.9895350543496444,31.47839035909088,-1.2097987258064717,1.2102721978119033,6.30679395027184,0.413079,0.095804,-0.7870600000000001,-0.15262700000000007,-0.03771900000000006,-0.863592,0.565706,0.13352300000000006,0.07653199999999993,0.0,0.9100499734983947,single,-0.7870600000000001
91,0.758333,jog,-1.218288731549276,-0.14160566422659018,-0.10020400816032961,-0.37322995525699343,-0.043689185615637026,0.8511488278807463,-1.676467058682345,0.23280931237247363,0.7757110284411342,-0.0015600624025009842,0.0159606384255296,-0.028321132845313707,-6.206896541796441,3.9459156669350093,-3.9747179710788814,-21.11208893333789,-18.275061975720494,-37.32778616316823,1.8721497689855378,-4.0899271876335845,-2.1169693541611827,0.4092610000000001,0.09892400000000001,-0.779761,-0.14248799999999995,-0.03640599999999994,-0.862993,0.551749,0.13532999999999995,0.08323199999999997,0.0,0.9457561488560916,single,-0.779761
92,0.766667,jog,-1.2114230861531006,-0.1376289896808274,-0.10043196544276235,-0.3331930646397247,-0.02416749875931519,0.9440785695606211,-2.0123590112791203,0.3099352051835873,0.8248140148788167,0.011279097672190909,-0.032397408207342694,-0.028317734581233673,0.8238115426176568,0.4771627724697389,-0.027352685677075356,-40.30381000681273,9.254366787990655,5.891887021560211,1.5405759628860052,-5.802501395833042,0.000407759068878551,0.4025859999999999,0.10265400000000002,-0.77205,-0.13229800000000003,-0.03552899999999992,-0.862392,0.5348839999999999,0.13818299999999994,0.09034200000000003,0.0,0.9258622866502026,single,-0.77205
93,0.775,jog,-1.2342493699748058,-0.10908436337451372,-0.06696267850714702,-0.013917289789871902,-0.2174197806133411,0.9414293060266112,-2.3914556582263127,0.38797551902076416,0.8475939037561451,-0.006240249609977291,-0.03672146885874429,-0.00708028321132801,-2.739263629149786,3.4254921764446857,4.016475091277474,-45.493417370357704,9.365212268951941,2.7336960131199217,-2.1024057700909786,-0.518908034489569,2.548596108232998,0.39294300000000004,0.10679599999999989,-0.764429,-0.12206499999999987,-0.03492600000000001,-0.861893,0.5150079999999999,0.1417219999999999,0.097464,0.0,0.9368085492620692,single,-0.764429
94,0.783333,jog,-1.2301692067682832,-0.18108724348973915,-0.13176527061081753,-0.3855540334715239,-0.1583225515720718,0.9286034460276986,-2.8805952238089683,0.3650546021840894,0.8420736829473251,-0.02448097923918095,-0.00216008640346498,-0.0033601344053762754,0.48963917034953075,-8.64069124147679,-7.776622117325225,-58.69909583375256,-2.7506200452028025,-0.6624529951782102,-2.1889751145090393,4.147531795905391,0.446435714142778,0.37919000000000014,0.11134699999999986,-0.756314,-0.11201799999999995,-0.033435000000000104,-0.860823,0.4912080000000001,0.14478199999999997,0.10450899999999996,0.0,0.9586587769290131,single,-0.756314
95,0.791667,jog,-1.2203023758099274,-0.1322294216462863,-0.14830813534917273,-0.21498767080246733,0.10683371804768343,0.9625016792123263,-2.987520998320122,0.18310535157188945,0.32865370770338354,-0.02831773458122164,0.003959683225335912,-0.0005999520038402883,1.1839250010026106,5.862469623644407,-1.9849849698050246,-12.83006653601548,-21.8321635003838,-61.605468591785176,-0.46037381113998826,0.734313610367272,0.3311953925529117,0.36446200000000006,0.11397500000000016,-0.752339,-0.10208399999999984,-0.032299999999999995,-0.859592,0.4665459999999999,0.14627500000000015,0.10725300000000004,0.0,0.9523341163973285,single,-0.752339
96,0.8,jog,-1.2416896675866844,-0.1334453378135122,-0.14712588503540805,-0.14732749729394806,0.2931396919283574,0.999309148758442,-3.0440417616704543,0.28609144365773814,0.11604464178567042,-0.02016080643227737,0.006960278411150039,0.007320292811713097,-2.566577676317885,-0.14591577669817665,0.14187571268026783,-6.782762912556335,12.358825403317924,-25.514108474464447,0.9788705326946162,0.36008582573072295,0.9504673965622648,0.34944299999999995,0.1174710000000001,-0.750146,-0.09190500000000013,-0.03112999999999988,-0.858305,0.4413480000000001,0.14860099999999998,0.108159,0.0,0.9624171183172113,single,-0.750146
97,0.808333,jog,-1.2217688707548409,-0.14880595223807982,-0.19896795871834302,0.2692680373428906,0.02628984819486097,1.0667616484025224,-3.2071282851314478,0.30133205328212564,0.13104524180967142,-0.006600264010550429,0.006240249609977374,0.006960278411135975,2.3905912434709875,-1.8433474648467258,-6.221297693860008,-19.571165661945876,1.8289463127790282,1.8001440086404819,1.6273301838146002,-0.08640691241721726,-0.04320345620750327,0.33289899999999983,0.12122199999999994,-0.7473960000000001,-0.08177900000000005,-0.02983800000000003,-0.856589,0.4146779999999999,0.15105999999999997,0.10919299999999998,0.0,0.9809277924889299,single,-0.7473960000000001
98,0.816667,jog,-1.2580993520518355,-0.175185985121191,-0.21874250059995262,0.6215802203382581,0.13744472209527256,0.9638237690610433,-3.294816414686788,0.05567554595632546,-0.10859131269498228,-0.005879529637624834,0.008399328053757375,0.0074394048476120805,-4.359309010918454,-3.1653507179158824,-2.3727552053767034,-10.521733807936112,-29.476422765274577,-28.754086213661132,0.08648120625457044,0.2590686877585774,0.057490573131281676,0.315925,0.12314599999999998,-0.746478,-0.07134299999999993,-0.028308,-0.854704,0.38726799999999995,0.15145399999999998,0.10822600000000004,0.0,0.9788877125692552,single,-0.746478
99,0.825,jog,-1.2397695907836535,-0.15324612984519193,-0.17820712828512805,0.25194887173815417,0.585797925022728,0.8678814629486772,-3.3486139445578043,0.12864514580582884,-0.2955718228729168,-0.015600624024956758,0.0172806912276399,0.003600144005760533,2.1996593385554126,2.6328879486378574,4.864439255349207,-6.455961822994931,8.756702250030488,-22.438558763702893,-1.1665779895994255,1.0658062131144375,-0.46072973021139835,0.2983520000000002,0.1254949999999999,-0.747456,-0.06114199999999981,-0.026887000000000105,-0.8531890000000001,0.359494,0.15238200000000002,0.10573300000000008,0.0,0.9607372527375113,single,-0.747456
100,0.833333,jog,-1.257650306012214,-0.0972038881555231,0.08928357134284937,-2.4216490305850593,3.270456821309123,0.39165775490975646,-3.584183367334689,0.15456618264729996,-0.33229329173167044,-0.018480739229567604,0.01944077763110462,0.012720508820352992,-2.145771658293582,6.725338016280882,32.100167962075645,-28.269461511686494,3.110648846930399,-4.406752533151747,-0.3456276496592865,0.25922073724525496,1.0944875572533805,0.2789649999999999,0.12759299999999985,-0.750969,-0.05081599999999997,-0.025915000000000132,-0.853827,0.3297809999999999,0.15350799999999998,0.102858,0.0,0.9505223703179908,single,-0.750969
101,0.841667,jog,-1.2482601391888748,-0.20482361411088457,-0.06083513318934861,0.3442833979784427,1.8846682035293143,1.1491645387683782,-3.5999520038396753,0.12287017038638447,-0.37425005999519545,-0.007079433645312071,0.003359731221518936,0.0034797216222695088,1.1267298804102568,-12.913334047919445,-18.012803519582054,-1.8920850137972618,-3.8032172139327156,-5.034409438867853,1.368047226332547,-1.929571203453991,-1.1088057593092648,0.259366,0.1303240000000001,-0.753581,-0.04047199999999984,-0.02417999999999987,-0.853291,0.2998379999999998,0.15450399999999997,0.09971000000000008,0.0,0.9857098871410533,single,-0.753581
102,0.85,jog,-1.222608904356169,-0.20184807392295412,-0.18288731549261775,0.535753432581736,0.6623244563258247,0.8946195659498661,-3.7125885035401747,0.2083283331333224,-0.4137765510620471,-0.003000120004819874,0.00540021600862248,-0.004800192007680155,3.0782713107771573,0.35707910571588564,-14.646847750302443,-13.516920640885685,10.255389745222455,-4.74336866276875,0.489537218347802,0.24486796917119433,-0.9936293807691995,0.23861699999999986,0.13374200000000003,-0.755505,-0.03030900000000014,-0.022453000000000056,-0.851807,0.268926,0.15619500000000008,0.096302,0.0,0.9869610736325481,single,-0.755505
103,0.858333,jog,-1.2613704548181799,-0.21432857314293266,-0.08580343213728768,0.23623579689069774,1.1458794542363826,0.9839415973684498,-3.885755430217175,0.03756150246009917,-0.4486979479179139,-0.01008040321612536,0.016560662426520215,-0.006840273610944588,-4.651572118326023,-1.4977198151900264,11.650532023920515,-20.780862435737365,-20.492839394362477,-4.190735252114085,-0.8496679720755379,1.33930714243342,-0.24481958517513797,0.21674799999999994,0.1358410000000001,-0.758529,-0.019882000000000177,-0.020528999999999797,-0.8511489999999999,0.23663000000000012,0.1563699999999999,0.09261999999999992,0.0,0.9657355297365149,single,-0.758529
104,0.866667,jog,-1.2079433645308502,-0.1745860331173497,-0.24622030237580447,0.29159603277172036,-0.020456320203086072,1.0051347351950448,-3.9673626109911413,-0.019078473722104767,-0.46784257259419676,-0.013558915286780705,0.02807775377967924,-0.012479001679865672,6.4107379754415685,4.768723305205567,-19.248484549858137,-9.7920783266099,-6.796253441589185,-2.29717118745896,-0.41738805743404894,1.381940407146519,-0.676593240811269,0.193751,0.13713700000000006,-0.760376,-0.009928000000000159,-0.018839999999999968,-0.8492010000000001,0.20367900000000017,0.15597700000000003,0.08882500000000004,0.0,0.9440255533501503,single,-0.760376
105,0.875,jog,-1.2457698307932235,-0.18660746429856792,-0.17940717628705363,0.3174139584825122,0.4067110365361657,1.1392809380855475,-3.9804392175686867,0.1070442817712842,-0.45445817832712937,-0.0019200768030473887,0.021360854434178657,-0.01164046561862468,-4.539357525785808,-1.442629446924059,8.017895846483926,-1.5692555595278215,15.135336072649519,1.6061915597104686,1.3967164867074604,-0.806060163866621,0.10062835248301798,0.17096299999999998,0.13958400000000015,-0.762668,0.0004370000000000207,-0.017106999999999983,-0.847803,0.17052599999999996,0.15669100000000014,0.08513499999999996,0.0,0.9593294661365342,single,-0.762668
106,0.883333,jog,-1.2280091203648285,-0.15324612984518987,-0.12756510260410797,-0.017043027718297653,0.4675338052414914,0.9188397023154661,-3.9938797551902048,-0.024840993639753676,-0.5305412216488647,0.004200168006694475,0.028321132845328695,-0.014040561622464726,2.1313705062276402,4.003520275216358,6.2212976938612075,-1.6129290317434337,-15.826866123969436,-9.13033041182468,0.7344587555192413,0.8352668200108015,-0.28802304138245954,0.14791500000000002,0.14065400000000006,-0.766026,0.010704999999999965,-0.015593999999999886,-0.846857,0.13721000000000005,0.15624799999999994,0.08083099999999999,0.0,0.9468527896728383,single,-0.766026
107,0.891667,jog,-1.2626589872810052,-0.13222942164626142,-0.13906887449004413,0.014907759426358044,0.3904565343048155,1.1272646874609136,-4.070074394048493,-0.09371250299975104,-0.5800335973122189,-0.002159827213805084,0.036837053035737574,-0.0147588192944563,-4.15765141782781,2.5218032396122596,-1.3803421989364313,-9.142625252974444,-8.263920009598962,-5.938609990803271,-0.7631383753899201,1.021828676554947,-0.08618402591691615,0.1245179999999999,0.14097500000000007,-0.769701,0.02120999999999995,-0.014185000000000114,-0.8458209999999999,0.10330799999999996,0.1551600000000002,0.07611999999999997,0.0,0.9337627144922294,single,-0.769701
108,0.9,jog,-1.244809792391713,-0.1309252370094742,-0.14256570262810056,0.1139455659338018,0.27113826583001366,1.121645574103961,-4.2493699747989675,-0.15012600504021456,-0.5619824792991688,0.012600504020163363,0.04404176167046738,-0.010200408016320819,2.1419890662777137,0.1565084167511358,-0.41963616201325094,-21.51633034327054,-6.769891040497215,2.166220810398425,1.7713106005002262,0.8645996201523793,0.5470312346256405,0.09948100000000015,0.1408149999999999,-0.773196,0.03168800000000016,-0.012727000000000155,-0.844718,0.06779299999999999,0.15354200000000007,0.07152199999999997,0.0,0.9217820389286056,single,-0.773196
109,0.908333,jog,-1.268450738029529,-0.14508580343214048,-0.0961238449537919,0.08100323375873926,0.5238924753961024,1.1157928858178363,-4.20064802592108,-0.22236889475580482,-0.5027001080043245,-0.01596063842555646,0.003480139205575066,0.028201128045121954,-2.837026957616243,-1.699335944157735,5.573245850751119,5.8468677400561955,-8.669493545612735,7.114169122146262,-3.4274741924541083,-4.867589399363097,4.60836866211966,0.07504700000000009,0.14017099999999982,-0.776584,0.04212499999999997,-0.011489000000000082,-0.843682,0.03292200000000012,0.1516599999999999,0.06709799999999999,0.0,0.9456820837092991,single,-0.776584
110,0.916667,jog,-1.2937365010798854,-0.10991120710344755,-0.10067194624430378,-0.02745633663588718,0.00013879782714104768,0.9853228634129414,-4.2021838252939405,-0.20746340292774854,-0.5641948644108425,-0.10067194624427714,0.08591312694983602,-0.004559635229181195,-3.034048842135381,4.220613910330292,-0.5457284965816945,-0.18428118224872161,1.788515938091693,-7.378780466344799,-10.164543774744423,9.891167235932365,-3.930977114747168,0.050807999999999964,0.1393580000000001,-0.780447,0.052068,-0.009857000000000005,-0.842881,0.0012600000000000389,0.1492150000000001,0.06243399999999999,0.0,0.7792896794417545,single,-0.780447
111,0.925,jog,-1.3069722788911482,-0.14748589943596777,-0.07824312972518699,0.2211821951472533,0.07790091721587572,1.1633177679314655,-4.183847353894139,-0.19908796351854915,-0.5222608904356163,-0.007560302412114006,0.025561022440899778,0.03072122884915375,-1.5883568716263992,-4.509143445640232,2.691565644919801,2.200464586559639,1.0050929328212344,5.032278168153855,11.173844213628074,-7.242542242762029,4.233873044321949,0.026834999999999942,0.13892799999999994,-0.784147,0.06289599999999984,-0.008415000000000061,-0.8419730000000001,0.0360609999999999,0.147343,0.057826000000000044,0.0,0.9322111541707783,single,-0.784147
112,0.933333,jog,-1.3022920916836893,-0.09576383055323218,-0.057842313692546124,-0.015085868790316492,0.2420121859606799,0.8846713394523721,-4.255250210008454,-0.2515300612024355,-0.45061802472099227,0.07404296171848018,0.012000480019199556,0.04284171366854668,0.5616449306922991,6.206896541789999,2.448195851750996,-8.568685481137173,-6.293303454204585,8.597487785266372,9.792783407007672,-1.627330183811394,1.454516358981524,0.0022279999999998967,0.13763000000000014,-0.78742,0.07436500000000001,-0.007516999999999996,-0.841134,0.07213700000000012,0.14514700000000014,0.05371400000000004,0.0,0.856030634713171,single,-0.78742
113,0.941667,jog,-1.3186945044396414,-0.10355171586271053,-0.058075353971686616,0.07903470238549168,-0.3821306042854018,0.8983003886555982,-4.301415886729014,-0.4479241660667096,-0.43832493400527667,-0.003959683225335912,0.024958003359729346,0.03395728341732701,-1.9681320801478266,-0.9344714794190419,-0.02796259648913973,-5.539438051423023,-23.565407351124623,1.4750528816553288,-9.359568627767638,1.5547784185900757,-1.066046346438637,-0.022629999999999928,0.13476,-0.790589,0.08532200000000012,-0.006446000000000174,-0.840367,0.10795200000000005,0.14120600000000016,0.04977799999999999,0.0022200000000000553,0.9294529684057441,single,-0.790589
114,0.95,jog,-1.3277331093243807,-0.11436457458298216,-0.00108004320173249,0.18884116573918677,-0.28628170510932094,0.6330816089297323,-4.27469098763956,-0.4416176647066076,-0.44017760710428877,0.017160686427457765,0.031441257650304436,0.02928117124685028,-1.0846759732076527,-1.2975949502306166,6.8397108808297915,3.2071161753815476,0.7568104356296683,-0.22232966506805713,2.5345457401648708,0.7780216357344472,-0.5611559066934804,-0.04718700000000009,0.13203299999999984,-0.794248,0.09652900000000009,-0.005231000000000208,-0.840114,0.14371600000000018,0.13726400000000005,0.04586600000000007,0.0413400000000001,0.9228920520222581,single,-0.794248
115,0.958333,jog,-1.324252970118788,-0.09948397935919684,0.0364814592583667,0.16510667584557964,-0.34500954832607167,0.5284441223060465,-4.2684507380294985,-0.48541941677665157,-0.41377655106203987,-0.02640105604225466,0.05520220808833854,0.010560422416896368,0.41763341000752957,1.7857428565684936,4.507560597635789,0.7488599076036849,-5.25642050522546,3.1682534552080637,-5.227618201093512,2.8514281096884684,-2.2465797227833715,-0.07172100000000015,0.12881700000000018,-0.7979999999999999,0.10734399999999988,-0.00394199999999989,-0.8403299999999999,0.17906500000000003,0.13275900000000007,0.04232999999999998,0.07670000000000005,0.8965078900001741,single,-0.7979999999999999
116,0.966667,jog,-1.512958963282937,-0.16630669546434806,0.07703383729301974,0.18422098692992042,-0.17398436187167782,1.0385886968272446,-4.361771058315304,-0.6115910727141937,-0.3023758099352022,0.004799616030722306,0.026037916966631876,0.02507799376049907,-22.642907747077945,-8.018084485859218,4.865896092470931,-11.197542630886078,-15.139387561500016,13.367019573654527,3.743781146265506,-3.4994349798063884,1.7419692036960153,-0.09546300000000008,0.12510599999999994,-0.8011619999999999,0.11999300000000002,-0.002339000000000091,-0.8407629999999999,0.2154560000000001,0.12744500000000003,0.039601,0.10398999999999997,0.9392199958626922,single,-0.8011619999999999
117,0.975,jog,-1.4162966518660984,-0.0891635665426551,0.06696267850714792,0.26526063069244826,-0.8133498310491483,0.5104111665285459,-4.26473058922359,-0.6038641545661793,-0.28609144365775024,-0.007200288011514404,0.032881315252623305,0.02532101284051336,11.599941367675441,9.257545772434138,-1.2085873978005417,11.645322103889907,0.9272672684524752,1.9542021213791063,-1.4400460869118947,0.8212406439447367,0.029163456139960773,-0.11919899999999983,0.12081699999999995,-0.804104,0.13173500000000016,-0.0013220000000000454,-0.84111,0.250934,0.122139,0.03700599999999998,0.12994000000000006,0.9297983315436362,single,-0.804104
118,0.983333,jog,-1.4656186247449605,-0.11832473298933749,0.16248649945997368,0.3853145559243516,-0.38164647130805285,0.3564337712549148,-4.290891635665424,-0.6287051482059248,-0.16836673466938626,-0.016800672026884483,0.03396135845434202,0.04320172806912249,-5.918873500403442,-3.499479952799984,11.463317047020924,-3.1394511510660603,-2.981038478308588,14.127530179810812,-1.1520921655310261,0.12961036862098996,2.1457716582994184,-0.14274200000000015,0.11656400000000011,-0.806861,0.14380799999999994,-5.2999999999858716e-05,-0.842104,0.2865500000000001,0.11661699999999997,0.03524299999999991,0.14757000000000003,0.9042279071502204,single,-0.806861
119,0.991667,jog,-1.4815214782817587,-0.10751139908807451,0.16582673386129138,0.2989156755905432,-0.5875206867186932,0.170850398577824,-4.198104151667876,-0.648908087353025,-0.2084233261339091,-0.022918166546682665,0.034557235421147775,0.05003599712023075,-1.9081897692342575,1.2974962684500884,0.4007960644729683,11.133607391114454,-2.4241587649508345,-4.80640646322571,-0.7340406191262558,0.07149951605540665,0.8200466823984041,-0.16538199999999992,0.11205200000000004,-0.80998,0.155964,0.0011309999999999931,-0.843069,0.3213459999999999,0.11092100000000005,0.033088999999999924,0.16910999999999993,0.891691722312473,single,-0.80998
120,1.0,jog,-1.4491779671186757,-0.07032281291251326,0.20880835233408815,0.24441198609375644,-0.6827390997419581,-0.14625036026563176,-4.146525861034431,-0.6728669146765743,-0.18900756030241214,-0.02664106564261893,0.026041041641681608,0.07932317292691697,3.881376594633727,4.4628088534214685,5.158000536757061,6.189642461711895,-2.8751742857973444,2.329985099183592,-0.44676576214283553,-1.0219841329012518,3.514601680869567,-0.187859,0.1070310000000001,-0.813295,0.16781800000000002,0.0019340000000001023,-0.844148,0.355677,0.105097,0.03085300000000002,0.19147000000000003,0.8539401949775396,single,-0.813295
121,1.008333,jog,-1.4797791911676712,-0.026761070442801422,0.12000480019200889,0.6879288074180593,-1.6234608448821508,-0.3087996928292077,-4.051842073683,-0.7061082443297797,-0.0973238929557182,-0.029761190447621294,-0.006960278411150132,0.10572422896915971,-3.6722937776305935,5.227618201093512,-10.656852531150854,11.362508982531127,-3.989119123149606,11.002480180810608,-0.3744299537984392,-3.9603168190126055,3.1682534552073665,-0.20929200000000003,0.10136999999999996,-0.815106,0.1799010000000001,0.002098999999999851,-0.844267,0.3891930000000001,0.09927100000000011,0.029160999999999992,0.20838999999999996,0.8165773965556922,single,-0.815106
122,1.016667,jog,-1.7508999280057387,-0.15070794336454718,0.3824094072474234,0.930970500560734,0.17198062164045344,1.034185733654289,-3.971682265418725,-0.7211423086153138,-0.04967602591792758,-0.02999760019199443,-0.016198704103671132,0.1749460043196532,-32.53188586969827,-14.872434955812913,31.48603396393239,9.618407519111363,-1.803943398792176,5.717286661601902,-0.02836689997277828,-1.1085224013104067,8.305948566173862,-0.2278,0.09661600000000004,-0.8187070000000001,0.19424299999999994,0.0032200000000000006,-0.845996,0.42204299999999995,0.09339600000000003,0.027288999999999897,0.2271100000000001,0.7029386592556965,single,-0.8187070000000001
123,1.025,jog,-1.6207848313932727,-0.086283451338044,0.3376935077403107,0.5664712926925343,-0.35205909181860146,0.15640645657559313,-3.8539541581663626,-0.806072242889733,-0.16296651866074768,-0.05556222248888568,-0.026761070442801422,0.19860794431777415,15.614436170942902,7.731248293112176,-5.366122585757002,14.127937987803154,-10.191999792922113,-13.595402945256348,-3.0678773907226073,-1.2675346620821297,2.839546381629804,-0.246409,0.09061799999999987,-0.822879,0.20728600000000008,0.0037160000000000526,-0.847155,0.45369500000000007,0.08690199999999981,0.024275999999999964,0.25724,0.6533957147261084,single,-0.822879
124,1.033333,jog,-1.976719068762721,-0.16368654746191275,0.3829353174126964,1.2519057155752848,0.5982873442886268,1.7392812554113684,-3.7478699147965275,-0.6889475579023036,0.09300372014880408,-0.08352334093363947,-0.03420136805473248,0.24144965798631604,-42.71381703701453,-9.28874308458747,5.429234330059388,12.730618429117143,14.055524419468068,30.717657363440214,-3.3554684321076804,-0.8928714282888427,5.141211288676484,-0.26116799999999996,0.08624100000000001,-0.8252950000000001,0.2230620000000001,0.004795000000000105,-0.848334,0.48423000000000005,0.08144599999999991,0.02303899999999992,0.2696100000000001,0.5703883556071923,single,-0.8252950000000001
125,1.041667,jog,-1.7091432685385402,-0.09119270458361967,0.412646988240945,0.5815550590225611,-0.2224493454513823,0.2976905512404676,-3.6043916486681664,-0.6807055435565065,0.0903527717782599,-0.10451163906888442,0.020158387329007578,0.3084953203743747,32.10652750470193,8.69856526017452,3.565115290166687,17.216014654231323,0.9889626044873091,-0.31808835739671576,-2.5183943046850663,6.522648834142199,8.044835899695219,-0.27696299999999996,0.08132800000000007,-0.8279810000000001,0.23643499999999995,0.005722999999999923,-0.849202,0.5133979999999999,0.07560500000000014,0.021220999999999934,0.28779,0.5,flight,-0.8279810000000001
126,1.05,jog,-1.6917076683067058,-0.05340213608544593,0.42097683907355027,0.15841021018672596,-0.16980297116147802,-0.047277687722574,-3.440777631105188,-0.7035881435257495,0.12408496339853463,-0.12996519860793546,-0.02448097923915365,0.35017400696027273,2.092355722048964,4.53504962176564,0.9996220847960091,19.634467486256533,-2.746021837182602,4.048024915429514,-3.0545493266591377,-5.356938265709882,5.001642456005915,-0.29153799999999996,0.07590999999999992,-0.8304549999999999,0.24944900000000003,0.00596400000000008,-0.849792,0.540987,0.06994599999999984,0.01933700000000005,0.30662999999999996,0.5,flight,-0.8304549999999999
127,1.058333,jog,-1.7466698667946725,-0.08976359054361907,0.46189847593904076,0.6449676483830872,-0.16528983372911707,0.17281775223750576,-3.266890675627055,-0.6883475339013579,0.2024480979239181,-0.17280691227650558,-0.07308292331694315,0.38221528861154885,-6.595727647661969,-4.363549076943895,4.910792855573128,20.86726934815008,1.8289463127795145,9.403952301138148,-5.141211288680009,-5.832466587998312,3.845107602457268,-0.3042060000000001,0.07092199999999993,-0.8326169999999999,0.2625639999999998,0.0061029999999999696,-0.850456,0.5667699999999999,0.06481899999999996,0.01783900000000005,0.32161000000000006,0.5,flight,-0.8326169999999999
128,1.066667,jog,-1.7819774418046623,-0.08903287736981219,0.43352531797456934,0.1400907413323782,-0.213370201845892,0.15040570075246074,-3.0421166306695318,-0.686345092392597,0.23050155987520896,-0.20590352771776047,-0.1408687305015598,0.4353251739860769,-4.236570075592699,0.08767856657149915,-3.404506595208929,26.970727736683628,0.24027375915057936,3.3661461424634798,-3.971276150858488,-8.133646170460299,6.37267643082885,-0.314708,0.065944,-0.8343090000000001,0.27569900000000014,0.005670999999999982,-0.850441,0.5904070000000001,0.06027300000000002,0.016131999999999924,0.3386799999999999,0.5,flight,-0.8343090000000001
129,1.075,jog,-1.8351134045361817,-0.06852274090964891,0.40729629185166544,0.30881849148998963,0.020641084642690054,0.3473081033957665,-2.8600744029761445,-0.7111484459378558,0.15204608184327395,-0.2562102484099385,-0.08748349933997196,0.42745709828393474,-6.3765705906060015,2.461314827812729,-3.147609039110061,21.84594116085311,-2.9765214862905296,-9.415033965190894,-6.037047964980019,6.406483998750549,-0.9442068525311681,-0.3232490000000001,0.060589000000000004,-0.836436,0.288856,0.005513000000000101,-0.850273,0.6121050000000001,0.0550759999999999,0.013836999999999988,0.36163,0.5,flight,-0.836436
130,1.083333,jog,-1.9559582383295067,-0.07356294251769638,0.47113884555382546,0.5243771713781151,0.83065774393986,1.0361298933455436,-2.6117844713788103,-0.6339853594143566,0.19728789151565795,-0.31033241329652367,-0.10704428177125612,0.557902316092634,-14.50196013360409,-0.6048483869011616,7.661412900775099,29.795983631024818,9.25994078045095,5.429234330059188,-6.494919583173433,-2.3473877872655486,15.654052299135598,-0.32871400000000006,0.05591900000000005,-0.8387180000000001,0.3025690000000001,0.005234000000000183,-0.84955,0.6312830000000001,0.05068499999999987,0.010831999999999953,0.3916799999999999,0.5,flight,-0.8387180000000001
131,1.091667,jog,-1.8794096472282553,-0.07595392368609259,0.44516438684905946,-0.36889507661877363,-0.05237322223219141,0.49017780187398496,-2.3792896568274973,-0.5994720422366325,0.14758819294456663,-0.3640508759299569,-0.12455003599713392,0.5344372450204085,9.18509612446038,-0.28689478862446116,-3.116685709715202,27.897145974480136,4.141266759986172,-5.963486749591105,-6.445699860023307,-2.1005224653081513,-2.815583282004554,-0.33288000000000006,0.051555999999999935,-0.841198,0.31519799999999987,0.004828999999999972,-0.8488060000000001,0.6480779999999999,0.04672699999999996,0.007608000000000059,0.42391999999999996,0.5,flight,-0.841198
132,1.1,jog,-1.7363494539781366,-0.07236289451579511,0.36709468378733584,-0.9502595917345605,-0.34304222848486865,-0.7731394566994386,-2.1150846033840986,-0.5675027001079924,0.09936397455898173,-0.4458178327132903,-0.16020640825633778,0.5319812792511615,17.16790990641021,0.43094073806521266,-9.36873911697135,31.705874648193205,3.836474514417323,-5.787137691777757,-9.81242731109228,-4.27893582853753,-0.294727681416892,-0.336036,0.04743000000000008,-0.843429,0.325952,0.004097000000000017,-0.847432,0.661988,0.043333000000000066,0.004002999999999979,0.45996999999999993,0.5,flight,-0.843429
133,1.108333,jog,-1.8927157086283501,-0.16332653306131742,0.4046561862474586,-0.19207094669019034,-1.8315628763397303,0.053634195996286896,-1.8867154686187637,-0.5445817832713276,0.05820232809312417,-0.5118204728189131,-0.1651266050641827,0.5327013080523267,-18.764701146071644,-10.916073268393513,4.507560597638676,27.405392387535944,2.7506200452016167,-4.939595159709341,-7.920633638020328,-0.5904472348307888,0.08640691241633158,-0.3359860000000001,0.0442530000000001,-0.846316,0.33745899999999995,0.004082000000000141,-0.846365,0.6734450000000001,0.04017099999999996,4.900000000007676e-05,0.4995099999999999,0.5,flight,-0.846316
134,1.116667,jog,-1.9173266138708716,-0.002279817614589765,0.27261819054474723,-1.3841140638982636,0.19903247654435946,0.2686017136359351,-1.612790976721841,-0.48440124790017247,0.030117590592752496,-0.5741540676745863,-0.13858891288697003,0.5566354691624633,-2.9530723833118815,19.32405992881287,-15.843292020963565,32.868309562865456,7.221086557613946,-3.369898908131925,-7.479433028038489,3.1842683197999113,2.871869583649675,-0.3334480000000001,0.04023500000000002,-0.8483369999999999,0.3486529999999999,0.002946000000000115,-0.8439979999999999,0.682101,0.037288999999999906,0.004338999999999982,0.5,0.45661000000000007,flight,-0.8439979999999999
135,1.125,jog,-1.8633145325813285,-0.10776431057243173,0.28141125645026555,-0.6200928919037748,-0.9600918048475352,-0.19798685003521313,-1.4075363014520696,-0.41245649825992364,-0.15324612984519526,-0.6575063002520175,-0.15960638425537807,0.564262570502825,6.481709023106149,-12.658645500761182,1.0552101170668902,24.631546294224545,8.633715305442156,-22.004526633619275,-10.002668016012475,-2.5221974521070716,0.9152887723943092,-0.32965,0.037696000000000174,-0.851959,0.35870099999999994,0.0025140000000001272,-0.841641,0.6883509999999999,0.03518200000000005,0.01031800000000005,0.5,0.39682000000000006,flight,-0.841641
136,1.133333,jog,-1.9025561022441113,-0.0979239169566705,0.24000960038401778,-0.6686902226417341,-0.498304558197073,-0.028417205200046165,-1.1150846033841548,-0.4052562102484359,-0.21204848193928008,-0.69146765870636,-0.14868594743789768,0.4704188167526752,-4.709176726603044,1.1808944696701442,-4.968397463848332,35.095607592453796,0.8640691241435041,-7.056564513870798,-4.075526035562554,1.310504838291191,-11.261700918054801,-0.32308800000000004,0.035134999999999916,-0.855726,0.3687929999999999,0.002091000000000065,-0.8397209999999999,0.691881,0.03304399999999985,0.016005000000000047,0.5,0.33995,flight,-0.8397209999999999
137,1.141667,jog,-1.8959683225341772,-0.07511399088073083,0.1929445644348502,-0.8684304749546723,-0.28469876824087287,-0.13850394589615625,-0.8818094552435665,-0.39068874490039607,-0.28953683705303335,-0.8186945044396414,-0.1963042956563425,0.5610751139908764,0.7904703275658773,2.7369721713390334,-5.647352525698011,27.990778514589223,1.7479560052843424,-9.297858784947525,-15.266000207977022,-5.713744686638404,10.877885437749038,-0.314636,0.032505000000000006,-0.859747,0.37777099999999986,0.0010810000000001097,-0.8366530000000001,0.6924069999999999,0.031423999999999896,0.023093999999999948,0.5,0.26905999999999997,flight,-0.8366530000000001
138,1.15,jog,-1.8762750510020652,-0.05172206888276421,0.18492739709587394,-0.4836063202374934,0.1694441029442963,-0.21681614840450128,-0.6377055082203396,-0.37033481339252977,-0.32281291251650335,-0.9086763470538799,-0.20904836193449516,0.5900636025441061,2.363287115338086,2.8071429254730385,-0.9620985646197442,29.29364538860304,2.442569483723327,-3.9932887871679235,-10.798253043830469,-1.5293491273434277,3.4787577766986595,-0.304315,0.029850000000000154,-0.8639779999999999,0.385834,-0.00022999999999995246,-0.8332769999999999,0.690149,0.030080000000000107,0.03070099999999998,0.5,0.1929900000000001,flight,-0.8332769999999999
139,1.158333,jog,-1.8703948157925976,-0.051962078483127096,0.11892475699028655,-0.3481387763401633,0.04445204494091182,-0.17374006543493245,-0.48697947917915935,-0.33649345973838707,-0.44053762150485337,-0.988239529581165,-0.22788911556460337,0.6661466458658247,0.7056564513941513,-0.028802304135710978,-7.920633638015868,18.087846998821263,4.0611248834923925,-14.127530179808948,-9.54796382182692,-2.260980874847939,9.130330411822554,-0.292787,0.02747900000000003,-0.8686400000000001,0.393185,-0.0016959999999999198,-0.828717,0.685972,0.02917499999999995,0.03992300000000004,0.5,0.10076999999999986,flight,-0.828717
140,1.166667,jog,-2.0775137988961205,-0.11831053515718144,0.13918886489080404,0.5383485791286813,0.5823737131535894,0.6692807945864372,-0.29625629949603915,-0.3086153107751461,-0.4913606911447179,-1.0452363810895222,-0.10823134149270429,0.8046556275498101,-24.852289789240086,-7.9611779066541395,2.431498428187889,22.884950765913587,3.3451102667676396,-6.098280494344314,-6.839075054998594,14.357784265886892,16.619748222220785,-0.277942,0.025892999999999944,-0.873895,0.40178800000000003,-0.0016120000000001689,-0.823171,0.6797300000000001,0.027505000000000113,0.05072399999999999,0.5,0.0,flight,-0.823171
141,1.175,jog,-1.8499939997599695,-0.09984399375976856,-0.004200168006721065,-0.3986154749179924,0.04375414877736164,-0.3532172598719989,-0.1057242289691594,-0.2815312612504402,-0.5683427337093373,-1.1660866434657153,-0.21456858274329407,0.8550342013680389,27.30346803505905,2.2160736106339325,-17.207372242592417,22.86476305374732,3.250215951602714,-9.238214636339617,-14.502611589606504,-12.76097938924612,6.045670685014744,-0.26340699999999995,0.02437900000000015,-0.8785959999999999,0.40748700000000015,-0.0025679999999999037,-0.8160109999999999,0.6708940000000001,0.026947000000000054,0.062585,0.5,0.0,flight,-0.8160109999999999
142,1.183333,jog,-1.8244329773191055,-0.0658826353054021,-0.09264370574823017,-0.17279628590401502,0.038234633831366695,-0.49331663861717556,-0.08268330733230013,-0.2810512420496925,-0.5646225849034014,-1.2714508580343489,-0.21828873154926579,0.9001560062402587,3.067445390719337,4.075526035565435,-10.613649074944187,2.765021197271028,0.05760460827405482,0.44643571414087196,-12.644211516696808,-0.4464357141451754,5.41483317799355,-0.24889300000000003,0.022585999999999995,-0.8825289999999999,0.412095,-0.003838000000000008,-0.807738,0.660988,0.026424000000000003,0.07479099999999994,0.5,0.0,flight,-0.807738
143,1.191667,jog,-1.7999760019198376,-0.06899448044156321,-0.14602831773456962,0.03622902495185445,0.22256461345836875,-0.3433551975554573,-0.07127429805615297,-0.19150467962562018,-0.4599232061435054,-1.3638108951283778,-0.23266138708902068,0.9199664026877789,2.9346022797297393,-0.37339154501572935,-6.405640987081719,1.3689715954100157,10.744727912655586,12.562920417554025,-11.082317865854122,-1.7245806983147087,2.37705740910967,-0.23448599999999997,0.021565000000000056,-0.8851450000000001,0.41573000000000004,-0.005201999999999929,-0.7988540000000001,0.650216,0.026766999999999985,0.086291,0.5,0.0,flight,-0.7988540000000001
144,1.2,jog,-1.7409096363854637,-0.0486019440777622,-0.21996879875196224,-0.10330634038019325,0.4310604199051398,-0.49974528641369553,-0.12576503060121774,-0.12456498259931643,-0.3628945157806344,-1.5867034681387482,-0.42745709828394307,1.0087603504140255,7.088247394020699,2.447202251746214,-8.873212650593219,-6.539149471386688,8.033084966555185,11.64390859988862,-26.748178688392223,-23.37642040020691,10.655699955147895,-0.22102699999999997,0.02093199999999995,-0.886336,0.4170149999999999,-0.008359000000000005,-0.788615,0.6380419999999999,0.029290999999999956,0.09772100000000006,0.5,0.0,flight,-0.788615
145,1.208333,jog,-1.7134285371414573,-0.0750030001200152,-0.2960518420736774,-0.13069561997000742,0.7936260938019033,-0.5517100770476604,-0.19512780511220304,-0.059522380895241,-0.21204848193927442,-1.7790711628464666,-0.3210128405136129,0.9281171246849701,3.297863823833668,-3.1682534552085135,-9.130330411822134,-8.323865895953928,7.8054244214657755,18.10224815088892,-23.085046766796477,12.77382188531481,-9.677574190454092,-0.20837499999999998,0.021060999999999996,-0.885636,0.41646800000000006,-0.01040899999999989,-0.7784139999999999,0.624843,0.03146999999999989,0.10722200000000004,0.5095853997548638,0.0,single,-0.7784139999999999
146,1.216667,jog,-1.6479481641469025,-0.08531317494599468,-0.4266858651307981,-0.5670320524619507,1.44347011423649,-0.9079975188457673,-0.27129829613632245,-0.08027357811372947,-0.16906647468202787,-2.04103671706267,-0.5640748740100978,0.865490760739157,7.8570161980508795,-1.2371220093568114,-15.674828780552335,-9.139727744674929,-2.489944470661011,5.157428276607555,-31.433351837798007,-29.165110810713887,-7.514562508497036,-0.19690200000000002,0.021103000000000094,-0.883489,0.4131920000000001,-0.01439900000000005,-0.7676449999999999,0.6100940000000001,0.035502000000000145,0.11584400000000006,0.5,0.0,flight,-0.7676449999999999
147,1.225,jog,-1.6005040201607703,-0.07272290891636815,-0.40729629185166794,0.06273726908263665,1.2492929185125825,-0.9564232248946484,-0.23592943717747245,-0.011520460818444057,-0.21144845793831463,-2.2985719428776887,-0.658226329053146,0.7815912636505346,5.693525019336534,1.5108923592495267,2.326841867170265,4.244432852376021,8.250704103598249,-5.086041432411618,-30.905463316334338,-11.298626550227599,-10.068342384329888,-0.185531,0.021613000000000104,-0.881857,0.40737499999999993,-0.019277999999999906,-0.7577379999999999,0.5929059999999999,0.04089100000000001,0.12411900000000009,0.5,0.0,flight,-0.7577379999999999
148,1.233333,jog,-1.5750630025201215,-0.1904476179046919,-0.5100204008160344,-0.7893739419071701,1.7631060572236363,-1.186134581382976,-0.2257290291611711,0.023640945637826056,-0.24240969638785784,-2.538581543261741,-0.693147725909043,0.6643465738629588,3.0530442386474257,-14.12753017980617,-12.327386171170934,1.2240979258732074,4.219537556254702,-3.7154972338345726,-28.80230413825208,-4.190735252117765,-14.069925571532078,-0.17428699999999997,0.02339699999999989,-0.8796269999999999,0.3993460000000001,-0.023467000000000127,-0.747952,0.5736330000000001,0.04686400000000002,0.131675,0.5,0.0,flight,-0.747952
149,1.241667,jog,-1.574514038876874,-0.1033117350611944,-0.4570434365250687,0.347262210351012,1.7115313675283956,-1.1610997688502946,-0.12083033357331083,0.027477801775861888,-0.2443004559635206,-2.76709863210941,-0.735421166306696,0.5986321094312401,0.06587036756031091,10.455469503659327,6.356727176741697,12.586836523621248,0.460385905691841,-0.22687299923959023,-27.4198570731542,-5.072407055153898,-7.885104923412309,-0.16217199999999998,0.024486999999999925,-0.877854,0.38940700000000006,-0.028735000000000177,-0.7391540000000001,0.551579,0.0532220000000001,0.13869999999999993,0.5434497962197147,0.0,single,-0.7391540000000001
150,1.25,jog,-1.5569422776911268,-0.13284531381257667,-0.43105724228970027,0.6165677764662936,1.6813353639576225,-1.2941579033222947,-0.09912396495859846,0.011160446417844663,-0.23304932197288097,-3.0044401776071386,-0.7239889595583836,0.5672626905076266,2.108695690117276,-3.544171217014585,3.1184680469661163,2.604868428502648,-1.958160969400861,1.3501900864802263,-28.482124744717478,1.3719196865849588,-3.764480850067664,-0.15002399999999994,0.025687000000000015,-0.876204,0.37734500000000004,-0.03366099999999994,-0.730835,0.527369,0.059347999999999956,0.14536899999999997,0.5775004849924592,0.0,single,-0.730835
151,1.258333,jog,-1.537621504860204,-0.08868354734187327,-0.47377895115804486,0.980759436368473,1.7024708050492658,-0.9226038303669368,-0.043201728069126394,0.007920316812687163,-0.12444497779911348,-3.030961238449576,-0.6771870874835133,0.37681507260290803,2.3185854831300845,5.299623961442914,-5.126810136606862,6.710936864211278,-0.38883110586313807,13.03304262255712,-3.182654607276826,5.616449306956765,-22.854628333699782,-0.137571,0.02649199999999996,-0.873293,0.3649009999999999,-0.03856500000000018,-0.723747,0.5024719999999999,0.06505700000000014,0.14954599999999996,0.7800525742996628,0.0,single,-0.723747
152,1.266667,jog,-1.552075833933277,-0.04691624670026725,-0.437005039596833,1.010655814252033,1.775011618951246,-0.7189048608827041,-0.03863690904728126,0.007439404847612913,-0.0731941444684419,-3.1787856971441992,-0.7125029997600136,0.25893928485720863,-1.7343807383096796,5.011675142981246,4.412516386034505,0.5477344638643028,-0.05770481942335561,6.14960803103806,-17.737516042071274,-4.237570467542604,-14.143963012442825,-0.12495800000000001,0.026944999999999997,-0.870261,0.351344,-0.04411200000000015,-0.717947,0.476302,0.07105700000000015,0.15231399999999995,0.8615007193191391,0.0,single,-0.717947
153,1.275,jog,-1.526341053642164,-0.09384375375015812,-0.4596183847353936,0.9468736048688314,1.1867102494038786,-0.8524440711036444,-0.05820232809311918,-0.018120724828994794,-0.06072242889715638,-3.2902916116644896,-0.7031081243249598,0.08856354254170445,3.088297166820259,-5.631526107031237,-2.7137099650259,-2.3479442032687023,-3.067338254723142,1.4966657351836834,-13.381244992234654,1.1274301494124424,-20.445906914137254,-0.11272399999999994,0.027576000000000045,-0.866937,0.3366450000000001,-0.04918899999999993,-0.713379,0.449369,0.07676499999999997,0.15355799999999997,0.8565980296610118,0.0,single,-0.713379
154,1.283333,jog,-1.4808592343693376,-0.08220328813152943,-0.45673826953077035,0.7841168502959741,0.7491841899542245,-0.8328374479302787,-0.059642385695423135,-0.024600984039362433,-0.05436217448697877,-3.5349813992559165,-0.6997479899196015,0.08196327853113851,5.458036634204435,1.396911750705447,0.34562764966077386,-0.17281382482946514,-0.7776622117325723,0.7632610596636864,-29.363949068933472,0.4032322579333083,-0.7920633638024517,-0.100881,0.02805600000000008,-0.863584,0.3195279999999999,-0.05433500000000002,-0.70889,0.4204089999999999,0.0823910000000001,0.154694,0.8593895392493928,0.0,single,-0.70889
155,1.291667,jog,-1.4666426685865523,-0.022438204943597405,-0.4215262778977748,0.24219998873322046,0.6583860610741341,-1.1509589576938657,-0.04355651547876279,-0.02387808975282746,-0.03167746580273643,-3.568754499640089,-0.7025437964962868,-0.08147348212143339,1.7058514258202022,7.171236283649287,4.2251009878805155,1.9301500139981582,0.08674037515418626,2.7219472863262264,-4.052447850272765,-0.3354699516061166,-19.610842410916128,-0.0890209999999999,0.028043999999999958,-0.8603350000000001,0.3020090000000001,-0.06000300000000003,-0.706056,0.39103,0.08804699999999999,0.15427900000000005,0.9018109101645181,0.0,single,-0.706056
156,1.3,jog,-1.5103804152165805,-0.15372614904596965,-0.3705748229929108,0.6454609529758782,0.26361573940724875,-0.7848293122323416,-0.011040441617675555,-0.013080523220918374,0.006600264010560246,-3.6942277691106904,-0.6842673706948273,-0.1902076083043292,-5.248739545185095,-15.755183499624378,6.11441916535019,3.902084946728269,1.2957598142216362,4.593511318048242,-15.057394632257187,2.193258826528162,-13.048617086630735,-0.07652700000000001,0.02921600000000013,-0.8571920000000001,0.28381100000000015,-0.06442400000000004,-0.7045530000000001,0.36033800000000016,0.09364000000000017,0.15263899999999997,0.9694242777928765,0.0,single,-0.7045530000000001
157,1.308333,jog,-1.468258730349227,-0.10668426737068593,-0.3271330853234167,0.5084157236814105,-0.05003703871246397,-1.34603135143519,-0.02496099843993614,-0.04020160806431985,-0.017760710428416742,-3.7847113884555807,-0.6531861274450875,-0.30637225489019837,5.0548043762575245,5.6452516110985425,5.213217049021301,-1.6705336400168864,-3.2546603676229116,-2.9234338700320666,-10.858468660133347,3.729898385904249,-13.940315202912544,-0.0645,0.029770000000000074,-0.8546140000000001,0.2645080000000001,-0.06897799999999998,-0.70438,0.3290080000000001,0.09874800000000006,0.1502340000000001,0.9157605336456811,0.0,single,-0.70438
158,1.316667,jog,-1.4887209023277959,0.056515478761685216,-0.4000479961603112,-0.7389710693633346,0.228683452747198,-0.9442354751637239,-0.020038396928235655,-0.03167746580274058,-0.025797936165106585,-3.8874490040796483,-0.6191504679625647,-0.3766498680105533,-2.4552642162909484,19.582402943648898,-8.749089373277418,0.5906649282097971,1.022815246169811,-0.9643899372077972,-12.327527672674202,4.083952421708974,-8.43263896332546,-0.05225999999999997,0.029035000000000144,-0.851495,0.24451699999999998,-0.07460899999999993,-0.704185,0.29677699999999996,0.10364400000000007,0.14731000000000005,0.9241614891599658,0.0,single,-0.704185
159,1.325,jog,-1.5667826713068747,0.022200888035533835,-0.3088923556942264,0.2236060601266909,-0.5585559905575215,-1.0294169706633394,-0.016320652826116194,-0.014160566422664536,-0.011280451218049282,-3.9662786511460886,-0.6065042601703994,-0.4909396375855093,-9.3677869889691,-4.117915603762354,10.9391144205071,0.44614713813986495,2.102112010089548,1.7421678803621068,-9.459936045414732,1.5176056392854211,-13.71532096183332,-0.03933999999999993,0.02873199999999998,-0.8490150000000001,0.224522,-0.07984799999999992,-0.705702,0.26386199999999993,0.1085799999999999,0.14331300000000002,0.9593752288975987,0.0,single,-0.705702
160,1.333333,jog,-1.4934597383895007,0.042721708868356745,-0.29329173166926187,-0.18057622035285095,-0.21303334790591455,-0.9543726195208805,-0.03228129125165847,-0.04308172326892979,-0.050162006480257704,-4.015720628825072,-0.5822632905316205,-0.5707428297131798,8.799103914241284,2.4625970038188587,1.8721497689864712,-1.915353225194047,-3.470677648657716,-4.665973270395744,-5.933274652464002,2.9090327179621314,-9.576766125965332,-0.027164000000000077,0.02801699999999996,-0.846989,0.20350400000000002,-0.08505600000000002,-0.708014,0.2306680000000001,0.11307299999999998,0.13897499999999996,0.8773629616983916,0.0,single,-0.708014
161,1.341667,jog,-1.383129349652062,0.0711543076553968,-0.3749700023998205,-0.5435608302016932,-0.614804983536337,-1.399608740195566,0.016798656107515197,-0.006119510439167773,-0.054595632349413566,-4.137868970482452,-0.6021118310535232,-0.6849052075834052,13.238587561487979,3.411638923331006,-9.8006084389921,5.889122553296688,4.4351107307130695,-0.5319925448951219,-14.656628468608375,-2.3816343318818136,-13.698389473269451,-0.015496999999999983,0.02737299999999987,-0.8443189999999999,0.18054599999999998,-0.09066700000000005,-0.7105969999999999,0.19604299999999997,0.11803999999999992,0.133722,0.9042525554929652,0.0,single,-0.7105969999999999
162,1.35,jog,-1.5417016680666886,-0.06960278411136622,-0.23124924996999618,-0.2988174705068752,-0.07626317198761741,-0.4652664088183296,-0.005520220808831116,-0.025441017640690657,-0.02604104164166544,-4.16164646585855,-0.5365414616584706,-0.6965078603144008,-19.029439387330353,-16.891526673078193,17.247180178785765,-2.678372364856105,-2.3186736111271506,3.426687952447813,-2.8534135816750132,7.868759077769281,-1.3923740226803534,-0.0026960000000000317,0.027741000000000016,-0.8426089999999999,0.15871400000000002,-0.09455800000000014,-0.7144739999999999,0.16141000000000005,0.12229900000000016,0.128135,0.9386301271398141,0.0,single,-0.7144739999999999
163,1.358333,jog,-1.6912276491059823,-0.12792511700468273,0.0009600384015370304,0.2969477344484967,1.9256461599044237,0.13386281309586906,-0.016320652826116194,-0.029761190447621294,0.002160086403456653,-4.239889595583862,-0.5371414856594222,-0.7275891035641474,-17.943835478134535,-6.998959905594269,27.86622925375439,-1.2961036862216702,-0.5184414744906609,3.3842707362441318,-9.389551149083475,-0.07200576034460698,-3.7298983859050616,0.011260999999999965,0.028559,-0.842599,0.13747600000000004,-0.09796800000000006,-0.720545,0.12621500000000008,0.12652700000000006,0.122054,0.9433147545456149,0.0,single,-0.720545
164,1.366667,jog,-1.6809455243580445,-0.041396688264943256,-0.1817854571634175,0.0013701937357242986,-0.6601101923981503,-0.8576924195152138,-0.007319414446841525,-0.017878569714417276,0.001679865610751142,-4.324814014878783,-0.5051595872330231,-0.7556995440364711,1.2337562692509962,10.382580842301275,-21.927705251374267,1.0800622005369092,1.4258004239505553,-0.05762188537383097,-10.190115106181896,3.8375208095031015,-3.3729830180373748,0.025209000000000037,0.028755000000000086,-0.84107,0.11544200000000004,-0.10183300000000006,-0.725328,0.09023300000000001,0.13058800000000015,0.11574200000000001,0.9676804569206832,0.0,single,-0.725328
165,1.375,jog,-1.4654986199448112,0.009960398415943358,-0.06852274090963559,-0.15956229349898085,0.7088880097186679,-0.8416744839365542,0.03984159366374679,-0.012240489619590475,0.03552142085683432,-4.410056402256134,-0.486979479179159,-0.740189607584311,25.85466271609687,6.163096925583473,13.592069633239285,5.659547355164856,0.6765966752462321,4.061149075493038,-10.229495665108887,2.181700234473092,1.8612668249322317,0.037753000000000037,0.028569999999999984,-0.840203,0.09090500000000001,-0.10597400000000001,-0.730925,0.05315199999999998,0.134544,0.10927799999999999,0.9087288302869662,0.0,single,-0.730925
166,1.383333,jog,-1.6367454698188024,-0.025561022440900118,-0.02532101284052252,0.5474610114962484,-0.9145856748587508,-0.9876074569603509,-0.0687627505100132,-0.05268210728430124,-0.02940117604704241,-4.4386175447018275,-0.3957758310332477,-0.8001920076803154,-20.550444002639235,-4.262741012461754,5.184414744883411,-13.03304262255622,-4.853188247295228,-7.791023269396054,-3.427474192450925,10.944875572532359,-7.200576034561981,0.05081900000000006,0.028343999999999925,-0.840237,0.06755699999999998,-0.10905900000000002,-0.737382,0.01673799999999992,0.13740299999999994,0.10285500000000003,0.8475373503064683,0.0,single,-0.737382
167,1.391667,jog,-1.5688744900407785,-0.05747540196785632,0.0964722822174251,-0.010418536825774552,-0.5058430437375866,-0.2515426123042355,-0.028557715382777737,-0.034797216222690094,0.056755459563234655,-4.24790016798652,-0.4179265658747418,-0.8672906167506548,8.143866064077683,-3.829419189699539,14.614026284850814,4.824218277805993,2.1460152461736275,10.337969235694313,22.88425446547945,-2.6578755509351972,-8.051188993321198,0.06365599999999993,0.02853300000000014,-0.840568,0.04522999999999999,-0.11206300000000002,-0.745414,0.018425999999999942,0.14059600000000017,0.09515399999999996,0.879266460116982,0.0,single,-0.745414
168,1.4,jog,-1.6633865354614352,-0.13236529461176819,0.3370934837393467,-1.132195202435863,2.1699221760050733,-0.27183793271651957,-0.0006000240009639748,-0.028321132845329073,0.03744149765990671,-4.530421216848716,-0.28621144845792407,-0.8406336253450195,-11.341899126443968,-8.987146603133631,28.875699210599283,3.3550571681044064,0.7771610917269988,-2.3177681391249396,-33.90388201874459,15.806446347872189,3.1989669273533554,0.07751199999999991,0.02939999999999987,-0.843065,0.021338999999999997,-0.11334500000000003,-0.755228,0.05617299999999992,0.1427449999999999,0.08783699999999994,0.9217498253203705,0.0,single,-0.755228
169,1.408333,jog,-1.618024720988814,-0.07464298571944217,0.09180367214688614,-0.5398479366561791,0.05297007889637656,-0.36371563972002197,-0.016920676827066394,-0.023520940837616647,0.054722188887555145,-4.4760590423616256,-0.34993399735990516,-0.7645505820232694,5.44363548213375,6.926954145244811,-29.435954829287926,-1.9585566813995121,0.5760460827687918,2.073765897953694,6.523721887326275,-7.647011748707546,9.130330411826323,0.09085399999999999,0.02982600000000013,-0.843374,-0.0024770000000000625,-0.11563900000000005,-0.762364,0.09333100000000005,0.14546500000000018,0.08100999999999992,0.8968003294737986,0.0,single,-0.762364
170,1.416667,jog,-1.6519078473722384,-0.06479481641468625,0.28821694264459574,-1.1073707297601711,1.608086578310534,-0.405683546536079,-0.009119270458359302,-0.03287736981042869,0.07295416366690773,-4.8273338132950165,-0.34125269978400535,-0.667506599472053,-4.065649914017896,1.181685781708196,23.567707043162148,0.93609387673473,-1.1226816622044906,2.187661960565506,-42.149600543964205,1.0416723753179709,11.644346358437511,0.104545,0.030092000000000008,-0.845168,-0.028940999999999995,-0.11794299999999991,-0.770329,0.133486,0.14803499999999992,0.07483899999999999,0.8657697610686694,0.0,single,-0.770329
171,1.425,jog,-1.6833073322932637,-0.05376215048601898,0.2394095763830474,-0.6963014601122092,-1.2382619286090875,-0.6541436869633181,-0.024000960038398474,-0.002760110404402235,-0.013560542421696868,-4.554422176887001,-0.3086523460938406,-0.6957878315132481,-3.7680889140795317,1.3239728703548637,-5.8571182361151415,-1.7858741845720523,3.614215697351006,-10.382180017833083,32.75070639721721,3.9121989307769303,-3.3938836002873565,0.11837200000000003,0.030517000000000127,-0.8472759999999999,-0.052866000000000024,-0.12006699999999992,-0.778122,0.17123800000000006,0.15058400000000005,0.06915399999999994,0.9538254337991883,0.0,single,-0.778122
172,1.433333,jog,-1.7223088923557137,-0.1507260290411539,0.4459378375135109,0.4377864066227041,-0.6265330963462946,-0.16939319502677092,-0.05736229449179093,-0.06852274090964891,-0.05868234729389186,-4.867394695787874,-0.09084363374536489,-0.6007440297611972,-4.680374422470946,-11.63613087185117,24.784382710964284,-4.00352027521814,-7.8918313338830295,-5.414833177990568,-37.55820459628903,26.138091005457547,11.405712438743755,0.13224599999999997,0.031201999999999952,-0.851481,-0.07907399999999998,-0.11956800000000012,-0.786844,0.21131999999999995,0.15077000000000007,0.06463700000000006,0.8218192495817896,0.0,single,-0.786844
173,1.441667,jog,-1.6881449484041147,-0.06251499880009476,0.05531557475402462,-0.8149190538226438,-2.8775505891345605,-0.385089755935903,-0.015958723302128355,-0.04823614110871255,0.08759299256059466,-4.834293256539442,-0.10571154307654222,-0.6539476841852597,4.09934532656573,10.584476870777355,-46.870921857389405,4.96803110027145,2.434197240333118,17.55163665160612,3.971854961414964,-1.7840063992293282,-6.383927816662118,0.14618200000000003,0.03132099999999993,-0.8512120000000001,-0.105294,-0.11992800000000003,-0.7927550000000001,0.25147600000000003,0.15124899999999997,0.05845699999999998,0.8312304455427303,0.0,single,-0.7927550000000001
174,1.45,jog,-1.7326293051722235,-0.10548421936878462,0.4296171846873814,-1.6135654290133856,1.4522884355811134,-0.33377264153738495,-0.027721108844351774,-0.03360134405376942,0.15468618744749912,-4.757950318012766,-0.08652346093843492,-0.5826233049322024,-5.33833634562693,-5.156512728751981,44.91798991159969,-1.4115427267758942,1.756245896429049,8.051505446646475,9.161519083964597,2.302661963051419,8.559267881082203,0.16038900000000006,0.03191999999999995,-0.853503,-0.130504,-0.11976999999999993,-0.80119,0.29089300000000007,0.15168999999999988,0.052313000000000054,0.7321623274318367,0.0,single,-0.80119
175,1.458333,jog,-1.7827913116524325,-0.18240729629184438,0.3948157926317002,-0.623915449564662,-0.1530456270489094,0.1630614190100904,-0.035401416056647074,-0.025921036841472483,0.18168726749069664,-4.776671066842584,-0.037201488059525625,-0.5433817352694018,-6.01968156488758,-9.231138476306063,-4.1763341000456755,-0.9216737324247168,0.921673732424913,3.2402592155522667,-2.2465797227671116,5.9188735004090285,4.70917672660505,0.17495,0.03322399999999992,-0.855279,-0.15545199999999998,-0.11856,-0.809008,0.330402,0.15178399999999992,0.04627100000000006,0.6884829968168815,0.0372900000000001,single,-0.809008
176,1.466667,jog,-1.8096952243820819,-0.07091432685385403,0.2910967122630292,-0.8716739060475193,-0.9879112425900902,-0.6060821763791455,-0.02987760979122384,0.023998080153585528,0.30021598272138766,-4.682265418766588,-0.06671466282697522,-0.49892008639309743,-3.2282112706563266,13.378086085672242,-12.4452940207191,0.6628037275525965,5.9898148542187375,14.222308043039751,11.327771547396003,-3.541297668280556,5.33497106747123,0.18978299999999992,0.034014999999999906,-0.855203,-0.179392,-0.11852499999999999,-0.815592,0.3691749999999999,0.1525399999999999,0.03961100000000006,0.5,0.10389000000000004,flight,-0.815592
177,1.475,jog,-1.746069842793682,-0.058562342493704,0.37717508700347435,-0.6245094910706028,-0.02235064408019178,-0.6729797617345059,-0.07596303852153889,0.01632065282612908,0.2943717748709893,-4.695787831513181,-0.11400456018240607,-0.37081483259329673,7.63535120465603,1.4822974151145825,10.329818161579702,-5.530472666544371,-0.9213281324200544,-0.7013329953676047,-1.622754439768768,-5.675014683238932,15.373245385791247,0.20369999999999994,0.034639000000000086,-0.855893,-0.20397200000000001,-0.11898699999999995,-0.821825,0.4076719999999999,0.15362600000000004,0.03406799999999999,0.5,0.15931999999999996,flight,-0.821825
178,1.483333,jog,-1.8156726269050967,-0.13272530901236787,0.6896675867034681,-0.9867287443671574,1.1555024992485987,-0.3789760213899194,-0.12192487699506963,0.006720268810759212,0.3369734789391604,-4.689427577103127,-0.055682227289094464,-0.2942517700708067,-8.352668200097837,-8.899911978718896,37.50059998799911,-5.515641242473437,-1.152092165531016,5.11240898453996,0.763261059648853,6.99895990559368,9.187935020099689,0.21781400000000006,0.035801000000000194,-0.858832,-0.22791899999999998,-0.11834499999999992,-0.830024,0.44573300000000005,0.15414600000000012,0.028808000000000056,0.5,0.21192,flight,-0.830024
179,1.491667,jog,-2.0848332133429137,-0.2597792176625817,0.3120950323974149,1.7054268496479523,-2.7732976632511455,0.5922228675624428,-0.18322534197264753,0.10571154307654222,0.3954883609311234,-4.595872330213548,0.011399088072948824,-0.14494840412766877,-32.29668663760679,-15.245249418072099,-45.30508211015722,-7.355467359920499,11.878002671680136,7.021224141104215,11.22573156822397,8.049113914331986,17.914970715519175,0.23366199999999998,0.038847000000000076,-0.858137,-0.248846,-0.116085,-0.833833,0.482508,0.15493200000000007,0.024303999999999992,0.5,0.2569600000000001,flight,-0.833833
180,1.5,jog,-1.8789151566062852,-0.0876035041401541,0.4078963158526294,-0.12335817490172067,-0.6712214521386287,-0.8363489130069908,-0.2743309732389333,0.029401176047048238,0.2641305652226107,-4.400216008640385,0.013560542421700562,-0.058442337693508435,24.711155254605835,20.66191209917547,11.496613879181018,-10.93311307647745,-9.157610347953279,-15.763566027662774,23.479697776690873,0.25938489724610075,10.381143217828049,0.247033,0.039822000000000024,-0.859335,-0.269856,-0.11524200000000007,-0.837719,0.5168889999999999,0.1550640000000001,0.02161599999999997,0.5,0.28384000000000004,flight,-0.837719
181,1.508333,jog,-1.7940717628705267,0.0012000480019279496,0.30961238449538586,0.03004740827515107,-2.680382896517444,-1.495457493747928,-0.32485299411976953,0.026401056042228366,0.4987399495979893,-4.18288731549266,0.05148205928237329,0.06432257290291775,10.18161451287162,10.65685253115119,-11.79454354461112,-6.062885021101248,-0.36002880173045715,28.154252295137493,26.080486397183147,4.550764053842923,14.732378566713946,0.25927599999999995,0.040031999999999845,-0.857759,-0.289762,-0.11482300000000012,-0.839763,0.5490379999999999,0.15485499999999996,0.017996000000000012,0.5,0.32004,flight,-0.839763
182,1.516667,jog,-1.961603071754248,-0.1111111111111348,0.33609311255098645,0.28577719091965437,-0.9820295749739735,-0.5378608858664462,-0.29457643388528515,0.052555795536375946,0.46268298536116736,-3.9178065754739313,0.03503719702423287,0.21370290376769585,-20.102148894134878,-13.476260992688012,3.177433172018285,3.6328965964103856,3.138317673883775,-4.326489589251457,31.807144230708694,-1.9732256129278007,17.92420576731185,0.273169,0.04139600000000021,-0.8567039999999999,-0.306065,-0.11360499999999996,-0.840783,0.579234,0.15500100000000017,0.015920999999999963,0.5,0.3407900000000001,flight,-0.840783
183,1.525,jog,-1.7855514220568958,-0.050642025681018395,0.5832233289331731,-0.7726344546524856,0.4560991607565988,-0.7468380348216423,-0.32845313812552673,0.13248529941197695,0.4776191047641946,-3.5600624024961327,0.05688227529102242,0.2137285491419682,21.12704304540429,7.256580514834628,29.656812238352202,-4.065367123513968,9.59192414203789,1.7924060246042703,42.93101799805615,2.621514252584873,0.0030775680154031143,0.285311,0.04292200000000013,-0.857584,-0.320852,-0.11270899999999995,-0.843862,0.606163,0.15563100000000007,0.013722000000000012,0.5,0.36278,flight,-0.843862
184,1.533333,jog,-2.0345613824552657,-0.35329413176527136,0.27025081003238705,2.250178822098211,-2.3509662621217173,-0.11462007071224652,-0.4027361094443738,0.15660626425055404,0.6833073322932803,-3.1784471378854597,0.055562222488884205,0.21912876515060317,-29.88239054342561,-36.31970551833045,-37.55820459627752,-8.914313130786727,2.894631565891836,24.683574646475712,45.79566357982315,-0.15841267276349322,0.6480518431099092,0.298909,0.047171000000000074,-0.854142,-0.330384,-0.10930200000000001,-0.8442879999999999,0.629293,0.15647300000000008,0.00985400000000003,0.5,0.40146,flight,-0.8442879999999999
185,1.541667,jog,-1.9046076313895215,-0.12598992080633734,0.3231341492680715,1.0294286788903642,-1.20051242202153,-0.7077381556648275,-0.5057595392368669,0.10547156227502891,0.6943844492440737,-2.787017038636962,0.03827693784499476,0.20962323014159248,15.593202671675872,27.274323369203064,6.345493068836747,-12.36182262928906,-6.1356733831924775,1.3291477022790492,46.96785448146208,-2.074068231808228,-1.140572955244885,0.310567,0.049100000000000144,-0.851048,-0.33773800000000004,-0.10793299999999983,-0.845234,0.648305,0.15703299999999998,0.005813999999999986,0.5,0.44186000000000003,flight,-0.845234
186,1.55,jog,-1.7207488299531668,-0.24852994119763563,0.717748709948387,-2.6133290404144183,2.511500233504986,0.07506119016489086,-0.6703468138725408,0.04644185767429598,0.6986679467178557,-2.413056522260848,0.07656306252248953,0.1669266770670785,22.063938729911374,-14.705390662582042,47.35564150729733,-19.751263006800794,-7.083847906004067,0.5140402584641676,44.87705704741481,4.594518742048973,-5.123791320594411,0.31932,0.05155799999999999,-0.851207,-0.343507,-0.10522399999999998,-0.849824,0.662827,0.15678199999999998,0.001383000000000023,0.5,0.48617000000000005,flight,-0.849824
