frame_id,timestamp,gait_type,root_linear_velocity_x,root_linear_velocity_y,root_linear_velocity_z,root_angular_velocity_x,root_angular_velocity_y,root_angular_velocity_z,left_linear_velocity_x,left_linear_velocity_y,left_linear_velocity_z,right_linear_velocity_x,right_linear_velocity_y,right_linear_velocity_z,root_acceleration_x,root_acceleration_y,root_acceleration_z,left_acceleration_x,left_acceleration_y,left_acceleration_z,right_acceleration_x,right_acceleration_y,right_acceleration_z,left_pos_rel_x,left_pos_rel_y,left_pos_rel_z,right_pos_rel_x,right_pos_rel_y,right_pos_rel_z,step_length,step_width,step_height,left_contact_prob,right_contact_prob,support_type,max_foot_height
1,0.008333,stand,0.016200648025920583,-0.13188527541101178,-0.034201368054733075,0.15014317818263775,0.18802798408183116,0.0959189778642575,-0.0022800912036470954,0.008520340813624412,0.004080163206528178,-0.0037201488059526275,0.007320292811696474,-0.0001200048001921277,0.0,0.0,0.0,0.0,0.0,0.0,0.0,0.0,0.0,-0.055234000000000005,-0.06033500000000003,-0.904805,0.017019000000000006,0.1921599999999999,-0.9024,0.07225300000000001,0.2524949999999999,0.0024049999999999905,0.98380305624944,0.9622629628297961,double,-0.9024
2,0.016667,stand,0.021718262538995284,-0.12574994000480547,-0.025557955363559835,0.11943380828369458,0.15223668911586805,0.13438718020515728,-0.0034797216222703675,0.00575953923686681,0.006719462443004618,-0.0045596352291795645,0.007679385649155747,-0.001199904007679753,0.6620607767068275,0.7361813542364183,1.0371265528165634,-0.1439441347040163,-0.3312696876359013,0.3166905731313223,-0.10073031236224345,0.043087693479634384,-0.12957753869541938,-0.05544399999999999,-0.05923899999999993,-0.904536,0.016800000000000037,0.193272,-0.902197,0.07224400000000003,0.25251099999999993,0.00233899999999998,0.9841507159018622,0.9615912148183905,double,-0.902197
3,0.025,stand,0.04368174726989451,-0.1454458178327122,-0.027961118444742437,0.01794909496118724,0.1134886656524962,0.17923793790320278,-0.004920196807867243,0.006120244809781858,0.006240249609984812,-0.0030001200047998617,0.00792031681268709,-0.0003600144005755504,2.635723596651773,-2.363599883344143,-0.2883911053861277,-0.17286393682909817,0.043286400205814,-0.057507840275987814,0.18714931289808026,0.028912896139606716,0.10079078448388366,-0.05584899999999998,-0.05797600000000003,-0.904251,0.01641100000000001,0.1945500000000001,-0.901967,0.07225999999999999,0.25252600000000014,0.0022840000000000638,0.9832828723597353,0.9630314484479559,double,-0.901967
4,0.033333,jog,0.032041281651268114,-0.14916596663866483,-0.032401296051841166,0.14875456252032884,0.14547010392233206,0.15905075760188622,-0.005400216008642415,0.008400336013442276,0.007320292811712295,-0.0030001200047998617,0.007680307212269526,0.0010800432017274838,-1.3969117507051956,-0.4464357141428797,-0.5328426265569097,-0.05760460827735179,0.2736218893148228,0.12961036862204295,0.0,-0.028802304142273367,0.17281382482935728,-0.056161000000000016,-0.05666300000000002,-0.9039200000000001,0.016118999999999994,0.19585699999999995,-0.901688,0.07228000000000001,0.25251999999999997,0.0022320000000000118,0.9793632834674633,0.963820152694881,double,-0.901688
5,0.041667,jog,0.03611711063114899,-0.15442764578832816,-0.020758339332850817,0.11121695105210473,0.11331586232702134,0.15915415821760565,-0.0062395008399323834,0.008639308855300216,0.0056395488360929235,-0.0016798656107528196,0.008159347252241303,0.0023998080153586733,0.4890603527574843,-0.6313509898804089,1.3970430428354148,-0.10070612326493499,0.02867444706718739,-0.20167314322286678,0.15841785385733645,0.0574802063801029,0.15835910890703014,-0.05651400000000001,-0.05530400000000002,-0.9037000000000001,0.015803999999999985,0.19721200000000005,-0.901495,0.072318,0.2525160000000001,0.0022050000000000125,0.9799048417036824,0.9635012424060225,double,-0.901495
6,0.05,jog,0.05604224168966701,-0.16428657146286627,-0.017280691227653064,0.0572738969180192,0.25812975128738014,0.16396748768215974,-0.0076803072122895106,0.006960278411136745,0.006240249609984812,-0.004200168006721138,0.009720388815552351,0.0008400336013440611,2.3911113714770216,-1.1831184056808004,0.41733446600237045,-0.17290368083008845,-0.20149171296813528,0.07208697634608041,-0.3024483854516163,0.18733248089656163,-0.1871804168984294,-0.05704500000000001,-0.05387699999999995,-0.903504,0.015301999999999982,0.19866200000000012,-0.901344,0.072347,0.25253900000000007,0.0021599999999999397,0.9798358603766076,0.960696184775467,double,-0.901344
7,0.058333,jog,0.045961838473534945,-0.1827673106924206,-0.032401296051841166,0.0984918415057246,0.1275468055323596,0.22972956178665813,-0.008760350414015329,0.005400216008635754,0.007800312012479973,-0.003360134405372914,0.00540021600862243,0.0016800672026881223,-1.2096967738068,-2.217777418643267,-1.8145451607090006,-0.12961036862184308,-0.1872149768991949,0.1872149768984953,0.10080806448436629,-0.5184414744905701,0.10080806448386669,-0.05750099999999997,-0.05230900000000005,-0.903169,0.014891000000000043,0.2002299999999999,-0.90106,0.07239200000000001,0.25253899999999996,0.0021090000000000275,0.9784779867339725,0.9679459853805099,double,-0.90106
8,0.066667,jog,0.06467482601392029,-0.17002639788816912,-0.01067914566834722,0.10061656135401298,0.13585852791751693,0.15485368544370037,-0.004319654427650108,0.0013198944084453137,0.0015598752099839285,0.014878809695219278,0.01979841612670635,-0.023878089752819506,2.2453788745362777,1.5287872335314963,2.6064495300568686,0.5328408910925391,-0.48959942406892726,-0.7487925128984934,2.1884982122140855,1.7276458025058696,-3.0667334959812367,-0.058076000000000016,-0.050881000000000065,-0.903067,0.014475999999999989,0.20181199999999988,-0.90117,0.072552,0.25269299999999995,0.0018969999999999265,0.9920357140421747,0.9236928046524462,double,-0.90117
9,0.075,jog,0.05748229929197259,-0.20136805472219726,-0.036721468858757794,0.0920353656780998,0.09426689138179598,0.12516960208604677,-0.009120364814588389,-0.0027601104044156083,0.010320412816512164,-0.003600144005757172,0.013200528021127396,0.005880235209408433,-0.8631377321430097,-3.761149266054023,-3.125203791000912,-0.5761082907642248,-0.489620162349805,1.051306565045991,-2.2175631466430414,-0.791778243799227,3.571141841141001,-0.05863099999999999,-0.04922599999999999,-0.902675,0.013967000000000007,0.2036,-0.9008149999999999,0.072598,0.252826,0.0018600000000000838,0.9765888093888738,0.956578854052289,double,-0.9008149999999999
10,0.083333,jog,0.06504260170406655,-0.20304812192488003,-0.00936037441497929,0.15759862682656223,0.2353524858150251,0.1809136278464754,-0.010200408016320854,-0.0001200048001954584,0.00948037921516892,-0.0028801152046110624,0.014160566422664394,0.006240249609984806,0.9072725803544879,-0.20161612896709052,3.283462671760288,-0.1296103686226406,0.3168253455202385,-0.10080806448376864,0.08640691241402965,0.11520921655310178,0.043203456207413116,-0.05925799999999998,-0.047534999999999994,-0.9025179999999999,0.013400999999999996,0.2054100000000001,-0.900685,0.07265899999999997,0.2529450000000001,0.0018329999999999735,0.9767895907622068,0.9554361467545465,double,-0.900685
11,0.091667,jog,0.08579313654907868,-0.20926325893928113,-0.0008399328053730801,0.04847645183187057,-0.012725920012667738,0.2281541813896569,-0.010439164866811112,0.003239740820734253,0.008879289656827181,-0.001559875209981432,0.012598992080636168,0.004679625629949292,2.4898649922020812,-0.7457567811856378,1.0223712034564694,-0.028648530176416838,0.403137223533683,-0.07212497700284841,0.1584161260654705,-0.187373931128897,-0.18725989681251684,-0.06006,-0.04576400000000003,-0.9024369999999999,0.01267299999999999,0.20725900000000008,-0.900639,0.07273299999999999,0.2530230000000001,0.0017979999999999663,0.9765293405082577,0.9594696422697058,double,-0.900639
12,0.1,jog,0.07764310572422994,-0.2499699987999453,-0.02664106564261902,0.2525757511083496,0.09081277012211199,0.16966557221134942,-0.014640585623426244,0.003480139205575031,0.009120364814592538,-0.0034801392055683693,0.01332053282130951,0.005040201608064363,-0.978042820694675,-4.885004183447034,-3.0962597908611444,-0.5041906584201523,0.028848960139298895,0.02893017613888833,-0.23044089710631654,0.08658835241489754,0.04327084820773677,-0.06082900000000002,-0.043652000000000024,-0.902139,0.01199699999999998,0.209453,-0.900375,0.072826,0.253105,0.0017639999999999878,0.9706723883118886,0.9579246206072896,double,-0.900375
13,0.108333,jog,0.08820352814112399,-0.23256930277211052,-0.02640105604224147,0.17912939080368231,0.0777039754380905,0.20343725707727964,-0.018600744029763153,-0.001800072002878586,0.007200288011520174,-0.02688107524300998,-0.0002400096003909172,0.03468138725548996,1.26730138208257,2.0881670500221765,0.028802304137471417,-0.4752380182811607,-0.6336506910420763,-0.23041843310600815,-2.808224653479135,-1.627330183811405,3.557084561073517,-0.061719000000000024,-0.041729000000000016,-0.9018590000000001,0.011037999999999992,0.21138899999999994,-0.899866,0.07275700000000002,0.25311799999999995,0.0019930000000000225,0.9666220263444938,0.9069367799910878,double,-0.899866
14,0.116667,jog,0.10619150467962182,-0.23422126229902362,-0.0230381569474539,0.055132927349071846,0.12204621303374476,0.18252664466729365,-0.019438444924405485,-0.0019198464122889352,0.008159347252220481,-0.0005999520038369618,0.012598992080636145,0.016198704103672072,2.1583845138586293,-0.19821928568671746,0.40351561012569787,-0.10051606607179409,-0.014371779386890935,0.11507790265182467,3.153482510099951,1.5405569571666726,-2.2177445586534517,-0.06276599999999999,-0.03979299999999997,-0.9015989999999999,0.010148000000000046,0.21344600000000002,-0.899539,0.07291400000000003,0.253239,0.0020599999999999508,0.9647188317894564,0.9451828601066511,double,-0.899539
15,0.125,jog,0.10332413296531878,-0.25525021000839937,-0.032281291251645736,0.24906251894885473,0.19031795319184475,0.23795793542986693,-0.03624144965798262,0.00324012960518412,0.0001200048001921278,-0.006720268810752495,0.016200648025920597,0.015000600024000986,-0.3440983696511512,-2.523574668111816,-1.1092204853224341,-2.0164412256782853,0.619221890972406,-0.9647596846307884,-0.7344673955256856,0.43221600207421756,-0.14377824069015804,-0.06392899999999996,-0.03763899999999998,-0.9013289999999999,0.009231000000000045,0.215708,-0.899145,0.07316,0.253347,0.0021839999999999637,0.9393563341605117,0.9396949722175889,double,-0.899145
16,0.133333,jog,0.11472458898356074,-0.2634105364214503,-0.02304092163686185,0.05581479233700946,0.15009334291088533,0.21326694441655936,-0.025681027241088658,-0.00996039841594326,0.004920196807872235,-0.009600384015363546,0.018480739229567663,0.010560422416896403,1.368109446566896,-0.9792783406997378,1.1088887093224382,1.2673013820825578,-1.5841267276043882,0.576046082764923,-0.3456276496593121,0.27362188931322023,-0.5328426265576119,-0.06509899999999996,-0.035527000000000086,-0.901096,0.008195000000000008,0.21805699999999995,-0.898865,0.07329399999999997,0.25358400000000003,0.002230999999999983,0.9533650991033641,0.9387731507021767,double,-0.898865
17,0.141667,jog,0.11027117830573618,-0.27273818094553465,-0.009839212862974164,0.19430421842347154,0.14485825575551053,0.22667891741336504,-0.03563714902808351,-0.016678665706743527,0.006239500839932399,-0.01031917446603974,0.017878569714417456,0.007319414446844096,-0.5343665320163861,-1.119227804665752,1.584078326600398,-1.1946390433159195,-0.8061275846892588,0.1583038195416567,-0.08624795424480398,-0.07225456145310874,-0.3888898452186602,-0.06631500000000001,-0.033393000000000006,-0.900962,0.00719000000000003,0.22047899999999998,-0.898722,0.07350500000000004,0.253872,0.0022400000000000198,0.9336022998361253,0.9410964824929873,double,-0.898722
18,0.15,jog,0.12144485779431322,-0.2868114724588985,-0.03564142565702526,0.10051096219186717,0.1329987370048298,0.21615776199282452,-0.03504140165606129,-0.024360974438971925,0.006600264010560356,0.012720508820352201,0.025921036841472914,-0.031201248049921533,1.34089517443622,-1.6888625361051035,-3.0963893908617632,0.07149254434444002,-0.921913924424384,0.04329331220784313,2.7648725892706016,0.9651346606330794,-4.622664406188119,-0.06761899999999998,-0.031205999999999956,-0.90061,0.006284000000000012,0.22308499999999998,-0.898685,0.073903,0.25429099999999993,0.0019250000000000655,0.928025459928783,0.909897465828698,double,-0.898685
19,0.158333,jog,0.12300492019680755,-0.3055322212888438,-0.020520820832837166,0.3379788838299862,0.06947548031300577,0.2307296771519892,-0.029041161646468232,-0.020760830433214757,0.006240249609984806,-0.018480739229574328,0.018600744029776448,-0.0021600864034566312,0.18721497689839545,-2.246579722782344,1.814545160708998,0.7200576034553043,0.4320345620733428,-0.04320345620731423,-3.744299537972699,-0.8784702762146238,3.4850788007278144,-0.068886,-0.028832999999999998,-0.9003869999999999,0.005104999999999971,0.22578600000000004,-0.898532,0.07399099999999997,0.25461900000000004,0.00185499999999994,0.9395999019213473,0.9376007831628537,double,-0.898532
20,0.166667,jog,0.13570914326853756,-0.31869450443964353,-0.04211663066954522,0.13370449467991274,0.005217211409462594,0.21577605415672732,-0.024838012958964786,-0.011399088072962223,0.001679865610751153,-0.03995680345572017,0.0013198944084453126,0.030717542596592158,1.5243848178221742,-1.5793476302855467,-2.5912898772147868,0.5043374955007731,1.1233192176928875,-0.54720230372374,-2.5769215534132255,-2.073536071674,3.944999880015449,-0.07022400000000001,-0.026272000000000073,-0.900022,0.0036410000000000053,0.22845300000000002,-0.897925,0.07386500000000001,0.2547250000000001,0.0020970000000000155,0.9543659470133737,0.8950019675276633,double,-0.897925
21,0.175,jog,0.13464538581543437,-0.32773310932437844,-0.0411616464658566,0.1338175954695734,0.06425010093271662,0.1667191215063808,-0.010440417616705142,-0.01176047041880856,0.0056402256090241866,-0.008280331213246839,0.010200408016307564,0.007440297611905274,-0.1276560006124079,-1.0846759732071192,0.11460268855017676,1.7277805522932532,-0.043367616206208714,0.4752622102811765,3.801328722245699,1.0657042611139174,-2.7933811334077694,-0.07143300000000002,-0.023638999999999966,-0.899632,0.0024500000000000077,0.23126899999999995,-0.89752,0.07388300000000003,0.2549079999999999,0.0021120000000000028,0.9721550358929836,0.9537155278410467,double,-0.89752
22,0.183333,jog,0.1437657506300223,-0.3296531861274381,-0.017520700828030644,0.11946299469338324,-0.12682631255976204,0.3236598333755471,-0.016560662426493622,-0.00636025441017277,-0.0009600384015361881,-0.0049201968078739005,0.007680307212296166,0.009960398415936598,1.0944875572528425,-0.23041843310448404,2.8370269576174167,-0.734458755524838,0.6480518431100186,-0.7920633638017963,0.40323225793506967,-0.3024241934491055,0.3024241934514967,-0.07276899999999997,-0.02094499999999999,-0.899494,0.0012110000000000176,0.23407999999999995,-0.8972910000000001,0.07397999999999999,0.25502499999999995,0.002202999999999955,0.9703900331204535,0.955460434619203,double,-0.8972910000000001
23,0.191667,jog,0.15778737700984033,-0.3588912886969131,-0.05447564194865191,0.06198736760869344,0.14493671389482726,0.12984705418315426,-0.01751859851212321,-0.0026397888169039465,-0.004799616030717342,0.002879769618433403,0.006599472042226563,0.014878809695224262,1.6824605687326621,-3.5082916450053974,-4.4342381954189145,-0.11494313482476468,0.44642015757965203,-0.4607124585050577,0.935921097469078,-0.12968984522073457,0.5901621405432755,-0.07423000000000002,-0.017975999999999992,-0.89908,-7.999999999996898e-05,0.23712599999999995,-0.896713,0.07415000000000005,0.25510199999999994,0.002367000000000008,0.9694083302520143,0.9487807974385383,double,-0.896713
24,0.2,jog,0.17004680187207494,-0.36445457818312177,-0.04728189127563832,0.0036111941639456863,-0.07308649701122916,0.23054768628465852,-0.015120604824188092,0.0006000240009639688,-0.00864034561382486,0.009120364814588375,0.0019200768030740415,0.021960878435136867,1.4711898310613942,-0.6676214432027663,0.8632846121461165,0.2877707533823494,0.3887930898677442,-0.4609059862123502,0.7489013795937798,-0.5615498906939299,0.8498822440792752,-0.07577299999999998,-0.014934000000000003,-0.8987580000000001,-0.0014210000000000056,0.24017899999999992,-0.896136,0.07435199999999997,0.2551129999999999,0.002622000000000013,0.9709574884686576,0.9340186308738221,double,-0.896136
25,0.208333,jog,0.13824552982119157,-0.35341413656546056,-0.04776191047642031,0.027056182074936538,-0.11659874745477286,0.16935780592103364,-0.01116044641785791,0.0034801392055617193,-0.012120484819392437,0.01416056642265778,-0.005520220808831226,0.024120964838593578,-3.816305298317947,1.324905990358963,-0.057604608278170474,0.47523801828035417,0.34562764965771725,-0.41763341000451043,0.6048483869038063,-0.8928714282857658,0.25922073724429573,-0.07701799999999998,-0.011960000000000082,-0.8984610000000001,-0.002454999999999985,0.2430779999999999,-0.895537,0.07456299999999999,0.255038,0.0029240000000000377,0.9719339526298982,0.9232434700126653,double,-0.895537
26,0.216667,jog,0.18022558195344396,-0.4028077753779759,-0.08087353011759812,-0.0871213321781845,0.05666272366818199,0.11945920682745859,-0.011159107271419444,0.005519558435337349,-0.015358771298296495,0.039236861051118475,-0.014278857691382303,-0.0022798176145906127,5.037203279607914,-5.926762516500516,-3.9730765108204684,0.00016068471783858422,0.2447107307146182,-0.38856329240509424,3.008914642243901,-1.0509523497181508,-3.1678404671447282,-0.07861299999999999,-0.008556999999999926,-0.897915,-0.0036299999999999666,0.24631599999999998,-0.894882,0.07498300000000002,0.2548729999999999,0.0030330000000000634,0.9670487288978302,0.8999759342062411,double,-0.894882
27,0.225,jog,0.17040681627265464,-0.3852154086163365,-0.08604344173766555,-0.07848624629918598,-0.09812994000949984,0.16337649939963517,-0.011640465618626384,0.006960278411123416,-0.018240729629185076,0.026281051242045966,-0.03216128645145023,0.02580103204128162,-1.1782990136552638,2.11116845813505,-0.6204142109765298,-0.05776531227732381,0.17289331282684092,-0.3458488336599758,-1.5547593674633984,-2.145977290299761,3.3698367521747516,-0.08013000000000003,-0.005289000000000099,-0.89735,-0.00483100000000003,0.24925799999999998,-0.89395,0.075299,0.2545470000000001,0.0033999999999999586,0.9621160348790105,0.8845080908072852,double,-0.89395
28,0.233333,jog,0.16128645145805295,-0.38221528861154336,-0.06936277451097647,-0.04917652130434819,-0.1485244688450398,0.15889105840896134,-0.012360494419772489,0.009600384015370207,-0.02136085443417706,0.04728189127565164,-0.0494419776791166,0.04428177127085095,-1.0944875572544912,0.3600288017272481,2.0017601376081924,-0.08640691241402913,0.31682534552343555,-0.37442995379718974,2.5202016120971624,-2.073765897955881,2.217777418645064,-0.08157699999999996,-0.0020240000000000258,-0.89695,-0.005780999999999981,0.2520309999999999,-0.893003,0.07579599999999997,0.2540549999999999,0.003947000000000034,0.9558652537454928,0.824709840451623,double,-0.893003
29,0.241667,jog,0.1787856971442345,-0.3716102711783086,-0.09131269498440286,-0.14575951534984935,-0.1871230509957641,0.14365979139675975,-0.010799136069118635,0.008999280057587761,-0.021718262538997005,0.05495560355171766,-0.0688744900407792,0.1161507079433644,2.0997415030215496,1.272500291964819,-2.633779754430819,0.1873480142373239,-0.07212670479750986,-0.04288554173505463,0.9207718113830143,-2.3317149462038205,8.623582514100507,-0.08315700000000004,0.0011479999999999269,-0.89637,-0.0068130000000000135,0.25455400000000006,-0.891274,0.07634400000000002,0.25340600000000013,0.005095999999999989,0.9568822249495951,0.7060562288463619,double,-0.891274
30,0.25,jog,0.1912876515060582,-0.385935437417496,-0.11940477619105704,-0.10555945008296275,-0.09984619014625554,0.06555120968374376,-0.009120364814588375,0.009000360014406239,-0.018960758430337007,0.07596303852154015,-0.1048841953678196,0.1111244449777994,1.5002945352002497,-1.7190887122509757,-3.371184592182185,0.2014606089679898,0.00012960000221744035,0.3309137295883831,2.520993036100141,-4.321337492744554,-0.603175682895116,-0.08482699999999999,0.004438999999999971,-0.8955329999999999,-0.007774000000000003,0.256896,-0.889353,0.07705299999999998,0.25245700000000004,0.006179999999999963,0.9618592557101661,0.6537916475919611,double,-0.889353
31,0.258333,jog,0.24684987399495747,-0.3888155526221083,-0.11592463698546907,-0.13941875006648907,-0.38457929962014076,-0.030908430479878096,-0.00768030721228953,0.006840273610941304,-0.01764070562822533,0.059402376095046734,-0.14784591383656845,0.17424696987879582,6.66773340800425,-0.34562764965946846,0.41763341000695775,0.172813824828855,-0.2592207372452827,0.15841267276031215,-1.9873589855386369,-5.155612440747506,7.575005988359123,-0.08694799999999997,0.007735999999999965,-0.894714,-0.009335999999999955,0.2589039999999999,-0.886935,0.07761200000000001,0.25116799999999995,0.00777899999999998,0.965966888794008,0.5286893417965011,double,-0.886935
32,0.266667,jog,0.21274298056155783,-0.3713702903767779,-0.13018958483321352,-0.19728179879279337,0.029797509863463047,0.0348952551394894,-0.007319414446848235,0.006119510439167651,-0.01931845452363826,0.06851451883849144,-0.17494600431964938,0.18682505399567967,-4.092499812022992,2.093264008318985,-1.7116568091845985,0.043303667559550514,-0.08648466183989105,-0.20131376234856366,1.0933696596405924,-3.2517507179122753,1.5092493540777348,-0.08878200000000003,0.010882000000000058,-0.8937900000000001,-0.010537999999999992,0.260541,-0.884293,0.07824400000000004,0.24965899999999996,0.009497000000000089,0.9640902009256491,0.4634295504997714,single,-0.884293
33,0.275,jog,0.2194887795511775,-0.3502940117604562,-0.1534861394455808,-0.3550230626376519,0.12928033258172256,0.10042020895927951,-0.0037201488059526123,0.0002400096003775928,-0.019320772830913328,0.0879635185407393,-0.19008760350414294,0.2599303972158877,0.8095282598847514,2.529254604142755,-2.795698381419317,0.4319291540736359,-0.7055683233877396,-0.00027820800132817054,2.3339733232026623,-1.817064584722609,8.772992106109168,-0.090642,0.013802999999999899,-0.892672,-0.011633999999999978,0.2618759999999999,-0.880848,0.07900800000000002,0.248073,0.011824000000000057,0.9672047863193057,0.38176,single,-0.880848
34,0.283333,jog,0.24588983559342711,-0.3613344533781477,-0.11040441617665117,0.2374158158272607,-0.25591944851670295,0.06605784227142543,0.002160086403458304,-0.002760110404415613,-0.019800792031681134,0.09252370094804076,-0.2280091203648167,0.3096123844953805,3.1682534552081716,-1.3249059903625937,5.1700135928152795,0.7056564513873672,-0.3600288017272547,-0.057604608276468024,0.5472437786273208,-4.5507640538430145,5.962076956617415,-0.092673,0.016791,-0.891917,-0.012911999999999979,0.26298699999999997,-0.877348,0.07976100000000003,0.24619599999999997,0.014568999999999943,0.9664856768680723,0.35431,single,-0.877348
35,0.291667,jog,0.26121910247180014,-0.35661147108231,-0.13654907607391065,-0.05162256817457693,-0.20020130630903005,-0.061599285439582575,0.010439164866811094,-0.002759779217662014,-0.02795776337892931,0.1073914086873024,-0.2883369330453481,0.34569234461243087,1.8393648762146635,0.5667125384974406,-3.137108219013613,0.9934099428069093,3.973923129340603e-05,-0.9787582610088996,1.783982210134585,-7.238758420990081,4.329248874136112,-0.09476299999999999,0.01973999999999998,-0.891012,-0.014193999999999984,0.263556,-0.873329,0.080569,0.24381600000000003,0.017683000000000004,0.9500492165115695,0.32317000000000007,single,-0.873329
36,0.3,jog,0.2634105364214578,-0.34873394935797086,-0.05508220328813013,0.27244717489370307,-0.6340943004694324,-0.05319332636801961,0.012480499219967987,-0.002640105604220154,-0.03888155526221117,0.12564502580103476,-0.340093603744151,0.38617544701788153,0.2629825932626492,0.945340420537521,9.776415790925324,0.24496992117567482,0.014361408069345966,-1.3109074622923176,2.190521674514869,-6.211048925813397,4.858166615318705,-0.096854,0.022623999999999977,-0.890877,-0.015341999999999967,0.263628,-0.869652,0.08151200000000003,0.241004,0.02122500000000005,0.9317987382409518,0.28775,single,-0.869652
37,0.308333,jog,0.3021720868834765,-0.3805352214088589,-0.08172326893076201,0.29935530563545754,-0.3765133805663682,-0.14555114407608438,0.002280091203647086,-0.015120604824188042,-0.0304812192487695,0.14940597623904847,-0.4302172086883397,0.3666146645865822,4.651572118326961,-3.8163052983184844,-3.1970557593461866,-1.224097925875538,-1.4977198151887476,1.0080806448387896,2.851428109686021,-10.815265203910755,-2.3473877872674005,-0.09935300000000002,0.025669000000000053,-0.89045,-0.01661499999999999,0.26321400000000006,-0.865916,0.08273800000000003,0.237545,0.024533999999999945,0.9431635818765389,0.25466,single,-0.865916
38,0.316667,jog,0.2962562994960419,-0.38420926325893273,-0.19066474682024964,-0.444825665435621,0.17619999633334743,-0.06080008794774715,0.0033597312215056588,-0.007319414446854944,-0.020518358531317317,0.2455003599712028,-0.48224142068634723,0.47768178545716594,-0.7098376994762035,-0.44084975402853693,-13.071931592211213,0.12954643842795524,0.9360679598431896,1.195447650282246,11.530403615569337,-6.24240604727716,13.326988345402492,-0.101794,0.02880999999999989,-0.889032,-0.017037999999999998,0.262397,-0.860346,0.084756,0.2335870000000001,0.02868599999999999,0.9632627702253607,0.21314000000000005,single,-0.860346
39,0.325,jog,0.3188527541101655,-0.3565342613704602,0.014280571222846481,0.5257970372224638,-0.7429153039573194,-0.24135779612598895,0.002640105604220137,-0.004560182407294172,-0.01392055682227343,0.2788911556462238,-0.6271450858034239,0.4624984999399952,2.7116830210156646,3.3211330719395695,24.594421942049113,-0.08635852841539889,0.33112108959087494,0.7917678758002951,4.007055763233034,-17.389135379464303,-1.8220671447462713,-0.10442900000000005,0.031742999999999966,-0.889267,-0.017371000000000025,0.2601420000000001,-0.856611,0.08705800000000002,0.22839900000000013,0.03265600000000002,0.9751925569283367,0.17344000000000004,single,-0.856611
40,0.333333,jog,0.33145325813032445,-0.3774150966038595,-0.05508220328813013,0.6202762750229385,-0.6104987028328275,-0.2924251970974347,0.003720148805952637,-0.0016800672026831304,-0.012840513620544372,0.3468138725549035,-0.7623904956198331,0.44593783751350297,1.5121209672577671,-2.5058004600263284,-8.323865895953052,0.12961036862264524,0.3456276496593122,0.12961036862223219,8.151052071124427,-16.23009838190442,-1.9873589855384945,-0.10716000000000003,0.03487399999999996,-0.888915,-0.01724300000000001,0.256934,-0.852436,0.08991700000000002,0.22206000000000004,0.03647900000000004,0.9775438128432182,0.13521,single,-0.852436
41,0.341667,jog,0.3440124790016805,-0.3684905207583445,-0.09935205183585914,-0.020288157104286973,0.169754450483305,-0.02254598625502867,0.0007199424046083507,-0.0011999040076739237,-0.007199424046076847,0.4060475161987035,-0.8528917686585202,0.43556515478761587,1.5069859456870733,1.0708634323872124,-5.311956869177942,-0.3599959684838353,0.057614974203168495,0.6768765988081978,7.1074686397648135,-10.859284021920695,-1.2446223573178647,-0.11002100000000004,0.03793500000000005,-0.888147,-0.01672600000000002,0.2528969999999999,-0.847978,0.09329500000000002,0.21496199999999988,0.04016900000000001,0.9877764124550552,0.09831000000000001,single,-0.847978
42,0.35,jog,0.34501380055201825,-0.3548541941677661,-0.14340573622944305,-0.13345672235963504,-0.8295874314281998,-0.10200274371487913,0.0018000720028852506,-0.00888035521421081,-0.00444017760710374,0.5027001080043212,-0.9692787711508353,0.4084963398535957,0.12016339257622967,1.6364246478553257,-5.286653593373817,0.12962073662269322,-0.9216910124249256,0.33112281758947726,11.59877496767286,-13.966998979037001,-3.2483877275915347,-0.11288099999999995,0.04081800000000002,-0.886989,-0.015411999999999981,0.24777700000000003,-0.843379,0.09746899999999997,0.206959,0.04361000000000004,0.9831826688990892,0.06390000000000001,single,-0.843379
43,0.358333,jog,0.3682947317892753,-0.36973478939157417,0.022800912036484183,1.0274838887427398,0.3598144707253595,-0.5613306689582251,-0.0002400096003842544,-0.0015600624025009842,0.0,0.6661466458658286,-1.1202448097923983,0.4118564742589675,2.793823501410891,-1.785742856571225,19.945595615735815,-0.24481958517574662,0.8784702762162241,0.5328426265575088,19.614369118145536,-18.1166493029596,0.40323225793493245,-0.115952,0.04388599999999998,-0.887179,-0.012930000000000053,0.24152299999999993,-0.840137,0.10302199999999995,0.19763699999999995,0.04704200000000003,0.9973693054846181,0.029580000000000106,single,-0.840137
44,0.366667,jog,0.39788816894648216,-0.3893688504919667,-0.026637868970488993,0.6177207576239999,-0.3535208338107741,-0.5612558962329701,0.005039596832251794,-0.0044396448284081715,0.0008399328053755765,0.7429805615550785,-1.1198704103671737,0.32937365010799075,3.550928384594052,-2.3558988601382875,-5.932179146505055,0.6335020917489853,-0.34552224932891584,0.10078387393515427,9.21933233612309,0.04492433707997926,-9.897147126347091,-0.119226,0.04709400000000008,-0.88695,-0.010054000000000007,0.23543499999999995,-0.83717,0.10917199999999999,0.18834099999999987,0.049780000000000046,0.9887190586543794,0.0022000000000000908,single,-0.83717
45,0.375,jog,0.41137645505820175,-0.37261490459617436,-0.07260290411616083,0.11344868487187834,-0.018361260972251027,-0.42483223046742,-0.000480019200768512,-0.005760230409222144,-0.0008400336013440632,0.875675027001082,-1.2505700228009167,0.27409096363854724,1.6186590797695461,2.0105539296522696,-5.516024858474973,-0.6623804191792055,-0.15847660876202757,-0.20160403296767598,15.923972812432956,-15.684580875284205,-6.6341877438429915,-0.12265799999999999,0.050150999999999946,-0.886352,-0.006184999999999996,0.22811899999999985,-0.834281,0.116473,0.1779679999999999,0.05207099999999998,0.9902651357865115,0.0,single,-0.834281
46,0.383333,jog,0.44713788551542255,-0.396975879035173,-0.027361094443778537,0.4152064374486061,-0.18132817261995152,-0.7285528345425768,-0.005880235209410941,-0.013920556822273524,0.007560302412096569,0.975639025561028,-1.3132125285011342,0.20112804512180502,4.291543316599171,-2.9234338700346467,5.42923433005909,-0.6480518431108175,-0.979278340699796,1.0080806448386719,11.99615967358049,-7.5174013800813295,-8.755900458027408,-0.12643300000000002,0.05334300000000003,-0.886061,-0.001780999999999977,0.220484,-0.832377,0.12465200000000004,0.16714099999999998,0.053683999999999954,0.9718379076237768,0.0,single,-0.832377
47,0.391667,jog,0.4542836573074164,-0.3983681305495544,-0.053875689944808285,0.38402625880512636,-0.13196862264742487,-0.9355799578092155,-0.014038876889846187,-0.030117590592752697,0.007679385649147415,1.0920326373890044,-1.378089752819769,0.13894888408927347,0.857424021117569,-0.16705681718039123,-3.181496940368337,-0.978958684957432,-1.9434885733716292,0.014288845338474408,13.966116130066744,-7.784644146704438,-7.460902451707641,-0.130336,0.05641200000000002,-0.885548,0.0035339999999999816,0.21231900000000004,-0.83077,0.13387,0.15590700000000002,0.05477799999999999,0.943158791078683,0.0,single,-0.83077
48,0.4,jog,0.4554182167286664,-0.41353654146165064,-0.036121444857793644,0.5003430177299668,-0.23806322028613144,-0.997413879600243,0.0013200528021100684,-0.008040321612855868,-0.003000120004799849,1.1590063602544054,-1.3124924996999794,0.026401056042241338,0.13615257665306726,-1.8202821207363722,2.130594634227117,1.8431452888462967,2.649378252717717,-1.2815919421513522,8.037168230577315,7.8719852537848825,-13.506279616828472,-0.13412000000000002,0.05979100000000004,-0.885272,0.009396999999999989,0.204828,-0.830249,0.143517,0.14503699999999997,0.05502299999999993,0.9855287611793334,0.0,single,-0.830249
49,0.408333,jog,0.4666986679467161,-0.41677667106685085,-0.04884195367813947,0.4606574058988789,0.051696779551226986,-1.063972266853428,-0.021600864034563055,-0.01140045601824883,0.03288131525260976,1.3361334453378142,-1.5371414856594385,0.033721348853954655,1.353708294497749,-0.38883110586826014,-1.5265221193262757,-2.7506200452025897,-0.40323225793747386,4.305944468667911,21.25610045402727,-26.9589566734021,0.8784702762166489,-0.138189,0.06316900000000003,-0.884591,0.01664199999999999,0.195492,-0.829561,0.154831,0.13232299999999997,0.05503000000000002,0.931732783669099,0.0,single,-0.829561
50,0.416667,jog,0.47252219822414127,-0.40880729541635885,-0.13162946964243025,-0.2931883091623291,0.7255485956836092,-0.6851092062360813,-0.005999520038396261,-0.004799616030722338,0.004559635229182058,1.3684905207583378,-1.4964002879769482,-0.05015598752099847,0.6987677318724687,0.9562485781727845,-9.933707219137354,1.872011518618524,0.7920374355083375,-3.3983297364324065,3.882538447387034,4.888552637687815,-10.064475206977807,-0.142177,0.06653599999999993,-0.883456,0.02410899999999999,0.18642800000000004,-0.828882,0.166286,0.11989200000000011,0.05457400000000001,0.9851095828581784,0.0,single,-0.828882
51,0.425,jog,0.47137885515421246,-0.4297371894875873,-0.0015600624025009946,0.9464838678390071,-0.8358104286274493,-1.261762603275561,-0.01584063362534091,-0.006840273610941304,0.0015600624024959984,1.470778831153255,-1.515180607224296,-0.09744389775591134,-0.1372066566577231,-2.511687756057665,15.608953226920624,-1.1809808696681476,-0.2448887051744834,-0.35996313772783717,12.275088250920138,-2.2537284588200808,-5.6747762192383275,-0.146237,0.07006000000000001,-0.88343,0.032436999999999994,0.17738300000000007,-0.829681,0.178674,0.10732300000000006,0.05374900000000005,0.971125327735169,0.0,single,-0.829681
52,0.433333,jog,0.48481939277570757,-0.41245649825991815,-0.19380775231009556,0.03332354384244618,0.5871404167010016,-0.9048708046473257,0.03744149765990371,-0.04356174246969887,-0.006960278411135883,1.5317412696507793,-1.5387015480619293,-0.13044521780871068,1.612929031740676,2.0737658979562106,-23.070645614735838,6.394111518690075,-4.406752533152216,-1.0224817969076978,7.315785251112924,-2.822625805548211,-3.9603168190086655,-0.14996500000000001,0.07313399999999992,-0.8818729999999999,0.041161,0.16799799999999987,-0.8291529999999999,0.19112600000000002,0.09486399999999995,0.05271999999999999,0.9035644050620446,0.0,single,-0.8291529999999999
53,0.441667,jog,0.5449964002879789,-0.42008639308856577,-0.08531317494600686,0.19304356660555674,0.29812589838140546,-0.9153943620758228,0.0013198944084453212,-0.0056395488360954545,0.012119030477561495,1.612311015118797,-1.5589152867770537,-0.17038636909047428,7.220663248412729,-0.9155141383066552,13.018307819065193,-4.334245650522989,4.550299212095468,2.2893339199301037,9.667596048478295,-2.425454609446191,-4.792554749431704,-0.15449600000000002,0.07658799999999999,-0.881061,0.05005599999999999,0.15850700000000006,-0.829862,0.204552,0.08191900000000008,0.051198999999999995,0.9776134010796007,0.0,single,-0.829862
54,0.45,jog,0.5797431897275835,-0.5033001320052685,-0.15264610584422592,0.25516077434072726,-0.045909495180201966,-1.5589509318432062,0.0044401776071053755,-0.008520340813624377,0.008280331213248449,1.6792271690867604,-1.5719428777151119,-0.20760830433217187,4.169781524013499,-9.986048111928758,-8.080274918783005,0.37444896179767684,-0.34570886565809567,-0.4606623382110921,8.030259686543044,-1.5633734475048735,-4.46681090143975,-0.15929,0.08071099999999998,-0.8797200000000001,0.05921800000000005,0.1496019999999999,-0.83032,0.21850800000000004,0.06889099999999992,0.04940000000000011,0.978860564119528,0.00599999999999995,single,-0.83032
55,0.458333,jog,0.49489979599184286,-0.42961718468739185,-0.06576263050521952,1.6251800683616473,-0.1356403743288346,-0.9184026844379362,-0.006360254410172792,0.009120364814588404,0.009720388815552376,1.7491899675987057,-1.567382695307815,-0.2064082563302553,-10.181614512869421,8.842307370440032,10.426434098044714,-1.2961036862208322,2.116969354159705,0.17281382482946486,8.395871656299711,0.5472437786267795,0.1440115206908151,-0.16346699999999997,0.08436699999999997,-0.8790910000000001,0.06967000000000001,0.14012099999999994,-0.831492,0.23313699999999998,0.05575399999999997,0.04759900000000006,0.9753851981501407,0.024010000000000087,single,-0.831492
56,0.466667,jog,0.5591552675785929,-0.417446604271659,0.0035997120230350926,-0.38881315876648265,-0.1608862259081152,-0.7406572253341199,-0.031077513798897165,0.01751859851211655,0.047276217902568404,1.8227741780657543,-1.5922726181905438,-0.22798176145908292,7.71003978722702,1.4603528216622044,8.322815278168292,-2.965833859938127,1.007707427109208,4.5063389833232534,8.829398904133487,-2.986551821781716,-2.5886135263772,-0.16838599999999998,0.08799199999999996,-0.878727,0.08020100000000002,0.13032999999999995,-0.833422,0.248587,0.04233799999999999,0.04530500000000004,0.901289509494227,0.0469500000000001,single,-0.833422
57,0.475,jog,0.5755430217208729,-0.44809792391695963,-0.04932197287890798,0.9547057345979406,-0.15239501729637872,-1.0616153478812307,-0.042961718468741854,0.01716068642745765,0.07140285611424455,1.881915276611066,-1.5979839193567775,-0.2263290531621269,1.9666091614400623,-3.6783054896556675,-6.350856222482084,-1.42616160684564,-0.04295116820579632,2.89531239789706,7.097215714065996,-0.6853835552902634,0.19833292895188073,-0.17354000000000003,0.09186899999999998,-0.8777210000000001,0.09108699999999997,0.12074799999999997,-0.834897,0.264627,0.028878999999999988,0.042824000000000084,0.8582003930255361,0.0717600000000001,single,-0.834897
58,0.483333,jog,0.551782071282848,-0.44845793831752967,-0.020520820832837097,0.7033828607893794,-0.26678074683728703,-1.0735502012691958,0.0,-0.003840153606134747,0.04440177607104209,1.913236529461172,-1.618024720988822,-0.22248889955598067,-2.8514281096873697,-0.04320345620665303,3.4562764965883552,5.155612440746631,-2.5202016120955606,-3.2402592155529026,3.7587006900402935,-2.404992395541161,0.4608368662121941,-0.17813800000000002,0.09557400000000005,-0.8771800000000001,0.102432,0.11100200000000005,-0.83658,0.28057,0.015427999999999997,0.04060000000000008,0.9257207876772886,0.09399999999999997,single,-0.83658
59,0.491667,jog,0.6105111591072686,-0.4808015358771273,-0.02711783057356123,0.8691988192125852,-0.3642283711169289,-0.9698383880746787,0.008159347252221314,-0.019678425725948263,0.016198704103672072,1.9421646268298525,-1.581353491720667,-0.23302135829133638,7.046926784787689,-3.8809212334530376,-0.7915778426594824,0.9790433467988129,-1.90044061912809,-3.384097908251739,3.4710939967219208,4.400195496538876,-1.2637939447271065,-0.183158,0.09941699999999998,-0.876819,0.11353000000000002,0.10182999999999998,-0.8382959999999999,0.296688,0.0024129999999999985,0.038523000000000085,0.9553963939776067,0.11476999999999998,single,-0.8382959999999999
60,0.5,jog,0.6198247929917249,-0.44233769350773744,-0.12840513620543706,-0.2412492876668107,1.262844719115527,-0.60919923153044,0.015000600023999345,-0.011880475219004018,0.06192247689907642,1.9824792991719726,-1.5799831993279783,-0.2227289091563664,1.1176807733656902,4.615845718155523,-12.154962874340102,0.8209831719402434,0.9357914924930114,5.487072218337269,4.8379541992224,0.1644416647892505,1.2351433019284788,-0.18819800000000003,0.10300399999999998,-0.875233,0.124885,0.09234999999999993,-0.8390820000000001,0.313083,0.010654000000000052,0.03615099999999993,0.8919804951020158,0.13849,single,-0.8390820000000001
61,0.508333,jog,0.623784951398051,-0.4849393975759097,-0.04380175207008979,0.23085736245387176,-0.04809781789113088,-0.8645809178613214,0.014640585623426194,-0.013680547221895838,0.07380295211808412,2.008160326413048,-1.5658226329053035,-0.1948877955118197,0.4752380182798649,-5.112408984540032,10.152812208729978,-0.043203456207026286,-0.21601728103825907,1.4257140548431113,3.0818465427907276,1.699335944158725,3.341067280036791,-0.193274,0.106931,-0.874253,0.13642100000000001,0.08334300000000006,-0.840341,0.329695,0.023587999999999942,0.03391199999999994,0.872542165348784,0.16087999999999997,single,-0.840341
62,0.516667,jog,0.6592272618190581,-0.4768418526517945,-0.036717062634992824,0.24457050008473935,0.1801611669716569,-0.887053476541071,0.04979601631869463,-0.001079913606902542,0.07787377009839219,2.035517158627319,-1.5422366210703236,-0.18634509239260952,4.252737031558351,0.9716276606809733,0.8500947246336698,4.218314218294774,1.5119550773930126,0.48845908091049894,3.2825572611316467,2.8300950125966073,1.0250423709155545,-0.198353,0.1108960000000001,-0.873298,0.147891,0.07446400000000009,-0.841588,0.346244,0.03643200000000002,0.031710000000000016,0.8459335143161734,0.18289999999999995,single,-0.841588
63,0.525,jog,0.6837873514940546,-0.47593903756149014,-0.09660386415455914,-0.30478256931466735,0.1648562307359088,-0.834040702523209,0.03252130085203649,-0.02676107044282771,0.10152406096243885,2.046801872074876,-1.5313812552502062,-0.16608664346573918,2.947328654145728,0.1083421445223056,-7.186703650493948,-2.073048777950086,-3.0818620947947992,2.838148429622772,1.3542197824981734,1.302696006254329,2.431111115669058,-0.20377999999999996,0.11463899999999994,-0.8716470000000001,0.15924900000000003,0.06566899999999998,-0.842167,0.363029,0.04896999999999996,0.02948000000000006,0.8168112323413992,0.2052000000000001,single,-0.842167
64,0.533333,jog,0.7070682827313167,-0.4609384375375037,-0.04944197767910377,-0.4046607558231434,-0.2402747292382002,-0.8075845478618513,0.02040081603264191,-0.02928117124685278,0.1282851314052566,2.0558022320893015,-1.5095403816152793,-0.15048601944077797,2.793823501411541,1.8001440086387366,5.659652763165223,-1.4545163589817227,-0.30242419345074917,3.2114569114146163,1.080086405187251,2.621009676578318,1.8721497689861215,-0.20950199999999997,0.1182359999999999,-0.8701660000000001,0.17048800000000003,0.056930999999999954,-0.843009,0.37999,0.06130499999999994,0.027157000000000098,0.7780724891618813,0.22842999999999997,single,-0.843009
65,0.541667,jog,0.6973842092632584,-0.5568754499639994,-0.05327573794096431,0.8506023476512576,0.4457455440070604,-0.9021183300059943,0.03671706263498568,-0.040676745860328246,0.1255099592032634,2.1281497480201423,-1.5603551715862631,-0.16690664746820166,-1.1619958564984707,-11.511520569533836,-0.46001443026883965,1.9577929688437297,-1.3673595648518575,-0.3329940247172032,8.68100743110635,-6.097287013556934,-1.9703177378717986,-0.21500800000000003,0.12253799999999992,-0.868676,0.18241199999999996,0.048567999999999945,-0.843956,0.39742,0.07396999999999998,0.024719999999999964,0.7717488578492003,0.2528,single,-0.843956
66,0.55,jog,0.7165486619464687,-0.5420616824672956,0.08988359534381334,1.4887139446459918,0.04158653466535795,-1.0842819022678083,0.02364094563782574,-0.054122164886592744,0.15840633625344885,2.1029641185647336,-1.4860194407776288,-0.04728189127565148,2.2998263150378304,1.7777232085327925,17.179807186460703,-1.569196807531487,-1.6135148237446828,3.947723154948435,-3.022396430506251,8.920644522816993,14.355544964904558,-0.22078199999999998,0.12660399999999994,-0.868105,0.19396500000000003,0.040701999999999905,-0.845099,0.414747,0.08590200000000003,0.02300599999999997,0.7182363559061185,0.26994,single,-0.845099
67,0.558333,jog,0.825873034921411,-0.4726989079563257,0.12420496819871674,-0.5966788728303968,-0.2392425320485551,-0.8842801479038506,0.005280211208447005,-0.07680307212288248,0.18804752190087845,2.071882875315032,-1.4518180727229153,-0.05304212168486763,13.119449534974589,8.323865895952302,4.118729491768116,-2.2033762665761314,-2.721817741064436,3.557084561074027,-3.7298983858996655,4.104328339699248,-0.6912552993179173,-0.22762000000000004,0.129903,-0.8675729999999999,0.20434799999999997,0.03254299999999999,-0.846576,0.431968,0.09736,0.020996999999999932,0.6613406209323303,0.29003000000000007,single,-0.846576
68,0.566667,jog,0.8197744180465439,-0.5951523878089798,0.26865850731942464,1.6755215687336618,-2.7309996142198796,-1.6471816708851612,0.024718022558199895,-0.09407247420206395,0.2001439884809195,2.045356371490265,-1.4541636669066353,-0.0005999520038386231,-0.7317754829454004,-14.693242122948549,17.333038051440703,2.3323507739084164,-2.07216247650364,1.451459872815089,-3.182925824906005,-0.2814487861435118,6.29255695716686,-0.23424599999999995,0.13407900000000006,-0.868144,0.21456200000000003,0.025384000000000073,-0.84882,0.448808,0.10869499999999999,0.019324000000000008,0.6291218110771255,0.3067599999999999,single,-0.84882
69,0.575,jog,0.8221528861154517,-0.40981639265570347,-0.18708748349935225,-3.18721321103869,5.622613579592238,0.43349287179928453,0.046681867274688135,-0.09792391695668383,0.17604704188167725,2.0295211808472526,-1.415336613464548,0.01548061922476796,0.28542758537234575,22.24120906675604,-54.69170656651639,2.6357667966504787,-0.46219161821911825,-2.8917492618795713,-1.9002988891170858,4.659432790362141,1.9297457372622981,-0.24070799999999998,0.13667799999999997,-0.8651179999999999,0.22462300000000002,0.017005000000000048,-0.847132,0.465331,0.11967299999999992,0.017985999999999946,0.6553550490412869,0.3201400000000001,single,-0.847132
70,0.583333,jog,0.8688347533901348,-0.5453018120724797,0.03444137765511053,-0.2438696941577511,-0.3924289786918016,-0.9687468973540823,0.05628225129005103,-0.09612384495379063,0.19020760830433092,1.9936397455898152,-1.4141365654626146,0.027121084843394098,5.60204815488815,-16.258900686040526,26.58452671960421,1.1520921655301637,0.21601728103842455,1.6993359441562002,-4.3059444686712265,0.14401152069283596,1.396911750705159,-0.247479,0.14042100000000002,-0.86382,0.233996,0.009765000000000024,-0.847193,0.481475,0.130656,0.01662700000000006,0.6326278769882012,0.33372999999999997,single,-0.847193
71,0.591667,jog,0.9020878329733549,-0.5945524358051362,0.10259179265659271,0.9072883977271797,0.12825880555032845,-0.8711380325476212,0.05459563234940962,-0.10691144708422946,0.183465322774177,1.959323254139654,-1.4026877849771886,0.0440364770818322,3.990050345958705,-5.9096020797523465,8.177395608529118,-0.20237808263035756,-1.2944087029564137,-0.8090095428550377,-4.117649562054353,1.3737437587504058,2.0296846938370496,-0.25454200000000005,0.14448500000000009,-0.8631460000000001,0.242807,0.003030000000000088,-0.847681,0.49734900000000004,0.141455,0.015465000000000062,0.6345844631339821,0.34535000000000005,single,-0.847681
72,0.6,jog,0.9479179167166794,-0.6667466698668014,0.2376095043801752,1.8008578611222597,-3.414243568259969,-1.5507927348196007,0.07368294731789381,-0.11532461298453252,0.2113284531381273,1.9872794911796656,-1.4417376695068032,0.16188647545902018,5.499830042400677,-8.663654633585253,16.20277351777076,2.2905694189948833,-1.0096202928480897,3.3437093920497487,3.35488264010704,-4.686173590497409,14.142565507883003,-0.26182700000000003,0.14908,-0.863365,0.25146799999999997,-0.0034279999999999866,-0.8483120000000001,0.5132950000000001,0.15250799999999998,0.015052999999999983,0.5803815946758645,0.34947000000000006,single,-0.8483120000000001
73,0.608333,jog,0.8941557662306437,-0.5774630985239299,0.10728429137164847,0.7074161536528364,-0.2730778130044831,-0.939231421512613,0.08268330733229237,-0.1347653906156223,0.25537021480859184,1.845553822152878,-1.2829713188527494,0.06696267850714036,-6.451716126969325,10.71445713943012,-15.639651147069024,1.0800864051840307,-2.3329866351961703,5.2852228093681,-17.00776059363819,19.05272418745387,-11.391311286676999,-0.268589,0.15276899999999993,-0.862131,0.259396,-0.009307000000000065,-0.848648,0.527985,0.162076,0.013483000000000023,0.5,0.36517000000000005,flight,-0.848648
74,0.616667,jog,1.0053995680345627,-0.6377489800816054,0.2510199184065268,-0.013162698364991572,-0.5972186290134976,-0.9188224595788301,0.10403167746580412,-0.1382289416846577,0.24094072474202152,1.799136069114481,-1.2936165106791446,0.1072714182865384,13.348188361401432,-7.233727088754008,17.2468954925461,2.5615994880623796,-0.4155928808537851,-1.7314002959647714,-5.569684789824474,-1.2773208335007546,4.836661840580546,-0.27610100000000004,0.15693200000000007,-0.862215,0.266011,-0.014772999999999925,-0.849846,0.542112,0.171705,0.012368999999999963,0.505636596006709,0.3763099999999999,single,-0.849846
75,0.625,jog,0.974198967958716,-0.6475459018360655,0.17268690747630783,0.953414087758213,-0.6368749278432596,-0.839733598791484,0.1116044641785717,-0.2037681507260388,0.2940117604704168,1.7113884555382146,-1.2606504260170337,0.11016440657626118,-3.7442217779727054,-1.175677637640715,-9.400337325119244,0.9087707563623602,-7.8650196857531265,6.3687790385689524,-10.530134834545315,3.9560884029894146,0.34717248166599957,-0.283289,0.16062999999999994,-0.8612040000000001,0.272154,-0.019881999999999955,-0.8503670000000001,0.555443,0.1805119999999999,0.010836999999999986,0.5,0.39163000000000003,flight,-0.8503670000000001
76,0.633333,jog,1.0459618384735347,-0.505340213608538,-0.08688347533902015,-1.883742707638,5.08910522108187,0.19862085228183396,0.11220448817952235,-0.18852754110164197,0.2764910596423846,1.614064562582497,-1.2406096243849785,0.1358454338173531,8.61188893733571,17.065365201911312,-31.149691925516247,0.0720057603444911,1.8289463127801229,-2.102568202091945,-11.67933432805919,2.40499239554244,3.0818465427927273,-0.29107000000000005,0.16326999999999992,-0.858176,0.276888,-0.02600900000000006,-0.848511,0.567958,0.18927899999999998,0.009665000000000035,0.5,0.40334999999999993,flight,-0.848511
77,0.641667,jog,1.0717542596592329,-0.6045116390688897,0.1279097672186246,-0.39404978679111874,-0.07062906730184373,-0.6840767663315551,0.16330693544516545,-0.20410367170625895,0.2908567314614859,1.48824094072475,-1.1283897288216969,0.07535397168226628,3.094842954847406,-11.899619085715418,25.773127256736977,6.131803127626997,-1.8689861536617565,1.7237427188746572,-15.097626812784688,13.465310242774446,-7.258394784627689,-0.29864100000000005,0.16660700000000006,-0.856818,0.280359,-0.03037499999999993,-0.848949,0.579,0.196982,0.007869000000000015,0.5,0.42130999999999996,flight,-0.848949
78,0.65,jog,1.0717628705148154,-0.6609864394575704,0.22236889475578853,-0.020042450080828,0.12804139471272083,-0.6728335711939548,0.1578063122524907,-0.20436817472698943,0.30361214448577706,1.434537381495253,-1.1264850594023754,0.08568342733709222,0.0010333440036684517,-6.777247136527116,11.33554872640868,-0.6601011871684537,-0.03174163215294264,1.5307107913465883,-6.444684894935436,0.2285694730974953,1.2395842619495863,-0.306257,0.170412,-0.856141,0.283382,-0.03425400000000001,-0.850088,0.589639,0.20466600000000001,0.006053000000000086,0.5,0.43946999999999997,flight,-0.850088
79,0.658333,jog,1.1052442097684003,-0.7165486619464783,0.30265210608424903,-0.3614553875470715,-1.7115706012169156,-0.8472317370069015,0.16920676827073505,-0.23844953798151677,0.32857314292572054,1.2728909156366377,-1.0591623664946694,0.08532341293651864,4.017921427287313,-6.667733408005324,9.634370734244719,1.3681094465671977,-4.089927187630824,2.9954396303784603,-19.398351837107484,8.079046310777223,-0.04320345620707828,-0.314057,0.174396,-0.855925,0.284779,-0.03710900000000006,-0.851899,0.5988359999999999,0.21150500000000005,0.004026000000000085,0.5,0.45974,flight,-0.851899
80,0.666667,jog,1.113990880729535,-0.6388288936884995,0.1072714182865303,0.4596278548947484,2.395600972162788,-0.4079981554713487,0.21130309575233305,-0.26433885289177456,0.33921286297095926,1.1762658987280936,-1.0017998560115042,-0.03383729301655895,1.0495165540118199,9.325626140866111,-23.443807031163576,5.0511552053752915,-3.106469271689175,1.2766642722868538,-11.594074503064956,6.882950621930018,-14.298140863100155,-0.32158000000000003,0.17751699999999992,-0.853992,0.285298,-0.040134,-0.853075,0.606878,0.21765099999999993,0.0009169999999999456,0.5,0.49083,flight,-0.853075
81,0.675,jog,1.2103684147365825,-0.6249849993999722,0.20040801632065922,-0.12927664177302506,2.6071366968822813,-0.04164595720884232,0.2179287171486898,-0.2650906036241458,0.34069362774510936,0.9416776671066794,-0.9002760110404389,0.012240489619585316,11.565766711514128,1.6613337679739857,11.176838837648928,0.7951063718176795,-0.09021369643240934,0.17769888085324548,-28.151713863124108,12.183348730477013,5.5295550985412305,-0.32985,0.1805159999999999,-0.852823,0.283059,-0.04242800000000002,-0.854643,0.6129089999999999,0.22294399999999992,0.0018200000000000438,0.4818,0.5,flight,-0.852823
82,0.683333,jog,1.1999279971198966,-0.5855034201368201,0.030001200047998892,0.31883991524815786,2.525176679383589,0.11040424908606489,0.30853234129365337,-0.33277331093243007,0.3284531381255284,0.754830193207734,-0.8425537021481002,0.006960278411136808,-1.2529002300115204,4.737979030739525,-20.449635938156952,10.872869812188215,-8.122249766984863,-1.468917511050171,-22.42259377162452,6.926954145246511,-0.6336506910414683,-0.33727799999999997,0.18262200000000006,-0.850336,0.27935,-0.04457,-0.854835,0.616628,0.22719200000000006,0.004499000000000031,0.45500999999999997,0.5,flight,-0.850336
83,0.691667,jog,1.2218622510199089,-0.6324694024478025,0.1492680585553172,0.15787652989930306,0.932237562332392,-0.3684594060406141,0.3028557715382711,-0.2955363570914296,0.31341492680585187,0.6222702183825275,-0.8976481881449367,-0.09023278137748943,2.6318999160081686,-5.635467039954645,14.310878150626037,-0.6811338799354733,4.46807701475884,-1.8044410030809235,-15.905924505064258,-6.610809454863944,-11.662234195899387,-0.34493700000000005,0.1854300000000001,-0.8489680000000001,0.274353,-0.04677999999999993,-0.856831,0.61929,0.23221000000000003,0.007862999999999953,0.42137,0.5,flight,-0.8489680000000001
84,0.7,jog,1.2000480019200872,-0.7161886475459052,0.15516620664826597,0.07495641038403303,0.5320990641749291,-0.40646029315773524,0.36853474138966447,-0.23880955238210314,0.3284531381255284,0.49225969038761935,-0.7635905436217527,-0.14988599543981898,-2.6178146045628057,-10.046711280223624,0.7078060833971959,7.881791653833431,6.807488864673827,1.8046575446629867,-15.601887434886516,16.08756084521604,-7.158672034360986,-0.35186599999999996,0.18940800000000002,-0.847524,0.268455,-0.04717499999999997,-0.859373,0.620321,0.236583,0.011848999999999998,0.38151,0.5,flight,-0.847524
85,0.708333,jog,1.1910476419056717,-0.7087483499339904,0.020520820832837097,0.014767017465173624,-0.7225893410273722,-0.5486467128139036,0.3578543141725636,-0.2925717028681197,0.2707308292331675,0.3776551062042446,-0.7007080283211345,-0.2085683427337089,-1.0800864051860641,0.8928714282869015,-16.15809262155626,-1.281702534153467,-6.451716126967036,-6.9269541452490895,-13.753100226013956,7.546203684221518,-7.042163361801232,-0.358809,0.19287599999999994,-0.845439,0.261677,-0.04710800000000004,-0.8612820000000001,0.620486,0.23998399999999998,0.01584300000000005,0.34157000000000004,0.5,flight,-0.845439
86,0.716667,jog,1.256059515238772,-0.7213822894168432,0.16078713702903738,0.14691041780170389,1.6519587802135567,0.019016686669071935,0.4158867290616682,-0.3214542836573034,0.2852171826253883,0.30117590592752497,-0.47984161267097963,-0.3249340052795754,7.800800735913093,-1.5159514618253846,16.830611494624335,6.9633327200748925,-3.46563244410649,1.738223349198549,-9.176769891614954,26.501849730039986,-13.962762484505113,-0.365811,0.19620899999999997,-0.8444020000000001,0.25371900000000003,-0.045094999999999996,-0.86533,0.61953,0.24130399999999996,0.020927999999999947,0.29072,0.5,flight,-0.8444020000000001
87,0.725,jog,1.2420496819872906,-0.7121084843393795,0.04908196327853071,0.032828792449936216,0.3021744803454444,-0.22708794030201299,0.45313812552502536,-0.3340933637345535,0.2973718948757987,0.09840393615744569,-0.5774630985239508,-0.3007320292811733,-1.681247240067375,1.1129011253406775,-13.405157056343178,4.470346389458481,-1.5167502792811995,1.458623815001858,-24.333609716798406,-11.715046904232821,2.9043532939400327,-0.372385,0.19935899999999995,-0.842333,0.244189,-0.04397300000000004,-0.868245,0.616574,0.243332,0.025912000000000046,0.24087999999999998,0.5,flight,-0.842333
88,0.733333,jog,1.2312492499699943,-0.7289091563662544,0.006360254410172749,-0.30837995983389144,-0.5680242118828261,-0.3357355913216108,0.5285011400456019,-0.3898955958238249,0.32665306612264217,0.013080523220928541,-0.47773910956438204,-0.4035761430457207,-1.2961036862229998,-2.016161289676574,-5.126810136608399,9.043923499409123,-6.6965357121410225,3.513881104865398,-10.239219121146862,11.967357369442984,-12.341787323238565,-0.378241,0.20218400000000003,-0.839664,0.23403799999999997,-0.04188000000000003,-0.871661,0.612279,0.24406400000000006,0.03199700000000005,0.18003000000000002,0.5,flight,-0.839664
89,0.741667,jog,1.2391408687305072,-0.7343412526997899,-0.019678425725948395,-0.21293775489104855,-0.14453157064337382,-0.21143793214777604,0.540316774658028,-0.41504679625630064,0.12227021838253081,-0.033717302615788015,-0.2595392368610424,-0.5454763618910512,0.9469184977817332,-0.6517994160709749,-3.124391665001355,1.417762732472539,-3.0179026196875336,-24.523979810428667,-5.615289877215842,26.18189017318705,-17.02666412830949,-0.384065,0.20484500000000005,-0.8384809999999999,0.22343000000000002,-0.03792299999999993,-0.8760429999999999,0.607495,0.24276799999999998,0.037561999999999984,0.12438000000000005,0.5,flight,-0.8384809999999999
90,0.75,jog,1.287411496459854,-0.7535101404056039,-0.05856234249369145,0.0013428848150757193,0.4450295982412499,-0.011651221667712193,0.5015000600024032,-0.40477619104763535,0.4627385095403795,-0.1646465858634353,-0.27913116524661474,-0.47209888395535626,5.792707035803019,-2.300358539039237,-4.666256662395643,-4.658192086358405,1.232521925916867,40.857829252111756,-15.712142475416627,-2.3511254512867215,8.805649578266486,-0.39061399999999996,0.20775100000000002,-0.834137,0.21133,-0.033970000000000056,-0.8794890000000001,0.601944,0.24172100000000007,0.04535200000000006,0.04648000000000008,0.5,flight,-0.834137
91,0.758333,jog,1.2160086403456083,-0.7517100684027387,-0.16812672506900034,-0.3743330176297931,-1.2824547162028752,-0.26223089837623476,0.5809432377295048,-0.3542541701668131,0.12348493939757564,-0.15900636025440865,-0.18504740189606694,-0.48385935437417305,-8.568685481128691,0.21601728103507045,-13.148251839110575,9.533562669758947,6.062885021099489,-40.71205689941227,0.6768541472490864,11.290503222194577,-1.411312902774119,-0.395906,0.211063,-0.8317070000000001,0.199872,-0.02924799999999994,-0.88212,0.595778,0.24031099999999994,0.05041299999999993,0.0,0.5,flight,-0.8317070000000001
92,0.766667,jog,1.2655387568994554,-0.7053035757139395,-0.17182625389968767,0.18665232445435626,0.3350988258932618,-0.05934250452629582,0.49112071034317695,-0.380729541636669,0.46796256299496314,-0.05207583393328776,-0.18106551475883156,-0.4005279577633813,5.943138535378854,5.568333655963452,-0.4439079470467186,-10.777841059074683,-3.1767904331480743,41.33400811103785,12.83063670759797,0.47778823340957544,9.998967675880996,-0.40236,0.21376799999999996,-0.8263750000000001,0.18889099999999998,-0.024879000000000095,-0.8840260000000001,0.591251,0.23864700000000005,0.05765100000000001,0.0,0.5,flight,-0.8263750000000001
93,0.775,jog,1.2419296771870825,-0.6584663386535458,-0.23208928357135417,-0.42230176765842997,-0.4367628476587062,-0.02429769660707159,0.5256210248409908,-0.39025561022441124,0.501260050402014,0.08244329773191145,-0.16884675387014644,-0.19656786271450782,-2.833202893600482,5.620693274978229,-7.2318528347133375,4.140203347871563,-1.1431739574873638,3.9958583231790192,16.142941517484537,1.46630995904057,24.476190453482854,-0.408329,0.21600299999999995,-0.820264,0.179229,-0.020799000000000012,-0.8837299999999999,0.587558,0.23680199999999996,0.06346599999999991,0.0,0.5467860197386889,single,-0.820264
94,0.783333,jog,1.1971678867154794,-0.6335053402136184,-0.2817712708508253,-0.45962879384456645,-0.46214917774002645,0.0679078685593955,0.5837033481339282,-0.4774990999639975,0.6138245529821242,0.13320532821312972,-0.11988479539181343,-0.07656306252250156,-5.371629721781294,2.9954396303765285,-5.962076956614857,6.9701576014566085,-10.469637554252614,13.508280640838981,6.091687325239258,5.875670044201783,14.401152069123649,-0.413441,0.21730300000000002,-0.8128010000000001,0.17036300000000001,-0.01651899999999995,-0.88202,0.583804,0.23382199999999997,0.06921899999999992,0.0,0.6752012324987078,single,-0.8128010000000001
95,0.791667,jog,1.1777057835373081,-0.6328293736501033,-0.3346532277417831,-0.555197017976751,-0.6493382417301122,0.1426969220655633,0.5719942404607613,-0.4080873530117544,0.6214302855771511,0.11891048716102524,-0.08651307895369297,-0.1099112071034309,-2.335265560135716,0.08110949886190193,-6.345327200738824,-1.4049805223382312,8.328743334802319,0.9126149022110366,-1.7152437067559836,4.0042856297240474,-4.0014572331328395,-0.418489,0.21917600000000004,-0.804833,0.161539,-0.011966000000000032,-0.880147,0.580028,0.23114200000000007,0.07531399999999999,0.0,0.6940193804528103,single,-0.804833
96,0.8,jog,1.1400456018240681,-0.6423856954278073,-0.37045481819272025,-0.5992819246100324,-1.2440400713990079,0.13407872476807944,0.7119884795391745,-0.5789031561262487,0.7079083163326488,0.09564382575302878,-0.0879635185407393,-0.14880595223808868,-4.519402581692053,-1.146804485503901,-4.296362708620787,16.799980688637064,-20.49871632239212,10.37777880181176,-2.7921110534017,-0.17405971283407343,-4.66755611840365,-0.42205600000000004,0.21970499999999993,-0.7958470000000001,0.152836,-0.007346000000000075,-0.8783000000000001,0.574892,0.227051,0.082453,0.0,0.6707393238876467,single,-0.7958470000000001
97,0.808333,jog,1.1262450498020022,-0.6276251050042141,-0.36673466938678584,-0.9187221176595642,-1.8962588823838709,0.12319965720272437,0.7214688587543588,-0.5429017160686445,0.8702748109924486,0.10404416176647241,-0.02628105124204623,-0.10488419536781564,-1.6561324879474375,1.7713417044993842,0.44643571414069877,1.1376910134626648,4.320345620737372,19.484758749526137,1.0080806448390383,7.402192163529778,5.270821657299105,-0.425429,0.22041100000000002,-0.785539,0.144318,-0.002334999999999976,-0.876118,0.569747,0.222746,0.09057899999999997,0.0,0.7499079297870201,single,-0.785539
98,0.816667,jog,1.1073914086872967,-0.6067914566834581,-0.3582913366930671,0.17249483268555413,-0.4894438564948402,0.4945228783779535,0.9704823614110778,-0.7408207343412486,0.6819054475641889,0.04355651547876163,-0.10175185985120631,-0.1629469642428591,-2.262255953288386,2.499837811465779,1.0131188737363397,29.879229980407615,-23.74838232212655,-22.60251541015818,-7.257936919571672,-9.055772571293437,-6.966974907012601,-0.42657,0.219294,-0.77687,0.13545200000000002,0.0018740000000000423,-0.87449,0.562022,0.21741999999999995,0.09762000000000004,0.0,0.671694907391367,single,-0.77687
99,0.825,jog,1.0849633985359515,-0.6173046921876977,-0.4122164886595461,0.28820521319987674,-0.9194103578204674,0.4464461208244902,1.1500060002400212,-0.9103564142565764,0.8166326653066204,-0.0032401296051841467,-0.14604584183367753,-0.16860674426977276,-2.691468876916527,-1.2616387260577997,-6.471277087061017,21.5436984074097,-20.34509539365527,16.16791284560575,-5.615822042955263,-5.315490457514895,-0.6792007712604969,-0.426028,0.21685200000000004,-0.7666299999999999,0.126384,0.005801000000000056,-0.87246,0.552412,0.211051,0.10583000000000009,0.0,0.6281871716022126,single,-0.7666299999999999
100,0.833333,jog,1.068282731309248,-0.6108244329773079,-0.4444977799111995,0.43056396980208517,-2.3275455187426486,0.07031173762337467,1.2050882035281356,-1.036241449657989,0.7937117484699332,-0.009840393615744437,-0.08088323532942045,-0.09444377775111,-2.001760137609913,0.7776622117352361,-3.873909906594657,6.6101287997256915,-15.10680852051027,-2.750620045204258,-0.7920633638017835,7.819825573533758,8.899911978718643,-0.42488800000000004,0.2133069999999999,-0.756312,0.1174,0.01021699999999992,-0.869543,0.542288,0.20309,0.11323099999999997,0.0,0.7921100834858863,single,-0.756312
101,0.841667,jog,1.0752339812814888,-0.6179505639548775,-0.4032877369810321,0.8421423732587154,-1.2408359781335654,0.48018802869036353,1.3875689944804332,-1.1868250539956693,0.7183825293976451,-0.03551715862731176,-0.08723302135828133,-0.06755459563234818,0.8340832700072934,-0.8550673119233836,4.9448095668547,21.895943238816443,-18.068587033558806,-9.038783186019618,-3.080965324162122,-0.7619133703936686,3.2264437387522933,-0.422285,0.20856599999999992,-0.746964,0.10814299999999999,0.014639999999999986,-0.866745,0.530428,0.19392599999999993,0.11978100000000003,0.0,0.8068198022908399,single,-0.746964
102,0.85,jog,1.0777631105244312,-0.6309852394095936,-0.4014160566422744,0.37420982148224274,-1.6028913436569414,0.38423725106077417,1.5201008040321733,-1.3484939397575957,0.6725069002760169,-0.014280571222846672,-0.07836313452538349,-0.04920196807872368,0.30350764945906333,-1.5642236235108926,0.22461062507592613,15.904453324341924,-19.40104233312467,-5.505295706423696,2.5484924282329633,1.064428997107635,2.2024034025710635,-0.418599,0.20258700000000007,-0.738015,0.099043,0.019245000000000068,-0.86381,0.517642,0.183342,0.125795,0.0,0.8439591468208665,single,-0.738015
103,0.858333,jog,1.11028441137645,-0.6980679227169011,-0.1699267970718789,0.5583279372096667,-4.288832685138151,-0.20816806779745933,1.6965078603144068,-1.5090603624144907,0.5731429257170266,-0.014280571222849812,-0.10188407536301274,-0.055682227289091224,3.902712210730678,-8.050244006637131,27.779822341341,21.169693541609597,-19.268741468486063,-11.924153913235312,-3.7679701086259543e-13,-2.82262580554772,-0.7776622117325714,-0.413714,0.19582900000000003,-0.731823,0.089672,0.02421300000000004,-0.862858,0.503386,0.171616,0.131035,0.0,0.8050298458531198,single,-0.731823
104,0.866667,jog,1.1088312934965265,-0.6515478761699156,-0.4245260379169607,0.7876734326697807,-0.33736507531605986,0.44157058658974085,1.7878569714422976,-1.550635949124081,0.5076793856491492,0.019558435325173675,-0.059995200383976335,-0.023158147348212955,-0.1743601967750822,5.5819590289159775,-30.549464944214453,10.961016454030634,-4.988671311445959,-7.854996408432666,4.060355957286259,5.02626289645268,3.9025773867144773,-0.40805499999999995,0.18833600000000006,-0.7240540000000001,0.080594,0.02914300000000003,-0.8595130000000001,0.488649,0.15919300000000003,0.135459,0.0,0.887970040588292,single,-0.7240540000000001
105,0.875,jog,1.1099243969758752,-0.6773070922836864,-0.42901716068643836,1.013743367622244,-0.23956799780430665,0.043469731154726035,1.9315972638905474,-1.6517460698427866,0.4873394935797422,-0.005880235209407571,-0.044521780871235886,-0.023520940837632783,0.1311776646284233,-3.0912295828357896,-0.5389562905889408,17.2495250747929,-12.13369983423798,-2.4408846837161726,-3.052762574652723,1.8568846169135227,-0.043536960208787494,-0.401208,0.18021600000000004,-0.716418,0.071296,0.034416,-0.856134,0.472504,0.14580000000000004,0.13971599999999995,0.0,0.9155080412118058,single,-0.716418
106,0.883333,jog,1.1494059762390452,-0.6269050762030463,-0.42973718948757117,0.12043123377823298,-0.45457468750302554,0.31670378719150855,2.04080163206527,-1.7033481339253547,0.4128165126605045,-0.031201248049923094,-0.03852154086163619,-0.03132125285011439,4.737979030741607,6.048483869031548,-0.08640691241243338,13.10504838290197,-6.192495389723731,-8.943115434925884,-3.0386430865853136,0.7200576034560984,-0.9360748844931686,-0.39378,0.171246,-0.709397,0.061457999999999985,0.03931899999999999,-0.852814,0.45523800000000003,0.13192700000000002,0.1434169999999999,0.0,0.9022695334900862,single,-0.709397
107,0.891667,jog,1.0727141828653757,-0.6127909767218624,-0.42260619150468504,0.268198268559376,-0.560083355414632,0.24420081097166418,2.238660907127447,-1.7074634029277713,0.3156947444204475,-0.01907847372210144,-0.035517158627305576,-0.015838732901368002,-9.20227902251859,1.6935564532258083,0.8556513058418735,23.741213710364523,-0.493792776867852,-11.653679894415356,1.4546165500146058,0.36049702835740755,1.8577537735476932,-0.384063,0.16212300000000002,-0.703244,0.052359,0.04413,-0.849424,0.436422,0.11799300000000001,0.14617999999999998,0.0,0.9278057755379633,single,-0.703244
108,0.9,jog,1.0577223088923515,-0.5994239769590725,-0.39661586463458404,-0.20394058189523984,-0.48044560540707015,0.34566583790391403,2.350294011760456,-1.8234729389175441,0.2884915396615873,0.014040561622465558,-0.009840393615747768,-0.008640345613823998,-1.799096840636516,1.60410413570022,3.1189639829714255,13.396508416297705,-13.921701186820153,-3.2645151516692743,3.9744432190767864,3.0813350547891156,0.8638410281464028,-0.373292,0.15192300000000003,-0.697535,0.043662000000000006,0.04904299999999995,-0.8461909999999999,0.41695400000000005,0.10288000000000008,0.1486559999999999,0.0,0.9680005950787349,single,-0.697535
109,0.908333,jog,1.101164046561873,-0.5977439097563974,-0.44377775111004597,-0.37511240998827255,0.4790024522854316,0.4128532964609874,2.451218048721975,-1.8525141005640435,0.21828873154926245,0.00960038401536031,-0.012000480019199556,-0.013440537621505102,5.213217049024593,0.20161612896617323,-5.659652763166011,12.111368890137966,-3.485078800731988,-8.424673960437476,-0.532842626557697,-0.25922073724370664,-0.5760460827650483,-0.362042,0.141467,-0.692018,0.034566,0.05392399999999997,-0.842605,0.39660799999999996,0.08754300000000004,0.15058700000000003,0.0,0.9659727664016384,single,-0.692018
110,0.916667,jog,1.0256779457643295,-0.6227501799855998,-0.3977681785457081,0.09032234758282359,0.08480005723707665,0.25272620240891114,2.570194384449224,-1.9161267098631976,0.16726661867050585,-0.007439404847612913,-0.016198704103671132,-0.013438924886009136,-9.057607487106193,-3.000512386513348,5.520707051156408,14.276018205813315,-7.632902483699729,-6.122163772348958,-2.044611094669198,-0.5037465904093525,0.00019351277849364004,-0.34917,0.13068800000000003,-0.6873090000000001,0.025956000000000007,0.058979000000000004,-0.839402,0.37512599999999996,0.07170900000000002,0.15209299999999992,0.0,0.9627938378305431,single,-0.6873090000000001
111,0.925,jog,1.0250810032401279,-0.6051842073682946,-0.39673586943477945,-0.19449922294751532,0.09309818200848557,0.27423176909471847,2.68990759630384,-2.0052802112084405,0.10416416656665982,-0.003600144005760485,-0.020880835233410146,-0.014400576023041107,-0.0716359683429273,2.108001034117979,0.12388204859338292,14.366160068956622,-10.69884811535372,-7.572597156347746,0.46072973021149793,-0.5618782106971072,-0.11540275255393828,-0.335297,0.11902100000000004,-0.683135,0.017383999999999983,0.06384800000000002,-0.836216,0.352681,0.05517300000000003,0.1530809999999999,0.0,0.9573012195496033,single,-0.683135
112,0.933333,jog,1.0488419536781564,-0.6200648025921,-0.3559342373695009,-0.08010188236399442,1.0904125059047265,0.4534577516269662,2.7739109564382827,-1.9216368654746432,0.03108124324973138,-0.0008400336013449015,-0.019680787231482477,-0.011520460818432707,2.8514281096878342,-1.7857428565709224,4.896391703501609,10.08080644839116,10.037602992175453,-8.770301610095895,0.3312264975897766,0.14401152069214923,0.34562764965899756,-0.32092200000000004,0.10817499999999991,-0.67991,0.008636999999999978,0.068851,-0.833346,0.329559,0.039323999999999915,0.15343600000000002,0.0,0.9619663869433557,single,-0.67991
113,0.941667,jog,1.0449964002879684,-0.6497480201583894,-0.3111351091912571,-0.16616632745761933,0.7229695676769616,0.5089487243542156,2.749340052795757,-1.9847612191024466,-0.05435565154787683,-0.008279337652985986,-0.02387808975282682,-0.005759539236860939,-0.4614294924631588,-3.5617011718609572,5.375465344161686,-2.9482725752970085,-7.574316490017154,-10.251607247133137,-0.8926450745909561,-0.5036360116803829,0.6912552893654577,-0.306718,0.09704900000000005,-0.67777,-0.00014100000000000223,0.074067,-0.830801,0.306577,0.022982000000000058,0.15303100000000003,0.0,0.9567988267122696,single,-0.67777
114,0.95,jog,1.0174006960278488,-0.6380655226209127,-0.26857074282972443,-0.585547459563424,0.024924385368692098,0.5302949247363872,2.943957758310359,-2.0492019680787394,-0.11604464178567196,-0.01632065282611286,-0.022800912036484485,0.0032401296051841467,-3.311616975893417,1.4019557827285312,5.107928280515186,23.355058864107004,-7.733199205123413,-7.402974947533385,-0.964996420632059,0.1292664966209462,1.0800034611838674,-0.290664,0.08529000000000009,-0.676499,-0.008754999999999985,0.07919399999999999,-0.8285359999999999,0.28190899999999997,0.006096000000000101,0.15203699999999998,0.0,0.9529555842780109,single,-0.676499
115,0.958333,jog,1.0256810272410852,-0.6392655706228187,-0.22956918276730284,-0.373029500554377,-0.0644352327003073,0.7183775912437965,2.925597023880941,-2.078003120124796,-0.1761670466818662,-0.005400216008639062,-0.017400696027835127,0.007320292811712264,0.9936794927680815,-0.14401152068955844,4.6803744224674695,-2.2033762665808263,-3.4562764965866544,-7.214977186630743,1.3105048382903821,0.6480518431116448,0.489639170350186,-0.27483199999999997,0.07330100000000006,-0.676054,-0.017346999999999974,0.084376,-0.826562,0.257485,0.011074999999999946,0.15050799999999998,0.0,0.9672749992767047,single,-0.676054
116,0.966667,jog,1.0244780417566537,-0.7102231821454239,-0.1813054955603586,-0.350785594178493,-0.19271558232800495,0.5192841941058586,3.0417566594672207,-2.077513798896079,-0.23722102231821351,0.0,-0.01523878089752667,0.003599712023038399,-0.14434671039495212,-8.514232244133023,5.791179170499625,13.938041227055297,0.05871385033805635,-7.325891005081216,0.6479740831100337,0.2594090629119799,-0.44643397992246664,-0.25802,0.06190600000000002,-0.67652,-0.02588499999999999,0.09016800000000003,-0.825021,0.232135,0.02826200000000001,0.148501,0.0,0.9739030456283353,single,-0.67652
117,0.975,jog,1.0238809552382169,-0.6752670106804259,-0.06864274570983106,-0.5144335219521469,-0.8439117869585835,0.6415485015249062,3.122524900996068,-2.1836073442937907,-0.3358934357374321,0.0045601824072942325,-0.001800072002878601,0.0014400576023038802,-0.0716532483423525,4.194908372134679,13.520070784894825,9.6925766865292,-12.731734717114225,-11.841163256836609,0.547243778626458,1.6127095757408125,-0.2591688972440344,-0.240532,0.049336999999999964,-0.678747,-0.03437899999999999,0.09577999999999998,-0.824437,0.206153,0.04644300000000001,0.14569,0.0,0.9914837918092589,single,-0.678747
118,0.983333,jog,1.0477619104764166,-0.7341893675747081,-0.08724348973957988,-0.19609501601037987,-0.16936687031196473,0.3771494321221452,3.1872074882995185,-2.113284531381248,-0.427097083883351,0.003960158406336867,0.0003600144005730508,-0.0008400336013440577,2.865829261754431,-7.070965665940467,-2.2321785707126773,7.7622209652526575,8.439075112509578,-10.944875572533125,-0.07200576034529736,0.2592207372436869,-0.27362188931332393,-0.222704,0.03784500000000002,-0.681579,-0.043077000000000004,0.10190100000000002,-0.823717,0.179627,0.064056,0.142138,0.0,0.9932262513613035,single,-0.681579
119,0.991667,jog,1.0435565154787656,-0.7287017038636945,-0.029037676985850355,-0.30713712458221687,-0.22252758165714479,0.5188131743264653,3.2302615790736926,-2.175305975521965,-0.44216462682985874,0.006959443244540776,-0.027237820974319475,0.017518598512119166,-0.504607031155636,0.6584669679642001,6.984138799343635,5.166077606692387,-7.441977938650961,-1.8079605167396011,0.3598853897532908,-3.3114753269609647,2.202859624845612,-0.20448,0.025789000000000062,-0.685022,-0.051715999999999984,0.10774700000000004,-0.823329,0.152764,0.08195799999999998,0.13830699999999996,0.0,0.9447924613759868,single,-0.685022
120,1.0,jog,1.197887915516618,-0.7443897755910156,0.21552862114484728,-0.8723215286005007,-1.7282257038743527,0.40091744727494205,3.306132245289798,-2.2712108484339275,-0.41317652706108093,-0.013800552022081304,0.007560302412100682,0.026401056042241338,18.520508824895206,-1.8826439130350476,29.349129740873227,9.10484413969821,-11.509045111239926,3.4787111206981502,-2.4912990839579976,4.175941844044163,1.0659375411163008,-0.186912,0.013066000000000022,-0.690261,-0.06181300000000001,0.11401300000000003,-0.824905,0.125099,0.10094700000000001,0.13464399999999999,0.0,0.9487752997725231,single,-0.690261
121,1.008333,jog,1.1135245409816472,-0.7641905676227168,0.09096363854554702,-0.8034261807387357,0.010824912771948107,0.6887532949577031,3.241809672386925,-2.2458898355934487,-0.5786631465258655,0.009960398415936697,-0.014640585623433051,0.033361334453378494,-10.12400990459277,-2.3761900914078162,-14.948395847750078,-7.719017509045181,3.0386430865809504,-19.85918870332246,2.8514281096865735,-2.664213132789384,0.8352668200092667,-0.169177,0.0007190000000000252,-0.695841,-0.07100899999999999,0.120259,-0.825385,0.098168,0.11953999999999998,0.129544,0.0,0.9370508379609332,single,-0.695841
122,1.016667,jog,1.112311015118782,-0.8050155987520895,0.13702903767698196,-0.7543486626966343,0.1882355631652516,0.6687177281692658,3.3194144468442275,-2.1772258219342313,-0.6069114470842295,-0.015598752099830842,-0.035757139428847874,0.028917686585073585,-0.14561145462744804,-4.898611846576966,5.527405703315885,9.311827988637113,8.239022517304637,-3.3895249050112564,-3.0668527136749875,-2.5337837539494434,-0.5331950885894978,-0.150783,-0.010717000000000032,-0.702041,-0.08040899999999998,0.12666999999999995,-0.826286,0.070374,0.13738699999999998,0.12424499999999994,0.0,0.9190657556915871,single,-0.702041
123,1.025,jog,1.1453258130325348,-0.8359534381375364,0.1662066482659285,-0.766944410472468,0.47640280199248564,0.6563335297719142,3.6121444857794645,-2.245169806792289,-0.5328213128525189,-0.02544101764070799,-0.02928117124685278,0.06624264970598848,3.961934227019444,-3.712689233823017,3.5014533288067704,35.12900983262206,-8.153604327140103,8.891171754675543,-1.1811191096696554,0.7771472677301277,4.479174741499488,-0.130227,-0.02245999999999998,-0.707866,-0.09016500000000002,0.13339199999999996,-0.8271189999999999,0.040061999999999987,0.15585199999999994,0.11925299999999994,0.0,0.8720598989082453,single,-0.707866
124,1.033333,jog,1.1976479059162144,-0.8304332173286764,0.20112804512180266,-1.0358186019521258,0.5409193913028593,0.679588057485811,3.4608184327372493,-2.209768390735589,-0.6835473418936613,-0.03312132485299336,-0.017400696027834894,0.0476419056762264,6.278902302133529,0.6624529951830023,4.190735252114909,-18.159852759175866,4.2483398603983415,-18.087846998816726,-0.9216737324235249,1.425714054844315,-2.2321785707142388,-0.111368,-0.033953999999999984,-0.7152379999999999,-0.10042100000000001,0.14016699999999999,-0.828398,0.010946999999999985,0.17412099999999997,0.11316000000000004,0.0,0.8990385447761116,single,-0.7152379999999999
125,1.041667,jog,1.2068634509239504,-0.884449244060494,0.22450203983682537,-0.6493050866169282,0.9328983530152658,0.69204594290047,3.3995680345572996,-2.203623710103236,-0.7051835853131909,-0.010919126469880216,-0.022318214542839335,0.0412766978641713,1.1057769387732423,-6.4814046954426,2.804654993403307,-7.34945982480812,0.7373026916670493,-2.5961415190220833,2.664050681919074,-0.5900550173991522,-0.7637638363397196,-0.09309400000000001,-0.04494799999999999,-0.722986,-0.11057,0.14735199999999998,-0.829925,0.01747599999999999,0.19229999999999997,0.106939,0.0,0.9197037462854045,single,-0.722986
126,1.05,jog,1.2481699267970492,-0.9182767310692258,0.30577223088922956,-0.5586545221721869,0.7999052084604502,0.5254258341800037,3.3699747989919002,-2.2125285011400044,-0.6668666746669725,0.01596063842553605,-0.026521060842436443,0.09084363374534832,4.956975383787117,-4.059460819480528,9.752813038809883,-3.551330321060707,-1.0686176691189462,4.598213206074377,3.2257008154825146,-0.5043617304208609,5.9482702365506,-0.07541300000000001,-0.05573299999999998,-0.731091,-0.120838,0.15478299999999995,-0.831716,0.04542499999999999,0.21051599999999993,0.10062499999999996,0.0,0.840046235506615,single,-0.731091
127,1.058333,jog,1.231609264370582,-0.9770790831633334,0.3702148085923476,-0.6883698892886766,0.8149299594060023,0.5288887989790642,3.6653066122645224,-2.2288491539661797,-0.7645505820232897,-0.021000840033602555,-0.045721828873151106,0.08784351374055084,-1.9873589855354967,-7.056564513873527,7.733418661120683,35.44123524212467,-1.958556681408302,-11.72253778426955,-4.435554837290165,-2.304184331059023,-0.36002880172776963,-0.05513299999999999,-0.066164,-0.7405470000000001,-0.13127599999999998,0.16254399999999997,-0.8340690000000001,0.07614299999999999,0.22870799999999997,0.093522,0.0,0.8312792920574472,single,-0.7405470000000001
128,1.066667,jog,1.263858891288689,-0.9739620830333549,0.4178065754739571,-0.7695369307586867,1.0137018893183558,0.44432303562058595,3.638948884089244,-2.216342692584578,-0.6703863690904687,0.028677705783535803,0.01835853131750283,0.22234221262298853,3.8696456585201235,0.37401009478983505,5.710555181378584,-3.1626743670840005,1.5006553133670988,11.298801647806618,5.960948622166785,7.689028100630364,16.13855278166987,-0.03533900000000001,-0.07651799999999997,-0.7496160000000001,-0.14157,0.17081400000000008,-0.835698,0.10623099999999999,0.24733200000000005,0.08608199999999999,0.0,0.6251092529696558,single,-0.7496160000000001
129,1.075,jog,1.3403336133445443,-0.9961598463938652,0.3904956198247941,-1.0916539397936162,1.1617367279922142,0.37367990994402267,3.460218408736384,-2.25873034921399,-0.8796351854074214,0.045841833673349895,0.022200888035520512,0.25357014280571416,9.177333740052317,-2.6638381567875418,-3.2774457757306226,-21.448514982942715,-5.086722264420052,-25.110862392530255,2.0597777378872255,0.4611012502121345,3.747501521987989,-0.017673999999999968,-0.08703899999999998,-0.7602,-0.15235699999999996,0.17930000000000007,-0.836839,0.134683,0.26633900000000005,0.07663900000000001,0.0,0.5689413211296226,single,-0.7602
130,1.083333,jog,1.2542901716068444,-1.0794431777270872,0.4126965078603036,-0.04268708032275049,2.1509072457315006,-0.019644964651416345,3.6602664106563623,-2.2755310212408073,-0.6990279611184338,0.051242049681984335,-0.06876275051002469,0.21684867394695445,-10.325626033565143,-9.994399535967899,2.6642131327864065,24.00672049921693,-2.0161612896696193,21.67373386403269,0.6480518431098459,-10.91607326839597,-4.406752533152414,0.002375000000000016,-0.09700599999999998,-0.7694639999999999,-0.162382,0.187722,-0.838471,0.16475700000000001,0.284728,0.06900700000000004,0.0,0.6113505903421318,single,-0.7694639999999999
131,1.091667,jog,1.3221742260619402,-1.0796736261099324,0.5681545476362053,-0.7921893118724944,0.7131370400886498,0.07119391906779746,3.674826013918955,-2.2985361171106757,-0.6822654187665113,0.10043196544276702,-0.02315814734821243,0.3208543316534733,8.145434899819668,-0.027651593813925377,18.653472495308936,1.7470126305006974,-2.7603906731304138,2.011344174696767,5.9023177058775635,5.472114610248754,12.479680550338475,0.021982,-0.10716399999999998,-0.779885,-0.172564,0.196527,-0.8405320000000001,0.194546,0.303691,0.060647000000000006,0.0,0.5,flight,-0.779885
132,1.1,jog,1.375255010200387,-1.0987639505580027,0.5853834153365958,-0.8098773426101585,0.2721611847761284,-0.002841561675671147,3.73370934837387,-2.310452418096686,-0.6696267850713913,0.1558862354494146,0.0026401056042201017,0.38857554302171465,6.369948894569294,-2.2909305709912284,2.0675468259198544,7.066282785901127,-1.4300133188539474,1.5166967112828214,6.654778591941271,3.0959141908594843,8.126870439006378,0.04163499999999998,-0.117261,-0.7903429999999999,-0.18272500000000003,0.20570499999999997,-0.8421719999999999,0.22436,0.322966,0.051829000000000014,0.0,0.5,flight,-0.7903429999999999
133,1.108333,jog,1.4152166086643592,-1.1134045361814584,0.6758670346814032,-1.3674439336410678,-0.4981412670188483,-0.003279975349386418,3.8197527901116426,-2.3794551782071514,-0.6053042121684931,0.2023280931237293,-0.03768150726028181,0.3867754710188439,4.7955836390222535,-1.7569405524367994,10.858468660123394,10.325626033574158,-8.280662439753522,7.71901750904822,5.573245850751844,-4.838787095224083,-0.2160172810357328,0.061672000000000005,-0.127811,-0.801019,-0.192832,0.21466900000000005,-0.844581,0.254504,0.34248000000000006,0.04356199999999999,0.06438000000000005,0.5,flight,-0.801019
134,1.116667,jog,1.3086153107751246,-1.1383489320854205,0.513918886489068,2.25078034209196,2.315830523228978,-0.13327443600175984,3.7764578833692983,-2.331893448524101,-0.5124790016798614,0.2748980081593437,-0.06683465322774483,0.3922486201103883,-12.79113245611156,-2.993088061430519,-19.432223205223654,-5.194973211224374,5.706951005885532,11.138134207899085,8.707693188818554,-3.498097668282073,0.6567253529570857,0.082239,-0.13775800000000005,-0.809573,-0.201447,0.223599,-0.845595,0.283686,0.36135700000000004,0.036022,0.13978000000000002,0.5,flight,-0.809573
135,1.125,jog,1.3721348853954283,-1.1686067442697845,0.6293051722068972,0.2837841120286776,1.2949722893055478,-0.13762426910126435,3.750870034801427,-2.378495139805611,-0.56990279611185,0.32377295091804037,-0.08220328813153162,0.46957878315133034,7.622653860590933,-3.631082705431926,13.846908162466125,-3.070664654730777,-5.592426650847303,-6.891130977077783,5.865227740153263,-1.8443099608528655,9.279990764543712,0.10206100000000001,-0.14784,-0.819566,-0.21018299999999998,0.23265199999999997,-0.846926,0.31224399999999997,0.38049199999999994,0.02735999999999994,0.22640000000000005,0.5,flight,-0.819566
136,1.133333,jog,1.411016440657638,-1.168486739469589,0.5805832233289395,0.3592800768886712,0.7720328090138061,-0.1435455897685454,3.738509540381648,-2.355334213368557,-0.503780151206052,0.35377415096604264,-0.08424336973478781,0.4926197047881957,4.665973270396024,0.014401152069539593,-5.846867740064576,-1.4833186631200237,2.7794223493404826,7.935034790087436,3.600288017280997,-0.2448195851741525,2.7650211972717624,0.12145600000000001,-0.15773,-0.828602,-0.21899299999999997,0.24168699999999999,-0.8476589999999999,0.340449,0.399417,0.01905699999999999,0.30943,0.5,flight,-0.828602
137,1.141667,jog,1.421766258699293,-1.1607871370290308,0.646868250539956,0.11851549453860415,1.177600156367469,0.0874896104788245,3.696184305255558,-2.3465322774177877,-0.4139668826493859,0.4013678905687499,-0.11051115910726453,0.538756899448041,1.2898749750005876,0.9238783825963727,7.95356697996352,-5.078621925376743,1.0561478222665375,10.776730088392778,5.7107918889737075,-3.1518825740912546,5.536020477543182,0.14041100000000006,-0.16761199999999998,-0.837443,-0.22749699999999998,0.25044000000000005,-0.84856,0.367908,0.41805200000000003,0.011116999999999932,0.3888300000000001,0.5,flight,-0.837443
138,1.15,jog,1.533901356054258,-1.2653306132245403,0.6483859354374157,-0.05217696658151138,0.16194887401368915,0.1922096295666182,3.6497059882395524,-2.280451218048742,-0.3136925477019099,0.44905796231849626,-0.15144605784231333,0.5660626425057053,13.456749952594036,-12.545718972220147,0.18212947287408504,-5.577621146766577,7.930044326058603,12.033401529758422,5.723037531470877,-4.912384343579644,3.2768202397293367,0.15804199999999996,-0.17607099999999998,-0.84546,-0.236537,0.25972200000000006,-0.849246,0.39457899999999996,0.43579300000000004,0.003785999999999956,0.46214,0.5,flight,-0.84546
139,1.158333,jog,1.4942997719908557,-1.2611304452177856,0.5622224888995522,0.5095408029933,0.3714691047961686,-0.14786305853687817,3.5535821432856793,-2.269650786031403,-0.18648745949837664,0.4816992679707125,-0.16560662426497344,0.5876635065402511,-4.752380182815506,0.5040403224234535,-10.340027185630872,-11.53532280737686,1.2961036862280986,15.265221193271456,3.9171133628003916,-1.6993359441569502,2.592207372440356,0.17520200000000002,-0.184475,-0.851699,-0.244975,0.268851,-0.8490340000000001,0.420177,0.453326,0.0026649999999999174,0.5,0.47335,flight,-0.8490340000000001
140,1.166667,jog,1.5457163426926146,-1.226661867050657,0.5658747300216022,0.23560097693117443,0.35123226416971226,-0.062495691533419315,3.370770338372995,-2.147588192944605,-0.06827453803695835,0.5226781857451501,-0.20266378689705827,0.6117110631149614,6.169494924617212,4.135898508174852,0.43823387593593127,-21.935661736583636,14.646339463258979,14.184415822104697,4.917076766791266,-4.4465037955466205,2.8854759508892136,0.19041200000000003,-0.19215000000000002,-0.856984,-0.253501,0.27738499999999994,-0.848652,0.443913,0.4695349999999999,0.008332000000000006,0.5,0.41668000000000005,flight,-0.848652
141,1.175,jog,1.5523820952837846,-1.2455298211928292,0.5088203528141062,0.41113726406694545,-0.01392225771034148,-0.04692083726994532,3.165366614664529,-1.9895595823832617,0.006720268810752372,0.6096243849753885,-0.25813032521299234,0.6069842793711651,0.7999223078326958,-2.2642450668632903,-6.8467991368648695,-24.649432822328333,18.964191835034267,8.999736811197577,10.433961266079066,-6.6562508479458895,-0.5672367387250968,0.203853,-0.19835,-0.8611679999999999,-0.261357,0.28561300000000006,-0.847834,0.46521,0.48396300000000003,0.013333999999999957,0.5,0.36666,flight,-0.847834
142,1.183333,jog,1.6333853354134296,-1.2629305172206977,0.5185407416296722,-0.21201870660644698,-0.8195918963846616,0.07833424495173368,2.863434537381524,-1.8876755070202973,0.11280451218048781,0.6597863914556646,-0.2810512420496925,0.598103924156972,9.720777646663354,-2.0881670500262444,1.166493317600638,-36.23329860590519,12.226578106680106,12.730618429105535,6.019681564895787,-2.7506200452058533,-1.0656852531133012,0.21410300000000004,-0.20355600000000001,-0.864549,-0.26947,0.293795,-0.847171,0.48357300000000003,0.497351,0.017378000000000005,0.5,0.32621999999999995,flight,-0.847171
143,1.191667,jog,1.5212383009359163,-1.270218382529386,0.38108951283896475,1.1845575457057866,0.9083642521005497,-0.6240334412324953,2.597432205423543,-1.7272618190544613,0.07127429805615464,0.7086633069354391,-0.30453563714901727,0.6001919846412233,-13.45656761189254,-0.8744738791322589,-16.49282802864248,-31.917726416844122,19.248102707683557,-4.983227036757003,5.8647606767187535,-2.817901979760569,0.2505472143330018,0.223072,-0.20736500000000002,-0.867131,-0.276242,0.30184300000000003,-0.845345,0.49931400000000004,0.5092080000000001,0.021785999999999972,0.5,0.28214,flight,-0.845345
144,1.2,jog,1.5951038041521772,-1.2506900276011206,0.3560542421696964,0.41577414841111465,0.14630500630542193,-0.24125908088294998,2.23712948517942,-1.5604224168966903,0.05616224648985965,0.8310332413296592,-0.34009360374415326,0.6045841833673403,8.864214954549578,2.3434963312451234,-3.0043526544184074,-43.238055951533205,20.02152912009751,-1.8135187287045629,14.6849795264876,-4.267126676483417,0.5270849305312744,0.22842199999999996,-0.20994599999999997,-0.86963,-0.282609,0.30943100000000007,-0.843274,0.511031,0.5193770000000001,0.026356000000000046,0.5,0.23643999999999998,flight,-0.843274
145,1.208333,jog,1.5396615864634327,-1.2804512180486944,0.2677307092283624,1.0598035952992104,0.48317233633825296,-0.6376251567675151,1.8654746189847304,-1.3768150726028796,0.010920436817473437,0.8165126605064065,-0.3824552982119279,0.7254290171606748,-6.65333225593947,-3.571485713137326,-10.599247922876808,-44.600367958080305,22.033762665763522,-5.429234330059454,-1.7425394003663073,-5.083606680400086,14.501960133605223,0.23113699999999998,-0.21074900000000002,-0.8717699999999999,-0.288635,0.316914,-0.83946,0.519772,0.527663,0.03230999999999995,0.5,0.17689999999999995,flight,-0.83946
146,1.216667,jog,1.558435325174009,-1.282097432205448,0.1839452843772541,0.53112333625161,-0.1346986825340855,-0.6009324629101263,1.5543556515479082,-1.1617470602352045,-0.058195344372451226,0.8155747540196936,-0.45464362850973294,0.7643388528917816,2.2526684317946692,-0.19752989641870766,-10.053446706396674,-37.331289589252236,25.8060969963618,-8.293230284368368,-0.11253977522352993,-8.661906683202112,4.668806783190255,0.23110300000000006,-0.20974600000000004,-0.873788,-0.2948259999999999,0.32380999999999993,-0.834623,0.525929,0.5335559999999999,0.039165000000000005,0.5,0.10835000000000011,flight,-0.834623
147,1.225,jog,1.5664226569062598,-1.2719308772350701,0.14412576503059962,0.1869706561585246,-0.5386124752640458,-0.5118521970045316,1.250930037201465,-0.9447977919116597,-0.16008640345613567,0.7007080283211219,-0.5101404056162163,0.7950318012720393,0.9585181485960166,1.2200353978612257,-4.778533462936972,-36.41253022278147,26.034953596968798,-12.227416186689387,-13.78455846616701,-6.659879647963807,3.683301137676368,0.22847399999999995,-0.20702,-0.876323,-0.30204000000000003,0.33015799999999995,-0.829199,0.5305139999999999,0.5371779999999999,0.047123999999999944,0.5,0.028759999999999897,flight,-0.829199
148,1.233333,jog,1.532461298451946,-1.2859714388575665,0.04872194887795766,0.29844131062971185,-0.08714906420670912,-0.807194951743533,1.0052802112084536,-0.7247089883595405,-0.30889235569422974,0.9272770910836499,-0.5628225129005178,0.8622344893795827,-4.07552603555913,-1.6849347920912598,-11.448915894952938,-29.47915828549305,26.41171289477034,-17.85742856571408,27.189375106507864,-6.322105758346566,8.064645158711627,0.22408099999999997,-0.202343,-0.8793030000000001,-0.307083,0.336184,-0.82242,0.531164,0.538527,0.05688300000000002,0.5,0.0,flight,-0.82242
149,1.241667,jog,1.566594672426202,-1.2718982481401389,-0.03155747540196919,0.09919348486668322,-0.358244940338598,-0.578163564718752,0.7495800335973068,-0.5373170146388251,-0.41300695944324145,1.0698344132469328,-0.5580753539716733,0.9094072474201997,4.095677222732894,1.6886477942677613,-9.632760292767728,-30.68156678799433,22.485238027443476,-12.492753029638939,17.105510218776324,0.5696135023811422,5.660278142622593,0.2172719999999999,-0.196221,-0.882482,-0.311223,0.342133,-0.814578,0.5284949999999999,0.538354,0.06790399999999996,0.5,0.0,flight,-0.814578
150,1.25,jog,1.5648625945037873,-1.2890915636625584,-0.10320412816512417,-0.01328902710885927,-0.5469166910913549,-0.8150983233382775,0.5945037801512132,-0.36313452538101865,-0.5226209048361996,1.171606864274581,-0.5325813032521414,0.9654386175447102,-0.20785766499637892,-2.06328039390612,-8.597942249268648,-18.609894809323784,20.902734820329776,-13.154199615139705,12.213182650623908,3.059408462682366,6.724033376276363,0.20918599999999998,-0.188505,-0.885977,-0.3145,0.348437,-0.8056730000000001,0.523686,0.5369419999999999,0.08030399999999993,0.5,0.0,flight,-0.8056730000000001
151,1.258333,jog,1.5304212168486897,-1.2479299171966982,-0.2322092883715394,-0.16408704683907513,-0.4287481599787155,-0.7139331431355019,0.4123364934597415,-0.19632785311412618,-0.6289451578063174,1.330853234129376,-0.7099483979359145,0.8606744269770851,-4.133130643837501,4.939595159709655,-15.481238474308942,-21.86094884093044,20.01760137608232,-12.759420733243585,19.110328795727405,-21.28490275816329,-12.57220575634538,0.19986899999999996,-0.179742,-0.889283,-0.316163,0.35292,-0.796566,0.516032,0.5326620000000001,0.09271700000000005,0.5,0.0,flight,-0.796566
152,1.266667,jog,1.5484761219102288,-1.2706983441324617,-0.2787377009839148,-0.009983102170171931,-0.6637861988398169,-0.8282106042417237,0.23950083993280327,-0.042596592272618,-0.7224622030237524,1.4838012958963223,-0.7257019438444933,0.8443724502039791,2.166415294161138,-2.7319926728777726,-5.582962876454891,-20.738619333685733,18.446275598932925,-11.22114773427337,18.35229922809517,-1.890274287086475,-1.9560807263145956,0.18896000000000002,-0.169507,-0.892981,-0.31670199999999993,0.357462,-0.7872060000000001,0.505662,0.526969,0.10577499999999995,0.5,0.0,flight,-0.7872060000000001
153,1.275,jog,1.5381015240609859,-1.2565702628105215,-0.3876155046201963,-0.5165607528148115,-1.2889880399783182,-0.8220958070874549,0.20748829953198084,0.07848313932557395,-0.7187087483499407,1.807512300492032,-0.9179167166686771,0.9871594863794622,-1.2450015419708362,1.6954375761358862,-13.065859070716725,-3.841658514439305,14.530148997743076,0.4504325781605367,38.84687442646258,-23.066695406718544,17.135129746247973,0.17787199999999992,-0.15838200000000002,-0.89574,-0.31445700000000004,0.36028399999999994,-0.7757499999999999,0.49232899999999996,0.518666,0.11999000000000004,0.5,0.0,flight,-0.7757499999999999
154,1.283333,jog,1.4778591143645445,-1.2091683667346484,-0.48865954638184245,-0.597150070424837,-0.8439903949123957,-0.7826535255804155,0.17580703228129413,0.18984759390375283,-0.6069842793711642,1.8505940237609202,-0.8975159006360114,0.9365174606984122,-7.2293783387063835,5.688455067307363,-12.125770042199015,-3.801904146248188,13.364269120146037,13.407472576356003,5.170013592810213,2.448195851753917,-6.07728617317281,0.167022,-0.14672400000000002,-0.896726,-0.311351,0.36288099999999995,-0.763874,0.478373,0.509605,0.13285199999999997,0.5,0.0,flight,-0.763874
155,1.291667,jog,1.4656827453803944,-1.1978641708663558,-0.5518358531317623,-0.7087959347242612,-1.3162171701798928,-0.866406039579931,0.17914566834653167,0.14974802015839006,-0.3504919606431552,2.0506359491241084,-1.0613150947924357,0.9018478521718428,-1.4610473943064939,1.3563949925957393,-7.580550365961251,0.40060427948615396,-4.811563924329677,30.776616118072216,24.003110794719465,-19.654330952295105,-4.160020221570684,0.1563,-0.13549299999999997,-0.895048,-0.30647599999999997,0.364019,-0.7517590000000001,0.46277599999999997,0.49951199999999996,0.1432889999999999,0.5,0.0,flight,-0.7517590000000001
156,1.3,jog,1.398655946237835,-1.1968078723148694,-0.6475459018360569,-0.9482014441452391,-1.2603989732440681,-0.9308840301312463,0.24948997959918595,0.0032401296051840604,-0.20172806912276162,2.2108484339373216,-1.2180487219488558,0.8387135485419265,-8.043537638612543,0.12676089661422646,-11.485665271125992,8.441655016519027,-17.581650132389708,17.852381077690023,19.226267228274374,-18.8087876102745,-7.576419492369523,0.14672399999999997,-0.12549300000000002,-0.891333,-0.29970800000000003,0.363842,-0.7393740000000001,0.446432,0.48933499999999996,0.15195899999999996,0.5,0.0,flight,-0.7393740000000001
157,1.308333,jog,1.3242529701188055,-1.1924876995079914,-0.6949477979119217,-0.8333773183362521,-0.6052622163620932,-1.017681681719711,0.3180127205088149,-0.06600264010560422,-0.2347293891755691,2.398775951038061,-1.3218528741149764,0.7319092763710641,-8.928714282854932,0.5184414744843465,-5.688455067306529,8.22305783146881,-8.309464743884426,-3.9603168190096945,22.55220414025453,-12.456996539796178,-12.817025341517267,0.138339,-0.116106,-0.887498,-0.29075399999999996,0.362764,-0.727484,0.42909299999999995,0.47886999999999996,0.160014,0.5,0.0,flight,-0.727484
158,1.316667,jog,1.3080153587712942,-1.1498680105591474,-0.7383009359251294,-1.1796569886520825,-1.2338833668731868,-1.034881963124051,0.333093352531795,-0.12239020878329641,-0.30897528197743956,2.536717062634972,-1.411087113030946,0.637748980081587,-1.9483574931018977,5.113953557576627,-5.201960404752494,1.8095310802711766,-6.765966963965894,-8.908794432669774,16.551609262888206,-10.707252089749076,-11.298331688202108,0.13021399999999994,-0.107543,-0.88392,-0.280514,0.360587,-0.716016,0.4107279999999999,0.46813,0.16790400000000005,0.5,0.0,flight,-0.716016
159,1.325,jog,1.3428537141485821,-1.229209168366746,-0.7296291851674103,-1.5194518984873346,-1.9535841948839918,-1.7415242574624472,0.2172086883475466,-0.14832593303732297,-0.33781351254050446,2.648025921036863,-1.5201008040321733,0.48301932077283544,4.180769876069637,-9.521319789703513,1.0406517169949798,-13.906715970748765,-3.112411406939493,-3.4607260966116833,13.357597312119484,-13.082166206795677,-18.56830184912432,0.120834,-0.09853599999999998,-0.880655,-0.26963800000000004,0.358163,-0.705911,0.39047200000000004,0.456699,0.174744,0.5,0.0,flight,-0.705911
160,1.333333,jog,1.342853714148533,-1.1200048001919858,-0.7634705388215369,-1.6893163264174977,-1.6904699193434276,-1.318791199471301,0.0769230769230759,-0.11016440657626138,-0.22656906276250663,2.79299171966874,-1.6549861994479487,0.37465498619944304,-5.888858476950806e-12,13.105048382906325,-4.061124883490468,-16.834946768806944,4.57956635798163,13.349867968078229,17.396591699492927,-16.18689492568979,-13.004240318419596,0.11028500000000008,-0.090121,-0.876181,-0.25755399999999995,0.353705,-0.696427,0.367839,0.443826,0.17975399999999997,0.5609767899052174,0.0,single,-0.696427
161,1.341667,jog,1.2759779217662868,-1.0873530117590817,-0.7337413006959561,-1.8123391836389127,-1.1977047087218446,-1.0779606955679235,0.10091192704583593,0.04223662107031496,-0.08231341492680731,2.899808015358826,-1.8016558675306318,0.23290136789057297,-8.024453129619337,3.9179011798541734,3.5672231972139885,2.878431740192043,18.28666038475873,17.3092929968445,12.81693012840029,-17.59895225374201,-17.009073471187037,0.10049200000000003,-0.080707,-0.8707520000000001,-0.244021,0.347752,-0.6883710000000001,0.344513,0.42845900000000003,0.18238100000000002,0.771827018248738,0.0,single,-0.6883710000000001
162,1.35,jog,1.265450618024702,-1.074762990519601,-0.6855874234969374,-2.2585320508422866,-1.2474926280891954,-1.0252588845726922,0.108844353774148,0.04608184327373043,-0.05796231849273838,3.011040441617609,-1.99735989439574,0.11676467058682162,-1.2633269820694277,1.5108629832569902,5.778696411738619,0.9519292845688144,0.46144512221473744,2.9222484620267024,13.348425088057267,-23.485422640718205,-13.936961154896114,0.09085399999999999,-0.07136700000000001,-0.865522,-0.22947500000000004,0.34006400000000003,-0.681685,0.32032900000000003,0.411431,0.18383700000000003,0.7805925910734516,0.0,single,-0.681685
163,1.358333,jog,1.1795271810872514,-1.0913236529461283,-0.6967478699148003,-1.8354478775112866,-0.11215778858800943,-1.066029040763322,0.06756270250809857,0.027961118444737698,-0.026281051242050393,3.0712828513140846,-1.9253570142805891,-0.04092163686547595,-10.31122488148943,-1.987358985542718,-1.3393071424292642,-4.9539963117784485,-2.1745739624376452,3.8019041462484426,7.22937833871068,8.640691241467843,-18.923113818828632,0.081588,-0.062040000000000005,-0.859935,-0.21371099999999998,0.333114,-0.67622,0.295299,0.395154,0.18371499999999996,0.8705005730464657,0.0,single,-0.67622
164,1.366667,jog,1.2780177585792998,-1.075593952483793,-0.5651547876169853,-1.654244318708396,-0.25030124226330047,-0.9338569001079319,0.049076073914085624,0.017758579313655046,-0.021838252939764012,3.145908327333785,-2.01895848332132,-0.20062395008399256,11.817923865136503,1.8874130624352328,15.78990668320302,-2.2182179738436285,-1.2242067591891737,0.5330931488224558,8.954340775101956,-11.231277782664991,-19.162744566656514,0.07134600000000002,-0.052928,-0.855407,-0.198144,0.325252,-0.673182,0.26949,0.37818,0.18222500000000008,0.9057082326334124,0.0,single,-0.673182
165,1.375,jog,1.2914916596664043,-1.098763950558032,-0.5060602424097042,-0.6260694496965835,0.9060967859573678,-1.0892660019829559,0.04416176647066342,0.04320172806912306,-0.028321132845314085,3.242049681987314,-2.2985719428777367,-0.2943717748709955,1.6169328077648721,-2.780510989348283,7.091629090037409,-0.5897404828299828,3.053299982655496,-0.7779767077343253,11.537424055385804,-33.554957345064125,-11.250188981999733,0.060952000000000006,-0.043412000000000006,-0.851426,-0.18189,0.315254,-0.671418,0.242842,0.358666,0.18000800000000006,0.8867311765507262,0.0,single,-0.671418
166,1.383333,jog,1.3084123364934712,-1.1102844113764665,-0.45469818792751304,-0.0009466978504674022,1.2030635341935014,-1.0335277145261812,0.02028081123244645,0.012000480019201221,-0.032281291251651,3.3129725189007786,-2.2653306132245468,-0.4189367574703053,2.0305624417457144,-1.3825105986360977,6.163693085586413,-2.865829261756533,-3.744299537972174,-0.4752380182811657,8.511080872850753,3.9891191231477543,-14.948395847751225,0.050217999999999985,-0.03405999999999999,-0.847906,-0.16518600000000006,0.30562900000000004,-0.67112,0.21540400000000004,0.339689,0.176786,0.9333874263243189,0.0,single,-0.67112
167,1.391667,jog,1.3188144948403995,-1.167386609071264,-0.3156947444204499,-0.4585121872367447,0.0927317980838961,-0.8431638080889008,0.017038636909044204,-0.0002399808015361153,-0.01991840652747759,3.3989680825533686,-2.3813294936404943,-0.5367170626349823,1.2481591488994694,-6.851715586128746,16.679078894535884,-0.38902979642455265,-1.468737799464512,1.4834274927013822,10.318642146938963,-13.918752149741618,-14.132506019279592,0.03936899999999999,-0.024333000000000007,-0.845441,-0.14785000000000004,0.295512,-0.672962,0.18721900000000002,0.319845,0.17247900000000005,0.9563118482532413,0.0,single,-0.672962
168,1.4,jog,1.3277331093243807,-1.1630865234609498,-0.3342133685347489,0.09482682614894991,0.24567055026081286,-0.6892070978827367,0.008040321612869298,0.0021600864034558203,-0.017400696027841188,3.5275411016441054,-2.540741629665206,-0.6175447017880785,1.0702765491397237,0.5160309144742807,-2.2223237866673666,-1.0798410291821658,0.2880195853824502,0.3021373454501889,15.429379466067202,-19.13022153182684,-9.699704686559096,0.028372000000000064,-0.014623000000000004,-0.8428009999999999,-0.12951899999999994,0.284032,-0.6753229999999999,0.157891,0.298655,0.16747800000000002,0.9678503081420462,0.0,single,-0.6753229999999999
169,1.408333,jog,1.192007680307201,-1.1892475699027756,-0.3692547701908007,0.805197422608183,1.060362358594519,-1.1231852035824432,0.006240249609977207,0.0003600144005763768,-0.009600384015360055,3.5467418696747246,-2.683187327493055,-0.7340693627744995,-16.287702990180883,-3.139451151065086,-4.205136404182309,-0.21601728103828866,-0.2160172810367709,0.9360748844930993,2.3041843310475065,-17.09416750604185,-13.98351865911664,0.018490999999999924,-0.004709999999999999,-0.839804,-0.10989700000000002,0.271583,-0.6783629999999999,0.12838799999999995,0.276293,0.16144100000000006,0.9809068294055305,0.0,single,-0.6783629999999999
170,1.416667,jog,1.196184305255603,-1.200263978881712,-0.377249820014397,0.1876889966340569,0.792021882970819,-1.1221872358583074,0.055075593952496636,0.016078713702904333,-0.010679145668346591,3.519678425726002,-2.56515478761704,-0.9293256539477021,0.5011549014161212,-1.3218633284061219,-0.9593292324929722,5.859772539299299,1.8860930288370836,-0.12944104307494075,-3.247353485567944,14.16277176338099,-23.428880630334323,0.008981000000000017,0.005427000000000001,-0.8367490000000001,-0.09053300000000009,0.260208,-0.682964,0.0995140000000001,0.254781,0.15378500000000006,0.9027333242551122,0.0,single,-0.682964
171,1.425,jog,1.210728429137146,-1.1454458178326934,-0.12180487219488424,0.5102603002333677,-0.051396515505790615,-0.8198068163261948,0.029281171246838676,0.019440777631104363,-0.02760110404416141,3.6169446777870546,-2.6523460938437085,-0.9669986799471788,1.7453646803723606,6.57844246358066,30.654619923137922,-3.0954545428606153,0.4034638099363939,-2.0307162337470923,11.672417144011888,-10.463375282211297,-4.520943957695438,-0.0008640000000000869,0.015133999999999998,-0.835964,-0.07048200000000004,0.24765099999999998,-0.690007,0.06961799999999996,0.23251699999999997,0.145957,0.9255174933113418,0.0,single,-0.690007
172,1.433333,jog,1.254770190807633,-1.1743669746789978,-0.012360494419785935,0.7454238692692831,-0.4970372591871816,-1.0823269825887427,0.0196807872314958,0.020760830433217463,-0.0037201488059526618,3.594983799352008,-2.718948757950341,-1.0357614304572278,5.285222809370851,-3.4706776486625017,13.133850687039399,-1.1520921655277767,0.1584126727604839,2.865829261755546,-2.635410828638745,-7.992639398371896,-8.251860135611379,-0.011155999999999944,0.025092999999999997,-0.835892,-0.05098099999999994,0.23478,-0.6985349999999999,0.039825,0.209687,0.13735700000000006,0.9519206392898549,0.0,single,-0.6985349999999999
173,1.441667,jog,1.3200143988480868,-1.3015358771298196,0.2086633069354491,-0.32230748046279006,-3.028863234187809,-1.8436580123899522,0.009479241660659903,0.019198464122870074,0.007079433645308741,3.603071754259625,-2.830213582913345,-1.1564674826013839,7.828678670560755,-15.259047570292875,26.52073450386769,-1.2240875414969785,-0.1874689597249073,1.295846226453242,0.9704769507579374,-13.350710938685276,-14.483567571892868,-0.022078000000000042,0.0361,-0.837572,-0.03195400000000004,0.22204000000000002,-0.709912,0.009875999999999996,0.18594,0.12766,0.9624147107723776,0.0,single,-0.709912
174,1.45,jog,1.2708508340333715,-1.1870874834993508,0.053882155286215865,0.5945056885722334,0.14012441976196913,-1.113352243522717,0.037441497659917534,0.022320892835714305,0.014760590423616852,3.727469098763985,-2.8675147005880497,-1.1298451938077634,-5.899863772316781,13.734356609920775,-18.574481177155242,3.3556049441087112,0.37470643379866314,0.9217756844243588,14.928278471662232,-4.476313173491568,3.194802447332382,-0.03235599999999994,0.046178000000000004,-0.837898,-0.011483000000000021,0.208037,-0.7197760000000001,0.02087299999999992,0.161859,0.11812199999999995,0.9232977793734681,0.0,single,-0.7197760000000001
175,1.458333,jog,1.2518900756030018,-1.2568102724108745,0.1119644785791366,0.9395857969292484,-0.4115771887242535,-1.5953752664901444,0.0367214688587438,0.02376095043801672,0.018600744029761147,3.7199087963517985,-3.0068402736108912,-1.0312012480499027,-2.275382026925402,-8.367069352156786,6.970157601454425,-0.08640691241734351,0.17281382482927987,0.46083686621195585,-0.9072725803655952,-16.719737552242783,11.837747000823112,-0.04248200000000002,0.056849,-0.838676,0.009083000000000063,0.19345400000000001,-0.729302,0.05156500000000008,0.136605,0.10937399999999997,0.9207844586074334,0.0,single,-0.729302
176,1.466667,jog,1.2395008399328362,-1.2564194864411087,0.1270698344132532,1.5003758341256601,0.04552763008182447,-1.6632033463715046,0.032397408207343124,0.01511879049676068,0.062035037197025016,3.8011759059275865,-3.1928245740341406,-1.0410367170626535,-1.4865893532716372,0.04689056512669009,1.8124977002780038,-0.5188457705064502,-1.0369762348519564,5.211698244212227,9.751273047250963,-22.316330744330795,-1.1801618685806436,-0.05254200000000009,0.067446,-0.839218,0.030431999999999904,0.177316,-0.739037,0.08297399999999999,0.10987,0.10018099999999996,0.8806671819765032,0.0,single,-0.739037
177,1.475,jog,1.4510980439217305,-1.1760470418816547,0.44377775111003415,-0.8124806519187022,-0.41028124567232166,-0.5947986149351326,0.022920916836679336,0.03684147365894592,0.0867634705388202,3.8412336493459143,-3.08748349933992,-1.0816032641305489,25.3926801858743,9.645079150300326,38.00647026242355,-1.137224453457773,2.6068262525122834,2.9675307022434607,4.807121495059054,12.641434620691092,-4.868180375362367,-0.06444300000000003,0.07755300000000001,-0.842193,0.05034899999999998,0.16138799999999998,-0.7517480000000001,0.114792,0.08383499999999999,0.09044499999999989,0.8383199109529227,0.0,single,-0.7517480000000001
178,1.483333,jog,1.3960158406336387,-1.271330853234141,0.42337693507740404,-0.31685028924490816,-0.9465965950315877,-1.0263076380613272,0.02052082083283737,0.0414016560662428,0.1215648625945049,4.035041401656102,-2.9902796111844725,-1.151086043441747,-6.6101287997230616,-11.434514742888178,-2.4481958517497056,-0.28802304138269386,0.5472437786267756,4.176334100046203,23.257860591646384,11.664933175980826,-8.338267048025765,-0.075905,0.088492,-0.844708,0.07233999999999996,0.147064,-0.764868,0.14824499999999996,0.058572000000000006,0.07984000000000002,0.7832486253388349,0.0,single,-0.764868
179,1.491667,jog,1.336333093352516,-1.4019678425725834,0.3926085913126983,0.8204459427333555,-1.3214471121447535,-1.452063239729221,0.13774898008158365,0.0627549796016317,0.07343412526997802,3.5536357091432387,-3.483681305495534,-0.9498440124789952,-7.161356765193463,-15.67518470583651,-3.6919058992927147,14.066253809544682,2.56219384873875,-5.775226460826316,-57.76406197658501,-59.20346703996373,24.1471119465743,-0.08589400000000003,0.10069900000000001,-0.847368,0.09081899999999998,0.129715,-0.7760560000000001,0.176713,0.029016,0.07131199999999993,0.7195958287455382,0.0,single,-0.7760560000000001
180,1.5,jog,1.4335773430937384,-1.2766110644425896,0.32449297971918317,1.2317901778993698,1.4075553488446142,-0.7262237544489425,0.06996279851194113,0.06528261130445227,0.1838473538941573,3.7622704908196694,-3.340213608544373,-1.0072002880115294,11.669776760017205,15.043415112203881,-8.174200359236261,-8.134667175044179,0.3033279374559692,13.250117439599219,25.037175288183438,17.216812306631745,-6.883028385039568,-0.09725700000000004,0.11188100000000001,-0.84854,0.11022399999999999,0.11251900000000001,-0.787153,0.20748100000000003,0.0006379999999999997,0.06138699999999997,0.6545676539616774,0.0,single,-0.787153
181,1.508333,jog,1.4045361814472765,-1.273730949237981,0.2851314052562182,0.8517964991243128,0.6334599544761403,-0.7951857968519707,0.04512180487220046,-0.008760350414016242,0.25105004200168196,3.781351254050188,-3.473658946357886,-0.9185167406696345,-3.485078800727485,0.34562764965903775,-4.7235778786709846,-2.9810384783080406,-8.88551082664937,8.064645158709382,2.2897831789894063,-16.014081100865766,10.642451379082646,-0.10858500000000004,0.122422,-0.848824,0.13002999999999987,0.09418699999999999,-0.797183,0.2386149999999999,0.028235000000000003,0.05164100000000005,0.5746281215109551,0.0,single,-0.797183
182,1.516667,jog,1.3957283417326478,-1.2799376049915905,0.2350611951043818,2.749623635521892,1.0323356139157458,-0.8148718020473567,0.04259659227261717,-0.025917926565874643,0.20938324934005162,3.783177345812323,-3.3552915766738405,-0.8827693784497176,-1.0568562172580587,-0.7447391113042383,-6.007944582653711,-0.3030012718482448,-2.0587444386678992,-4.999615150183589,0.21911348237762096,14.202948126235277,4.289340319164465,-0.11986200000000002,0.132873,-0.849038,0.14992700000000003,0.076891,-0.806499,0.26978900000000006,0.055982000000000004,0.042538999999999993,0.6412693919491493,0.07461000000000001,single,-0.806499
183,1.525,jog,1.4827793111724512,-1.2210488419536898,0.6396255850234136,2.626315380739997,3.3977107259349997,-0.5308310812366777,0.03288131525260998,-0.07752310092403776,0.30577223088923855,3.9059162366495044,-3.6699867994720123,-0.853834153366142,10.446534194144268,7.066934241917824,48.549668777035336,-1.1658798775959767,-6.192868637725139,11.567140471521398,14.729256070704727,-37.7649373332743,3.47236590466529,-0.13194399999999995,0.142402,-0.85182,0.17011900000000013,0.056484,-0.818944,0.3020630000000001,0.085918,0.032876000000000016,0.5,0.17124,flight,-0.818944
184,1.533333,jog,1.5389415576622865,-1.3840153606144006,0.36841473658945917,-0.8351698116484386,-1.0800448421462903,-0.5371934090810752,0.06084243369735105,-0.13452538101523873,0.30841233649345384,3.8078723148925233,-3.540621624864932,-0.6843873754950078,6.739739168346847,-19.556764509865346,-32.54660367622101,3.355468432106154,-6.84054723283331,0.31682534551965036,-11.765741240487142,15.524441930526585,20.334426721604608,-0.14426099999999997,0.152814,-0.8523200000000001,0.18902600000000003,0.038513000000000006,-0.827717,0.333287,0.11430099999999999,0.02460300000000004,0.5,0.2539699999999999,flight,-0.827717
185,1.541667,jog,1.5572354211663417,-1.3744900407967615,0.3570914326853894,-0.5527244890930267,-0.724841499239124,-0.8925567020808789,0.07847372210222521,-0.16570674346052552,0.3242140628749765,3.830213582913424,-3.687544996400359,-0.480321574274068,2.1950880134455977,1.142946942361318,-1.358687773466521,2.1155853617559988,-3.741464176300383,1.896055481344248,2.680737703491835,-17.629394232712958,24.485937271531522,-0.15658500000000009,0.162888,-0.852594,0.20796899999999985,0.01923599999999999,-0.834696,0.36455399999999993,0.143652,0.01789799999999997,0.5,0.32102,flight,-0.834696
186,1.55,jog,1.5521420856834003,-1.32941317652704,0.4807392295691688,0.2565211500514021,0.11505051670781316,-0.6635884994033157,0.08556342253690895,-0.19884795391815394,0.36157446297851303,3.845193807752258,-3.653786151445994,-0.43537741509659533,-0.6112247069412399,5.409440089970079,14.838329159219638,0.850798084085397,-3.9771043390889034,4.483427349518285,1.7976988886156184,4.051223443461453,5.393514841890304,-0.168806,0.17230900000000002,-0.853587,0.22707699999999997,-0.00013299999999999423,-0.8423299999999999,0.395883,0.172442,0.011257000000000073,0.5,0.38742999999999994,flight,-0.8423299999999999
187,1.558333,jog,1.6239049561982615,-1.3242529701188155,0.48469938797552525,0.2327140123343856,0.5813617084459405,-0.6460449722809227,0.07608304332172305,-0.26473058922357134,0.4092163686547495,3.7479899195968094,-3.5695427817113003,-0.3650546021840911,8.611888937340915,0.6192495389685123,0.4752380182835085,-1.1376910134628562,-7.906232485949599,5.717257371443282,-11.664933175980986,10.10960875251345,8.439075112505087,-0.1817040000000001,0.181138,-0.854216,0.2447769999999999,-0.018843,-0.8494109999999999,0.426481,0.199981,0.004805000000000059,0.5,0.45194999999999996,flight,-0.8494109999999999
188,1.566667,jog,1.6225101991840436,-1.3114950803935579,0.4464842812574929,0.6601217439529411,0.7589716028298507,-0.3718819923854774,0.09407247420206395,-0.28113750899927764,0.47552195824333704,3.7654187664986636,-3.6127909767218345,-0.0668346532277415,-0.16735745310989472,1.5308243010868132,-4.585445970486209,2.158559020919218,-1.9686728792544002,7.956034267889016,2.091294324676514,-5.18936825180391,35.783531192266295,-0.194442,0.189725,-0.8539739999999999,0.2626360000000001,-0.038022,-0.8536889999999999,0.4570780000000001,0.227747,0.0002849999999999797,0.5,0.49715,flight,-0.8536889999999999
189,1.575,jog,1.6380655226209127,-1.3145325813032631,0.5081003240129737,-0.09103968804174113,1.0396975620776063,-0.49364791661525664,0.12084483379336378,-0.2876515060602454,0.4770190807632348,3.7652706108244494,-3.5961838473539265,0.07812312492499757,1.8667134809635417,-0.36451468975222057,7.39422089949374,3.212811663422545,-0.7817109157527709,0.17966188886328657,-0.017779392081390198,1.992935241558638,17.395629203496988,-0.20708499999999985,0.19828199999999999,-0.854233,0.280362,-0.057035,-0.857272,0.48744699999999985,0.255317,0.003039000000000014,0.46960999999999997,0.5,flight,-0.854233
190,1.583333,jog,1.6276251050041708,-1.5774630985239155,0.4906996279851119,-0.9920382019713125,-1.0307475180557322,-1.389138329195537,0.16884675387014417,-0.3048121924876938,0.5047401896075756,3.556702268090668,-3.655826233049257,0.3490939637585436,-1.252900230018202,-31.552924183445075,-2.0881670500253757,5.760460827646652,-2.059364745883606,3.326666127965958,-25.02920229614518,-7.157372578342673,32.51780137207984,-0.2192409999999999,0.20888700000000002,-0.854116,0.29643700000000006,-0.07435399999999998,-0.858452,0.515678,0.28324099999999997,0.0043360000000000065,0.45663999999999993,0.5,flight,-0.854116
191,1.591667,jog,1.6840652747780522,-1.3406527477802017,0.43628509719222963,0.22538586065595764,1.1815028658047042,-0.12684209611461264,0.24382049436045986,-0.37892968562515733,0.5620350371970342,3.4055675545957125,-3.3759299256060182,0.2760979121670333,6.772278590578655,28.41496889173486,-6.529221357437402,8.996129168504574,-8.893387705479354,6.874831724197224,-18.13471484220762,33.584870103581004,-8.758825484942612,-0.2312439999999999,0.21690199999999998,-0.853068,0.31078400000000017,-0.09131600000000001,-0.859787,0.5420280000000001,0.308218,0.0067189999999999195,0.43281000000000014,0.5,flight,-0.853068
192,1.6,jog,1.6810272410896165,-1.3254530181207016,0.36601464058561667,0.1336675146025783,1.2973358430920234,-0.15222671775664867,0.28021120844833014,-0.3649345973838888,0.5335413416536575,3.113764550581962,-3.2824912996519306,0.6258250330013088,-0.36457862575730704,1.8240405207608126,-8.432792104477587,4.367060372959276,1.6794777680629192,-3.4193802404147564,-35.017761192097126,11.213083637835828,41.96893325744262,-0.24291699999999994,0.224906,-0.851672,0.3227230000000001,-0.10762400000000003,-0.857622,0.56564,0.33253,0.005950000000000011,0.4405,0.5,flight,-0.851672
193,1.608333,jog,1.6962678507140452,-1.309132365294624,0.29281171246850113,0.1183568690593249,1.4447011639416347,0.12043252242182131,0.369374774991006,-0.3992559702388132,0.6417856714268636,2.8792751710068583,-3.125165006600287,0.5435017400696067,1.8289463127839645,1.9585566813965776,-8.784702762164432,10.700055987360697,-4.118729491770639,12.989839166351503,-28.13985114305843,18.87991036261192,-9.879190319417113,-0.2539739999999999,0.232488,-0.848764,0.332581,-0.12275699999999998,-0.855533,0.5865549999999999,0.355245,0.006769000000000025,0.43230999999999986,0.5,flight,-0.848764
