frame_id,timestamp,gait_type,root_linear_velocity_x,root_linear_velocity_y,root_linear_velocity_z,root_angular_velocity_x,root_angular_velocity_y,root_angular_velocity_z,left_linear_velocity_x,left_linear_velocity_y,left_linear_velocity_z,right_linear_velocity_x,right_linear_velocity_y,right_linear_velocity_z,root_acceleration_x,root_acceleration_y,root_acceleration_z,left_acceleration_x,left_acceleration_y,left_acceleration_z,right_acceleration_x,right_acceleration_y,right_acceleration_z,left_pos_rel_x,left_pos_rel_y,left_pos_rel_z,right_pos_rel_x,right_pos_rel_y,right_pos_rel_z,step_length,step_width,step_height,left_contact_prob,right_contact_prob,support_type,max_foot_height
<<<<<<< HEAD
1,0.008333,jog,-0.014280571222846542,-0.04284171366853962,-0.0004800192007685108,0.10223686252240957,0.13609848912461742,0.0034110538637318025,0.0013200528021100738,0.0024000960038292308,0.0012000480019204443,-0.00012000480020878171,0.0,-0.0020400816032636725,0.0,0.0,0.0,0.0,0.0,0.0,0.0,0.0,0.0,-0.04307100000000008,-0.09142200000000011,-0.912489,0.032570999999999906,0.14331800000000006,-0.908909,0.07564199999999999,0.23474000000000017,0.0035800000000000276,0.9950158263153176,0.9607939864862733,double,-0.908909
2,0.016667,jog,-0.020998320134393594,-0.025797936165115935,-0.007079433645312124,-0.0011219486216059405,0.03911808234512542,0.021167423957521667,-0.0029997600191914724,0.02567794576435787,0.008039356851451596,-0.0005999520038169799,-0.0008399328053864011,0.00011999040076805855,-0.8060653841549138,2.0450896932353833,-0.7918663840345106,-0.5183360716704518,2.793118521781694,0.8206514098309516,-0.0575890573083991,-0.1007838739364532,0.25918790545137155,-0.04292099999999999,-0.09099299999999988,-0.912363,0.03274100000000013,0.14352600000000004,-0.908849,0.07566200000000012,0.23451899999999992,0.003514000000000017,0.954877120935192,0.9631280877454187,double,-0.908849
3,0.025,jog,-0.015000600023992646,-0.03168126725069507,-0.005520220808831212,0.03181529792354935,0.04166868728828431,-0.02283859930702491,-0.0015600624025009907,0.0015600624025009907,-0.00036001440057638307,-0.0012000480019279385,-0.00012000480018213529,0.0012000480019196116,0.7197552034562521,-0.7060279713883515,0.18711302489870532,0.1727706248278509,-2.894261773893781,-1.007964868838111,-0.072014400349329,0.08639481641716858,0.12961209662205125,-0.0428090000000001,-0.0907159999999998,-0.91232,0.032855999999999996,0.14378900000000017,-0.908793,0.0756650000000001,0.23450499999999996,0.003527000000000058,0.9962742637684998,0.9618943972001288,double,-0.908793
4,0.033333,jog,-0.018120724828994628,-0.03360134405374246,-0.00816032641305136,0.022133970155454184,0.04377323495535549,-0.034496543679722325,0.0016800672027097725,0.0009600384015370216,0.0013200528021125718,0.0003600144005730523,0.0018000720028652614,-0.0010800432017283165,-0.3744299537983898,-0.2304184331030112,-0.3168253455202385,0.38883110586952635,-0.07200576034609014,0.20161612896783332,0.18721497689919486,0.23041843310301172,-0.2736218893133239,-0.042643999999999904,-0.09042799999999995,-0.9122410000000001,0.033009999999999984,0.14408399999999988,-0.908734,0.07565399999999989,0.23451199999999983,0.003507000000000038,0.9960959995807677,0.9613802101385673,double,-0.908734
5,0.041667,jog,-0.012598992080636157,-0.0359971202303776,-0.005159587233023187,0.03659849062574435,0.06733470005405222,-0.019131941728625822,-0.0023998080153744927,0.00023998080151613468,-0.0005999520038394602,-0.00011999040075806734,0.0009599232061444684,0.0004799616030722342,0.6625549254089836,-0.2874701435847299,0.36005989681163575,-0.48954586250111165,-0.08640000000250621,-0.2303821461425524,-0.05759596848225577,-0.1008097908232293,0.1871856017279278,-0.042559000000000013,-0.09012600000000015,-0.912203,0.03311400000000009,0.14439199999999985,-0.908687,0.0756730000000001,0.234518,0.0035159999999999636,0.9958578683350696,0.963040143988481,double,-0.908687
6,0.05,jog,-0.006120244809795182,-0.03828153126127208,0.001680067202683126,-0.023686974212390834,0.11657054402783046,0.011313492722783739,-0.0026401056042201477,0.0015600624025009907,-0.0010800432017283165,0.0,0.0007200288011461046,-0.0007200288011519335,0.7774807717317863,-0.27414028931891055,0.8207913639393151,-0.028836864136044037,0.15841612876333327,-0.05761324827659382,0.014399424067930797,-0.028788480139009212,-0.1440046086912478,-0.04252999999999996,-0.08979399999999993,-0.912226,0.03316500000000011,0.14471699999999998,-0.9087069999999999,0.07569500000000007,0.23451099999999991,0.00351900000000005,0.9945812963781989,0.963112875840193,double,-0.9087069999999999
7,0.058333,jog,-0.006240249609977317,-0.04392175687025878,0.0009600384015370216,0.052827037499501704,0.13544605065330764,0.009497636015312602,-0.0026401056042201477,0.0,-0.0010800432017283165,-0.0003600144005730523,0.0008400336013548863,-0.0001200048001921277,-0.014401152067938907,-0.6768541472442937,-0.08640691241402909,0.0,-0.18721497689919486,0.0,-0.04320345620701455,0.014401152071136646,0.07200576034559052,-0.04249999999999998,-0.08942800000000006,-0.912243,0.03321400000000008,0.14508999999999994,-0.908716,0.07571400000000006,0.234518,0.003527000000000058,0.9952458641049684,0.9631937093987877,double,-0.908716
8,0.066667,jog,-0.005159587233023187,-0.0395968322534127,0.0004799616030722342,-0.042615462125215865,0.11227280898790093,0.013230474846825548,-0.0014398848092300241,0.0011999040076872464,0.0010799136069116943,0.00011999040075806734,-0.00011999040075806734,0.0013198944084469788,0.12966911170555911,0.5189494380664844,-0.057604607447178706,0.14401497420087875,0.1439769627654483,0.2591740831101525,0.05759596848225577,-0.11519366476037358,0.17277408311004397,-0.04246900000000009,-0.08908800000000006,-0.912238,0.03325800000000001,0.14541899999999996,-0.908709,0.0757270000000001,0.23450700000000002,0.0035290000000000044,0.9963947371455405,0.962492070133111,double,-0.908709
=======
1,0.008333,stand,-0.014280571222846542,-0.04284171366853962,-0.0004800192007685108,0.10223686252240957,0.13609848912461742,0.0034110538637318025,0.0013200528021100738,0.0024000960038292308,0.0012000480019204443,-0.00012000480020878171,0.0,-0.0020400816032636725,0.0,0.0,0.0,0.0,0.0,0.0,0.0,0.0,0.0,-0.04307100000000008,-0.09142200000000011,-0.912489,0.032570999999999906,0.14331800000000006,-0.908909,0.07564199999999999,0.23474000000000017,0.0035800000000000276,0.9950158263153176,0.9607939864862733,double,-0.908909
2,0.016667,stand,-0.020998320134393594,-0.025797936165115935,-0.007079433645312124,-0.0011219486216059405,0.03911808234512542,0.021167423957521667,-0.0029997600191914724,0.02567794576435787,0.008039356851451596,-0.0005999520038169799,-0.0008399328053864011,0.00011999040076805855,-0.8060653841549138,2.0450896932353833,-0.7918663840345106,-0.5183360716704518,2.793118521781694,0.8206514098309516,-0.0575890573083991,-0.1007838739364532,0.25918790545137155,-0.04292099999999999,-0.09099299999999988,-0.912363,0.03274100000000013,0.14352600000000004,-0.908849,0.07566200000000012,0.23451899999999992,0.003514000000000017,0.954877120935192,0.9631280877454187,double,-0.908849
3,0.025,stand,-0.015000600023992646,-0.03168126725069507,-0.005520220808831212,0.03181529792354935,0.04166868728828431,-0.02283859930702491,-0.0015600624025009907,0.0015600624025009907,-0.00036001440057638307,-0.0012000480019279385,-0.00012000480018213529,0.0012000480019196116,0.7197552034562521,-0.7060279713883515,0.18711302489870532,0.1727706248278509,-2.894261773893781,-1.007964868838111,-0.072014400349329,0.08639481641716858,0.12961209662205125,-0.0428090000000001,-0.0907159999999998,-0.91232,0.032855999999999996,0.14378900000000017,-0.908793,0.0756650000000001,0.23450499999999996,0.003527000000000058,0.9962742637684998,0.9618943972001288,double,-0.908793
4,0.033333,stand,-0.018120724828994628,-0.03360134405374246,-0.00816032641305136,0.022133970155454184,0.04377323495535549,-0.034496543679722325,0.0016800672027097725,0.0009600384015370216,0.0013200528021125718,0.0003600144005730523,0.0018000720028652614,-0.0010800432017283165,-0.3744299537983898,-0.2304184331030112,-0.3168253455202385,0.38883110586952635,-0.07200576034609014,0.20161612896783332,0.18721497689919486,0.23041843310301172,-0.2736218893133239,-0.042643999999999904,-0.09042799999999995,-0.9122410000000001,0.033009999999999984,0.14408399999999988,-0.908734,0.07565399999999989,0.23451199999999983,0.003507000000000038,0.9960959995807677,0.9613802101385673,double,-0.908734
5,0.041667,stand,-0.012598992080636157,-0.0359971202303776,-0.005159587233023187,0.03659849062574435,0.06733470005405222,-0.019131941728625822,-0.0023998080153744927,0.00023998080151613468,-0.0005999520038394602,-0.00011999040075806734,0.0009599232061444684,0.0004799616030722342,0.6625549254089836,-0.2874701435847299,0.36005989681163575,-0.48954586250111165,-0.08640000000250621,-0.2303821461425524,-0.05759596848225577,-0.1008097908232293,0.1871856017279278,-0.042559000000000013,-0.09012600000000015,-0.912203,0.03311400000000009,0.14439199999999985,-0.908687,0.0756730000000001,0.234518,0.0035159999999999636,0.9958578683350696,0.963040143988481,double,-0.908687
6,0.05,stand,-0.006120244809795182,-0.03828153126127208,0.001680067202683126,-0.023686974212390834,0.11657054402783046,0.011313492722783739,-0.0026401056042201477,0.0015600624025009907,-0.0010800432017283165,0.0,0.0007200288011461046,-0.0007200288011519335,0.7774807717317863,-0.27414028931891055,0.8207913639393151,-0.028836864136044037,0.15841612876333327,-0.05761324827659382,0.014399424067930797,-0.028788480139009212,-0.1440046086912478,-0.04252999999999996,-0.08979399999999993,-0.912226,0.03316500000000011,0.14471699999999998,-0.9087069999999999,0.07569500000000007,0.23451099999999991,0.00351900000000005,0.9945812963781989,0.963112875840193,double,-0.9087069999999999
7,0.058333,stand,-0.006240249609977317,-0.04392175687025878,0.0009600384015370216,0.052827037499501704,0.13544605065330764,0.009497636015312602,-0.0026401056042201477,0.0,-0.0010800432017283165,-0.0003600144005730523,0.0008400336013548863,-0.0001200048001921277,-0.014401152067938907,-0.6768541472442937,-0.08640691241402909,0.0,-0.18721497689919486,0.0,-0.04320345620701455,0.014401152071136646,0.07200576034559052,-0.04249999999999998,-0.08942800000000006,-0.912243,0.03321400000000008,0.14508999999999994,-0.908716,0.07571400000000006,0.234518,0.003527000000000058,0.9952458641049684,0.9631937093987877,double,-0.908716
8,0.066667,stand,-0.005159587233023187,-0.0395968322534127,0.0004799616030722342,-0.042615462125215865,0.11227280898790093,0.013230474846825548,-0.0014398848092300241,0.0011999040076872464,0.0010799136069116943,0.00011999040075806734,-0.00011999040075806734,0.0013198944084469788,0.12966911170555911,0.5189494380664844,-0.057604607447178706,0.14401497420087875,0.1439769627654483,0.2591740831101525,0.05759596848225577,-0.11519366476037358,0.17277408311004397,-0.04246900000000009,-0.08908800000000006,-0.912238,0.03325800000000001,0.14541899999999996,-0.908709,0.0757270000000001,0.23450700000000002,0.0035290000000000044,0.9963947371455405,0.962492070133111,double,-0.908709
>>>>>>> 3b0d06690e55fb02323d988053aa126fb7c3a6e7
9,0.075,jog,-0.00792031681266045,-0.04524180967239554,0.0004800192007685112,-0.0038926516337992284,0.1174916660317693,0.04652555388013248,-0.0020400816032561803,0.0002400096003909172,-0.000720028801151934,0.0,0.001320052802110075,-0.0009600384015361897,-0.3313008015885353,-0.6774243872534319,6.912000033240864e-06,-0.07202649634299252,-0.1151919365530217,-0.21600172903679704,-0.01439942406793081,0.17281209682805032,-0.27360288131323296,-0.042420000000000124,-0.08870899999999993,-0.912248,0.03332399999999991,0.14580700000000002,-0.908721,0.07574400000000003,0.23451599999999995,0.003526999999999947,0.9963721834579061,0.9620095970821387,double,-0.908721
10,0.083333,jog,-0.012120484819408217,-0.04044161766471036,-0.006120244809795177,-0.005108124525702313,0.0448631163361388,0.0191302467663219,-0.0021600864034649584,0.0012000480019012912,-0.0003600144005763828,-0.0007200288011461039,0.00048001920075518715,-0.0008400336013440605,-0.5040403224226286,0.5760460827655318,-0.792063363802194,-0.014401152071136203,0.11520921654990678,0.0432034562073144,-0.08640691241402897,-0.10080806448516585,0.014401152069138256,-0.04233700000000007,-0.08836200000000005,-0.9122,0.03341900000000009,0.14614799999999994,-0.908677,0.07575600000000016,0.23451,0.003523000000000054,0.9958381031147898,0.9627599444735693,double,-0.908677
11,0.091667,jog,-0.004199664026878722,-0.045356371490279546,-0.002399808015361173,-0.010275156286635357,0.1217401418093319,0.007532803499074319,-0.00035997120230084556,0.0004799616030855562,0.002399808015358675,0.00035997120230084556,0.0007199424046016911,-0.00011999040076722605,0.9504224613066355,-0.589723281205806,0.44641670199592104,0.2159965444161404,-0.08640345558144175,0.33115219773638827,0.1295896332429746,0.02878848138306985,0.08639827220744359,-0.04230500000000004,-0.08797999999999995,-0.91216,0.03345700000000007,0.14653199999999988,-0.908658,0.07576200000000011,0.23451199999999983,0.003502000000000005,0.9958772241964431,0.9636236425119851,double,-0.908658
12,0.1,jog,-0.008760350414015322,-0.041641665666638294,-0.009240369614783831,-0.010940406354794176,0.03478838300373215,-0.019049908882338082,-0.00048001920075518715,-0.0008400336013548856,0.00012000480019212759,-0.0002400096003909168,0.0012000480019279376,0.0002400096003834225,-0.5473042586267366,0.4457825301381553,-0.8209002279398359,-0.014406336067963696,-0.15840576076328342,-0.273587329313158,-0.07200057634606527,0.05761497627820066,0.04320172820720608,-0.04223599999999994,-0.08763999999999994,-0.912082,0.033528,0.14688900000000005,-0.9085789999999999,0.07576399999999994,0.234529,0.003503000000000034,0.9983751273241608,0.9628914558891383,double,-0.9085789999999999
13,0.108333,jog,-0.00468018720747633,-0.05172206888273713,-0.0014400576022922103,0.03190163130153448,0.150041812774195,0.02306864191277584,-0.00036001440057305256,-0.0002400096003909172,0.0006000240009598062,0.0,0.0019200768030740447,-0.000720028801151934,0.4896391703514935,-1.2096967738028133,0.936074884494375,0.014401152067938879,0.0720057603460901,0.05760460827645254,0.028802304139075603,0.08640691241402948,-0.11520921655290499,-0.042200000000000015,-0.08721100000000015,-0.912065,0.0335669999999999,0.1473359999999999,-0.9085730000000001,0.07576699999999992,0.23454700000000006,0.0034919999999999396,0.9987670678821206,0.9616622617923418,double,-0.9085730000000001
14,0.116667,jog,-0.009239260859143832,-0.04907607391409927,-0.007559395248384352,0.021571512191553534,0.04346197772985543,-0.021899403387284914,-0.0015598752099880903,0.0002399808015427777,0.00011999040076805845,-0.0004799616030589122,0.0,0.0013198944084478104,-0.5470450745941321,0.31749399671680506,-0.7342617765889292,-0.1439717793874534,0.05759424069278791,-0.05759942406908415,-0.05759078510426107,-0.23039078510607666,0.24477120345569267,-0.04213599999999995,-0.08679999999999999,-0.9120010000000001,0.033640000000000114,0.14774500000000002,-0.9084990000000001,0.07577600000000007,0.234545,0.003502000000000005,0.997362029845948,0.9626392472780803,double,-0.9084990000000001
15,0.125,jog,-0.007680307212296179,-0.04872194887794393,-0.007320292811709803,-0.007943410525912025,0.04780801079067797,-0.030457444340267523,-0.0009600384015370224,0.001560062402500992,0.0013200528021125731,0.00048001920075518796,0.002760110404428932,-0.0016800672026881238,0.18708192089855444,0.04249670420680987,0.02869344013855151,0.07198329634598205,0.15841612876013625,0.14401324869128954,0.11520230454987411,0.33122649759137573,-0.3600097937280615,-0.042079999999999895,-0.08638100000000004,-0.911929,0.03370800000000007,0.14817400000000003,-0.908452,0.07578799999999997,0.23455500000000007,0.0034769999999999524,0.9962368719304251,0.959785519185226,double,-0.908452
16,0.133333,jog,-0.00612024480976853,-0.053522140885628955,-0.005880235209417583,-0.004364831184006161,0.06461395897691719,-0.04041508619491891,-0.0007200288011461039,-0.0007200288011461039,0.0014400576023038656,-0.0006000240009639688,0.00036001440057305197,0.0001200048001912949,0.18721497690239375,-0.5760460827655135,0.1728138248280593,0.028802304139075748,-0.2736218893132238,0.01440115206903785,-0.12961036862104353,-0.28802304138436075,0.21601728103677154,-0.042035000000000045,-0.08594100000000005,-0.911868,0.03375399999999984,0.14862299999999995,-0.9084019999999999,0.07578899999999988,0.234564,0.00346600000000008,0.9970604947284577,0.9641567367128459,double,-0.9084019999999999
17,0.141667,jog,0.0028797696184067693,-0.06047516198704837,0.0039596832253492725,-0.04394617205468655,0.1778182855087749,0.024246982549014685,-0.0010799136069291817,-0.0019198464122889415,0.0022798176145906205,-0.002519798416132566,0.0,-0.0005999520038394617,1.079915338153986,-0.8342957885072516,1.1806957565115046,-0.043182722076203335,-0.14396659600946007,0.10076314042317697,-0.2303545014601154,-0.04319827220698978,-0.0863879054512549,-0.042067999999999994,-0.085453,-0.9118820000000001,0.03370899999999999,0.149127,-0.90844,0.07577699999999998,0.23458,0.003442000000000056,0.9947164847557586,0.9612629387359071,double,-0.90844
18,0.15,jog,-0.004800192007658457,-0.05952238089524199,-0.0021600864034649584,-0.048732483525456095,0.10199380771915421,0.016025300494432078,0.0024000960038558753,0.00012000480018213519,0.004200168006720302,-0.00036001440057305197,0.0026401056042201455,-0.0021600864034557986,-0.9216322604182431,0.11433830454894767,-0.7344017315269681,0.41761785800852685,0.24479193717401598,0.23045126510616584,0.2591844492451113,0.316825345520238,-0.1872236168986362,-0.042008000000000045,-0.08495600000000003,-0.911829,0.03374599999999983,0.14964500000000003,-0.9084399999999999,0.07575399999999988,0.23460100000000006,0.0033890000000000864,0.9919349393360984,0.9603931289539815,double,-0.9084399999999999
19,0.158333,jog,-0.003000120004819844,-0.05784231369255887,-0.0073202928117097905,-0.06003784848394668,0.06027992043235133,-0.051710462142352746,-0.0019200768030740415,0.0002400096003909168,0.004080163206528174,-0.0019200768030740415,0.0014400576022922079,-0.0012000480019204432,0.21601728103187468,0.201616128967133,-0.6192495389709383,-0.5184414744905692,0.014401152071136625,-0.014401152069138086,-0.18721497689919453,-0.14401152069218007,0.11520921655290467,-0.0419989999999999,-0.08447199999999988,-0.9117339999999999,0.03375499999999998,0.15013900000000002,-0.908389,0.07575399999999988,0.2346109999999999,0.0033449999999999314,0.992473743860862,0.9620776851524147,double,-0.908389
20,0.166667,jog,-0.001559875209961447,-0.059275257979360924,-0.004199664026878715,-0.0709305079253758,0.17809710418900798,-0.01077417442751487,-0.014398848092167014,0.028077753779705696,-0.017158627309814874,-0.0005999520038169795,0.004919606431507049,0.00011999040076805845,0.17281555013899635,-0.17193955925150606,0.3744454985398455,-1.4973327680697097,3.340262080551326,-2.5484509858822926,0.15840230372654918,0.41751245850909974,0.15839193696766263,-0.0421060000000002,-0.08374399999999982,-0.9118419999999999,0.03376299999999999,0.1506740000000002,-0.908353,0.07586900000000019,0.23441800000000002,0.0034889999999999644,0.9401366005240959,0.9568474896967478,double,-0.908353
21,0.175,jog,-0.009120364814615051,-0.07368294731787998,-0.007680307212282868,0.004030699723945715,0.259788827606348,-0.013553693677439528,-0.002160086403438319,0.002520100804011372,0.008160326413056376,0.0006000240009373243,0.004200168006721149,-0.002880115204607741,-0.9072950443602091,-1.7289918802975035,-0.41769389000409957,1.4687101510534892,-3.0670410387248754,3.038395982583861,0.14400288068574427,-0.08633606441688492,-0.36002707372804593,-0.04204799999999986,-0.0831090000000001,-0.91171,0.033843999999999985,0.1513230000000001,-0.908313,0.07589199999999985,0.2344320000000002,0.0033969999999999834,0.9853174509762701,0.9574833138848704,double,-0.908313
22,0.183333,jog,-0.0015600624024743432,-0.0460818432737237,0.015960638425529656,-0.04184078615341015,-0.32379815148739366,-0.01925509553040501,-0.003960158406330218,0.0033601344053928958,0.009240369614784666,-0.00180007200286526,0.004680187207476322,0.0002400096003834225,0.9072725803600986,3.3122649758977873,2.837026957615805,-0.2160172810382692,0.10080806448836228,0.12961036862213954,-0.288023041377965,0.05760460827495179,0.37442995379709115,-0.042067999999999994,-0.08269700000000002,-0.911766,0.03384199999999993,0.15174599999999994,-0.9084439999999999,0.07590999999999992,0.23444299999999996,0.003322000000000047,0.9823335071987039,0.9584130650572891,double,-0.9084439999999999
23,0.191667,jog,0.004799616030695695,-0.06707463402927473,0.0026397888169039465,-0.1176016697290987,0.15335586963333186,-0.01988643486119878,-0.007079433645312118,0.006959443244527408,0.00551955843532486,-0.0007199424046016899,0.004919606431480405,-0.0014398848092150361,0.7631003639512877,-2.5189333759960415,-1.598374083108435,-0.37428308603094523,0.4318825100953334,-0.44646162460520783,0.12960518337695812,0.028728008639798738,-0.2015712034555384,-0.042166999999999843,-0.08208000000000015,-0.911742,0.03379600000000016,0.15234599999999987,-0.908478,0.075963,0.23442600000000002,0.0032640000000000446,0.9810690027605267,0.958732828329694,double,-0.908478
24,0.2,jog,-0.019080763230531633,-0.04272170886835745,0.0024000960038425517,0.03542169464053539,-0.054655345561643295,-0.22577453500143102,-0.00660026401057701,0.007800312012478302,0.015720628825153727,-0.0002400096003909168,0.006120244809795177,-0.0037201488059526245,-2.865760141752947,2.9224679180267916,-0.028764288138892907,0.05750265627446389,0.10090828848564658,1.224177413876018,0.05759424027490372,0.14408236869252014,-0.27364262531352296,-0.04206299999999996,-0.08165900000000015,-0.9116310000000001,0.03395300000000012,0.15275299999999992,-0.908529,0.07601600000000008,0.23441200000000006,0.003102000000000049,0.9687507100898638,0.9570363233514625,double,-0.908529
25,0.208333,jog,0.004920196807893902,-0.07440297611905274,0.003720148805952637,-0.09332063640482115,0.25747293112400577,-0.09281424509074661,-0.003840153606148096,0.002880115204611072,0.02292091683667313,-0.0010800432017191595,0.004680187207476338,-0.0018000720028794217,2.8802304138276247,-3.8019041462492935,0.15841267276012103,0.33122649759137424,-0.5904472348334624,0.8640691241472963,-0.10080806448196866,-0.17281382483125432,0.23041843310610916,-0.04213600000000017,-0.08101500000000006,-0.911471,0.033903000000000016,0.15341199999999988,-0.908575,0.07603900000000019,0.23442699999999994,0.0028960000000000097,0.9609697314060994,0.9624909739297138,double,-0.908575
26,0.216667,jog,-0.001079913606929178,-0.07019438444925091,0.02615790736740344,-0.14033074828327946,0.19680477261538573,-0.00917882757153286,0.01247900167987808,0.0023998080153744905,0.02699784017278651,-0.0016798656107728006,0.005399568034565961,-0.0034797216222703644,-0.7199556533265028,0.504990601128128,2.6923156421227237,1.9581419829645021,-0.05763225212821945,0.48919166500040506,-0.0719729312519367,0.08631879374725487,-0.2015418309804345,-0.04202299999999992,-0.08040999999999987,-0.9114639999999999,0.033897999999999984,0.154042,-0.908822,0.0759209999999999,0.23445199999999988,0.002641999999999922,0.9502682770749902,0.962513817028811,double,-0.908822
27,0.225,jog,-0.010320412816516312,-0.08604344173765223,-0.021840873634947237,-0.03838531501146066,0.09603746819431722,-0.29553636170961467,0.002040081603256177,0.006360254410159447,0.010440417616704275,-0.0021600864034383117,0.006480259210368228,-0.0015600624024959932,-1.1089042613209081,-1.9019629531262814,-5.760084123647022,-1.2527205180153478,0.4752725782773255,-1.9869701855372879,-0.05762880027187216,0.12968812862141688,0.23036832110576858,-0.04191999999999996,-0.07964000000000016,-0.911195,0.03396600000000016,0.15481299999999987,-0.9086529999999999,0.07588600000000012,0.23445300000000002,0.0025420000000000442,0.9793429397917452,0.9629022044265905,double,-0.9086529999999999
28,0.233333,jog,-0.01332053282130951,-0.07944317772712851,0.004440177607112052,-0.07653265111493578,0.23730001865270048,-0.12473255782428995,0.008880355214224103,-0.02052082083282384,0.04476179047161863,-0.0028801152046110624,0.005520220808831208,-0.006960278411136739,-0.36002880172725243,0.7920633637973971,3.1538523031392374,0.8208656679428682,-3.2258580634805307,4.11872949176939,-0.0864069124172267,-0.11520921655310448,-0.6480518431106134,-0.041734999999999856,-0.07914899999999991,-0.9108590000000001,0.03405300000000011,0.15552100000000002,-0.908748,0.07578799999999997,0.23466999999999993,0.002111000000000085,0.9166069766672305,0.9633253162459741,double,-0.908748
29,0.241667,jog,-0.02075833933285087,-0.07643388528917688,-0.0009599232061444707,-0.10001200028199447,0.21698536537265511,-0.1371792953390297,-0.005399568034565979,0.004079673626120662,0.022318214542836466,-0.0008399328053864031,0.01127909767219087,-0.0029997600191981407,-0.8924653841542329,0.36108620565774385,-0.6479602607699226,-1.7134537135577292,2.9518231892182096,-2.693013670360237,0.24480230372266187,0.6910099428077365,0.475224189097505,-0.04160699999999995,-0.07847799999999983,-0.9106650000000001,0.034219,0.15625200000000006,-0.908765,0.07582599999999995,0.23472999999999988,0.0019000000000000128,0.9611304970933492,0.9614977144082228,double,-0.908765
30,0.25,jog,-0.0226809072362888,-0.07224288971558754,0.010680427217089363,-0.11507200952761831,0.17278641387976337,-0.050983750169024615,-0.009720388815552343,0.002040081603256177,0.01596063842553715,-0.0006000240009639688,0.01116044641784455,-0.005160206408256491,-0.23071737710763596,0.5029395864141776,1.3968979267051271,-0.5185192344877427,-0.2447608331770651,-0.7629396516619837,0.028790208139017653,-0.014238720070361312,-0.2592639372444916,-0.04149899999999995,-0.0778589999999999,-0.910621,0.03440299999999996,0.15694699999999995,-0.9088970000000001,0.07590199999999991,0.23480599999999985,0.0017239999999999478,0.968668888792262,0.9622428443584451,double,-0.9088970000000001
31,0.258333,jog,-0.010920436817480316,-0.0891635665426545,0.025201008040313572,-0.10169279470709235,0.11098365772862388,-0.027249821868764585,-0.017040681627275515,-0.01188047521901734,0.025921036841473833,-0.002640105604220154,0.0070802832113322205,-0.0050402016080643795,1.4113129027731326,-2.030562441745711,1.742539400362924,-0.8784702762178316,-1.670533640018427,1.1952956217372745,-0.24481958517414984,-0.4896391703482947,0.014401152069136157,-0.041549999999999976,-0.07721500000000003,-0.910615,0.03447200000000006,0.15774899999999992,-0.909149,0.07602200000000003,0.23496399999999995,0.0014659999999999673,0.9446367883706734,0.9702013628783791,double,-0.909149
32,0.266667,jog,-0.03227741780655777,-0.11015118790496442,0.04139668826494353,0.08488064722102197,-0.17203170719150673,0.0661345180647331,-0.00455963522917956,-0.0004799616030589122,0.02195824334053305,-0.0021598272138050696,0.008159347252241296,-0.0037197024238064817,-2.5626327080726456,-2.518313098429313,1.9433261608627244,1.4976057593107683,1.3679521977391909,-0.4754971803384666,0.05762879654608641,0.12947732672295115,0.15844722633284095,-0.041319000000000106,-0.07630099999999995,-0.9107770000000001,0.03472300000000006,0.15873500000000007,-0.909525,0.07604200000000017,0.23503600000000002,0.0012520000000000309,0.9626136876218325,0.9721072257891299,double,-0.909525
33,0.275,jog,-0.032521300852049816,-0.07140285611425906,-0.009960398415943227,0.0944410105734569,0.11358743220982358,0.010203397207338188,-0.0032401296051841034,-0.003000120004819834,0.021600864034561244,-0.002280091203647086,0.0073202928116964435,-0.002520100804032173,-0.029267136144491408,4.649985814317196,-6.1630969255834085,0.15834700875980454,-0.30243110545552754,-0.04288723220590464,-0.014432256071284748,-0.10069056048780144,0.1439579526910241,-0.04107499999999997,-0.07573099999999999,-0.9105139999999999,0.0349750000000002,0.15939100000000006,-0.9094629999999999,0.07605000000000017,0.23512200000000005,0.0010510000000000241,0.9632540067588122,0.9760388114105929,double,-0.9094629999999999
34,0.283333,jog,-0.030721228849131473,-0.07128285131405075,-0.024360974438972005,0.13027620229327255,0.10504648516905843,-0.08621447688686656,0.009240369614797187,0.005640225609040008,0.024840993639745512,-0.001080043201745806,0.006000240009613062,-0.0013200528021117424,0.2160172810414433,0.014401152071079993,-1.7281382482933894,1.4977198151903663,1.0368829489811429,0.38883110586634784,0.14401152068898151,-0.1584126727569165,0.14401152069127965,-0.040742000000000056,-0.07508999999999988,-0.910104,0.035221999999999865,0.16003500000000015,-0.909271,0.07596399999999992,0.23512500000000003,0.0008329999999999727,0.9548375912047292,0.9812734310025212,double,-0.909271
35,0.291667,jog,-0.03251739860812719,-0.10535157187424209,-0.03275737940964332,0.2436740257173677,0.3029662025205196,-0.04955749087659532,0.008759299256058275,0.04379649628029138,0.009119270458363284,-0.002879769618433403,0.0007199424046016899,0.002639788816894788,-0.21552312922914751,-4.0879194336682625,-1.0074879974407618,-0.05772382514265797,4.578386209653387,-1.8864558652966419,-0.21594989401099055,-0.6335850257993,0.47514298284215584,-0.040397999999999934,-0.073847,-0.9097550000000001,0.03546899999999997,0.16091900000000003,-0.908976,0.0758669999999999,0.23476600000000003,0.0007790000000000852,0.9240245013255455,0.9855893515089786,double,-0.908976
36,0.3,jog,-0.022920916836679794,-0.10740429617185795,-0.0381615264610634,0.10385939740756371,0.35694538960783867,-0.09719095353541031,0.01188047521901734,0.022080883235324904,0.028201128045121766,0.001320052802110077,-0.0008400336013548883,0.005400216008639931,1.1516238775287915,-0.2463367691846722,-0.6485235871138951,0.37455609779900073,-2.6059778045081634,2.289914506991303,0.5039988504192356,-0.18720460889914584,0.33126451358996156,-0.04010799999999981,-0.07276799999999994,-0.909202,0.03567100000000001,0.16180700000000003,-0.908613,0.07577899999999982,0.23457499999999998,0.0005889999999999507,0.937106467412091,0.984739459758291,double,-0.908613
37,0.308333,jog,-0.017760710428394857,-0.12576503060121608,-0.04128165126605179,0.24605239616787974,0.29850433575126095,-0.06739746983066512,0.03636145445817124,0.009240369614797125,0.030361214448578203,0.0016800672027097656,0.0003600144005730508,0.008160326413056323,0.619249538975749,-2.2033762665736285,-0.37442995379675714,2.9378350220993394,-1.540923271394183,0.25922073724426115,0.04320345621021084,0.1440115206921798,0.3312264975898692,-0.03965700000000005,-0.0716429999999999,-0.908605,0.035833000000000004,0.16285799999999995,-0.908201,0.07549000000000006,0.23450099999999985,0.00040399999999995995,0.919561218175209,0.9820612427272291,double,-0.908201
38,0.316667,jog,-0.0002399808015427793,-0.13582913366929653,-0.039956803455727094,0.1258136714941354,0.3388594640231106,-0.016586345081377213,0.03635709143267866,0.01259899208063623,0.036597072234221435,-0.0033597312215189806,0.0016798656107728119,0.008279337652988595,2.102319369672687,-1.2075957605088201,0.1589690197173867,-0.000523521177415476,0.4030024557042386,0.7482430748312056,-0.6047274327128359,0.15836947566591897,0.014280206375362745,-0.039352000000000054,-0.07040599999999997,-0.907967,0.03580699999999992,0.16400400000000004,-0.9077989999999999,0.07515899999999998,0.23441,0.000168000000000057,0.9114951602859904,0.9831673348215844,double,-0.9077989999999999
39,0.325,jog,-0.0018000720028919003,-0.16788671546863607,-0.07284291371653794,0.34119262178963505,0.4191507011751938,-0.1350924050833237,0.020880835233423472,0.026521060842436793,0.03756150246009834,-0.03252130085202317,-0.0019200768030740352,0.009960398415936565,-0.1872184328992097,-3.8470636984686677,-3.9464910909409223,-1.857225032911931,1.6707150800192614,0.11573625655549007,-3.4995283367939596,-0.4320103700764229,0.2017353609681943,-0.03916299999999984,-0.06878599999999979,-0.907047,0.03555100000000011,0.16538700000000017,-0.907109,0.07471399999999995,0.23417299999999996,6.20000000000065e-05,0.9152134584932682,0.9432223821328212,double,-0.907047
40,0.333333,jog,0.0015600624025009946,-0.1982479299171956,-0.11292451698068919,0.7160713477354885,0.5989593583894113,-0.0986854662561281,0.01764070562821284,0.05592223688945837,0.02652106084243364,-0.00204008160328283,0.004920196807867256,0.006960278411135929,0.40323225793746587,-3.643491473486091,-4.809984791089805,-0.3888311058695117,3.528282256932875,-1.3249059903593816,3.657892625553872,0.8208656679396745,-0.36002880172814633,-0.03902899999999998,-0.06666799999999995,-0.9058849999999999,0.035520999999999914,0.16708000000000012,-0.90611,0.0745499999999999,0.23374800000000007,0.00022500000000003073,0.8904878892878909,0.9853925679935097,double,-0.9058849999999999
41,0.341667,jog,0.006599472042226563,-0.15574754019678666,-0.12455003599711811,0.08255371216888702,0.8624819672469377,0.1965671071387965,-0.01319894408447977,0.009719222462202743,0.053275737940964664,-0.00227981761458978,0.008039356851456585,0.007439404847612131,0.6046807823044833,5.099638795345439,-1.3949506859165968,-3.7004619285688243,-5.5439182178132445,3.2103044274695223,-0.028766020075227966,0.374269263689624,0.05749057313129361,-0.03919399999999995,-0.06528899999999993,-0.904403,0.035447000000000006,0.16844500000000018,-0.90501,0.07464099999999996,0.2337340000000001,0.0006070000000000242,0.9010295206421686,0.9813531674250967,double,-0.904403
42,0.35,jog,-0.013320532821309553,-0.08448337933515151,0.14460578423137102,-0.46601772974831435,-1.1276119438723355,0.3479305792037917,-0.03876155046200072,-0.0006000240009639708,0.044281771270851096,-0.001320052802110077,0.014400576023028713,0.006240249609984827,-2.3904962034724786,8.552041385051641,32.29999042703586,-3.067635470721351,-1.2383591099444065,-1.079319173180558,0.11517638455294676,0.7633768356620837,-0.1439043846906644,-0.03940599999999983,-0.06459000000000015,-0.905239,0.035546999999999995,0.1692689999999999,-0.9061629999999999,0.07495299999999983,0.23385900000000004,0.0009239999999999249,0.8926714191448485,0.9737501405088256,double,-0.905239
43,0.358333,jog,0.05808232329294959,-0.14820592823714052,-0.02952118084722998,0.07280540667366689,0.15249187063430372,0.19816960632817102,-0.0645625825033178,0.0031201248050019685,0.03168126725068994,-0.005760230409195459,0.00984039361576109,0.0032401296051841034,8.568685481130307,-7.6470117487085965,-20.896071652298126,-3.096247694865831,0.44643571414447664,-1.5121209672580227,-0.5328426265553058,-0.5472437786232572,-0.3600288017281545,-0.04042800000000013,-0.06332899999999997,-0.904729,0.03501500000000002,0.17058600000000013,-0.90589,0.07544300000000015,0.2339150000000001,0.0011609999999999676,0.8684158716210246,0.9802437041864202,double,-0.904729
44,0.366667,jog,0.06995440364770814,-0.15154787616990795,-0.01931845452364742,0.14009978922649877,0.21580072802143013,0.1897165831240523,-0.09839212862971468,-0.04415646748259222,0.05279577633789243,-0.004079673626120648,0.01643868490518737,0.0039596832253417655,1.4245356797166464,-0.4010016717983474,1.224229220492267,-4.059220797503822,-5.672737255530855,2.5335384073917053,0.2016506819144239,0.7917316162018567,0.08633952725673884,-0.041831000000000174,-0.06243399999999988,-0.9041279999999999,0.03439799999999993,0.17198599999999997,-0.905696,0.0762290000000001,0.23441999999999985,0.0015680000000000138,0.7841936607654755,0.971009906406922,double,-0.9041279999999999
45,0.375,jog,0.04056162246489263,-0.23616944677786808,-0.019200768030713834,0.17804438978724324,0.22307397763698403,-0.1646180565554714,-0.16452658106324428,-0.05304212168487394,0.002400096003840062,-0.00648025921036825,0.017040681627275515,0.003840153606144765,-3.5272748329311865,-10.15499467274215,0.01412294406979304,-7.936451750093575,-1.0663211571200937,-6.047723549028261,-0.2880817933814482,0.07224249635043138,-0.01434412806876287,-0.043540000000000134,-0.06090799999999996,-0.903948,0.03400599999999998,0.17409600000000003,-0.905504,0.07754600000000011,0.235004,0.0015560000000000018,0.6963031545697382,0.9689478320011435,double,-0.903948
46,0.383333,jog,0.05664226569063112,-0.19944797791912353,-0.034561382455292895,0.34975440109710204,0.37401142650142616,0.017795854874304528,-0.15204608184326296,-0.11520460818433628,0.04020160806432291,-0.008760350414015352,0.012600504020163448,-0.000240009600384256,1.929754377263714,4.406752533150684,-1.8433474648480859,1.4977198151903695,-7.459796771806372,4.536362901774023,-0.2736218893132254,-0.5328426265585118,-0.48963917035029775,-0.04527900000000007,-0.06020599999999998,-0.903325,0.03346099999999996,0.1758630000000001,-0.9052180000000001,0.07874000000000003,0.23606900000000008,0.0018930000000000335,0.6561500011209935,0.9744192973368394,double,-0.903325
47,0.391667,jog,-0.03047756179505354,-0.2886969042476489,-0.08879289656828332,0.9707008372925642,0.20007352285191887,-0.471612766502655,-0.23614110871129923,-0.08531317494599297,-0.004799616030717342,-0.009719222462202743,0.016558675305972083,-0.001679865610751153,-10.453543014840962,-10.709014438267971,-6.507261112669831,-10.090595976486224,3.58668505379689,-5.399714914211688,-0.11505544134717904,0.4749425588923244,-0.1727688997320489,-0.04699300000000006,-0.05851099999999998,-0.902625,0.03363399999999994,0.17840699999999998,-0.904492,0.080627,0.23691799999999996,0.001866999999999952,0.5627875643550798,0.9678771904495773,double,-0.902625
48,0.4,jog,0.0808832353293938,-0.2220088803552288,-0.0004800192007685088,0.034694417878269865,0.1731837434375981,0.042163592193300445,-0.1342853714148671,-0.09372374894997473,0.013800552022080472,-0.008760350414015293,0.020520820832823774,-0.0034801392055683576,13.36383020814195,8.002882982409671,10.597969202869848,12.223177402667911,-1.0093092528479213,2.232109450713757,0.11506924855243562,0.4754764822814922,-0.21604147303698512,-0.048785999999999996,-0.05744199999999999,-0.902506,0.03288700000000011,0.18042800000000003,-0.904517,0.0816730000000001,0.23787000000000003,0.002010999999999985,0.7059924252197505,0.9623628730905489,double,-0.902506
49,0.408333,jog,0.049801992079689814,-0.21780871234848248,-0.03804152166086794,0.29851138657806525,0.38102707436095373,-0.07211545612326506,-0.17628705148205284,-0.16116644665785138,0.03264130565222634,-0.009720388815552376,0.01776071042842162,-0.0061202448097926986,-3.729898385899924,0.5040403224224578,-4.507560597635848,-5.0404032241912695,-8.09344746284373,2.2609808748525038,-0.11520921655311236,-0.3312264975881628,-0.31682534552074254,-0.05066999999999999,-0.056969999999999965,-0.901917,0.03239100000000006,0.18239099999999997,-0.9042509999999999,0.08306100000000005,0.23936099999999993,0.0023339999999999472,0.574868169973983,0.9647474906259792,double,-0.901917
50,0.416667,jog,0.06707463402927473,-0.20086393088552337,0.09011279097672864,-0.8632469101340585,0.1049279607616986,0.09117553828851636,-0.20890328773697994,-0.06335493160548157,0.05843532517398618,-0.011279097672190834,0.013918886489081458,-0.001799856011518379,2.0725512298517996,2.033211118665598,15.377287333524892,-3.9136352597704667,11.736442890853096,3.0950347398319917,-0.18703010038858378,-0.46098199416128616,0.5184051833782476,-0.05296999999999996,-0.055824000000000096,-0.902181,0.031738000000000044,0.18418099999999993,-0.905017,0.084708,0.24000500000000002,0.0028359999999999497,0.594998709504343,0.9699910695210319,double,-0.902181
51,0.425,jog,0.05340213608544699,-0.23688947557904083,-0.017520700828030703,0.1816385410825328,0.6385942478056779,0.11969328458046803,-0.19068762750510818,-0.23796951878075998,-0.04872194887795567,-0.01188047521901734,0.009360374414979321,-0.006840273610944634,-1.6407653838746874,-4.323238292753816,-12.916535677998272,2.185966666491277,-20.954588644579243,-12.859387261723523,-0.07216819234687478,-0.5470433306254827,-0.6048743069034282,-0.05500400000000005,-0.05583300000000002,-0.902441,0.031193999999999944,0.1862330000000001,-0.9049280000000001,0.086198,0.24206600000000011,0.002487000000000017,0.47513000000000005,0.9723337528299438,single,-0.902441
52,0.433333,jog,0.07236289451576942,-0.2541701668066523,0.0152406096243835,0.18005809034994563,0.08094778540683294,-0.10660530790102876,-0.05760230409216776,-0.1491659666386509,0.03984159366374626,-0.0141605664226377,0.006600264010550342,-0.004320172806912415,2.275382026919759,-2.073765897949283,3.931514514870283,15.970877644658568,10.656852531154291,10.628050227013267,-0.27362188931001447,-0.33122649759137984,0.3024241934516031,-0.056087,-0.05495800000000006,-0.902236,0.030473000000000194,0.18840599999999985,-0.905091,0.08656000000000019,0.2433639999999999,0.002854999999999941,0.6967993955665532,0.9729841086117569,double,-0.902236
53,0.441667,jog,0.06311495080393922,-0.2612191024718152,-0.010799136069118672,0.5268226458204793,0.17519558586000072,-0.13540094981632245,-0.15118790496758147,-0.11399088072954305,-0.017518598512119166,-0.01283897288217901,0.004919606431507081,-0.006119510439165194,-1.1096644722618494,-0.8458046154503172,-3.1245195216585455,-11.229373755149297,4.220672655280542,-6.882672447308106,0.15857853857195808,-0.2016627764630754,-0.21590324361084579,-0.05787299999999984,-0.05373099999999997,-0.902292,0.02984000000000009,0.19062400000000013,-0.905052,0.08771299999999993,0.2443550000000001,0.0027599999999999847,0.6554763990073555,0.9749173499469972,double,-0.902292
54,0.45,jog,0.042721708868357314,-0.2707308292331725,0.005640225609026647,0.35013292520374234,-0.0032389877095839953,-0.09535072264747778,-0.11364454578183454,-0.1045241809672462,-0.02808112324492945,-0.01188047521901726,0.0016800672026831191,-0.006720268810752461,-2.447286923746769,-1.1414528694776513,1.9728023134699686,4.505383317622318,1.1360494134521566,-1.2675536700840322,0.11502432055223144,-0.3887602578691886,-0.07209388834600566,-0.059175999999999895,-0.052346000000000004,-0.9025730000000001,0.029384999999999994,0.19289400000000012,-0.905155,0.08856099999999989,0.24524000000000012,0.002581999999999973,0.7126198482421616,0.9770792227853813,double,-0.9025730000000001
55,0.458333,jog,0.05832233289331425,-0.34225369014758933,-0.05652226089043566,0.7237327034091036,0.5657467693708698,-0.534651185327829,-0.06612264490579257,-0.04356174246968584,-0.08052322092883711,-0.01092043681745367,-0.001440057602318859,-0.005160206408255675,1.8721497689855968,-8.58308663319537,-7.459796771806368,5.7028562193738255,7.315785251117306,-6.293303454207103,0.11520921655629349,-0.3744299537983903,0.18721497689869082,-0.06021299999999985,-0.04985700000000004,-0.902773,0.028808000000000167,0.19573399999999985,-0.9047270000000001,0.08902100000000002,0.2455909999999999,0.0019540000000000113,0.792238656562966,0.9797270407001923,double,-0.902773
56,0.466667,jog,0.05951523878090371,-0.33945284377252094,-0.054235661147109135,0.4379177066969783,0.4640793439909457,-0.5814106282625051,-0.05951523878090371,-0.05759539236861477,-0.07127429805615512,-0.009719222462202743,-0.0038396928245778704,-0.003959683225342598,0.14313725553029197,0.3360746790338836,0.274370019597615,0.7928253089619463,-1.6839032756094217,1.1097819621648644,0.14413419189475948,-0.2879331920157198,0.1440512578489411,-0.061204999999999954,-0.047507999999999884,-0.902915,0.028231000000000117,0.198531,-0.904308,0.08943600000000007,0.2460389999999999,0.0013929999999999776,0.8039580195484084,0.9813746277067812,double,-0.902915
57,0.475,jog,0.09132365294611947,-0.3584543381735099,-0.02832113284531556,0.20711281678518856,0.27333229943587295,-0.3371467142083256,0.019560782431286887,-0.029761190447621096,-0.02964118564742647,-0.0110404416176891,-0.01092043681745367,-0.004080163206528188,3.8171623863213533,-2.28027053894024,3.1098677909268737,9.489502125547917,3.340237840032851,4.996173335980889,-0.15855264076399375,-0.8497232680758211,-0.014458176069313605,-0.06180300000000005,-0.04476900000000006,-0.902926,0.027377999999999902,0.20142700000000002,-0.904106,0.08918099999999995,0.24619600000000008,0.0011799999999999589,0.9109746344066616,0.9732400058550545,double,-0.902926
58,0.483333,jog,0.15552622104883695,-0.3480139205568358,0.006120244809795156,-0.3373849467410666,-0.38180501871646655,-0.14276827006784076,0.01596063842555625,-0.00012000480018213478,-0.05604224168966761,-0.010800432017271462,-0.01188047521901726,-0.0001200048001921272,7.704616356980345,1.2529002300100915,4.1331306438390225,-0.43203456207015756,3.5570845610751034,-3.1682534552071315,0.028802304142281993,-0.11520921655629272,0.4752380182810566,-0.06296599999999986,-0.04186999999999985,-0.903444,0.025992000000000015,0.20422800000000008,-0.904158,0.08895799999999987,0.24609799999999993,0.0007139999999999924,0.8957419556515182,0.9732392584213857,double,-0.903444
59,0.491667,jog,0.08447324214063322,-0.35325173986079106,-0.04331653467723247,0.075964798917905,0.02426676394247264,-0.31910057694663285,0.08063354931605535,0.006599472042226563,-0.02495800335973118,-0.019438444924405485,-0.03683705303576397,-0.0039596832253417655,-8.525675414951245,-0.6284880374316387,-5.931938983324644,7.760128496580157,0.8062727192715012,3.7298102147751857,-1.0364786305656364,-2.99454977402768,-0.46072455305371185,-0.06299799999999989,-0.0388710000000001,-0.903291,0.02512599999999998,0.20686499999999985,-0.9038299999999999,0.08812399999999987,0.24573599999999995,0.0005389999999999562,0.8535010562893848,0.9302683574797901,double,-0.903291
60,0.5,jog,0.0800432017280661,-0.3810152406096433,-0.04356174246969916,0.20664774820818216,-0.0588382483897814,-0.18939850529755062,0.036121444857780564,0.02052082083282391,-0.029641185647425638,-0.009480379215161457,-0.013080523220918636,0.000240009600384256,-0.5316261145526373,-3.3317533599966787,-0.029426112140488937,-5.341666201641053,1.6706286800188865,-0.5620043546975244,1.1950156857367158,2.8508976136859947,0.5039832984190606,-0.06336399999999998,-0.03552500000000003,-0.903175,0.02438000000000007,0.2099310000000001,-0.903465,0.08774400000000004,0.24545600000000012,0.00029000000000001247,0.9120434378902993,0.973072356087484,double,-0.903175
61,0.508333,jog,0.11196447857915141,-0.39061562462498434,-0.05124204968198169,-0.043508460369129996,-0.16267399854129413,-0.22615493213658847,0.020280811232459502,0.015600624024983197,-0.028801152046081382,0.018240729629176687,0.011640465618626345,-0.019320772830913328,3.830706450388237,-1.1520921655275391,-0.9216737324231966,-1.9009520731214444,-0.5904472348302763,0.10080806448388967,3.326666127965682,2.966637326238435,-2.347387787267191,-0.06412799999999996,-0.032139999999999835,-0.902988,0.023598999999999926,0.2132830000000001,-0.903199,0.08772699999999989,0.24542299999999995,0.00021099999999996122,0.9336812014207416,0.9516518149252821,double,-0.902988
62,0.516667,jog,0.11579073674104728,-0.3828893688504874,-0.0737940964722865,0.02736315746635899,-0.0956596880479763,-0.20491433712375814,0.01715862730981582,0.016198704103671347,-0.021598272138229017,-0.009239260859117249,-0.019198464122862836,0.002039836813055342,0.4591142502874841,0.927076526817491,-2.7060291325059924,-0.3746321001492319,0.07176386833311182,0.8642764468265426,-3.297335071789548,-3.7003755389356083,2.5630681118273086,-0.06494999999999984,-0.028813999999999895,-0.9025529999999999,0.02255700000000016,0.21631400000000012,-0.902567,0.087507,0.245128,1.4000000000069512e-05,0.9465448503614681,0.9643276523167857,double,-0.9025529999999999
63,0.525,jog,0.11844473778951962,-0.39385575423016844,-0.08460338413535974,-0.04124300724096313,-0.2919905053683087,-0.18381304524393513,-0.015360614424592281,-0.00012000480020878121,-0.03336133445337805,-0.027601104044182593,-0.04200168006721121,0.02772110884435307,0.31849286553130074,-1.316018886317171,-1.2971664062250319,-3.902465106733225,-1.9583234014016633,-1.411623942775589,-2.2035093225807354,-2.7364953731367185,3.0818759187924663,-0.06606500000000004,-0.025533000000000028,-0.902126,0.021339999999999915,0.21924600000000005,-0.9016310000000001,0.08740499999999995,0.24477900000000008,0.0004949999999999122,0.9387867681069958,0.8993882412918854,double,-0.9016310000000001
64,0.533333,jog,0.12288491539660665,-0.4024960998440069,-0.07356294251769833,-0.1155107798023185,-0.24839050877943744,-0.08862821044895736,0.03012120484819435,0.021000840033605885,-0.01956078243129784,-0.008040321612842651,-0.026881075243010203,0.006960278411136808,0.5328426265555098,-1.0368829489785856,1.3249059903589953,5.458036634199814,2.53460276416835,1.6561324879491583,2.3473877872723055,1.8145451607105656,-2.4913993079582926,-0.06683799999999995,-0.022003999999999913,-0.901676,0.020249000000000184,0.22237600000000013,-0.90096,0.08708700000000014,0.24438000000000004,0.0007160000000000499,0.9306589252529258,0.9446596543812597,double,-0.90096
65,0.541667,jog,0.12622990160787675,-0.41612670986318434,-0.07499400047995944,-0.1610928249249376,-0.11474861973952186,-0.10600107602937918,0.003959683225335912,0.016078713702913066,-0.030477561795055837,0.026517878569690786,-0.048476121910255326,-0.004559635229182028,0.40136623605352545,-1.6355423589125655,-0.171713218413858,-3.1391314642258505,-0.5906079110502498,-1.3099087309524735,4.146652289720803,-2.591198304205059,-1.3822790545138885,-0.06785700000000006,-0.01840200000000003,-0.901305,0.019417999999999935,0.22543999999999986,-0.9003730000000001,0.08727499999999999,0.2438419999999999,0.0009319999999999329,0.9421907855634709,0.8982750555568049,double,-0.9003730000000001
66,0.55,jog,0.12204488179527678,-0.4299771990879754,-0.08364334573383604,-0.10568582035249456,-0.2783716533378955,-0.11690756043820642,0.03612144485780697,0.09840393615745104,-0.054722188887555874,0.0038401536061480703,-0.03216128645145012,0.011400456018241259,-0.5022224664106509,-1.6621251919825972,-1.0379629489831474,3.859565778527652,9.879421871419371,-2.909471629965191,-2.7214358530592366,1.9578585693993928,1.915287561193234,-0.068573,-0.013998999999999873,-0.901064,0.01843299999999992,0.22875500000000004,-0.899581,0.08700599999999992,0.24275399999999991,0.001483000000000012,0.8029198457864539,0.9279407940879907,double,-0.899581
67,0.558333,jog,0.12780511220450058,-0.3973358934357487,-0.09672386895475589,-0.17445884983320423,-0.09892987243363029,0.009289990697033927,-0.043441737669503995,0.034921396855852854,-0.05532221288851558,-0.0015600624024743586,-0.05628225129005844,0.04656186247449934,0.6912552993188349,3.9171133628017483,-1.5697255755334174,-9.547963821830274,-7.618209444569634,-0.07200576034557957,-0.6480518431084217,-2.894631565895661,4.219537556253258,-0.07000000000000006,-0.01039699999999999,-0.900719,0.01735500000000001,0.23159700000000005,-0.898387,0.08735500000000007,0.24199400000000004,0.0023320000000000007,0.8691137498840202,0.8549091240567956,double,-0.898387
68,0.566667,jog,0.11915046796253805,-0.387089032877361,-0.10715142788577224,-0.2516774574641757,-0.16006887075519474,0.0753402626379934,0.00911927045835906,0.021358291336694278,-0.024958003359731012,0.027237820974319114,-0.0430765538756894,0.040556755459562686,-1.0384742310970088,1.2295249050141128,-1.2512069751639394,6.306816430029116,-1.6274424669016645,3.643413670360492,3.4554695676497786,1.5845569251702594,-0.7205551973766026,-0.0709169999999999,-0.006993000000000027,-0.900034,0.016589000000000187,0.234464,-0.897156,0.08750600000000008,0.24145700000000003,0.002878000000000047,0.9431806069339937,0.8626646019736033,double,-0.897156
69,0.575,jog,0.16824672986921135,-0.49081963278530716,-0.18984759390375455,-0.7797593343374113,0.27623404343313923,-0.2752675551860362,-0.0007200288011461112,0.020280811232459773,-0.023880955238209482,0.04116164646585688,-0.035521420856843476,0.08076323052922191,5.891787100284862,-12.448169915750281,-9.923936879633153,-1.1807631416662978,-0.12930278461952657,0.12925094462036954,1.6709258960203877,0.9066522283506532,4.824970007159437,-0.07232499999999997,-0.002734000000000014,-0.898651,0.015530000000000044,0.23825799999999986,-0.8949010000000001,0.08785500000000002,0.24099199999999987,0.00374999999999992,0.9477684171530685,0.8002351968319016,double,-0.8949010000000001
70,0.583333,jog,0.13824552982119728,-0.39229569182766744,-0.1372854914196603,-0.25853338002440823,-0.17444335113562148,0.1092882731248546,0.00900036001440621,0.01800072002881242,-0.020040801632065258,0.029641185647412117,-0.07428297131884347,0.0774030961238446,-3.600288017282365,11.823345848750668,6.307704606275537,1.1664933175989776,-0.2736218893132539,0.4608368662119534,-1.382510598637311,-4.6515721183247125,-0.403232257935592,-0.07340199999999997,0.0006850000000000467,-0.897674,0.014624999999999888,0.2409079999999999,-0.893112,0.08802699999999986,0.24022299999999985,0.004561999999999955,0.9526635525672166,0.768879183858507,double,-0.893112
71,0.591667,jog,0.1354691624669939,-0.37952963762899,-0.14182865370770426,-0.23115710454623276,-0.14487310215182983,0.21652774441652511,0.005519558435323991,0.00899928005757435,-0.017758579313655046,0.00911927045835906,-0.07595392368609057,0.10931125509959144,-0.33313743150988356,1.5318039595245185,-0.5451358636961762,-0.4176627764677456,-1.0800863896373891,0.2738447706275731,-2.4624328280601038,-0.2004982442101133,3.8286727832669296,-0.07448499999999991,0.003922999999999899,-0.89664,0.013571999999999917,0.24343800000000004,-0.891019,0.08805699999999983,0.23951500000000014,0.005620999999999987,0.9655673077618978,0.7214219985271342,double,-0.891019
72,0.6,jog,0.14892595703828862,-0.3646945877835163,-0.15468618744749746,-0.29398857711425497,-0.1374870928130795,0.10218646317741237,0.0006000240009373283,0.003480139205575066,-0.022920916836674115,0.20004800192008884,-0.2728909156366411,0.25453018120725035,1.6148799437531323,1.7802771925445597,-1.5429657674058948,-0.5903677468362784,-0.6623233951757271,-0.6195052829736128,22.912364269978582,-23.633384369441057,17.426968211647694,-0.07572100000000015,0.0069909999999999695,-0.895542,0.013997999999999955,0.24420299999999995,-0.887609,0.0897190000000001,0.23721199999999998,0.007932999999999968,0.9613477100604486,0.42067,single,-0.887609
73,0.608333,jog,0.1581663266530571,-0.41581663266531105,-0.19428777151085075,0.10133180747854494,-0.5369417945654612,0.4351409011381545,-0.0018000720028652538,-0.005400216008649055,-0.019080763230529072,0.10680427217089328,-0.22656906276249633,0.21960878435137293,1.1088887093205864,-6.134890781446599,-4.752380182809687,-0.2880230413779638,-1.0656852531170147,0.46083686621205167,-11.18969515770973,5.558844698685294,-4.190735252115357,-0.07705399999999996,0.010410999999999948,-0.894082,0.013570000000000082,0.2457800000000001,-0.8841600000000001,0.09062400000000004,0.23536900000000016,0.009921999999999986,0.9668137362077873,0.40078,single,-0.8841600000000001
74,0.616667,jog,0.16606671466283415,-0.34497240220782066,-0.12455003599713227,0.0026072104037539417,-0.6963572304760106,0.18271047684020705,-0.002159827213831727,-0.009599232061418097,-0.01799856011519057,0.11783057355412095,-0.3933285337173186,0.3401727861771083,0.9479707235153699,8.50062760469052,8.36785883293963,-0.04316717194222166,-0.5038416190027677,0.12985398552177935,1.3230503219615715,-20.009535751718644,14.466522897256544,-0.07845600000000008,0.013206000000000051,-0.8931939999999999,0.013168000000000069,0.24537699999999996,-0.8802869999999999,0.09162400000000015,0.2321709999999999,0.012907000000000002,0.965812677951603,0.37093,single,-0.8802869999999999
75,0.625,jog,0.17628705148205165,-0.3471738869554809,-0.14508580343212524,0.08152757530943162,-0.656976366653377,0.030161474636585524,-0.0033601344053662383,-0.009960398415943227,-0.015360614424577292,0.012960518420736413,-0.3278531141245584,0.2763710548421925,1.2264894778852098,-0.2641887372687188,-2.464390667825859,-0.14404262468912832,-0.04334169621086377,0.31656614551941276,-12.584910012406588,7.8573646457170145,-7.656514020750693,-0.07995299999999994,0.01601600000000003,-0.892113,0.011807000000000123,0.24553800000000003,-0.8767750000000001,0.09176000000000006,0.229522,0.015337999999999963,0.9689781208335246,0.34661999999999993,single,-0.8767750000000001
76,0.633333,jog,0.16848673946957338,-0.4323772950918046,-0.12480499219969238,0.015841764593190307,-0.4669477655503431,0.0361133763850861,-0.014400576023055263,-0.012720508820345498,-0.020040801632064426,-0.0482419296771885,-0.29665186607464533,0.2824912996519843,-0.9360748844927684,-10.224817969077566,2.4337946996799205,-1.324905990362292,-0.33122649758817474,-0.5616449306956816,-7.344587555253169,3.7442995379710737,0.7344587555252323,-0.08147700000000002,0.019513000000000114,-0.89124,0.010001000000000149,0.24666900000000003,-0.873381,0.09147800000000017,0.2271559999999999,0.01785900000000007,0.9537272078832725,0.3214100000000001,single,-0.873381
77,0.641667,jog,0.19018478521720406,-0.42308615310774395,-0.1264698824094079,-0.11195104364435665,-0.28999978059314896,0.027141266698552633,-0.0231581473481988,-0.02999760019199483,-0.017998560115191402,0.09779217662587171,-0.4076073914086743,0.46640268778498006,2.603557205139285,1.1148478502592658,-0.19977084349838425,-1.050824493057786,-2.0730851177885086,0.2450493780745183,17.522690941092037,-13.313597952247372,22.06760116786619,-0.08325500000000008,0.022788999999999948,-0.890336,0.00923099999999999,0.24679800000000007,-0.86844,0.09248600000000007,0.22400900000000012,0.021896000000000027,0.9300773448710844,0.28104,single,-0.86844
78,0.65,jog,0.20112804512177868,-0.36829473178926864,-0.1484459378375181,-0.2013708524150626,-0.028211306404765015,-0.14575144774645035,-0.011640465618626345,-0.02004080163206859,-0.010800432017280622,0.09480379215166723,-0.4854194167766782,0.42757710308412117,1.3132437182976808,6.575233567559712,-2.63723214065884,1.382177094632474,1.1948636217360133,0.8638099241462558,-0.3586204817238048,-9.337816556822704,-4.659256534364422,-0.08502799999999988,0.02569099999999991,-0.889189,0.008345000000000047,0.24582199999999998,-0.86364,0.09337299999999993,0.22013100000000008,0.025549000000000044,0.9573846825388177,0.24451000000000006,single,-0.86364
79,0.658333,jog,0.22392895715830582,-0.33925357014282503,-0.1204848193927774,-0.9065971521677191,0.5996416748074433,-0.32294264014924123,0.06732269290772097,-0.01260050402016353,0.006960278411136808,0.12504500180007164,-0.5688227529101176,0.4380175207008321,2.7362188931390086,3.4850788007252933,3.3554684321062003,9.475958061484224,0.8928714282857466,2.1313705062303603,3.6290903214214185,-10.008800688040344,1.2529002300145249,-0.086333,0.02841300000000002,-0.888127,0.007520999999999889,0.24390900000000015,-0.858986,0.09385399999999988,0.21549600000000013,0.029140999999999972,0.8852591911515592,0.2085900000000001,single,-0.858986
80,0.666667,jog,0.2325413966882626,-0.38828893688504823,-0.1277897768178515,-0.24334447750875143,-0.01798014103082611,-0.28348167242489963,-0.0011999040076872372,-0.002759779217648674,-0.010199184065274909,0.1963042956563425,-0.7048236141108846,0.4541636669066453,1.0334100707891416,-5.883773307202162,-0.8765247690273633,-8.22205386553968,1.1807925129007417,-2.0589707795070296,8.550431228254178,-16.318797840264686,1.9373825540932383,-0.08828100000000005,0.031626000000000154,-0.887147,0.007218999999999864,0.241271,-0.854136,0.09549999999999992,0.20964499999999986,0.03301100000000001,0.9822768586184312,0.16988999999999999,single,-0.854136
81,0.675,jog,0.2563302532101172,-0.3289331573262776,-0.05544221768870281,0.31539706185231314,-0.4686376012196134,-0.1618331124800447,0.0010800432017191524,0.0019200768030740352,-0.012960518420736413,0.15708628345133796,-0.7740309612384276,0.36961478459138203,2.8547769737014894,7.122978466191094,8.682054377672914,0.2736046093131382,0.5616051866941905,-0.3313733775904828,-4.706349718589268,-8.305213863859688,-10.146271728700697,-0.09040800000000004,0.03438300000000005,-0.886793,0.006391999999999953,0.23756200000000005,-0.8505940000000001,0.0968,0.203179,0.03619899999999998,0.9780893084202198,0.13801000000000002,single,-0.8505940000000001
82,0.683333,jog,0.26233049321973373,-0.41821672866914583,-0.12648505940237717,0.09430777760139857,0.1482223956189405,-0.5258741066970223,-0.0007200288011461112,0.0021600864034383334,-0.007800312012480878,0.136565462618516,-0.7584303372135078,0.2834513380535234,0.7200576034581273,-10.714457139429864,-8.525482024921999,-0.216017281035075,0.028802304135881484,0.6192495389722289,-2.462597003818812,1.872149768981152,-10.340027185630555,-0.09260000000000002,0.037885999999999864,-0.885804,0.005344000000000015,0.2347269999999999,-0.847178,0.09794400000000003,0.19684100000000004,0.03862600000000005,0.9864569326635305,0.11374000000000006,single,-0.847178
83,0.691667,jog,0.2807775377969752,-0.41756659467244095,-0.09767218622509902,0.019406687964028863,0.276374399352655,-0.5337126470038457,-0.00443964482839482,0.014638828893709694,0.049796016318693966,0.1757859371250346,-0.9421646268298428,0.2336213102951751,2.213468271807212,0.0780098388174799,3.4572681998173667,-0.44631821781241665,1.4973293124875529,6.911006519219391,4.70608045434585,-22.04635104587636,-5.9791250010016705,-0.09497699999999987,0.04148800000000019,-0.884575,0.004469000000000056,0.2303550000000001,-0.8444170000000001,0.09944599999999992,0.1888669999999999,0.040157999999999916,0.9131788396441468,0.09842000000000001,single,-0.8444170000000001
84,0.7,jog,0.29329173166928296,-0.4311772470898824,-0.07848313932557895,0.34179219252115295,0.171794004716997,-0.5943626118282626,-0.006600264010577076,-0.00312012480500201,0.0009600384015361976,0.43033721348852755,-1.1256450258010355,0.27253090123605134,1.5017633352103568,-1.633343623837945,2.3027777390519915,-0.25928467324880305,-2.131159690233033,-5.860551772129871,30.54737505862178,-22.018528617688037,4.669337686412647,-0.09747600000000012,0.04505500000000007,-0.883913,0.005610999999999811,0.2245680000000001,-0.841492,0.10308699999999993,0.17951300000000003,0.04242099999999993,0.9877275899382517,0.07579000000000008,single,-0.841492
85,0.708333,jog,0.2958118324732904,-0.41749669986799415,-0.06540261610464604,0.21628668875539245,0.021299829273085213,-0.5798158738386928,-0.01908076323053157,-0.0014400576023188495,0.0037201488059526123,0.75987039481579,-1.5793831753270038,0.35161406456258126,0.30242419344862964,1.6417313358800212,1.5697255755349637,-1.4977198151871405,0.2016161289671371,0.331226497589872,39.5455635818146,-54.450755973354894,9.490359213552093,-0.10010000000000008,0.048521999999999954,-0.8833369999999999,0.009477999999999875,0.21488600000000013,-0.838017,0.10957799999999995,0.16636400000000018,0.045319999999999916,0.9675111643750233,0.04680000000000012,single,-0.838017
86,0.716667,jog,0.3630909527237761,-0.48260139188864165,-0.16162706983441047,-0.281146771979172,1.0169425895192508,-0.9365892232880703,-0.01679865610751475,-0.016438684905187264,-0.010559155267579083,0.5680345572354187,-1.4100071994240433,0.21274298056155475,8.072848602170051,-7.811938087430646,-11.546010766710307,0.2738309482861535,-1.7996913010401128,-1.7133794184703126,-23.018459032921744,20.32349122905678,-16.663197024361107,-0.10326600000000008,0.05240700000000009,-0.882078,0.011185999999999918,0.20715700000000004,-0.834897,0.114452,0.15474999999999994,0.04718100000000003,0.9570555601711992,0.028189999999999937,single,-0.834897
87,0.725,jog,0.3068522740909569,-0.4688587543501642,0.07236289451578372,0.9514304470954843,-0.675036200416887,-0.7814052036639743,-0.013920556822273616,-0.014280571222846672,-0.006360254410176165,0.9003960158406463,-1.5845433817352832,0.21984879395176013,-6.7489113923940645,1.6491824719161834,28.07991891878031,0.3453857296581255,0.258984001240923,0.5038882584186916,39.884970431444934,-20.945179684536363,0.8527317160932977,-0.105939,0.056194999999999995,-0.882734,0.016132000000000035,0.19785999999999992,-0.833668,0.12207100000000004,0.14166499999999993,0.049066000000000054,0.9651125041162028,0.00933999999999996,single,-0.833668
88,0.733333,jog,0.3334933397335984,-0.47497899915997976,-0.06492259690387753,0.3988759531957707,0.02689847107863276,-0.5850874609756936,-0.027481099243947166,-0.036001440057598186,-0.007080283211328843,0.7640705628225111,-1.4353774150966112,-0.02520100804032173,3.1970557593473425,-0.7344587555280835,-16.47491796707796,-1.6273301838081715,-2.6066085245111514,-0.08640691241481761,-16.359708750526185,17.90063202192144,-29.407152525150707,-0.1089469999999999,0.059853000000000156,-0.882252,0.01971999999999996,0.18985699999999994,-0.833337,0.12866699999999986,0.1300039999999998,0.04891500000000004,0.9235974674607297,0.01084999999999997,single,-0.833337
89,0.741667,jog,0.3920086393088466,-0.45836333093352005,-0.025677945764344696,0.5741818647073662,0.08542050633935343,-0.8266758697461977,-0.013318934485264567,-0.013558915286780705,-0.007679385649147466,0.9456443484521324,-1.532397408207336,-0.016558675305975525,7.021274247090057,1.9937206895200152,4.7089814182305085,1.6993238251359106,2.6928875414947937,-0.071886541614906,21.787111306650154,-11.641467855858565,1.0369969683640814,-0.11232500000000001,0.06356000000000006,-0.8821019999999999,0.024334000000000078,0.180906,-0.8332609999999999,0.13665900000000009,0.11734599999999995,0.04884100000000002,0.9658349120882963,0.01158999999999999,single,-0.8332609999999999
90,0.75,jog,0.3690147605904414,-0.44809792391696995,-0.06336253450137654,0.29930575097796325,0.5199461363891105,-0.9512563753108028,-0.013560542421673734,-0.04740189607586026,-0.03444137765510637,1.00996039841593,-1.6734669386775516,-0.06516260650426012,-2.759375821241461,1.2318981179107231,-4.52233154170547,-0.02899411213358524,-4.06132014749543,-3.2115675034151914,7.718234725044679,-16.929020817258497,-5.832705051996206,-0.11551299999999998,0.06689900000000004,-0.881861,0.029674999999999896,0.17069500000000004,-0.833276,0.14518799999999987,0.103796,0.04858499999999999,0.8997636604328116,0.014149999999999996,single,-0.833276
91,0.758333,jog,0.3316932677307065,-0.6830673226928818,-0.029281171246852387,0.8314778255926168,0.14260151864633402,0.07991298921303487,-0.01080043201729811,0.016800672026884483,-0.00864034561382483,1.2715708628345141,-1.7531501260050175,-0.031441257650305685,-4.47875829349991,-28.197455751339362,4.089927187630386,0.33122649758497696,7.704616356983617,3.0962476948615656,31.394511510690396,-9.562364973894828,4.046723731423772,-0.11836700000000011,0.07273099999999988,-0.881689,0.03750699999999996,0.16177799999999998,-0.833294,0.15587400000000007,0.0890470000000001,0.048394999999999966,0.9637306570901065,0.016049999999999953,single,-0.833294
92,0.766667,jog,0.35721142308615605,-0.5334773218142785,0.020278377729792022,0.5964322442842616,-0.10676314171983799,-0.4065272151003894,0.037676985841150624,0.051115910727146614,0.011159107271418686,1.212622990160788,-1.7536597072234374,-0.17002639788817012,3.061933687958926,17.949364156299996,5.946670143585877,5.816824797030119,4.117499244091952,2.3757442866863006,-7.073178866537868,-0.06114485462202218,-16.62888651762242,-0.12102999999999997,0.07760300000000009,-0.881765,0.0446359999999999,0.1516090000000001,-0.8348800000000001,0.16566599999999987,0.07400600000000002,0.046884999999999954,0.8925430671975083,0.03115000000000001,single,-0.8348800000000001
93,0.775,jog,0.41545661826471136,-0.5546621864874457,-0.12360494419777776,-0.35290364406492,0.4575142364197827,-0.995844424170423,-0.04296171846874823,-0.020280811232459502,-0.03168126725068994,1.3364934597383782,-1.783631345253811,-0.1834873394935793,6.989703009546989,-2.5422854521981364,-17.266689298880255,-9.67703159845176,-8.567949353126822,-5.1410505846764005,14.865050951348827,-3.5967404332621493,-1.6153776077534039,-0.1248499999999999,0.0820559999999999,-0.880999,0.052310999999999996,0.14136799999999994,-0.835379,0.1771609999999999,0.05931200000000003,0.045619999999999994,0.9048287617466362,0.043800000000000006,single,-0.835379
94,0.783333,jog,0.37993519740790005,-0.5160206408256343,-0.055922236889472066,0.5904268213884578,0.35392549027564285,-0.8259012248607451,-0.005160206408258207,0.03324132965319636,0.00960038401536031,1.33577343093725,-1.8801152046081866,-0.05268210728429125,-4.262741012457895,4.637170966256066,8.122249766987437,4.536362901774916,6.422913822831676,4.953996311778547,-0.08640691241188163,-11.578526263575712,15.697255755344921,-0.12805899999999992,0.08663299999999996,-0.880453,0.060275999999999996,0.13000100000000003,-0.835352,0.18833499999999992,0.04336800000000007,0.04510100000000006,0.9416956953054187,0.04898999999999992,single,-0.835352
95,0.791667,jog,0.4055675545956485,-0.5263978881689594,-0.10463162946963969,0.7306923617079221,0.5322762661732335,-1.0884684778097518,-0.01523878089752667,0.00863930885530015,-0.01979841612670953,1.545236381089521,-1.9536837053035763,-0.0031197504199678336,3.075636811584867,-1.245170067593598,-5.844659536857122,-1.2093321921368354,-2.9520063352407035,-3.5275738111434625,25.13354333480556,-8.827513882336106,5.947007063153712,-0.13156600000000007,0.09109200000000017,-0.879746,0.069774,0.11810600000000004,-0.834506,0.20134000000000007,0.02701399999999987,0.04524000000000006,0.9559408421088935,0.04760000000000009,single,-0.834506
96,0.8,jog,0.4125765030601003,-0.42505700228008153,-0.10716428657146633,0.12061238959568646,0.5629406439606613,-1.2503008374913942,0.0134405376214916,-0.019920796831886453,0.11232449297971864,1.5277811112444224,-1.7633505340213516,-0.28825153006119975,0.8411074600326102,12.161392762375787,-0.3039310094595737,3.4416558885177184,-3.427349776453436,15.855383308103637,-2.0947161700586387,22.840894189634454,-34.217182244237456,-0.134892,0.094468,-0.877917,0.079067,0.106954,-0.836015,0.213959,0.012485999999999997,0.041901999999999995,0.8085560865341519,0.08097999999999994,single,-0.836015
97,0.808333,jog,0.40693627745111904,-0.3973358934357487,0.026521060842437147,0.13999067614541955,0.9608733835180926,-0.6435267496053079,-0.03576143045720775,-0.029281171246839457,0.04836193447737961,1.6101044041761832,-1.8971558862354623,-0.18780751230049503,-0.6768541472436463,3.3266661279650873,16.042883405004766,-5.90447234833791,-1.1232898613888262,-7.675814052842868,9.87919031942416,-16.057284557075715,12.053764281855951,-0.13858100000000007,0.09753500000000015,-0.877735,0.08909299999999987,0.0944560000000001,-0.837801,0.22767399999999993,0.003079000000000054,0.039934000000000025,0.8885058097636324,0.10066000000000003,single,-0.837801
98,0.816667,jog,0.37976961843050616,-0.4216462682985083,-0.08471322294216212,0.6790556586689689,-0.0167565297997946,-1.1402331006944568,-0.024118070554342952,-0.024118070554369597,-0.005039596832253425,1.5865130789536797,-1.787137029037659,-0.15046796256299277,-3.2597383034092484,-2.917011622601323,-13.347046290448574,1.3970914210300824,0.6195225212946749,-6.407671143464438,-2.830732568094952,13.201206767194927,4.480387537497236,-0.14194699999999982,0.10084799999999983,-0.877071,0.09915000000000007,0.08307599999999993,-0.838349,0.2410969999999999,0.0177719999999999,0.038722000000000034,0.9425359969980851,0.11277999999999994,single,-0.838349
99,0.825,jog,0.42085683427339265,-0.45805832233291927,-0.06504260170407385,0.7580086043142915,0.37207580879318836,-1.1156954363619993,-0.03348133925358728,-0.02376095043800819,0.051722068882755885,1.6167046681867336,-1.7611904476179367,-0.19044761790471854,4.930663127671531,-4.369621268980112,2.3605689713294673,-1.1236371893969057,0.0428561282084974,6.811672352695288,3.623135633391847,3.1137143189394463,-4.797750551029177,-0.1457330000000001,0.10446700000000009,-0.8760979999999999,0.10911499999999985,0.07221699999999998,-0.839394,0.25484799999999996,0.03225000000000011,0.03670399999999996,0.8899399752982766,0.13296000000000002,single,-0.839394
100,0.833333,jog,0.35977439097561764,-0.39553582143285154,-0.1389655586223434,0.645301004881675,-0.23365618340727012,-1.2399520897186596,-0.019920796831859808,-0.0362414496579891,0.015360614424577292,1.6644665786631454,-1.7266290651625806,-0.168126725069002,-7.330186403189098,7.503000228017216,-8.87110967457929,1.6273301838146428,-1.4977198151903106,-4.363549076944491,5.731658523510328,4.147531795914553,2.678614284857367,-0.14889699999999984,0.10746100000000003,-0.8748119999999999,0.11998700000000007,0.061125000000000096,-0.839637,0.2688839999999999,0.04633599999999993,0.035174999999999956,0.9264731852536224,0.14825000000000005,single,-0.839637
101,0.841667,jog,0.4706023518118492,-0.5340772738180884,-0.06215502759779391,0.44512929013535857,-1.0592386804254286,-0.211655951447872,0.015478761699042802,-0.04691624670026725,0.08399328053755627,1.675185985121191,-1.749940004799621,-0.15874730021598207,13.29829143703272,-16.623644394676727,9.2165264008338,4.247607215131071,-1.2808731752193503,8.2352611126684,1.2862258768953092,-2.7970889893256734,1.125440947086616,-0.15269,0.11152099999999998,-0.873594,0.1300260000000002,0.050991999999999926,-0.8404419999999999,0.2827160000000002,0.060529000000000055,0.03315200000000007,0.8375910730111871,0.16848000000000007,single,-0.8404419999999999
102,0.85,jog,0.5685827433097533,-0.29509180367214827,-0.12576503060121774,-0.6051350006668244,1.7845582357223482,-0.6184475604968951,-0.017760710428395093,-0.09852394095763449,0.086283451338054,1.710428417136683,-1.7077883115324628,-0.10668426737069592,11.758117304440784,28.67940359365683,-7.633505700638954,-3.988896211141029,-6.193171037725635,0.27483148931930307,4.229261012299576,5.058405528280159,6.247813853988555,-0.15757599999999994,0.11315900000000001,-0.871827,0.13954099999999992,0.03922000000000003,-0.840283,0.29711699999999985,0.07393899999999998,0.031544000000000016,0.7797271656965246,0.18456000000000006,single,-0.840283
103,0.858333,jog,0.6114244569782852,-0.630985239409572,0.0397215888635508,0.31969857261859014,0.5331347292595761,0.33952658890825443,-0.05736229449177684,-0.006480259210368207,0.10116404656186247,1.7238689547581785,-1.7013080523220985,-0.13644545781831205,5.141211288675347,-40.308824641476335,19.859188703320278,-4.752380182813103,11.045683637017389,1.7857428565712716,1.612929031740716,0.7776622117321851,-3.5714857131424464,-0.163149,0.118363,-0.871315,0.1488109999999998,0.03030099999999991,-0.841751,0.3119599999999998,0.08806200000000008,0.029563999999999924,0.8058738174854249,0.2043600000000001,single,-0.841751
104,0.866667,jog,0.5323974082073227,-0.4776817854571676,-0.010559155267575893,0.18311987594798368,0.25247328861004215,-0.4484011526028639,-0.020278377729792022,-0.04115670746340103,0.07427405807535374,1.7485001199904142,-1.6155507559395246,-0.04655627549796036,-9.482487253535265,18.39494287885832,-6.033206639204101,4.449714034315458,-4.160840923090115,-3.226540495141454,2.955503387597298,10.290052361719988,10.785839011321357,-0.16775499999999988,0.12200100000000003,-0.870608,0.15894600000000003,0.020818000000000003,-0.842051,0.3267009999999999,0.10118300000000002,0.028557000000000055,0.8544958679895509,0.21443,single,-0.842051
105,0.875,jog,0.5646225849034155,-0.4867394695787883,-0.03432137285491507,0.05546774701283826,0.5787824018805127,-0.3115276791827802,-0.030481219248767,0.007440297611905225,0.015600624024961547,1.7236289451578142,-1.6611064442577526,-0.07080283211328343,3.8671758905667444,-1.0869655732174044,-2.851580173687637,-1.2243899578753072,5.831873883992086,-7.041093729796225,-2.9846603663266453,-5.466901274238305,-2.909703181966035,-0.17271400000000003,0.1261190000000001,-0.870192,0.16860399999999998,0.011032000000000153,-0.842355,0.341318,0.11508699999999994,0.027837,0.9415990338404374,0.22163,single,-0.842355
106,0.883333,jog,0.7566302652106058,-0.6115444617784673,-0.007200288011527631,0.5951878036343884,1.1226068738179074,-0.6275615152218749,-0.053522140885628774,-0.032401296051841035,0.14772590903636035,1.7202688107524213,-1.6107044281771257,0.021240849633984864,23.041843310595162,-14.9771981518875,3.254660367621184,-2.765021197271292,-4.781182486949009,15.855668428104915,-0.4032322579374572,6.048483869029963,11.04568363701763,-0.17946499999999999,0.1309450000000001,-0.8689009999999999,0.17663399999999996,0.002706000000000097,-0.8421179999999999,0.35609899999999994,0.128239,0.026783,0.7326186257243164,0.23217,single,-0.8421179999999999
107,0.891667,jog,0.6144708423326086,-0.5148788096952327,0.020278377729792022,0.1432173673367672,-0.05844390410566636,-0.8174710980163542,-0.018478521718261143,-0.05747540196785709,0.14398848092152705,1.7013438924886035,-1.5837532997360255,0.0295176385889126,-17.057766124069836,11.598950333961504,3.297176114869188,4.204897908251479,-3.008652017760523,-0.44845549734021095,-2.2708085269759923,3.2338767027958126,0.9931352237734323,-0.1847399999999999,0.13475700000000002,-0.86787,0.18569199999999997,-0.006201999999999819,-0.842041,0.3704319999999999,0.14095899999999983,0.02582899999999999,0.7397780849055733,0.24171000000000004,single,-0.842041
108,0.9,jog,0.6752670106804303,-0.6527061082443236,0.046801872074882976,0.007313100942046671,-0.14661856896103181,-0.7968913061654905,0.00012000480018213478,-0.05424216968677487,0.11364454578183121,1.6275051002040102,-1.5640225609024383,-0.15096603864154445,7.295832035019967,-16.539937423387777,3.182946639276472,2.2319124587115327,0.3880033938656189,-3.641417873478425,-8.861009514531744,2.3677833713653116,-21.658907623959713,-0.19036600000000004,0.1397440000000001,-0.867313,0.193627,-0.01379599999999992,-0.843689,0.38399300000000003,0.15354,0.02362399999999998,0.790123646457679,0.26376,single,-0.843689
109,0.908333,jog,0.689067562702504,-0.6303852154086164,0.0558022320892766,0.3418688764127442,-0.1589137649988411,-0.9789362590717056,0.009960398415943358,-0.0633625345013907,0.12516500660026542,1.6695067802712171,-1.5839433577343192,0.10956438257530367,1.6561324879483834,2.67861428485629,1.080086405183452,1.1808944696701444,-1.0944875572562,1.3825105986360628,5.040403224193848,-2.390591243475464,31.264901142067743,-0.1960249999999999,0.14446899999999996,-0.8667349999999999,0.201797,-0.021741999999999928,-0.843241,0.3978219999999999,0.1662109999999999,0.023493999999999904,0.7655959139986348,0.2650600000000001,single,-0.843241
110,0.916667,jog,0.726541876649853,-0.5647948164146845,0.09407247420206395,0.39326291371416794,0.07358298071331411,-0.9191549204798013,-0.0008399328053863948,-0.05987520998320415,0.13066954643628406,1.6341492680585485,-1.497600191984639,0.10367170626349857,4.496557949045924,7.870218261810813,4.592061688599359,-1.2959360716738266,0.41844546654505993,0.6604919409669551,-4.242562060555353,10.360351061876603,-0.7070645922492261,-0.2020869999999999,0.14867699999999995,-0.86643,0.20936100000000013,-0.029515999999999987,-0.8431609999999999,0.41144800000000004,0.17819299999999993,0.023269000000000095,0.7604386147820554,0.26731000000000005,single,-0.8431609999999999
111,0.925,jog,0.7877115084603369,-0.573862954518186,0.045121804872199855,-0.525863181740685,0.8241624935395844,-0.939937831124423,0.015360614424565634,-0.1563662546501652,0.21084843393735597,1.6637465498619728,-1.4099363974558934,0.10116404656186163,7.340649443235761,-1.088220101224223,-5.874315292195355,1.9441434333315686,-11.579388535576703,9.621851374183557,3.551815889046457,10.520076146495278,-0.30093120144448915,-0.20852300000000001,0.15215600000000018,-0.8650490000000001,0.216661,-0.03648299999999993,-0.842694,0.425184,0.1886390000000001,0.022355000000000014,0.5617477382873343,0.27645,single,-0.842694
112,0.933333,jog,0.9711988479539424,-1.012120484819395,0.5183007320292813,2.798314983675306,-1.2483138815487722,-1.4628786763078243,0.0220808832353517,-0.08352334093364171,0.21408856354254377,1.5907836313452872,-1.3866554662186592,0.13332533301332186,22.01936151369341,-52.59300735643981,56.78374260855463,0.8064645158749701,8.741499305955138,0.3888311058667739,-8.755900458020669,2.7938235014081836,3.8595087545254434,-0.21643199999999996,0.1598940000000001,-0.867584,0.22182400000000002,-0.03960399999999997,-0.8459019999999999,0.438256,0.19949800000000006,0.02168200000000009,0.6152286865159731,0.28318,single,-0.8459019999999999
113,0.941667,jog,0.9352051835852888,-0.7526997840172697,0.06575473962082898,0.47016692777252966,0.9949124955128693,-1.6522330326924044,0.03455723542114732,-0.11219102471803732,0.19978401727861617,1.5466762658986979,-1.3886489080873357,0.157187425005999,-4.318894212701381,31.12799385674626,-54.30117499501426,1.497042498895551,-3.4398468663781374,-1.7164082390121784,-5.292460456754139,-0.23919388873007363,2.8632219813627255,-0.22393799999999997,0.16523199999999993,-0.866467,0.22692,-0.044903999999999944,-0.84514,0.450858,0.21013599999999988,0.021326999999999985,0.6137981165992675,0.28672999999999993,single,-0.84514
114,0.95,jog,0.8552742109684592,-0.49297971918877215,0.2696507860314436,0.9881130533120976,1.1654239718491386,-0.8032190257248238,0.031201248049940164,-0.13560542421695232,0.21168846753870368,1.516380655226234,-1.3259330373215155,0.12348493939757729,-9.592100398035559,31.16765448559941,24.468504309446356,-0.4027345939286192,-2.8098403334831645,1.4285911748575095,-3.635618705443918,7.526205540120096,-4.044460051412698,-0.23080499999999993,0.16821000000000008,-0.86695,0.232429,-0.05184500000000003,-0.8463579999999999,0.4632339999999999,0.2200550000000001,0.020592000000000055,0.5777890329671331,0.29407999999999995,single,-0.8463579999999999
115,0.958333,jog,0.8695547821912943,-0.5633025321012788,0.07332293291731977,-0.6397940786477452,0.6611533127572848,-0.5380005494840777,0.010320412816516277,-0.1052442097683923,0.2586103444137751,1.529701188047523,-1.3339733589343403,0.00024000960038258898,1.7137370962240541,-8.439075112505261,-23.560284785086164,-2.5058004600292567,3.643491473486127,5.6308504590269095,1.5985278796698708,-0.9648771886265246,-14.789983174990303,-0.23796499999999998,0.17202700000000004,-0.865406,0.23792999999999997,-0.05826699999999996,-0.846967,0.47589499999999996,0.230294,0.018438999999999983,0.5343398805987352,0.31561000000000006,single,-0.846967
116,0.966667,jog,0.9467242620590224,-0.618550515958721,0.14554835613151074,-0.03934078790741132,1.0528267649657475,-0.3197726762111668,0.105951523878085,-0.19954403647707672,0.2549796016318677,1.4554835613150805,-1.3016558675305971,-0.03743700503959569,9.259596816381984,-6.629227724675043,8.66635747710468,11.474815342160786,-11.315073999122115,-0.43565428148636487,-8.90540277567099,3.877788745349524,-4.520880086390448,-0.24497199999999997,0.1755190000000001,-0.864494,0.24217,-0.06396000000000002,-0.848492,0.48714199999999996,0.2394790000000001,0.01600199999999996,0.5,0.33997999999999995,flight,-0.848492
117,0.975,jog,0.8915156606264222,-0.6207848313932594,0.14832593303732464,0.6129959983334525,1.8287432601608278,-0.18765887449819751,0.09672386895474255,-0.19284771390857444,0.2751710068402765,1.3241329653186233,-1.1870874834993523,0.13296531861274546,-6.625297183799437,-0.26812857728769435,0.33332256160013507,-1.1073628853165163,0.8035908518543549,2.4230655476309817,-15.76270202765611,13.748756033990862,20.44909680215321,-0.251595,0.17908499999999994,-0.863437,0.24577500000000008,-0.06867900000000005,-0.84862,0.4973700000000001,0.24776399999999998,0.014816999999999969,0.5,0.35183000000000003,flight,-0.84862
118,0.983333,jog,0.8780751230049186,-0.5916236649465941,0.058922356894264505,0.2913727091159308,1.4108749233574314,0.1575879450222703,0.06876275051003893,-0.2419296771870886,0.20640825633025225,1.2458898355934054,-1.1057242289691476,0.09360374414976595,-1.6129290317416884,3.4994799527979237,-10.728858291498831,-3.3554684321017056,-5.890071196269526,-8.2518601356083,-9.38955114907208,9.763981102868646,-4.7235778786726685,-0.2583389999999999,0.1819989999999999,-0.862208,0.24883999999999995,-0.072963,-0.848331,0.5071789999999998,0.2549619999999999,0.013877000000000028,0.5,0.36123,flight,-0.848331
119,0.991667,jog,0.8765298776098103,-0.7976961843052586,0.26169906407488747,0.5936304233885049,0.04047784638776434,-0.6987803562285282,0.10907127429803597,-0.19234461243100914,0.32433405327573944,1.213582913366959,-1.1933045356371537,-0.11471082313414974,-0.18541461424386516,-24.726724185105066,24.331258361006014,4.836635923685778,5.949731792186195,14.149963636367634,-3.8765205455299583,-10.508796096473073,-24.99574841419689,-0.26473500000000016,0.18704399999999988,-0.8616860000000001,0.251649,-0.07626,-0.851468,0.5163840000000002,0.26330399999999987,0.01021800000000006,0.5,0.39781999999999995,flight,-0.851468
120,1.0,jog,1.045961838473528,-0.7854314172566897,0.46825873034920734,2.7763306177133127,1.0785993303584582,-0.7034285034462191,0.13488539541583106,-0.2121684867394677,0.31909276371054646,1.104644185767415,-1.047161886475456,-0.009000360014401212,20.332648609590436,1.4718309190650154,24.78815147897744,3.097818446873273,-2.3789600754180333,-0.6289799070194364,-13.073170238754766,17.53781941218014,12.685763004889965,-0.272327,0.1918209999999999,-0.8629290000000001,0.252138,-0.07844099999999998,-0.855445,0.524465,0.2702619999999999,0.007484000000000046,0.5,0.42516,flight,-0.855445
121,1.008333,jog,1.0180007200288126,-0.7982719308772414,0.16812672506900256,0.012913699788796354,0.2802420743697592,-0.568370549694251,0.1623664946597804,-0.28993159726389006,0.3758550342013727,0.9793591743669938,-0.9933997359894495,-0.013680547221889359,-3.3554684321031742,-1.5409232713970629,-36.0172813248779,3.2978638238269045,-9.331946540792401,6.811744928696356,-15.034802760161082,6.4517161269659065,-0.5616449306958106,-0.27945700000000007,0.19605699999999993,-0.861198,0.25181600000000004,-0.080067,-0.8569599999999999,0.5312730000000001,0.2761239999999999,0.004238000000000075,0.5,0.4576200000000001,flight,-0.8569599999999999
122,1.016667,jog,1.266618670506351,-1.3604511639068722,0.6135109191264693,0.5379879548513317,-2.1832629395803678,-4.058161248404216,0.11495080393568599,-0.2841372690184674,0.29157667386608865,0.8684905207583153,-0.9318454523638099,-0.050635949124068706,29.8317675159031,-67.45611147463721,53.441827940660346,-5.689427732672671,0.6952637683492437,-10.11259423269539,-13.303174179106987,7.385923161223802,-4.434293484782705,-0.28905500000000006,0.20502699999999996,-0.863881,0.24849799999999989,-0.07649500000000009,-0.862495,0.537553,0.28152200000000005,0.0013859999999999983,0.5,0.48614,flight,-0.862495
123,1.025,jog,1.1054842193687846,-0.7788311532461365,0.18372734909395932,0.22678894063737298,0.49372585548425457,-0.5932633020959064,0.28501140045602275,-0.28201128045122953,0.36529461178447364,0.755070202808115,-0.8561142445697875,-0.0691227649105979,-19.336907612812645,69.79719316701559,-51.57609144755957,20.408087905956837,0.2551288332218781,8.846506410462698,-13.6109825933279,9.088108459621159,-2.2185066346489104,-0.29589200000000004,0.20916699999999988,-0.862368,0.24557799999999985,-0.07713900000000007,-0.864602,0.5414699999999999,0.28630599999999995,0.0022339999999999582,0.47766,0.5,flight,-0.862368
124,1.033333,jog,1.0855634225368689,-0.7669506780271119,0.1221648865954706,-0.6042799579861079,0.7578273811935261,-0.3822494732287315,0.17916716668666033,-0.30889235569420487,0.3307332293291684,0.6137045481819241,-0.7824312972518728,-0.10344413776550901,-2.3905912434795837,1.4257140548451182,-7.387791011458976,-12.701816124968266,-3.2258580634795235,-4.147531795908396,-16.964557137428105,8.842307370444427,-4.118729491768931,-0.30344499999999996,0.21298400000000006,-0.86063,0.24164600000000003,-0.077268,-0.8664820000000001,0.545091,0.29025200000000007,0.005852000000000079,0.4414799999999999,0.5,flight,-0.86063
125,1.041667,jog,1.1210703143748835,-0.7774178065754902,0.07967362610991248,-0.7016387304805171,0.7057894255241001,-0.4048456781956,0.23518118550515948,-0.3028557715382792,0.335973122150234,0.48212143028559556,-0.6883849292056757,-0.15706743460523345,4.260486181667298,-1.2559549494094646,-5.098543374797088,6.7211445666546945,0.7243321521389234,0.6287368395807209,-15.788711050675671,11.284661392632449,-6.434280878296792,-0.3108280000000001,0.2169390000000001,-0.8584940000000001,0.236321,-0.07652599999999998,-0.8684550000000001,0.5471490000000001,0.2934650000000001,0.009960999999999998,0.40039,0.5,flight,-0.8584940000000001
126,1.05,jog,1.197047881915237,-0.9687987519500607,0.36601464058561667,0.3610361729741009,-1.9349265886991502,-1.7907165213280882,0.27433097323892597,-0.5366614664586528,0.3969758790351551,0.3564142565702466,-0.5845433817352675,-0.20244809792391436,9.117672811754739,-22.966632110232467,34.36229622893306,4.6981624545500775,-28.057805702672443,7.320623651136446,-15.085464264412186,12.461484155814997,-5.4458974341389785,-0.31851699999999994,0.22054000000000007,-0.858236,0.22931600000000008,-0.07332400000000006,-0.8731920000000001,0.547833,0.2938640000000001,0.01495600000000008,0.35043999999999986,0.5,flight,-0.858236
127,1.058333,jog,1.2364094563782873,-0.6825873034921491,-0.07656306252250489,0.027322064314571265,3.3562427762673774,0.1269048153051627,0.2568102724109025,-0.3672146885875544,0.2826113044521802,0.23460938437536863,-0.5031801272050931,-0.22680907236289527,4.723577878681216,34.3467476848571,-53.11144883092831,-2.1025682020909207,20.334426721600853,-13.724297921873987,-14.617169350159498,9.763981102865138,-2.9234338700325377,-0.3266800000000001,0.22316800000000003,-0.855243,0.22096799999999983,-0.07182900000000003,-0.874444,0.5476479999999999,0.29499700000000006,0.019201000000000024,0.30799000000000004,0.5,flight,-0.855243
128,1.066667,jog,1.2095032397407954,-0.783177345812323,0.024118070554356275,-0.34110305579003974,1.1295102388774292,-0.2007831440906795,0.3194144468442431,-0.401607871370286,0.3057355411567045,0.09623230141590897,-0.4136069114470784,-0.2772978161747048,-3.2284877174815954,-12.069839491261472,12.080769507662634,7.511899980002414,-4.126851785784894,2.774686429628524,-16.60392164140372,10.74792605687713,-6.058164604248756,-0.334098,0.226348,-0.852896,0.21169000000000016,-0.06874900000000006,-0.8769560000000001,0.5457880000000002,0.29509700000000005,0.02406000000000008,0.2594,0.5,flight,-0.852896
129,1.075,jog,1.1642865714628812,-0.9011160446417925,0.22044881795271742,-0.72601372299865,-1.0734253657772204,-0.7364670035970452,0.3698547941917745,-0.443537741509655,0.29581183247330267,-0.029041161646475182,-0.3367334693387736,-0.32161286451458376,-5.426217242039443,-14.153209987935988,23.560632113088076,6.053083805056031,-5.031785688151858,-1.1908926777153368,-15.033416904162403,9.225182060279067,-5.318018521526388,-0.3407180000000001,0.23016100000000006,-0.852268,0.20174599999999998,-0.06404600000000005,-0.881473,0.5424640000000001,0.2942070000000001,0.029204999999999925,0.2079499999999999,0.5,flight,-0.852268
130,1.083333,jog,1.195367814712554,-0.9534381375254952,0.2851314052562106,0.9963013635033157,-0.8069492600346642,-1.1737773617216356,0.3778951158046338,-0.4798991959678406,0.08004320172806617,-0.14340573622945352,-0.2606504260170303,-0.36349453978158536,3.729898385896102,-6.2789023021363,7.762220965257657,0.964877188630642,-4.363549076945269,-25.893271420284737,-13.724297921874035,9.130330411825511,-5.0260020721229886,-0.3475299999999999,0.23410700000000007,-0.8539770000000001,0.19059000000000004,-0.05827299999999991,-0.886878,0.5381199999999999,0.29238,0.03290099999999996,0.17099000000000003,0.5,flight,-0.8539770000000001
131,1.091667,jog,1.216342692584624,-0.780057595392381,-0.16858651307896896,-0.5452041298642496,1.9036817552313494,0.21630258869864086,0.40784737221022255,-0.49880009599232605,0.2612191024718087,-0.23674106071514758,-0.1683465322774262,-0.42788576913847703,2.5167840019282908,20.804000735915235,-54.441794856634054,3.5939832500107163,-2.2679265688127943,21.739368939734337,-11.199342990844233,11.075581202256526,-7.72632941647383,-0.354268,0.23645100000000008,-0.8503949999999999,0.17847999999999997,-0.05317499999999997,-0.8890389999999999,0.532748,0.28962600000000005,0.03864400000000001,0.11355999999999988,0.5,flight,-0.8503949999999999
132,1.1,jog,1.197527901116019,-0.7643105724228785,-0.1129245169806736,-0.3744719929877865,0.8464094436491265,-0.01205878509282474,0.38425537021481976,-0.4802592103684137,0.27529101164045966,-0.26857074282970395,-0.057002280091203034,-0.4153366134645303,-2.2578652908441925,1.889718345074067,6.67970672006413,-2.8311534855877087,2.224995274680433,1.6886966481040118,-3.8197146423323898,13.361844736135989,1.5059589192303482,-0.36104499999999984,0.23881799999999997,-0.84716,0.16626300000000005,-0.04728100000000002,-0.891559,0.5273079999999999,0.286099,0.044398999999999966,0.05601000000000006,0.5,flight,-0.84716
133,1.108333,jog,1.180847233889375,-0.7909516380655315,-0.08832353294131352,-0.36490610094883164,0.0025833652996759245,-0.2043700050936032,0.4128165126604967,-0.5028201128045067,0.344533781351257,-0.20952838113525035,-0.05856234249370556,-0.38197527901116457,-2.001760137602798,-3.197055759348764,2.9522361741702032,3.42747419244896,-2.707416588994743,8.309464743885513,7.085366818007216,-0.18721497689938071,4.003520275214935,-0.367445,0.24121900000000007,-0.843553,0.15467699999999995,-0.04117800000000005,-0.8940060000000001,0.522122,0.2823970000000001,0.05045300000000008,0.0,0.5,flight,-0.843553
134,1.116667,jog,1.1820254379649602,-0.7423806095512366,-0.1587473002159904,-0.2841451620846351,0.277614962281028,-0.0071468277878345456,0.43856491480680776,-0.5159587233021283,0.4266858651307867,-0.07187425005999659,-0.08447324214061934,-0.22570194384448997,0.14137317921588816,5.828057177141166,-8.450176058876451,3.089561092669892,-1.5765071391434557,9.85746145662696,16.51717435508192,-3.1090592328909987,18.75130011599153,-0.3736410000000001,0.24310600000000016,-0.8386739999999999,0.14422699999999988,-0.03569499999999992,-0.8945639999999999,0.517868,0.2788010000000001,0.055889999999999995,0.0,0.5808639709188279,single,-0.8386739999999999
135,1.125,jog,1.1569662786511579,-0.7044281771270833,-0.1939277571102803,-0.004558510264186646,0.018243882418192123,-0.10657786681091931,0.532581303252128,-0.6006240249610217,0.686907476299059,0.03876155046202762,-0.16680667226689247,-0.1548061922476921,-3.007219406432563,4.554474069861239,-4.221823700262836,11.282417910154944,-10.160242608771654,31.227842453891117,13.276827135728455,-9.880406831426123,8.507830504836015,-0.3788440000000002,0.24397099999999994,-0.831334,0.13490899999999995,-0.031214999999999993,-0.894238,0.5137530000000001,0.27518599999999993,0.06290399999999996,0.0,0.6152494283261623,single,-0.831334
136,1.133333,jog,1.1473658946357876,-0.7094683787351593,-0.2031681267250642,0.017405136677154685,-0.2947116582480528,-0.08656434108514843,0.4870994839793678,-0.49501980079202834,0.5814232569302811,0.16560662426496453,-0.14640585623425056,-0.16260650426017131,-1.1520921655310585,-0.6048483869046084,-1.108888709322453,-5.458036634196646,12.673013820832157,-12.658612668760219,15.222017737062052,2.448195851751121,-0.9360748844928942,-0.3843460000000001,0.24575800000000003,-0.8247960000000001,0.12672799999999995,-0.026522999999999963,-0.8939,0.511074,0.272281,0.06910399999999994,0.0,0.5426492229765165,single,-0.8247960000000001
137,1.141667,jog,1.1289896808255255,-0.72570194384448,-0.18154547636190138,0.00389457207231706,-0.829459481130149,-0.28539990528031317,0.6124310055195534,-0.6756659467242498,0.768178545716339,0.12766978641708013,-0.21046316294696663,-0.1221502279817603,-2.204969259690661,-1.94787198335979,2.5945104827409002,15.038579498462283,-21.675803447590607,22.408841946971027,-4.552056377235915,-7.686261904573503,4.8543648042249465,-0.3886510000000001,0.24617500000000003,-0.816881,0.1183829999999999,-0.022229000000000054,-0.893405,0.507034,0.2684040000000001,0.07652400000000004,0.0,0.5420001348938205,single,-0.816881
138,1.15,jog,1.063122524901,-0.6854674186967602,-0.26413056522259903,-0.1917443033550258,-0.9343333526233127,0.04427462599408374,0.6283451338053602,-0.6669866794672057,0.8059522380895309,0.08916356654268175,-0.18840753630144902,-0.14604584183367503,-7.904374885938585,4.8283361511724605,-9.910607087567312,1.9097717851682328,1.0415537329946278,4.533024405759292,-4.620931222176735,2.646781068704885,-2.867588365764424,-0.392274,0.2463289999999999,-0.807964,0.11026700000000011,-0.018086999999999964,-0.892421,0.5025410000000001,0.2644159999999999,0.084457,0.0,0.5758114633971381,single,-0.807964
139,1.158333,jog,1.0358814352573888,-0.5922236889475503,-0.42469698787951615,-0.9412735940645338,-0.6124748594047362,0.5059472637790506,0.7629905196207818,-0.8107524300971878,0.890195607824295,0.03276131045241365,-0.220568822752907,-0.06408256330253095,-3.2690615196940565,11.189695157711302,-19.268741468488457,16.158092621555173,-17.252580178804703,10.109608752521615,-6.768541472490953,-3.8595087545250726,9.835986863211645,-0.3945479999999999,0.24450799999999995,-0.797007,0.10190800000000011,-0.014989999999999948,-0.889416,0.496456,0.2594979999999999,0.09240899999999996,0.0,0.6133100439751303,single,-0.797007
140,1.166667,jog,1.058915286777088,-0.6193904487641106,-0.5329973602111867,0.08725442280110605,1.1963514398301227,0.874562083301492,0.880489560835158,-1.0265178785697182,1.0548356131509704,0.02603791696663257,-0.02843772498200711,-0.22726181905447995,2.763841075077933,-3.2597503979554685,-12.995005079394362,14.098757045161793,-25.889782634093418,19.755220221583702,-0.8067426788794345,23.053887421514705,-19.579944294690677,-0.3960349999999999,0.24111500000000008,-0.783774,0.09329999999999994,-0.01006499999999999,-0.886868,0.48933499999999985,0.25118000000000007,0.10309400000000002,0.0,0.6158175645967114,single,-0.783774
141,1.175,jog,0.9947197887915331,-0.6543861754469981,-0.3775351014040607,-0.18693569501169444,-1.202553624164327,0.36811691401131,1.0453618144725503,-1.0865234609384327,0.8954758190327452,0.03984159366374573,-0.08076323052922392,-0.1470058802352073,-7.7037679089828,-4.199655188153943,18.656217305547013,19.785461854960932,-7.200957922562511,-19.12394025179676,1.6565074639521078,-6.279311838139432,9.631097902228639,-0.395613,0.2375139999999999,-0.7731659999999999,0.08534299999999995,-0.005285000000000095,-0.8849469999999999,0.48095599999999994,0.242799,0.11178100000000002,0.0,0.7126713998122257,single,-0.7731659999999999
142,1.183333,jog,0.9459978399136153,-0.6619464778591296,-0.4261370454818197,-0.19650957364118185,-1.4588260313061192,0.6343521081675584,1.2109684387375692,-1.289571582863317,0.8393135725429094,0.028321132845329073,-0.011280451218040121,-0.11892475699028056,-5.846867740059793,-0.907272580359011,-5.83246658799465,19.87358985539667,-24.36674930095838,-6.739739168347093,-1.3825105986339565,8.338267048024052,3.3698695841746074,-0.393405,0.23228400000000005,-0.762621,0.07769599999999999,0.00013700000000005375,-0.882387,0.471101,0.232147,0.11976600000000004,0.0,0.7953836043652345,single,-0.762621
143,1.191667,jog,0.9131269498439929,-0.6723062155027443,-0.4748020158387279,-0.4162915495142733,-2.079921597131644,0.3734977995582839,1.426205903527688,-1.5814734821214145,0.8255339572834107,0.012718982481394128,-0.032277417806570875,-0.09947204223661989,-3.944191273052814,-1.2430690717080108,-5.839329296485221,25.826429660441217,-35.02542587690128,-1.6534215574152342,-1.8721082750101783,-2.519434435868802,2.3341390393161174,-0.38912900000000006,0.224707,-0.751784,0.07019200000000003,0.005471000000000004,-0.879259,0.4593210000000001,0.219236,0.127475,0.0,0.824419285715263,single,-0.751784
144,1.2,jog,0.8988359534381454,-0.6366254650186071,-0.5550222008880394,-1.4431903081632154,-3.3330455414016678,0.19676089449193684,1.5533421336853697,-1.6529461178447233,0.8027121084843468,-0.006720268810759212,-0.03168126725069535,-0.08064322572902978,-1.7149881682284476,4.2818613325498065,-9.626807278208602,15.256957897237836,-8.57705936917191,-2.7387314051438993,-2.33280346719711,0.07154092834219708,2.259548362845347,-0.383675,0.21623800000000004,-0.74047,0.06264599999999998,0.010511999999999966,-0.875306,0.44632099999999997,0.20572600000000008,0.13483600000000007,0.0,0.8551610610647306,single,-0.74047
145,1.208333,jog,0.8899555982239241,-0.6781471258850322,-0.49189967598702655,-1.5315350274172805,-4.24303002324401,-0.01580695282535857,1.8165126605063833,-1.8327133085323168,0.7538701548061769,-0.10140405616224288,-0.0955238209528387,0.005040201608064279,-1.065685253116657,-4.98279861591557,7.575005988360949,31.581726487580582,-21.572925799542826,-5.861268892135971,-11.362508982537143,-7.661412900773099,10.2824225773542,-0.3759540000000001,0.20661700000000005,-0.730089,0.054384999999999906,0.01536700000000002,-0.8711650000000001,0.430339,0.19125000000000003,0.1410760000000001,0.0,0.7676629208346247,single,-0.730089
146,1.216667,jog,0.9599232061435277,-0.6925845932325545,-0.5173986081113588,-0.2885002915362662,-1.7652965418878561,0.38962263439950673,1.8863690904728097,-1.8972882169426863,0.664026877849786,0.005879529637624991,-0.05771538276937399,-0.010439164866811302,8.395441315047382,-1.732357493103257,-3.0596270847531537,8.382101027889094,-7.7483691397133105,-10.780330808302454,12.873000455947913,4.536649650043849,-1.8573753869541487,-0.36823300000000003,0.196577,-0.7202430000000001,0.046433999999999864,0.020658000000000065,-0.86694,0.4146669999999999,0.17591899999999994,0.14669699999999997,0.0,0.901756956139781,single,-0.7202430000000001
147,1.225,jog,0.9668786751469867,-0.6801872074882884,-0.5089403576143017,0.32354505294294267,-1.1456368515629844,0.5957860180438994,2.0030001200047667,-1.9711988479538765,0.548061922476888,0.040081603264136643,-0.03132125285012147,-0.02580103204128119,0.8346896680017858,1.487745799143869,1.015030660873278,13.996283395170405,-8.86963050656292,-13.916351298799466,4.104413011701795,3.1674222872017355,-1.843497800848388,-0.359599,0.18581900000000007,-0.711435,0.03871099999999994,0.026065000000000005,-0.862914,0.39830999999999994,0.15975400000000006,0.15147899999999992,0.0,0.9049378996141044,single,-0.711435
148,1.233333,jog,0.9668786751470124,-0.7203888155526263,-0.5316212648506042,0.25171296696000217,-1.3159780362041387,0.3740355941806247,2.051842073682946,-2.010680427217116,0.4120964838593606,0.013320532821309641,-0.0367214688587581,-0.025681027241089747,3.0909845399380616e-12,-4.824385943158322,-2.721817741065975,5.861268892137273,-4.737979030750037,-16.31650529431521,-3.211456911415726,-0.6480518431101262,0.014401152069055793,-0.35055800000000015,0.17506699999999997,-0.703571,0.03076499999999993,0.03176199999999996,-0.858698,0.3813230000000001,0.14330500000000002,0.15512700000000001,0.0,0.922085908599672,single,-0.703571
149,1.241667,jog,1.13714902807774,-0.7253419726421791,-0.5979121670266284,-0.6288383028244873,-1.308239512478119,0.03999738978574223,2.181905447564202,-2.1366690664746546,0.32157427405807143,-0.012958963282936905,-0.01367890568753859,0.004679625629949253,20.4308078870562,-0.5943313042419915,-7.954271919369291,15.60635635724202,-15.11742731671916,-10.86179623245602,-3.1532872695279996,2.764886389635149,3.6429869055722066,-0.3418509999999999,0.16330500000000003,-0.695908,0.021179999999999977,0.037692999999999977,-0.853676,0.3630309999999999,0.12561200000000006,0.15776800000000002,0.0,0.967641500935545,single,-0.695908
150,1.25,jog,1.0104404176167252,-0.7452298091923804,-0.47869914796592544,0.2152255677834397,-1.3793344209061347,0.06953519273199524,2.3751350054002147,-2.163326533061344,0.24648985959438607,-0.016920676827066845,-0.01176047041882196,-0.0042001680067203446,-15.205641480981166,-2.3866358514582253,14.306134532665794,23.188474479300893,-3.1990239513608163,-9.010490155248535,-0.47542464228128833,0.23022144110364187,-1.0656178611148062,-0.3304790000000002,0.15148800000000007,-0.689865,0.012618999999999936,0.04380499999999998,-0.849722,0.3430980000000001,0.10768300000000008,0.15985700000000003,0.0,0.9649500602297751,single,-0.689865
151,1.258333,jog,0.9728789151565989,-0.7191887675507117,-0.2814112564502522,0.40543950485556274,-2.6780130056488476,0.5063594499567196,2.6404656186247686,-2.284531381255281,0.19908796351854183,-0.02748109924397418,-0.02376095043800819,-0.006840273610943847,-4.507560597639109,3.1250499990002267,23.67549400164107,31.840947224835748,-14.54516358981616,-5.688455067304054,-1.2673013820841752,-1.4401152069106373,-0.316825345520644,-0.31658300000000006,0.138444,-0.685861,0.004283000000000037,0.04960000000000009,-0.847434,0.3208660000000001,0.08884399999999992,0.16157299999999997,0.0,0.9383877960220539,single,-0.685861
152,1.266667,jog,1.0631149508039384,-0.717422606191494,-0.4101271898248147,-0.6318372162540687,-1.696548874506745,0.24355720374081546,2.70326373890087,-2.371010319174448,0.1372690184785214,-0.018478521718260896,-0.001679865610759468,-0.016078713702903907,10.827458081034175,0.21192240931337725,-15.444676430832915,7.535171619402562,-10.376642418906428,-7.417679990403161,1.0802228852547653,2.649518217812402,-1.1085241291048704,-0.3029140000000001,0.12466299999999997,-0.681299,-0.004731000000000041,0.055564999999999976,-0.84415,0.2981830000000001,0.06909799999999999,0.16285099999999997,0.0,0.9590799306335984,single,-0.681299
153,1.275,jog,0.9481579263170536,-0.6771870874835,-0.43969758790352026,-0.5668243127129752,-0.723058138337077,0.9606964267319242,2.74162966518665,-2.421456858274343,-0.026641065642625944,-0.017880715228603874,0.0012000480019279496,-0.007920316812673005,-13.795394754216462,4.828455383174654,-3.5485897130332185,4.604095318106347,-6.0538268450613035,-19.66999689441364,0.07173964834477715,0.3456034576607997,0.9790467886992651,-0.2879689999999999,0.110128,-0.677857,-0.012780999999999931,0.061217999999999995,-0.840552,0.275188,0.04891000000000001,0.16269499999999992,0.0,0.9673447506896982,single,-0.677857
154,1.283333,jog,1.0676827073082789,-0.683547341893668,-0.45601824072962427,-0.6616463265666834,-0.13801539049136985,0.8328848629422045,2.850714028561089,-2.3932557302291726,-0.054962198487936896,-0.01740069602784822,-0.02112084483380078,-0.0037201488059517298,14.343547460845208,-0.7632610596625289,-1.9585566813997028,13.090647230821704,3.384270736249864,-3.398671888312787,0.05760460827500839,-2.6786142848587953,0.504040322419441,-0.273111,0.095881,-0.674515,-0.021823000000000037,0.06673799999999996,-0.8367829999999999,0.25128799999999996,0.02914300000000003,0.16226799999999997,0.0,0.9539712102204414,single,-0.674515
155,1.291667,jog,0.998680105591568,-0.6777057835373282,-0.37664986801056666,-0.844344999784299,-0.5684321807554699,1.2125375322207677,2.7908567314615262,-2.416006719462491,-0.24166066714663476,-0.029397648188151593,-0.05015598752098949,0.0175185985121194,-8.279649834018745,0.7009309282865149,9.523442850859025,-7.182301067862241,-2.729900315972958,-22.402024077118,-1.4395190977086154,-3.4839384073901196,2.5484458025043835,-0.25817500000000004,0.08139399999999997,-0.6733899999999999,-0.030391000000000057,0.07196800000000003,-0.833498,0.227784,0.009425999999999934,0.16010800000000003,0.0,0.8988023647478085,single,-0.6733899999999999
156,1.3,jog,0.9807992319692599,-0.6921876875074876,-0.3639745589823472,-0.30342411164595623,-0.25700887555544044,1.0926614418203862,3.0476419056761705,-2.5713428537141003,-0.20784831393255168,-0.02448097923915365,0.04272170886834342,-0.03816152646105764,-2.1457906663035815,-1.7378979923387863,1.5210979273033995,30.815453523897734,-18.641081753462956,4.057644691477557,0.5900238748347361,11.145769397495654,-6.68188227207201,-0.24095200000000006,0.06573499999999999,-0.672089,-0.038767999999999914,0.07809199999999994,-0.830783,0.20218400000000014,0.012356999999999951,0.158694,0.0,0.8961736913160391,single,-0.672089
157,1.308333,jog,1.0103204128165297,-0.7590303612144585,-0.3876155046201963,-0.13560239173623762,-0.05666820884261709,1.2720007358383634,3.054362174487011,-2.53138125525024,-0.4150966038641605,-0.02868114724590213,-0.0055202208088312625,0.002040081603263691,3.542683409008774,-8.021441702504687,-2.83702695762022,0.8064645158814802,4.795583639008823,-24.87078962337822,-0.5040403224227188,-5.789263131786287,4.824385943156329,-0.2239190000000001,0.050965999999999956,-0.672318,-0.04742600000000008,0.08437099999999997,-0.8275359999999999,0.176493,0.03340500000000002,0.15521799999999997,0.0,0.9512021466186111,single,-0.672318
158,1.316667,jog,1.0347972162226902,-0.7308615310775032,-0.26025917926565395,-0.740386253243877,-0.8112369496345037,1.2118711964652538,2.95140388768896,-2.58999280057593,-0.3456923446124277,-0.015958723302128355,-0.016558675305971972,0.0040796736261097975,2.9369814502232114,3.3799892172972346,15.281536519623394,-12.354006095278374,-7.032822813257675,8.32784488261726,1.526568747753021,-1.3245085789705575,0.24473146422439293,-0.20794600000000008,0.03547199999999995,-0.67303,-0.05618299999999998,0.09032399999999996,-0.825333,0.1517630000000001,0.05485200000000001,0.15230299999999997,0.0,0.9610729202290403,single,-0.67303
159,1.325,jog,0.9809192367694815,-0.7643105724229122,-0.3271330853234167,-0.09512641132095127,-0.0481444990873278,1.2292100720780768,3.322452898115967,-2.6085443417736958,-0.5232209288371586,0.03012120484819435,-0.08340333613344623,-0.0013200528021117513,-6.465616159031466,-4.014045523270053,-8.02518973452098,44.52766235773556,-2.2262739946916916,-21.304282278259038,5.529812570541597,-8.021680166503645,-0.6479930911102362,-0.188434,0.02010400000000001,-0.6746639999999999,-0.064106,0.09599800000000003,-0.822618,0.124328,0.07589400000000002,0.14795400000000003,0.0,0.8521905693967184,single,-0.6746639999999999
160,1.333333,jog,1.0508820352813946,-0.789271570862814,-0.15084603384134532,-0.9456159822757616,-0.49026348886794446,1.2300504343980119,3.174606984279313,-2.5893435737428994,-0.5855034201367946,-0.011160446417871011,-0.007200288011514212,0.012600504020160696,8.395871656295679,-2.995439630373371,21.155292389543774,-17.742219349172153,2.3041843310687704,-7.474197923873135,-4.9539963117802275,9.144731563894238,1.670533640018265,-0.17073700000000003,0.005103999999999997,-0.6782860000000001,-0.07295600000000013,0.10251500000000002,-0.821256,0.0977809999999999,0.09741100000000003,0.14296999999999993,0.0,0.9694871423614655,single,-0.6782860000000001
161,1.341667,jog,1.0682745380369767,-0.7810175185985254,-0.16270698344133064,-0.4457816007250014,-0.126424851664963,1.548231334290955,3.2870170386369617,-2.648668106551531,-0.6538276937845108,-0.02771778257737876,-0.01295896328293725,0.005879529637629153,2.086933375999815,0.9904070391515124,-1.4232000959905864,13.488127472720286,-7.11837446707856,-8.198256977167928,-1.986721401428853,-0.6909857537104809,-0.8064524097110236,-0.1522460000000001,-0.010461000000000054,-0.6823790000000001,-0.08209,0.10891600000000001,-0.819851,0.07015600000000011,0.11937700000000007,0.13747199999999993,0.0,0.9480711205072233,single,-0.6823790000000001
162,1.35,jog,1.118324732989296,-0.8693147725908918,-0.09684387375494877,-1.0184076002004512,-0.11131015149672678,1.6285045061623658,3.3241329653185616,-2.6289451578062675,-0.6561862474498866,-0.04044161766470969,0.02232089283570205,-0.030961238449537593,6.006263644824007,-10.5960943228567,7.903889317938404,4.454089365366526,2.366848523372511,-0.28303776135555136,-1.5269212873311782,4.233752084320015,-4.421069013220461,-0.133865,-0.025124000000000035,-0.68704,-0.091746,0.11634599999999995,-0.819302,0.04211900000000002,0.14146999999999998,0.132262,0.0,0.9073185715796881,single,-0.68704
163,1.358333,jog,1.0673226929077209,-0.8771150846033934,-0.0468018720748836,-0.7555035227644029,0.5612861009252448,1.2186981678573583,3.3166926677067448,-2.6445457818312943,-0.6993879755190271,0.023880955238216976,0.003960158406343581,-0.019320772830913584,-6.120489629374251,-0.9360748844955722,6.005280412824388,-0.8928714282751623,-1.8721497689939954,-5.184414744886698,7.719017509051634,-2.2033762665736996,1.396911750704922,-0.11512099999999992,-0.039852,-0.692478,-0.10044099999999989,0.12368800000000002,-0.819073,0.014680000000000026,0.16354000000000002,0.126595,0.0,0.948379721349152,single,-0.692478
164,1.366667,jog,1.1637868970482288,-0.890568754499638,0.03527717782577564,-1.1103672689343569,0.34488931739548284,1.3987415812698567,3.3994480441564408,-2.6990640748739914,-0.6557475401967789,-0.04367650587953302,-0.029277657787379424,0.03827693784497209,11.574778514579698,-1.614311242649932,9.848698092231656,9.929850785900571,-6.541671831377087,5.2364333240038174,-8.106246834383187,-3.9882188857358716,6.9111723873152435,-0.09648899999999994,-0.05492399999999997,-0.698237,-0.11050399999999994,0.13086600000000004,-0.819048,0.014015,0.18579,0.120811,0.0,0.8916033213128276,single,-0.698237
165,1.375,jog,1.140045601824091,-0.9375975039001596,0.03252130085203692,-0.42634300863830055,0.9254141472530062,1.237329818296288,3.5714628585143644,-2.764910596423876,-0.6491059642385751,-0.036841473658953565,-0.029521180847230374,0.04332173286931519,-2.8490693896721506,-5.643675675089646,-0.3307184655872728,20.642603427088112,-7.901898661932711,0.7970209958242969,0.8202366759365796,-0.029223936139559797,0.605399618905934,-0.07622800000000007,-0.07015099999999996,-0.703917,-0.12031100000000006,0.13843300000000003,-0.8189580000000001,0.04408299999999998,0.208584,0.11504100000000006,0.0,0.8932088377723117,single,-0.703917
166,1.383333,jog,1.1602064082563421,-0.8970358814352667,0.11820472818913029,-0.43184858581212276,1.1931351495411024,1.0268338808545336,3.5337813512540825,-2.709588383535368,-0.6639865594623858,-0.054602184087348654,-0.02232089283571597,0.08892355694227834,2.4193935476120654,4.86758939936317,10.282422577354392,-4.521961749703852,6.638931103865178,-1.7857428565715618,-2.1313705062276793,0.8640691241467021,5.472437786267078,-0.05644900000000008,-0.08525499999999997,-0.710435,-0.13043399999999994,0.14572200000000002,-0.8192020000000001,0.07398499999999986,0.230977,0.10876700000000006,0.0,0.8221500340224406,single,-0.710435
167,1.391667,jog,1.3878089752819627,-1.0015598752099748,0.3717302615790629,-2.341872871225371,0.1401761593563663,1.149025673379833,3.382529397648168,-2.7574994000479784,-0.7248620110391102,-0.026757859371260205,-0.023998080153584886,0.08099352051835815,27.3101232332156,-12.541875902892647,30.420630356363173,-18.14878253010719,-5.748862072547404,-7.304469831620338,3.3410516817960447,-0.2012463784339936,-0.951528248610527,-0.039825,-0.099889,-0.7195739999999999,-0.142223,0.15386900000000003,-0.8216249999999999,0.10239799999999999,0.25375800000000004,0.102051,0.0,0.8523156401199229,single,-0.7195739999999999
168,1.4,jog,1.2887315492619755,-1.042361694467785,0.2398895955838223,-0.5389814474752433,0.8956216204678108,0.7138278039651224,3.6183847353894434,-2.74594983799354,-0.7657506300252077,-0.014280571222846672,-0.020880835233410427,0.08076323052922191,-11.88976671306709,-4.89641416750396,-15.821512779940216,28.30377267986049,1.386002886648108,-4.90683055155381,1.497334471188485,0.3740843537950903,-0.027635904132514325,-0.020411999999999986,-0.11408499999999999,-0.727954,-0.1530809999999999,0.162381,-0.822951,0.13266899999999993,0.276466,0.094997,0.0,0.8589459973389637,single,-0.727954
169,1.408333,jog,1.3906156246249657,-1.1380055202207913,0.22920916836674005,0.20815074993750665,1.0531716567430898,-0.028358746780156263,3.5205808232328746,-2.7748709948397456,-0.6449057962318367,-0.013680547221882333,-0.020160806432263777,0.09024360974438851,12.226578106682872,-11.477718199088523,-1.281702534151215,-11.736938936345505,-3.4706776486505784,14.501960133609606,0.07200576034613328,0.08640691241409305,1.137691013460511,-0.002662999999999971,-0.12772499999999998,-0.7352380000000001,-0.1647829999999999,0.17169599999999996,-0.824109,0.16211999999999993,0.29942099999999994,0.08887099999999992,0.0,0.8442087883309947,single,-0.7352380000000001
170,1.416667,jog,1.3162946964243154,-1.0892728581713707,0.12838972882169855,0.2575608866866137,3.326050298940434,0.19193675642370336,3.5022798176146566,-2.7562994960403713,-0.6412287017038777,0.0009599232061444868,-0.032997360211173436,0.09263258939284973,-8.917797960241383,5.847451649798601,-12.097364956208713,-2.1959449985863166,2.228401583798262,0.4412160460714095,1.7567159140901245,-1.5402632324105956,0.2866546254453156,0.015554999999999986,-0.14161799999999997,-0.7416520000000001,-0.17574499999999993,0.18049900000000008,-0.8244070000000001,0.19129999999999991,0.32211700000000004,0.08275500000000002,0.0,0.8361017943704426,single,-0.7416520000000001
171,1.425,jog,1.4514580583223036,-1.1594863794551518,0.3366134645385692,-0.43498634006198794,0.9269458480899956,0.46609945387792434,3.5045001800071365,-2.7641905676226566,-0.6411856474258842,0.04992199687987096,-0.058562342493704,0.07740309612384356,16.22025223784781,-8.425959592437284,24.98784779993604,0.26645414526339545,-0.9469664685329611,0.005166720028014839,5.8756838682018016,-3.0679205907272427,-1.8276122967725783,0.032663,-0.15499000000000002,-0.7498,-0.18742399999999992,0.18967299999999998,-0.826567,0.22008699999999992,0.344663,0.07676700000000003,0.0,0.8180889028155915,single,-0.7498
172,1.433333,jog,1.450738029521196,-1.1740069602784202,0.5275411016440652,-1.0321579778496108,1.2208602735701428,0.2383364643059624,3.4995799831993626,-2.7805112204488465,-0.5937837513500603,0.030721228849158323,-0.06864274570983106,0.2350894035761455,-0.08640691240940351,-1.7425394003682457,22.912232941977408,-0.5904472348222652,-1.9585566814100606,5.6884550673016125,-2.3041843310587793,-1.2096967738062108,18.923113818829158,0.049736,-0.16837700000000005,-0.7591439999999999,-0.1992569999999999,0.19888399999999995,-0.829004,0.2489929999999999,0.367261,0.06986000000000003,0.0,0.5886247721416793,single,-0.7591439999999999
173,1.441667,jog,1.4898008159347118,-1.1841852651787788,0.4324454043676535,0.20542639381588093,1.0737410487780576,-0.07302179209870126,3.5256779457643046,-2.7567794576433635,-0.5933525317974523,0.12071034317252612,-0.013558915286780522,0.28065754739620624,4.6871593968701095,-1.2212988841322845,-11.410570827503117,3.131504987394026,2.8475837299595352,0.051742206936411066,10.79782989241266,6.609530888294951,5.46773983922011,0.06670299999999996,-0.181483,-0.767693,-0.21066700000000005,0.20863999999999994,-0.830269,0.27737,0.39012299999999994,0.06257600000000008,0.0,0.5,flight,-0.767693
174,1.45,jog,1.402136085443434,-1.278291131645277,0.6209048361934548,-0.7418045287507374,1.285510424075173,-0.13051566909605936,3.5499819992800035,-2.7627505100204313,-0.49201968078723507,0.15924636985480503,0.0074402976119053235,0.3513740549622017,-10.520188466492101,-11.293155702207978,22.61603646055479,2.916603086007331,-0.7165549474460335,12.160428538367713,4.6245081822008,2.5200063480962482,8.486320360733961,0.08460099999999993,-0.19385300000000005,-0.776967,-0.221024,0.21935399999999994,-0.832515,0.3056249999999999,0.413207,0.05554800000000004,0.0,0.5,flight,-0.776967
175,1.458333,jog,1.6233049321972541,-1.319572782911294,0.6735869434777249,-2.6009766086481227,-0.030534217118494245,0.6982634069305894,3.4812192487698974,-2.759990399615935,-0.5275411016440562,0.220568822752907,0.06972278891156168,0.4462978519140688,26.541323263388495,-4.953996311774426,6.322105758342627,-8.251860135618006,0.33122649759942846,-4.26274101245896,7.3589887073204014,7.474197923875587,11.391311286675318,0.10008300000000003,-0.20585600000000004,-0.786976,-0.23271299999999995,0.230931,-0.834409,0.332796,0.43678700000000004,0.04743299999999995,0.02566999999999997,0.5,flight,-0.786976
176,1.466667,jog,1.499040076793882,-1.3034557235421496,0.6978641708663492,-0.5013737764210429,1.6958392200813917,0.1760720402420049,3.4414446844253064,-2.7156227501800356,-0.4635229181665561,0.2341012718982569,-0.0760739140868773,0.40952723782098205,-14.910589801220834,1.9338924129043356,2.913034243895468,-4.7725659160777285,5.323692036945092,7.681567491900807,1.6237639963223132,-17.49420482342714,-4.412120721512772,0.11627100000000001,-0.21762499999999996,-0.796655,-0.2432549999999999,0.24116000000000004,-0.836812,0.3595259999999999,0.458785,0.040157,0.09843000000000002,0.5,flight,-0.796655
177,1.475,jog,1.5345013800551746,-1.320892835713404,0.6933877355094022,0.15384017265795696,1.2499462162154595,0.07213827899516517,3.3914556582262674,-2.678627145085754,-0.4020160806432177,0.32701308052319916,-0.003840153606148019,0.6257050282011166,4.255526612419521,-2.092537162036977,-0.5371937305828507,-5.998923100808607,4.4396501973215905,7.3811157474303775,11.149863029514055,8.668397993607106,25.942372540517315,0.131745,-0.22893899999999995,-0.805783,-0.253317,0.252135,-0.837376,0.385062,0.48107399999999995,0.03159299999999998,0.1840699999999999,0.5,flight,-0.805783
