frame_id,timestamp,gait_type,root_linear_velocity_x,root_linear_velocity_y,root_linear_velocity_z,root_angular_velocity_x,root_angular_velocity_y,root_angular_velocity_z,left_linear_velocity_x,left_linear_velocity_y,left_linear_velocity_z,right_linear_velocity_x,right_linear_velocity_y,right_linear_velocity_z,root_acceleration_x,root_acceleration_y,root_acceleration_z,left_acceleration_x,left_acceleration_y,left_acceleration_z,right_acceleration_x,right_acceleration_y,right_acceleration_z,left_pos_rel_x,left_pos_rel_y,left_pos_rel_z,right_pos_rel_x,right_pos_rel_y,right_pos_rel_z,step_length,step_width,step_height,left_contact_prob,right_contact_prob,support_type,max_foot_height
1,0.008333,stand,-0.006120244809781858,-0.0258010320412908,-0.013560542421700437,-0.03813348534380519,-0.08795199584272832,0.0697940678011837,0.00864034561381987,-0.0022800912036470954,0.009840393615744479,-0.0030001200047932,0.00816032641305136,-0.0008400336013440611,0.0,0.0,0.0,0.0,0.0,0.0,0.0,0.0,0.0,-0.09672000000000003,-0.129162,-0.907775,0.031030000000000002,0.15084199999999992,-0.904465,0.12775000000000003,0.2800039999999999,0.003310000000000035,0.9778460102203795,0.9523419453697646,double,-0.904465
2,0.016667,stand,-0.0003599712023141669,-0.03011759059275272,-0.01715862730981572,-0.02842883647614282,-0.022782151146347344,0.08863097396342723,0.005879529637624878,0.0013198944084453137,0.008879289656827175,-0.003959683225349262,0.007319414446854902,-0.0032397408207342506,0.6911775386930274,-0.5179455905281884,-0.4317356477220163,-0.33127141543016464,0.4319637163537807,-0.11532324921013971,-0.11513837539669572,-0.10090136383446814,-0.28794183098034426,-0.09666799999999998,-0.12890000000000001,-0.907558,0.031000000000000028,0.151154,-0.904349,0.127668,0.280054,0.0032090000000000174,0.9821151231779013,0.9530262990269862,double,-0.904349
3,0.025,stand,-0.003240129605184117,-0.03552142085684315,-0.012840513620541009,0.029486402611726473,0.06399177648538866,0.11312636246119172,0.0014400576023055323,0.0020400816032695016,0.009840393615745312,-0.010320412816502996,0.009240369614770517,-0.00540021600864075,-0.3456328336577403,-0.648485571113696,0.5181943704877849,-0.5327579545565037,0.08642592041571918,0.11533708855371862,-0.7633180836617945,0.230523841103518,-0.2592673932445097,-0.09662899999999996,-0.1285869999999999,-0.9073690000000001,0.030941000000000107,0.15152699999999997,-0.9042870000000001,0.12757000000000007,0.28011399999999986,0.003082000000000029,0.9830795123068415,0.9443999854127143,double,-0.9042870000000001
4,0.033333,stand,-0.010200408016320862,-0.026401056042228123,-0.010080403216138727,-0.030366078153971243,-0.1120216146210571,0.12730512459737894,0.0018000720028785845,0.009360374414965976,0.0030001200047998617,-0.0031201248050019815,0.00732029281172312,-0.004080163206528178,-0.8352668200092098,1.0944875572560935,0.3312264975881774,0.043203456207014546,0.8784702762146256,-0.8208656679401716,0.8640691241450875,-0.2304184331030118,0.15841267276041907,-0.09652899999999998,-0.1282890000000001,-0.90726,0.031000000000000028,0.15180799999999994,-0.904237,0.127529,0.28009700000000004,0.003022999999999998,0.983345205190972,0.9548657130104512,double,-0.904237
5,0.041667,stand,-0.003959683225335941,-0.03287736981042806,-0.016918646508272944,-0.05277386024377536,-0.04083576568613536,0.10160931625181782,0.0013198944084453137,0.007319414446854902,0.008279337652987714,-0.007559395248371036,0.004439644828421497,-0.005999520038397099,0.7488270687526902,-0.7770954845452289,-0.8205235531718522,-0.05761670199583283,-0.24489560452496686,0.6334554413472343,-0.5326698396171172,-0.34565010598771573,-0.23030439547263273,-0.09648500000000004,-0.1279539999999999,-0.90705,0.030970000000000053,0.15211900000000012,-0.904146,0.1274550000000001,0.280073,0.0029040000000000177,0.9814510122268946,0.9532549204232583,double,-0.904146
6,0.05,stand,0.01848073922956768,-0.048601944077761756,-0.008280331213246818,-0.17216500450361552,0.09167702944698111,0.032413491407384205,0.007800312012491631,0.010800432017271508,0.00888035521420829,-0.004080163206539003,0.007080283211332203,-0.003720148805951795,2.6929584129249515,-1.8870243930557655,1.036639300975174,0.7776812197343475,0.4177388180027128,0.07212499234616294,0.41752454600168404,0.3168892815205456,0.27353548931300903,-0.09657399999999994,-0.127459,-0.906907,0.030781999999999976,0.15258300000000014,-0.904108,0.1273559999999999,0.2800420000000001,0.002798999999999996,0.9733148549447845,0.9570454447217682,double,-0.904108
7,0.058333,jog,0.0009600384015370216,-0.05220208808351892,-0.025081003240131374,-0.07248930968923559,0.030108324179790747,0.05478132785991251,0.008400336013428954,0.012840513620554333,0.008160326413056355,-0.003240129605184117,0.007200288011514338,-0.006600264010560361,-2.1025682020917627,-0.43203456207334273,-2.0161612896777337,0.07200576034289241,0.24481958517734617,-0.08640691241472867,0.10080806448516579,0.014401152067938907,-0.3456276496590143,-0.09651200000000004,-0.12691699999999995,-0.90663,0.03074699999999997,0.15307800000000005,-0.903954,0.127259,0.279995,0.0026760000000000117,0.9710347256593838,0.9560882206692193,double,-0.903954
8,0.066667,jog,-0.0022798176145897822,-0.04751619870411122,-0.01079913606911861,-0.0037038197463312274,-0.002159050359107634,0.07957334243009354,0.008759299256071605,0.01547876169905624,0.006599472042237392,-0.00407967362610733,0.008639308855273573,-0.006119510439165158,-0.388751621805472,0.5622617445893566,1.7136869655642863,0.043072143345650474,0.31656444426468766,-0.18728754149495602,-0.10073722353290292,0.17266868775608762,0.0576858137023282,-0.09641999999999995,-0.12639199999999995,-0.906485,0.03073199999999998,0.15354599999999996,-0.903915,0.12715199999999993,0.2799379999999999,0.002569999999999961,0.9683829152008909,0.9553901405487761,double,-0.903915
9,0.075,jog,0.0004800192007685112,-0.05436217448698393,-0.021120844833787844,0.026821250485299652,-0.002488576531074849,0.06743892398069098,0.011280451218040027,0.01656066242649365,0.007200288011520174,-0.0012000480019146163,0.013560542421700449,-0.004080163206528181,0.33119366558961905,-0.8215499559429634,-1.238654597944227,0.30255033744970894,0.12983328062371416,0.07210080034594772,0.34556889765903226,0.5905716508372592,0.24473145717472441,-0.09633000000000003,-0.12580099999999994,-0.906249,0.030718000000000023,0.15411200000000003,-0.903773,0.12704800000000005,0.27991299999999997,0.0024759999999999227,0.9645133723489592,0.9515536139799003,double,-0.903773
10,0.083333,jog,-0.007800312012478302,-0.06036241449657023,-0.015000600024005956,0.06199620425205139,0.03329454479262642,0.10353139860351858,0.012000480019199436,0.01632065282611603,0.003600144005760497,-0.0020400816032695,0.003120124805001979,-0.006600264010560356,-0.9936794927693274,-0.7200576034544937,0.7344587555240468,0.08640691241562562,-0.028802304137479695,-0.43203456207364377,-0.10080806448516536,-1.2529002300130159,-0.3024241934515988,-0.09616500000000006,-0.125162,-0.906094,0.03076599999999996,0.15464100000000003,-0.9037029999999999,0.12693100000000002,0.279803,0.002391000000000032,0.9657081048519549,0.9634562052903196,double,-0.9037029999999999
11,0.091667,jog,0.0015598752099747711,-0.060115190784747426,-0.017398608111345193,-0.003322908752744499,0.009664282888649858,0.031862822624471605,0.012119030477563932,0.010199184065274994,0.008759299256059123,-0.0025197984161192404,0.008879289656816357,-0.0005999520038394606,1.1231326160850827,0.029664472260955966,-0.287737951444593,0.01422491701037869,-0.7345174899017328,0.619049106107347,-0.05756141262895858,0.6910444986578332,0.7199798424191144,-0.09607699999999997,-0.12457599999999991,-0.905876,0.030732000000000093,0.15521600000000002,-0.903563,0.12680900000000006,0.27979199999999993,0.0023130000000000095,0.9698328923250155,0.9614543593787894,double,-0.903563
12,0.1,jog,0.0012000480019279376,-0.07188287531498784,-0.02232089283571575,0.06184147047065425,-0.0308049248165213,0.13521691644858677,0.01092043681748028,0.017640705628226103,0.008760350414016987,-0.006240249609990635,0.007800312012478302,-0.008880355214209115,-0.043180992205308195,-1.4121786307740796,-0.5906977948362596,-0.14383699268974573,0.8930183082864638,0.00012614400070370558,-0.44647200214465277,-0.12948249662043132,-0.9936881327696685,-0.09599599999999997,-0.1238300000000001,-0.905617,0.030669999999999975,0.1558799999999998,-0.903451,0.12666599999999995,0.2797099999999999,0.0021660000000000013,0.9624650468554576,0.9560635618111415,double,-0.903451
13,0.108333,jog,0.005760230409208811,-0.061922476899097974,-0.009000360014406253,-0.06223809613084624,0.005164220623635104,0.06550144993452912,0.01980079203167777,0.03588143525741623,0.012840513620544352,-0.002880115204611067,0.004440177607112059,-0.012360494419776671,0.5472437786248503,1.1952956217316542,1.5985278796723277,1.0656852531138241,2.1889751145073975,0.48963917035009813,0.4032322579358659,-0.40323225793426676,-0.41763341000450727,-0.09587899999999994,-0.12301499999999987,-0.905435,0.030598000000000014,0.15643300000000004,-0.9034789999999999,0.12647699999999995,0.2794479999999999,0.001956000000000069,0.9284220015326464,0.9580301768143805,double,-0.9034789999999999
14,0.116667,jog,0.005999520038396261,-0.07919366450682533,-0.01739860811134516,-0.10614831111476372,0.08390367725429257,0.02625422758580001,0.01703863690904432,0.02123830093592303,0.014758819294456202,-0.00227981761458978,0.00299976001919147,-0.015238780897527603,0.028712458505813575,-2.0723767227894574,-1.0077091549002761,-0.33143210014800195,-1.7570355557347235,0.23017826660809315,0.07202994840668185,-0.17283628364777873,-0.3453667479902722,-0.09578699999999996,-0.12217800000000001,-0.905167,0.03052900000000003,0.15711799999999987,-0.903461,0.12631599999999998,0.2792959999999999,0.0017060000000000963,0.948381653742495,0.9567772310879994,double,-0.903461
15,0.125,jog,0.0030001200048065256,-0.09480379215169435,-0.03636145445818474,-0.04263098189965763,-0.10589390683242643,0.14243644539649433,0.015720628825152086,0.02664106564261906,0.016680667226689108,-0.0068402736109412915,0.006840273610967939,-0.017760710428417426,-0.35994240172683767,-1.8732902489942438,-2.275632586924228,-0.15816729675893837,0.6483576991114884,0.23063097710703323,-0.5472766106266069,0.4608800662158252,-0.30264364945275707,-0.09568100000000002,-0.121166,-0.904725,0.030447000000000002,0.15796500000000013,-0.9033059999999999,0.12612800000000002,0.27913100000000013,0.001419000000000059,0.9414259915349232,0.9521028658611521,double,-0.9033059999999999
16,0.133333,jog,-0.006720268810759145,-0.09336373454937534,-0.018960758430336174,0.053703647924406114,0.0028627660578542363,0.0997665587630278,0.01860074402976312,0.029761190447620996,0.020520820832833835,-0.0009600384015370207,0.005640225609013343,-0.0070802832113288664,-1.1664933176005834,0.17281382483127414,2.088167050023827,0.34562764965931037,0.37442995379838384,0.46083686621201536,0.7056564513865674,-0.14401152069537917,1.2817025341519919,-0.09546999999999994,-0.12014000000000002,-0.904396,0.03049500000000005,0.15879,-0.903207,0.125965,0.27893,0.0011889999999999956,0.9322418470880605,0.9729383681199253,double,-0.903207
17,0.141667,jog,0.00107991360691586,-0.0946724262058952,-0.016078713702899903,0.0016760000910150763,0.02174680203227762,0.07947761926054071,0.023878089752813737,0.03695704343652216,0.02519798416126655,0.00107991360691586,0.005639548836082114,-0.010559155267578354,0.9359470143598541,-0.15703043634747493,0.34581770187620325,0.6332308282998114,0.8634332840054214,0.561214702235748,0.24477465904162296,-8.120625524708906e-05,-0.4174312522497595,-0.09528000000000003,-0.11904300000000012,-0.904052,0.03049500000000005,0.15962599999999982,-0.903161,0.12577500000000008,0.27866899999999994,0.0008909999999999751,0.9154928563899961,0.9710576314404672,double,-0.903161
18,0.15,jog,0.008160326413064677,-0.11076443057722385,-0.014040561622468936,-0.13851233961216267,0.22102625190016123,0.009261082893930996,0.021480859234374185,0.038161526461063265,0.031681267250690044,-0.004560182407294187,0.008280331213260135,-0.011040441617664914,0.8496835240788205,-1.9311177692702077,0.24458803317304276,-0.28767916937952115,0.1445437446947202,0.7780250917344882,-0.676838595249015,0.3169065615238233,-0.057756672277278195,-0.09516900000000006,-0.11780200000000007,-0.903671,0.030389,0.16061799999999993,-0.9031359999999999,0.12555800000000006,0.27842,0.0005350000000000632,0.909916210147702,0.9704259015933081,double,-0.9031359999999999
19,0.158333,jog,0.006960278411136739,-0.11700468018722782,-0.016920676827066675,-0.01836503799604413,0.1338968400330933,0.011305337381613987,0.024360974438985248,0.04188167526701589,0.030841233649345982,-0.005400216008649072,0.006480259210368228,-0.005400216008639913,-0.14401152069218015,-0.7488599075967793,-0.3456276496577147,0.3456276496593137,0.4464357141428802,-0.10080806448386669,-0.1008080644851655,-0.2160172810382702,0.6768541472488895,-0.095024,-0.11647799999999986,-0.903273,0.030285999999999924,0.1616470000000001,-0.9030400000000001,0.12530999999999992,0.27812499999999996,0.0002329999999999277,0.9042759537379247,0.9809768189808596,double,-0.9030400000000001
20,0.166667,jog,-0.0031197504199761807,-0.13630909527235455,-0.03287736981041471,0.03332596465372768,-0.17749066371685102,0.17565505042134402,0.03275737940964332,0.04475641948643585,0.028197744180465428,-0.00299976001919147,0.004199664026878715,-0.002399808015358671,-1.2095066991976133,-2.316344502654993,-1.9146499860028823,1.0074879974391728,0.3449417109935154,-0.31719336079680255,0.2880316762008159,-0.27364953005633685,0.36002015758114214,-0.09472499999999995,-0.1149690000000001,-0.902764,0.030287000000000064,0.1628179999999999,-0.902786,0.125012,0.277787,2.199999999996649e-05,0.8960804370535822,0.9905139259054276,double,-0.902764
21,0.175,jog,0.01548061922477452,-0.12456498259931562,-0.0106804272170894,-0.06639567720916666,0.0851799629445382,0.07379784888819141,0.05856234249369185,0.06300252010080391,0.031801272050882276,-0.001920076803074048,0.003960158406330232,0.00036001440057555127,2.232133642715798,1.4093498947604657,2.6637396607854753,3.0967194388633854,2.1896196585105137,0.4324406420757059,0.12956716862083584,-0.028741824138783626,0.3311919375896111,-0.09436600000000006,-0.113406,-0.90241,0.030142000000000002,0.16388899999999995,-0.902694,0.12450800000000006,0.27729499999999996,0.00028399999999995096,0.844314885937004,0.9926403578171308,double,-0.90241
22,0.183333,jog,0.01224048961957703,-0.1532461298451904,-0.010560422416893905,0.023609080308901426,0.1760709627602277,0.057564770388270015,0.07536301452058951,0.0657626305052193,0.023040921636866014,-0.0022800912036470937,0.003240129605184114,0.0030001200048006917,-0.38883110586793307,-3.4418753445187518,0.014401152069542155,2.016161289679305,0.33122649758974965,-1.0512841010459923,-0.043203456207013734,-0.08640691241403059,0.31682534552083746,-0.09383999999999992,-0.11158100000000004,-0.90213,0.030021000000000075,0.16519299999999992,-0.9025810000000001,0.123861,0.27677399999999996,0.0004510000000000902,0.8244215309390159,0.9917171569899406,double,-0.90213
23,0.191667,jog,0.004319654427650105,-0.16846652267818088,-0.029757619390451854,-0.014573049868618598,-0.11019762244066776,0.08800834028943215,0.0838732901367896,0.07343412526997184,0.02099832013438858,-0.00227981761458978,0.0027597792176753356,0.004079673626109824,-0.9504241890961026,-1.826301035875986,-2.3034793584782736,1.021151381833463,0.9205057313117989,-0.24509257289146036,3.282806063278503e-05,-0.05763743550621288,0.12953607167136208,-0.09317699999999995,-0.10956500000000013,-0.901707,0.029966000000000048,0.16662,-0.902299,0.123143,0.2761850000000001,0.0005919999999999259,0.8050163055519659,0.990954177363482,double,-0.901707
24,0.2,jog,0.019560782431300144,-0.1479659186367501,-0.014520580823237447,-0.031218428062543435,0.030247369480813163,0.04048763891057748,0.07620304812191775,0.06996279851194044,0.021600864034561316,-0.0009600384015370207,0.002040081603256177,0.004920196807872235,1.8290085207788342,2.460170891807364,1.8285177687764784,-0.9204658604190377,-0.4165758739987274,0.07230816034714209,0.1583798407599614,-0.08636716841703566,0.10086681648414858,-0.09270500000000004,-0.1077490000000001,-0.9014059999999999,0.029795000000000016,0.16786999999999996,-0.902137,0.12250000000000005,0.27561900000000006,0.0007310000000000372,0.8165564092408732,0.9909796613594355,double,-0.9014059999999999
25,0.208333,jog,0.010800432017284858,-0.17592703708147978,-0.007320292811709816,0.04018704691716995,0.11068235764027802,0.051984265885020156,0.07752310092404141,0.06732269290772051,0.02124084963398584,-0.0021600864034649653,0.001920076803074048,0.004200168006720316,-1.0512841010458787,-3.355468432104854,0.8640691241482839,0.15841267276175022,-0.3168253455202129,-0.043203456207305736,-0.1440115206921814,-0.014401152067938213,-0.08640691241472712,-0.09214900000000004,-0.1057220000000001,-0.901168,0.029686999999999908,0.16935199999999995,-0.902041,0.12183599999999994,0.27507400000000004,0.0008730000000000127,0.8165213722005874,0.991502601789565,double,-0.901168
26,0.216667,jog,0.010319174466033044,-0.1828653707703479,-0.016558675305972083,-0.016122024304485644,-0.06908918914846522,0.0889750868230253,0.0743940484761163,0.05771538276938616,0.019078473722102144,-0.00299976001919147,0.00227981761458978,0.003119750419966189,-0.05774628644730182,-0.8325334399889744,-1.1085172179340361,-0.3754562572504324,-1.152784993800617,-0.25946435227786085,-0.10075277366528727,0.043165444146356105,-0.12963973923135658,-0.091615,-0.10371699999999995,-0.900871,0.029576000000000047,0.17089500000000002,-0.901877,0.12119100000000005,0.27461199999999997,0.0010060000000000624,0.8298226123637165,0.9918471253857215,double,-0.900871
27,0.225,jog,0.017520700828030644,-0.20028801152045111,-0.019440777631104685,-0.0023136804045635027,0.14694883086856517,-0.013978548330110035,0.05952238089524199,0.055202208088312076,0.016200648025921405,-0.00252010080403801,0.0022800912036470937,0.0012000480019204432,0.8642177321489972,-2.0908005220332657,-0.3458661136604584,-1.7846714965647785,-0.30159302544990807,-0.34535289765759464,0.05756140827474615,3.283200015764196e-05,-0.23037350510569354,-0.09126499999999993,-0.10158800000000012,-0.900574,0.02940900000000002,0.17258299999999993,-0.901705,0.12067399999999995,0.27417100000000005,0.0011309999999999931,0.8507220226191421,0.9939930967567918,double,-0.900574
28,0.233333,jog,0.009240369614797156,-0.205208208328345,-0.020880835233410215,0.06248074323936596,-0.10860867663540971,0.06973366844673003,0.056282251290044556,0.05184207368295915,0.016200648025920573,-0.009720388815552343,-0.003600144005757166,-0.006480259210369061,-0.9936794927677285,-0.5904472348366584,-0.17281382482965663,-0.38883110586792663,-0.40323225793266804,-9.992406917903116e-14,-0.864069124146685,-0.7056564513865661,-0.9216737324240367,-0.09087300000000009,-0.09944599999999992,-0.900265,0.029250999999999916,0.17426300000000006,-0.9015850000000001,0.12012400000000001,0.273709,0.0013200000000000989,0.8564398854190093,0.9796256728112942,double,-0.900265
29,0.241667,jog,0.023638108951284282,-0.1961843052555864,-0.023998080153585125,0.0020519239337830502,-0.0009248224176745829,0.03412858328136929,0.05411567074635125,0.057835373170144415,0.01175905927525811,-0.0019198464122889415,0.0005999520038436247,-0.0002399808015352851,1.7275905131374083,1.0827817461913398,-0.37403946726360904,-0.25996886773377875,0.7191384073896423,-0.5329480142383577,0.9359902091748763,0.5039712034558197,0.7487735071794805,-0.090619,-0.09732899999999989,-0.8999670000000001,0.029037999999999897,0.17590300000000014,-0.901387,0.1196569999999999,0.27323200000000003,0.0014199999999999768,0.852344725707903,0.9966238814862494,double,-0.8999670000000001
30,0.25,jog,0.025681027241081997,-0.22404896195845908,-0.014880595223810498,-0.012858841694518872,0.037846220130791,0.11970579501151221,0.05508220328812994,0.056402256090240015,0.004080163206528174,-0.0015600624024876663,0.0012000480019012912,-0.0024000960038400537,0.2451600011757726,-3.3438925600471223,1.0941419572512445,0.11598854455522496,-0.1719809288256809,-0.9215043884231284,0.043175808208481326,0.07201440034293363,-0.2592241932443018,-0.09037399999999995,-0.09499200000000008,-0.8998090000000001,0.02881100000000003,0.17777999999999983,-0.9012830000000001,0.11918499999999999,0.2727719999999999,0.0014739999999999753,0.8536892401728701,0.9948267862089166,double,-0.8998090000000001
31,0.258333,jog,0.02472098883955838,-0.21972878915156985,-0.03192127685107274,-0.006777756129452077,-0.04438465087137646,0.05216879433032019,0.05940237609503341,0.05808232329293666,-0.005160206408256507,-0.0021600864034649653,0.002760110404428936,-0.003840153606144765,-0.1152092165514963,0.5184414744856887,-2.0449635938152264,0.5184414744873974,0.2016161289687566,-1.1088887093225375,-0.07200576034768996,0.18721497690239397,-0.17281382482955895,-0.09008500000000008,-0.09267700000000001,-0.899586,0.028586999999999918,0.17963399999999996,-0.901049,0.118672,0.27231099999999997,0.001462999999999992,0.8466373805178462,0.9913347817822795,double,-0.899586
32,0.266667,jog,0.023638108951284202,-0.2546196304295736,-0.030477561795066863,0.05084444256658924,-0.0068840670076621225,0.10358588877204808,0.05399568034557968,0.041276697864172145,-0.005879529637629036,-0.002639788816890625,0.0013198944084453126,-0.003359731221502306,-0.12993519177755908,-4.186566028078198,0.17323194816485166,-0.6487515898072626,-2.0165137303533114,-0.08631188257409744,-0.05755968483629222,-0.1728120945504706,0.057646074471137315,-0.08983200000000002,-0.09021099999999993,-0.899381,0.02836799999999995,0.181767,-0.9008229999999999,0.11819999999999997,0.27197799999999994,0.0014419999999999433,0.8718812245825751,0.9925467381995152,double,-0.899381
33,0.275,jog,0.03912156486258683,-0.23100924036960835,-0.024240969638776384,0.05377721139441018,0.16489408632780883,0.13451537903885794,0.04944197767910311,0.020400816032641638,-0.002400096003840046,0.008280331213246783,-0.006240249609977291,-0.02328093123724936,1.8580890329176247,2.8333601416014806,0.7484209955946782,-0.5464661786243309,-2.505206028024771,0.41754873800419723,1.3104668222893752,-0.9072535723536027,-2.3906396274747355,-0.08974599999999999,-0.08811599999999997,-0.8991990000000001,0.028110999999999997,0.18364000000000003,-0.900815,0.11785699999999999,0.271756,0.0016159999999999508,0.8946077357733346,0.9575243089301715,double,-0.8991990000000001
34,0.283333,jog,0.030961238449535713,-0.261370454818195,-0.030961238449535713,0.05401947059744182,-0.04243749055395493,0.14735019499424565,0.04068162726508809,0.019080763230518372,-0.0020400816032636777,0.003000120004806531,0.0015600624025009946,-0.0025201008040321897,-0.9792783406997648,-3.643491473489345,-0.8064645158717564,-1.0512841010458474,-0.15841267276170276,0.04320345620741258,-0.6336506910404736,0.9360748844927762,2.491399307958385,-0.089665,-0.08577900000000005,-0.898958,0.02787800000000007,0.18583100000000008,-0.9005780000000001,0.11754300000000006,0.27161000000000013,0.0016200000000000658,0.9088327431596034,0.9929712054918869,double,-0.898958
35,0.291667,jog,0.014878809695225927,-0.29361651067914263,-0.08135349172067036,-0.14149273755942285,0.5826179812924471,0.18230434089998748,0.03311735061195749,0.01991840652747772,0.0014398848092150361,-0.002519798416132558,0.010799136069105278,0.04595632349412059,-1.9297370715514481,-3.869217165940438,-6.046586665602903,-0.9076405871287008,0.1005091549027295,0.41756256449228585,-0.6623372235348072,1.1086001519803543,5.816705579331982,-0.08951299999999995,-0.08316600000000007,-0.898268,0.027733000000000008,0.18836799999999998,-0.899517,0.11724599999999996,0.27153400000000005,0.0012490000000000556,0.923055556604921,0.921207826231259,double,-0.898268
36,0.3,jog,0.0411616464658566,-0.2571702868114738,-0.012720508820345583,0.022026479410818225,-0.2595720612731561,0.31343413833067385,0.020400816032641773,0.013080523220931959,0.0045601824072958675,-0.0025201008040246953,0.003480139205575043,0.003240129605184125,3.1540665751386943,4.373721812992789,8.236287399534975,-1.5260451913255426,-0.8205788199382911,0.3744506897972926,-3.628799857643696e-05,-0.8783147562138789,-5.126148312604893,-0.08968599999999993,-0.08091400000000004,-0.898124,0.027369000000000088,0.19054000000000004,-0.8993840000000001,0.11705500000000002,0.2714540000000001,0.0012600000000000389,0.9463009108603622,0.9910308063023392,double,-0.898124
37,0.308333,jog,0.04608184327373687,-0.2710908436337455,-0.02244089763591113,0.06728754798500335,-0.0063649323294830504,0.22585891241448772,0.005400216008635731,0.006840273610941258,0.006720268810752461,-0.004560182407294172,0.00408016320651234,0.0015600624024959882,0.5904472348350235,-1.6705336400182005,-1.1664933176005647,-1.8001440086410634,-0.7488599075951848,0.25922073724427996,-0.24481958517574318,0.07200576034288904,-0.2016161289677343,-0.09002500000000002,-0.07859800000000006,-0.897881,0.026947000000000054,0.19283299999999992,-0.899184,0.11697200000000008,0.271431,0.001302999999999943,0.9686280558932662,0.9894753213193342,double,-0.897881
38,0.316667,jog,0.04391648668106306,-0.2860571154307735,-0.023158147348212123,0.14050768314961445,0.11249723625900382,0.22328177208551478,-0.009239260859130571,0.0010799136069158635,0.008399328053755822,-0.006119510439167692,0.005879529637624912,0.0064794816414685385,-0.2598220053604302,-1.795808950927293,-0.08606308042968518,-1.7565966963962545,-0.6911879054506151,0.20147099148108594,-0.1871043954731856,0.21590669919757408,0.590283086029827,-0.09046799999999999,-0.07620499999999997,-0.897618,0.026530000000000054,0.19526599999999994,-0.898937,0.11699800000000005,0.2714709999999999,0.001318999999999959,0.9659214819966091,0.9822047947221637,double,-0.897618
39,0.325,jog,0.06504260170407299,-0.28177127085083487,-0.02412096483859425,0.044217261084415274,0.06549012720492672,0.1940403386143416,-0.021000840033605604,-0.002400096003842544,0.008520340813632704,-0.007560302412100682,0.0013200528021100684,0.005760230409217109,2.5352352121696677,0.5143219224695329,-0.11554272055467713,-1.411445958775349,-0.41761785800532736,0.014522112069708581,-0.17290195283007134,-0.547159106626044,-0.08631360041418776,-0.09118500000000007,-0.07387699999999997,-0.897346,0.025924999999999976,0.19762499999999994,-0.8986879999999999,0.11711000000000005,0.2715019999999999,0.0013419999999999543,0.9485963796074468,0.9840068620331125,double,-0.897346
40,0.333333,jog,0.0655226209048286,-0.3224528981159248,-0.04224168966758909,-0.06638424521277289,0.09710388204969099,0.14772289175412912,-0.030721228849144796,-0.000480019200768512,0.007200288011520185,-0.008280331213246839,-0.0010800432017191595,0.003600144005759676,0.05760460827500538,-4.881990551432863,-2.1745739624378833,-1.1664933175974097,0.23041843310620866,-0.1584126727604131,-0.08640691241403556,-0.2880230413811633,-0.2592207372443823,-0.09198699999999993,-0.07119399999999998,-0.896934,0.025310000000000055,0.200303,-0.8983059999999999,0.11729699999999998,0.271497,0.0013719999999999288,0.9336843604499735,0.9848441966394922,double,-0.896934
41,0.341667,jog,0.051715862730989895,-0.3171346292296554,-0.033117350611944166,0.0909362444813808,-0.07753027228238629,0.1972713758087102,-0.027357811375090683,0.0007199424046150115,0.010079193664506918,-0.009479241660673286,-0.0013198944084453126,0.0037197024238064817,-1.6566784465849167,0.6381412150551237,1.0948331000293872,0.40357781066164017,0.1439838739361078,0.3454410430749617,-0.14385774507156784,-0.028779842419744756,0.014345862496616927,-0.092646,-0.06854499999999997,-0.896574,0.024799999999999933,0.20293499999999998,-0.897999,0.11744599999999994,0.27147999999999994,0.0014250000000000096,0.9371427787364298,0.9828864632987866,double,-0.896574
42,0.35,jog,0.07752310092402809,-0.3336133445337827,-0.022800912036484332,0.076980152305694,0.30716245583179724,0.1696982913304844,-0.03384135365414678,-0.006360254410186114,0.009240369614784695,-0.009000360014392946,-0.002880115204611072,0.005760230409216315,3.0969924628631054,-1.977524937492782,1.2380221499411808,-0.7780561957345633,-0.8496576040803004,-0.10066291248316635,0.057468096277492095,-0.18723398489928755,0.24487315317530764,-0.09357399999999994,-0.06581800000000004,-0.896307,0.024079000000000073,0.20569099999999996,-0.897761,0.11765300000000001,0.271509,0.0014540000000000664,0.9260397807531168,0.9815547508113143,double,-0.896307
43,0.358333,jog,0.07752310092404088,-0.32401296051842365,-0.02004080163206859,-0.16374774447267307,-0.06119715086458733,0.09639436242152921,-0.03804152166086768,-0.008760350414015293,0.009840393615744437,-0.012600504020163363,-0.0031201248049753222,0.005760230409216276,1.535499863051107e-12,1.152092165529704,0.33122649758979145,-0.5040403224194026,-0.2880230413811554,0.07200576034558256,-0.4320345620749312,-0.02880230413587535,-4.68394074276707e-15,-0.09453699999999998,-0.063191,-0.896058,0.023328000000000015,0.20836500000000013,-0.897546,0.117865,0.27155600000000013,0.0014879999999999338,0.91802275597307,0.9763305086939118,double,-0.896058
44,0.366667,jog,0.07943364530838143,-0.3478521718262518,-0.028677705783535994,0.12792862699630678,0.2808134183402272,0.05839352582986967,-0.043916486681062766,-0.01451883849291176,0.0035997120230384233,-0.01667866570674347,0.00671946244298463,0.011279097672185838,0.22924698636195628,-2.8604765188178667,-1.0363455905288452,-0.7049394072708278,-0.690963292404183,-0.748821885373891,-0.4893402551691991,1.1806560172738112,0.6622110946687733,-0.09556500000000001,-0.06041299999999994,-0.895789,0.022526999999999964,0.21131999999999995,-0.897213,0.11809199999999997,0.2717329999999999,0.0014240000000000919,0.908436502057912,0.9646231749752794,double,-0.895789
45,0.375,jog,0.07524300972038098,-0.34705388215528776,-0.025921036841473,0.11843367338533707,-0.24933772040669738,0.03294624919651601,-0.057962318492741194,-0.02652106084243697,-0.0016800672026881264,-0.008400336013442297,-0.017280691227639786,0.004440177607104572,-0.5028963864155122,0.09579859245938031,0.3308135055877836,-1.685567240091019,-1.4403242949148254,-0.6335988510412291,0.9934393007681741,-2.88013364582077,-0.8207032359391915,-0.09667499999999996,-0.05774199999999996,-0.895587,0.021830000000000016,0.21406800000000004,-0.89696,0.11850499999999997,0.27181,0.0013729999999999576,0.879997033082677,0.9671322890790304,double,-0.895587
46,0.383333,jog,0.08460338413537363,-0.36481459258369603,-0.020880835233410285,-0.09080615751411845,0.34855343978854403,-0.04303410789352255,-0.04200168006719816,-0.0129605184207365,-0.009360374414976823,-0.00888035521421081,-0.009720388815552376,0.009840393615744503,1.1232898613935773,-2.1313705062292465,0.6048483869030036,1.9153532251941763,1.627330183811413,-0.9216737324239429,-0.05760460827655275,0.9072725803537057,0.6480518431105178,-0.09772999999999998,-0.054810000000000025,-0.895491,0.02105099999999993,0.21702699999999997,-0.896704,0.11878099999999991,0.271837,0.0012129999999999086,0.9129676047076731,0.9726047442281991,double,-0.895491
47,0.391667,jog,0.09179265658747479,-0.34713222942165006,-0.008159347252214653,0.12269670821286273,0.1245750322805476,-0.10819547076342262,-0.03995680345572683,-0.014878809695225927,-0.011279097672185838,-0.00755939524837103,-0.012359011279093368,0.01439884809215286,0.8626436827575176,2.121713842338127,1.526456441228176,0.2453655641314292,-0.23017653881562575,-0.23022837259527398,0.15850251569951745,-0.31660936687556873,0.5469707795066417,-0.09882800000000003,-0.052041000000000004,-0.895517,0.02022299999999999,0.21981700000000004,-0.896516,0.11905100000000002,0.27185800000000004,0.0009989999999999721,0.9165037046413891,0.9659568720142806,double,-0.895517
48,0.4,jog,0.07284291371653794,-0.37549501980079625,-0.022920916836679642,0.1382281153510081,0.05407191176014236,-0.1349616646027787,-0.04128165126605179,-0.020160806432264044,-0.010800432017280622,-0.007200288011527631,-0.026881075243009846,0.005880235209408404,-2.2740601069166897,-3.4036709923372217,-1.7714592085041314,-0.15898809676286468,-0.6338649630430931,0.05744217627567677,0.0430945922048959,-1.7427173843653447,-1.0222744369068066,-0.09977899999999995,-0.04908000000000001,-0.895416,0.019556000000000018,0.2227220000000001,-0.896276,0.11933499999999997,0.2718020000000001,0.0008599999999999719,0.9127431824843051,0.9525947283818892,double,-0.895416
49,0.408333,jog,0.0763230529221268,-0.3672146885875386,-0.032641305652218844,0.11084824493921056,0.05543154668995852,-0.18737819630291394,-0.04332173286932157,-0.02124084963398334,-0.0050402016080643795,-0.00408016320652569,-0.023520940837643764,0.008640345613824056,0.41763341000706433,0.9936794927706329,-1.166493317597411,-0.2448195851757813,-0.1296103686210608,0.6912552993179235,0.3744299537983858,0.40323225793424816,0.33122649758978273,-0.10077600000000009,-0.046197000000000044,-0.895186,0.01888599999999996,0.22558599999999995,-0.8959320000000001,0.11966200000000005,0.271783,0.0007460000000000244,0.9116877708645051,0.9576870796588693,double,-0.895186
50,0.416667,jog,0.07211423086152653,-0.38456923446124436,-0.034797216222703646,0.01222919074887728,0.013540960869164712,-0.1845819558046943,-0.036957043436522036,-0.014998800095983993,-0.014878809695224262,-0.0037197024238064817,-0.025797936165089273,0.00947924166066746,-0.505018245812366,-2.082378914531528,-0.2586885733723062,0.7637016358050787,0.7489860256778668,-1.1805385273769946,0.0432518337796026,-0.2732175818869098,0.10065947286337917,-0.10168500000000003,-0.04311699999999996,-0.89502,0.018253999999999992,0.2285760000000001,-0.895563,0.11993900000000002,0.2716930000000001,0.0005429999999999602,0.9236207606760108,0.9537751353898676,double,-0.89502
51,0.425,jog,0.09924396975879325,-0.3726149045961877,-0.018720748829958642,0.02546019191904292,-0.04673901251746775,-0.10589528584561543,-0.03384135365414678,-0.010320412816516345,-0.020640825633025196,0.002280091203647101,-0.03372134885397798,0.015360614424577394,3.2556988956278397,1.4345769668854804,1.9292532572596957,0.37389772979422303,0.5614289306933469,-0.6914695713189666,0.72000403545585,-0.9508475565689096,0.7057929633877295,-0.10279400000000005,-0.04009799999999997,-0.8950359999999999,0.01744599999999996,0.23139999999999994,-0.8952789999999999,0.12024000000000001,0.2714979999999999,0.00024299999999999322,0.9293019047052704,0.9381247523028714,double,-0.8950359999999999
52,0.433333,jog,0.08292331693267663,-0.38137525501020053,-0.025921036841472827,0.12640763215447448,0.3308479733873969,-0.19529417443847016,-0.020520820832823774,0.004680187207489629,-0.03168126725068994,0.006120244809795156,-0.0344413776550972,0.020040801632065258,-1.9585566814012427,-1.0512841010455796,-0.8640691241466644,1.5985278796739413,1.800144008641055,-1.324905990359378,0.46083686621241315,-0.08640691241080296,0.5616449306957692,-0.10365599999999997,-0.03688099999999994,-0.895084,0.016805999999999988,0.23429100000000003,-0.894896,0.12046199999999996,0.27117199999999997,0.00018799999999996597,0.9366072442239028,0.930928325140175,double,-0.894896
53,0.441667,jog,0.09239260859130571,-0.4031677465802661,-0.06899448044156413,-0.052994303394305387,0.1957454013370487,-0.11146127057657002,-0.019438444924418936,0.0013198944084453212,-0.034917206623470275,0.01103911687064813,-0.057235421166314304,0.04007679385649099,1.1362241011074083,-2.614889797224106,-5.168399760030183,0.12987471903105874,-0.4032028796549469,-0.3882816622006663,0.5902174299079677,-2.7350664160327853,2.404126736792158,-0.10458800000000001,-0.03351000000000004,-0.8948,0.01612800000000003,0.23717399999999988,-0.893987,0.12071600000000005,0.2706839999999999,0.0008130000000000637,0.9333582008730583,0.8739728585872781,double,-0.893987
54,0.45,jog,0.08016320652826103,-0.37597503900156476,-0.04620184807391901,0.014631563220865625,0.06854661977527741,-0.12528468504659504,-0.014520580823224076,0.0016800672026831191,-0.03612144485779448,0.018840753630140653,-0.06432257290290024,0.054722188887555874,-1.4675869510433972,3.2632554396617346,2.7352252931291283,0.5901672988353343,0.04322246420710385,-0.14451436869365142,0.9362338604935186,-0.8504922280794314,1.7575177044359562,-0.10537699999999994,-0.03036300000000003,-0.8947160000000001,0.015616999999999992,0.23977100000000007,-0.893146,0.12099399999999993,0.2701340000000001,0.0015700000000000713,0.9350549661494857,0.840088683803883,double,-0.893146
55,0.458333,jog,0.11424456978279926,-0.39937597503900224,-0.07956318252731091,-0.08822218448325353,0.28781997351023975,-0.060244394263378735,-0.007680307212296192,-0.000960038401537024,-0.041761670466818904,0.03972158886356439,-0.09540381615265849,0.08232329293171736,4.089927187632103,-2.8082246534786437,-4.003520275218047,0.8208656679380656,-0.3168253455202387,-0.6768541472488229,2.505800460029256,-3.7298983859064356,3.312264975898423,-0.10639300000000007,-0.02704300000000004,-0.894401,0.01499600000000001,0.24230399999999996,-0.891797,0.12138900000000008,0.269347,0.0026040000000000507,0.9292118592640521,0.753752917427345,double,-0.891797
56,0.466667,jog,0.1189104871610227,-0.38876889848812307,-0.09131269498438924,-0.20825786212686434,0.029081260311179313,0.08492320878114376,-0.0004799616030722338,0.011879049676034457,-0.03707703383729259,0.046436285097182006,-0.13762898968082649,0.11819054475641934,0.5598652961631198,1.2727473663161937,-1.4098287085527133,0.8639723553184486,1.5405673239226625,0.5621114266290266,0.8056990921067447,-5.066615494140624,4.303725920890562,-0.10738800000000004,-0.023703999999999947,-0.893949,0.01439199999999996,0.24439699999999998,-0.890051,0.12178,0.2681009999999999,0.003897999999999957,0.9351058849073299,0.6489165972451731,double,-0.890051
57,0.475,jog,0.11640465618625091,-0.3790951638065426,-0.1057242289691615,-0.18157174363037837,0.06467338297901432,-0.04021658528734867,0.0001200048001954588,0.010200408016320887,-0.03336133445337827,0.029281171246852585,-0.19548781951276667,0.16056642265690654,-0.30071174544243345,1.1608945975735596,-1.7294532563029286,0.07199884834605713,-0.20144505696790763,0.4459017621402051,-2.058696009879931,-6.943337313325372,5.085308760408894,-0.10835700000000004,-0.020460000000000034,-0.893346,0.013665999999999956,0.245927,-0.8878320000000001,0.12202299999999999,0.26638700000000004,0.005513999999999908,0.9418564668408702,0.5204177167483328,double,-0.8878320000000001
58,0.483333,jog,0.1276851074042901,-0.36181447257891375,-0.10236409456378125,-0.0844936382951736,-0.136103410554791,0.10156408133646178,-0.0003600144005730508,-0.0031201248049886453,-0.027961118444738156,-0.004200168006721121,-0.16980679227171008,0.15492619704788133,1.353708294496476,2.0737658979513744,0.4032322579359467,-0.05760460827655198,-1.5985278796723241,0.6480518431105357,-4.017921427285919,3.081846542788489,-0.6768541472489132,-0.10942399999999997,-0.017470999999999903,-0.892726,0.012566999999999995,0.24752699999999994,-0.885688,0.12199099999999996,0.26499799999999984,0.007037999999999989,0.9531050543517154,0.5464529540214602,double,-0.885688
59,0.491667,jog,0.1439884809215236,-0.3740100791936552,-0.11003119750420635,-0.29500986458182243,0.16619795654837746,0.0917862154011543,0.0016798656107461574,-0.007319414446854896,-0.02003839692824578,0.01463882889369647,-0.2685385169186417,0.22402207823374115,1.9562483222022438,-1.4633557253109477,-0.919978754550648,0.2447660200766986,-0.5038744470681841,0.9506505299366894,2.260498788147057,-11.846859208895074,8.290842474905178,-0.11060999999999999,-0.014415000000000067,-0.891976,0.011489000000000082,0.2484059999999999,-0.882904,0.12209900000000007,0.26282099999999997,0.009071999999999969,0.964334379775128,0.40928,single,-0.882904
60,0.5,jog,0.14868594743791003,-0.35245409816393686,-0.1189247569902756,-0.055389465746032915,0.05444015803214542,0.0825687935671897,-0.00408016320652569,0.0,-0.020880835233409452,0.004320172806903284,-0.33337333493339183,0.2552502100084006,0.5637185307075998,2.5868211964140637,-1.0672698291214775,-0.6912311073169162,0.8783648682173184,-0.10109664048526042,-1.2382882619456632,-7.780489381345286,3.7475257139877014,-0.11188300000000007,-0.011477999999999988,-0.891159,0.010285999999999906,0.24856500000000004,-0.879786,0.12216899999999997,0.260043,0.011373000000000077,0.9645404372780033,0.38627,single,-0.879786
61,0.508333,jog,0.16884675387014644,-0.3568942757710199,-0.13008520340813265,-0.1625748389422222,-0.3590573804484633,0.1544199638613038,-0.02796111844474232,0.009600384015370176,0.011760470418816808,0.06984279371175807,-0.4521780871234823,0.3808952358094312,2.419393547610264,-0.5328426265550248,-1.339307142428537,-2.8658292617564536,1.1520921655310374,3.917113362801647,7.86302902974373,-14.257140548432732,15.078006216372264,-0.11352300000000004,-0.008423999999999987,-0.889977,0.009461000000000053,0.24777099999999996,-0.8755280000000001,0.1229840000000001,0.25619499999999995,0.014448999999999934,0.9469722247204524,0.35551,single,-0.8755280000000001
62,0.516667,jog,0.16642668586513498,-0.34365250779937534,-0.1301895848332144,-0.2631758988424916,-0.5277736490472951,0.2163914051678668,-0.004439644828408201,-0.012359011279106772,-0.02003839692824591,0.040196784257256556,-0.4748020158387342,0.40832733381329683,-0.2903849298069924,1.5888850457936925,-0.012524769028289256,2.82235104587644,-2.6349166420058885,-3.815558836940593,-3.5572365556157526,-2.714654273488368,3.291588433389225,-0.11494700000000002,-0.005663000000000085,-0.889059,0.008409,0.24667799999999995,-0.87104,0.12335600000000002,0.25234100000000004,0.018019000000000007,0.9600697497902267,0.31981000000000004,single,-0.87104
63,0.525,jog,0.20556822272890404,-0.33601344053762305,-0.054842193687752165,0.09283757201111952,-0.2792987621673834,0.08123616460251565,-0.004200168006721121,-0.01008040321612536,-0.017160686427456703,0.04104164166566087,-0.49441977679105775,0.5040201608064313,4.69717231054469,0.9167247403998865,9.042048619400207,0.02873836813717498,0.2734439053139808,0.34533907365764976,0.1013869444862968,-2.3542254832981464,11.483598583119413,-0.116695,-0.002947000000000033,-0.888745,0.007037999999999989,0.24535800000000008,-0.866383,0.12373299999999998,0.2483050000000001,0.022361999999999993,0.966098791444607,0.27637999999999996,single,-0.866383
64,0.533333,jog,0.2136085443417761,-0.3487339493579865,-0.053762150486020406,0.1612931437559632,-0.4851966851076781,0.048938460108755695,-0.006600264010563753,-0.01044041761669855,-0.018000720028801,-0.015240609624383703,-0.5663026521061062,0.516980679227173,0.9648771886321998,-1.5265221193284026,0.12961036862255718,-0.2880230413827738,-0.04320345620703144,-0.10080806448389601,-6.7541403204182275,-8.62629008940947,1.5553244234659498,-0.11853000000000002,-0.00012799999999990597,-0.888447,0.005130999999999997,0.243545,-0.861627,0.12366100000000002,0.24367299999999992,0.026819999999999955,0.9636150318516816,0.23180000000000006,single,-0.861627
65,0.541667,jog,0.2778977681785418,-0.3210943124549892,-0.10235181185504993,-0.8045472175569212,-0.3345964905753204,0.06952706992800961,-0.006479481641468453,-0.0137988960883233,-0.02303815694744459,0.06035517158627638,-0.6796256299495859,0.5541156707463357,7.714089733233165,3.316491109070926,-5.830292940848231,0.014492724873446033,-0.4029851777807444,-0.604444074711249,9.070768083832435,-13.597669527655244,4.455842514898307,-0.12090000000000001,0.0024329999999999075,-0.887786,0.003318000000000043,0.24055700000000002,-0.856156,0.12421800000000005,0.2381240000000001,0.031629999999999936,0.9539580538128074,0.18370000000000003,single,-0.856156
66,0.55,jog,0.2515300612024455,-0.36733469338774494,-0.08988359534381334,0.2576309023358711,-0.004611283686657155,-0.07138221418391494,-0.0037201488059526123,-0.013320532821309464,-0.018240729629185014,0.18576743069722637,-0.7572302892115699,0.6450258010320392,-3.164251407187831,-5.54906767463765,1.496245831181633,0.33113318558932303,0.0574058882771911,0.5757143067634172,15.050073096237787,-9.31293162870319,10.909652020365188,-0.123027,0.005383000000000027,-0.887189,0.00277000000000005,0.23730800000000007,-0.850032,0.12579700000000005,0.23192500000000005,0.037156999999999996,0.9618482445726776,0.12843,single,-0.850032
67,0.558333,jog,0.23136925477019782,-0.3650546021840894,-0.18648745949837495,-0.555362444110501,1.0779680229709918,0.22628323771043968,-0.009000360014393005,-0.014280571222846672,-0.01944077763110488,0.18816752670107142,-0.9041161646465857,0.6739469578783208,-2.4193935476116457,0.2736218893142376,-11.592927415644125,-0.6336506910404945,-0.11520921655312812,-0.14401152069121284,0.2880230413830644,-17.627010132607367,3.4706776486597706,-0.12502999999999997,0.008306000000000036,-0.8857970000000001,0.0024100000000000232,0.23281600000000013,-0.842862,0.12744,0.2245100000000001,0.042935000000000056,0.9570890770917516,0.0706500000000001,single,-0.842862
68,0.566667,jog,0.26829853611711046,-0.3644108471322214,-0.09323254139669088,0.046559360930516235,0.8835753009667507,-0.2042553708624243,-0.029757619390451653,-0.015958723302141677,-0.02075833933285399,0.24910007199423456,-0.9764818814495007,0.7211423086153055,4.431159268887972,0.07724442667002983,11.189694996602276,-2.490671871377309,-0.20136214054415555,-0.1580947566293619,7.3113205295371575,-8.683191361040842,5.662989049314171,-0.12751400000000002,0.011209999999999942,-0.885193,0.0022499999999999742,0.2277149999999999,-0.836075,0.129764,0.21650499999999995,0.049117999999999995,0.933938046479098,0.008819999999999995,single,-0.836075
69,0.575,jog,0.36241449657986924,-0.40261610464418907,-0.042241689667589365,0.13560949459883287,-1.5222391611501045,-0.6323276709942773,-0.015000600024006107,-0.011880475219004096,-0.012960518420736587,0.31381255250210704,-1.0793231729269206,0.7058682347293954,11.294367030212365,-4.584814294007924,6.119146973371172,1.7709131604999016,0.48940934635036826,0.9357759404917168,7.7658082932765,-12.341448635235915,-1.8329621847966167,-0.13065900000000008,0.014465999999999979,-0.884949,0.0018449999999999855,0.22207599999999994,-0.829841,0.13250400000000007,0.20760999999999996,0.055107999999999935,0.9614809307599241,0.0,single,-0.829841
70,0.583333,jog,0.30925237009479534,-0.4011760470418782,-0.10212408496340365,-0.1714948924721003,0.10176982585055465,-0.19559546595232769,-0.012720508820345498,-0.010920436817466921,-0.010200408016320819,0.4746189847593801,-1.236769470778817,0.7151086043441715,-6.379710366623507,0.17281382483029598,-7.186174882492984,0.27362188931484455,0.11520921655312263,0.33122649758979433,19.297543772623587,-18.894311514688084,1.1088887093214923,-0.13334199999999996,0.01771800000000001,-0.8841829999999999,0.003222999999999976,0.215113,-0.823031,0.13656499999999994,0.197395,0.061151999999999984,0.9672927289500656,0.0,single,-0.823031
71,0.591667,jog,0.4605231581473457,-0.5151187904967552,-0.17554595632349182,-0.03725051899022623,0.05272013700547567,-1.526806354012959,-0.003359731221505614,-0.014518838492924985,-0.006479481641468453,0.49964002879769914,-1.2825773938084795,0.6463882889368805,18.15104248290727,-13.672035451749,-8.809919769628943,1.1232034555843309,-0.43177365916223137,0.44647544694652486,3.0022851017901213,-5.496511042676033,-8.245778186619923,-0.137208,0.021889999999999965,-0.882774,0.0035490000000000244,0.20871700000000004,-0.8161809999999999,0.14075700000000002,0.18682700000000008,0.06659300000000001,0.972916377057624,0.0,single,-0.8161809999999999
72,0.6,jog,0.34897395895836414,-0.4266170646826015,-0.09288371534860776,0.03575051441124611,-0.5430591282512042,-0.44801895850432555,-0.013080523220932045,-0.010800432017284929,-0.012480499219968903,0.6407056282251328,-1.4522980919236972,0.5471018840753673,-13.386439360252318,10.620631922975463,9.919865711614642,-1.1665417015992465,0.44622662614185643,-0.720150915456679,16.92854907325512,-20.367298465764943,-11.914845177188779,-0.14022500000000004,0.025355000000000016,-0.882104,0.005979999999999985,0.20017000000000007,-0.810848,0.14620500000000003,0.17481500000000005,0.07125599999999999,0.9649004479186154,0.0,single,-0.810848
73,0.608333,jog,0.36709468378735405,-0.42769710788430165,-0.06636265450618305,-0.09471825382253195,-0.24575128977956412,-0.5285100099592437,-0.012360494419772447,-0.019800792031677672,-0.00972038881555231,0.7011880475219031,-1.4767790711628317,0.5667826713068504,2.1745739624372775,-0.12961036861876,3.1826546072752433,0.08640691241564803,-1.0800864051833319,0.3312264975898934,7.258180642838124,-2.937835022097012,2.3617889393355407,-0.14338700000000004,0.028753999999999946,-0.881632,0.008763999999999994,0.19142800000000004,-0.805572,0.15215100000000004,0.1626740000000001,0.07606000000000002,0.957858072273286,0.0,single,-0.805572
74,0.616667,jog,0.3866090712742939,-0.42872570194385273,-0.12910967122629854,-0.17395541812793547,0.1325186354946142,-0.702608520341628,-0.0013198944084453212,-0.024478041756657444,-0.002639788816894806,0.7715382769378416,-1.5247180225582069,0.5111591072714212,2.3415391752987706,-0.12342141343305567,-7.529039683239244,1.3247660200776565,-0.5612250689920565,0.849604031516384,8.441352221734927,-5.752213990325829,-6.674293740752286,-0.14661999999999997,0.03212300000000001,-0.8805780000000001,0.011971999999999983,0.18229400000000007,-0.8002360000000001,0.15859199999999996,0.15017100000000005,0.08034200000000002,0.9589077888399519,0.0,single,-0.8002360000000001
75,0.625,jog,0.37645505820233327,-0.4254170166806679,-0.13008520340814597,-0.30468781307904047,0.11287427530004225,-0.6703895687890725,-0.007680307212296141,-0.013680547221895838,-0.0037201488059526123,0.9067562702508071,-1.6302652106084392,0.4680187207488264,-1.2185303098476634,0.3970581139067355,-0.1170685445634733,-0.7632800676648017,1.295751174218356,-0.12964838462232112,16.226808269886583,-12.666169212796339,-5.177053464849952,-0.1498210000000001,0.035553999999999975,-0.879525,0.016390999999999933,0.1722539999999999,-0.795252,0.16621200000000003,0.13669999999999993,0.08427300000000004,0.9731266345042675,0.0,single,-0.795252
76,0.633333,jog,0.40873634945396553,-0.44173766950677057,-0.10260410416415884,-0.6349650414581465,0.24515739888301688,-0.7109457544578431,-0.01212048481938153,-0.020400816032641638,-0.0008400336013440577,0.9395175807032212,-1.5936637465498504,0.3932557302292078,3.8739099065921185,-1.9585566813995692,3.297863823831395,-0.5328426265553068,-0.8064645158701275,0.3456276496590115,3.931514514870276,4.392351381085878,-8.971917739063757,-0.1533279999999999,0.039064999999999905,-0.878677,0.020814,0.16265499999999988,-0.79112,0.1741419999999999,0.12358999999999998,0.087557,0.9604256991531565,0.0,single,-0.79112
77,0.641667,jog,0.4139668826493981,-0.4307655387569131,-0.10955123590113486,-0.13667909704585873,0.232142297248244,-0.872957405110995,-0.004079673626120675,-0.01859851211901921,-0.0064794816414685385,0.9776817854571743,-1.5315574754019763,0.2990160787137039,0.6276137743499671,1.3165503659536286,-0.8335891213074222,0.9648201575787019,0.21625916890118066,-0.676679630444506,4.579338223416525,7.452156365235721,-11.307853553576246,-0.15681200000000006,0.04250000000000009,-0.877818,0.02551199999999998,0.15348099999999998,-0.7877149999999999,0.18232400000000004,0.11098099999999989,0.09010300000000004,0.9664783622002853,0.0,single,-0.7877149999999999
78,0.65,jog,0.4506180247209813,-0.4233769350773984,-0.09432377295091204,-0.6859670221492287,0.2790923492071317,-0.7759523549795864,0.002040081603269493,-0.018720748829958517,-0.012480499219968738,1.0704428177127088,-1.5948637945517783,0.2830913236529449,4.398312981109204,0.8866679082580925,1.827368648772681,0.7344000035269581,-0.014668992072399877,-0.7201509154566392,11.131769141429745,-7.5970621804634275,-1.911047049173035,-0.16054999999999997,0.045872000000000024,-0.877136,0.030677000000000065,0.14371899999999993,-0.78457,0.19122700000000004,0.0978469999999999,0.09256600000000004,0.9623469334846995,0.0,single,-0.78457
79,0.658333,jog,0.44089763590544817,-0.4130565222608876,-0.0664826593063794,0.5847586698917129,0.3056230564618948,-0.9111789739307776,0.0001200048001954596,-0.016680667226689247,-0.0021600864034558203,1.202688107524309,-1.6924276971078838,0.19896795871835302,-1.1664933175966876,1.238499077944419,3.34106728003515,-0.23041843310621038,0.24481958517572172,1.2384990779446792,15.870069580175379,-11.708136632198052,-10.09520760045514,-0.164223,0.04917499999999997,-0.8765999999999999,0.037024999999999975,0.133058,-0.7823579999999999,0.20124799999999998,0.08388300000000004,0.09424200000000005,0.9719660407546089,0.0,single,-0.7823579999999999
80,0.666667,jog,0.38216942644588064,-0.4310055195584368,-0.13366930645547634,0.8903914999999233,-0.49952665648946853,-0.8894872892070921,0.010199184065274909,-0.01463882889368305,-0.013438924886009136,1.2654187664986638,-1.6725461963042871,0.19642428605711387,-7.046821389436895,-2.153707379115555,-8.061752717674159,1.2094047594287702,0.24500099988075122,-1.3533523497184101,7.527076910769659,2.385589249291634,-0.3052163020445313,-0.167323,0.05264500000000005,-0.875598,0.044385999999999926,0.12271100000000001,-0.7796069999999999,0.21170899999999993,0.07006599999999996,0.09599100000000005,0.9627723456633348,0.0,single,-0.7796069999999999
81,0.675,jog,0.4658586343453648,-0.4326173046921822,-0.18876755070203288,-0.02188096475985037,1.387108271433244,-0.948800780101668,0.007200288011514309,-0.020880835233410146,-0.011400456018240426,1.3842553702148115,-1.6067442697707823,0.145805832233288,10.043106672204944,-0.19342195292756192,-6.612053791738427,-0.35988192172813965,-0.7490707235961921,0.24462604917421105,14.26096288445304,7.89654704590238,-6.074457437156566,-0.171145,0.056076000000000015,-0.87412,0.05203900000000006,0.112927,-0.7768189999999999,0.22318400000000005,0.056850999999999985,0.09730100000000008,0.9585732297730409,0.0,single,-0.7768189999999999
82,0.683333,jog,0.5033001320052886,-0.45469818792752636,-0.21648865954637384,-0.8352203839019617,0.649482909299836,-0.6902840731002561,0.0020400816032695203,-0.027241089643596582,-0.011760470418816964,1.390135605424221,-1.5377415096603995,0.0836433457338305,4.4931594455687165,-2.649811980720555,-3.3266661279660634,-0.6192495389709392,-0.7632610596647659,-0.04320345620743322,0.7056564513872154,8.28066243974361,-7.4597967718058396,-0.17532199999999998,0.05963799999999997,-0.872414,0.059428999999999954,0.10390200000000005,-0.7743180000000001,0.23475099999999993,0.04426400000000008,0.09809599999999996,0.9504310927879647,0.0,single,-0.7743180000000001
83,0.691667,jog,0.45800335973121314,-0.346892248620105,-0.08603311735062073,-0.496736248533995,1.4526057220042428,-0.15036703698068296,-0.010319174466046297,-0.014998800095983894,0.0029997600191981107,1.4941204703623618,-1.6115910727141805,0.0077993760499137565,-5.435177858660316,12.935677862661455,15.653412790467018,-1.4829920889507708,1.4689572291351805,1.7710859656845408,12.477185617727375,-8.861238667360261,-9.100548318204485,-0.17922499999999997,0.062404000000000015,-0.871672,0.06806400000000001,0.09336199999999995,-0.773536,0.24728899999999998,0.03095799999999993,0.098136,0.969247948300029,0.0,single,-0.773536
84,0.7,jog,0.4842193687747567,-0.42073682947318386,-0.10284411376455112,1.2117603511417725,0.09195821221447097,-0.6633727088240727,0.0008400336013415707,-0.0349213968558795,0.0064802592103682935,1.5865834633385527,-1.5625825033001401,-0.03156126245049656,3.146046927102338,-8.861704170536369,-2.017400265682292,1.3391585344279335,-2.3908072434772336,0.4176766100048259,11.096002997262897,5.881263580228099,-4.723465558671628,-0.183253,0.06561899999999998,-0.870761,0.07725000000000004,0.083847,-0.772942,0.26050300000000004,0.018228000000000022,0.09781899999999999,0.9407874972321728,0.0,single,-0.772942
85,0.708333,jog,0.5227409096363864,-0.4525381015240553,-0.2532101284051286,-1.466340368087808,0.5757780811191966,-0.5363350429124266,-0.004560182407294172,-0.028921156846266016,0.015360614424577292,1.6540261610464337,-1.5509420376815064,-0.0740429617184692,4.622769814188116,-3.8163052983164927,-18.044643542610924,-0.6480518431100107,0.7200576034577534,1.0656852531152,8.093447462844203,1.3969117507060718,-5.098007832469994,-0.187647,0.06914900000000002,-0.868523,0.086677,0.07469399999999993,-0.771449,0.274324,0.005544999999999911,0.097074,0.9448946198327783,0.0,single,-0.771449
86,0.716667,jog,0.4782817374610049,-0.33693304535637286,-0.008879289656829605,0.6813723732206594,0.25994680329224196,-0.35984804229091727,-0.003839692824577845,-0.022078233741309287,0.014278857691384705,1.717062634989193,-1.53047756179504,-0.13846892248619866,-5.334673887134772,13.871497020360161,29.317355261374743,0.08645183377925623,0.821085085787938,-0.12980042394919342,7.563771771389353,2.4555406631229104,-7.730496852379285,-0.19166500000000009,0.07177299999999998,-0.86833,0.097001,0.064747,-0.772529,0.2886660000000001,0.007025999999999977,0.09580100000000003,0.9557131376674683,0.0,single,-0.772529
87,0.725,jog,0.5633025321012863,-0.5193807752310138,-0.3296531861274547,-0.646905403089954,1.4411971335732867,-1.103658871749229,-0.003840153606134798,-0.011520460818431041,0.02532101284051336,1.7626305052202158,-1.522260890435625,-0.17640705628225278,10.202903472972785,-21.894603369091875,-38.49440735276947,-5.5295998674324307e-05,1.2669834300826044,1.3251116223603452,5.468363162249266,0.9860400047299923,-4.552758165853171,-0.19639099999999998,0.07600499999999999,-0.8653719999999999,0.10699499999999995,0.05639000000000005,-0.7712519999999999,0.30338599999999993,0.019614999999999938,0.09411999999999998,0.9531959911362891,0.0,single,-0.7712519999999999
88,0.733333,jog,0.5423016920676732,-0.45505820232809335,-0.2024480979239154,0.06593529507283886,0.03766434332975315,-0.6604517738729222,0.004560182407294172,-0.004920196807867223,0.02640105604224217,1.8190327613104453,-1.5000600024000976,-0.21504860194407877,-2.5202016120980493,7.719017509050781,15.265221193272382,1.0080806448372657,0.792063363802207,0.12961036862220154,6.768541472486414,2.6642131327885803,-4.637170966257749,-0.20087199999999994,0.07975600000000005,-0.8634649999999999,0.11763400000000002,0.047682,-0.771357,0.31850599999999996,0.03207400000000005,0.09210799999999997,0.9545999461465826,0.0,single,-0.771357
89,0.741667,jog,0.6492680585553259,-0.6461483081353496,-0.4746820254379628,-1.4558402705297435,2.1092666885768008,-1.3280304260499083,-0.0233981281497549,0.03287736981041493,0.08135349172066257,1.8051355891528782,-1.4244060475162026,-0.3096952243820512,12.83493718354371,-22.928978378600593,-32.665458065040674,-3.354728888534825,4.535345166580558,6.593764780228067,-1.6675272567275279,9.07774836619816,-11.356686157664145,-0.20647800000000005,0.08541500000000002,-0.858831,0.12726699999999996,0.04119600000000001,-0.7699819999999999,0.333745,0.04421900000000001,0.08884900000000007,0.8486469867632199,0.0,single,-0.7699819999999999
90,0.75,jog,0.6020640825632926,-0.507500300012003,-0.1814472578903098,-0.1636952583330138,0.5280237885865257,-0.7129025664479842,-0.0014400576023055264,-0.010680427217089328,0.0549621984879393,1.8755550222008808,-1.4378975159006357,-0.2685707428297109,-5.66470370719226,16.638426511862004,35.189579688905766,2.63507386864866,-5.227144729089653,-3.1670818712016278,8.450669992559977,-1.6190409677706832,4.935135191688486,-0.211507,0.08955500000000005,-0.856861,0.13787900000000003,0.033443,-0.7707080000000001,0.34938600000000003,0.05611200000000005,0.08615299999999992,0.9066519571998138,0.0,single,-0.7707080000000001
91,0.758333,jog,0.65438617544702,-0.5060602424096841,-0.13560542421697716,1.0007280342859413,-0.26383355966809396,-1.0905054623249821,0.01788071522861696,-0.006240249609990614,0.04536181447257828,2.0500420016800605,-1.5568222728909107,-0.3790951638065501,6.278902302139356,0.17281382483126193,5.50124009040351,2.318585483130014,0.5328426265569057,-1.152092165529938,20.939275108505814,-14.271541700500952,-13.263461055662878,-0.21681099999999998,0.09371999999999991,-0.8553529999999999,0.149509,0.024686999999999903,-0.772737,0.36632,0.06903300000000001,0.08261599999999991,0.9180726116794997,0.0,single,-0.772737
92,0.766667,jog,0.6663066954643703,-0.5153587712983049,-0.17098632109431458,0.3004269666749967,0.7971089701161412,-0.9162271447646712,0.03179745620349907,-0.00779937604991386,0.05051595872330299,1.9746820254379762,-1.3917686585073172,-0.2745380369570465,1.4303479742440952,-1.1157342078978725,-4.245367995840847,1.6698753269597055,-0.18708020637428058,0.6184478342602272,-9.042473751150068,19.80484933808428,12.545851553816203,-0.22209900000000005,0.09794999999999998,-0.8535069999999999,0.16041299999999997,0.017383000000000037,-0.7736,0.382512,0.08056699999999994,0.07990699999999995,0.8996703963384814,0.0,single,-0.7736
93,0.775,jog,0.7250690027601064,-0.541221648865954,-0.10752430097202606,0.10494966363899864,0.1771608281645331,-0.9723372476355023,0.013440537621504923,-0.0244809792391673,0.07380295211808412,1.9848793951757986,-1.3751350054002098,-0.2877715108604329,7.051758945846145,-3.1036694548960817,7.615747044556373,-2.202918346573151,-2.0018724576087092,2.7945509894133003,1.2237333178713943,1.9961182175815835,-1.5880803916220283,-0.22802900000000004,0.10225600000000001,-0.8519960000000001,0.17091099999999998,0.010434000000000054,-0.7751020000000001,0.39894,0.09182199999999996,0.07689400000000002,0.8684827626695961,0.0,single,-0.7751020000000001
94,0.783333,jog,0.7128285131405255,-0.4995799831993359,-0.0468018720748836,1.2031247966692749,0.11767972006422728,-0.8892565602812057,0.02544101764070466,-0.027961118444742694,0.08244329773191005,2.02556102244092,-1.362534501380078,-0.29701188047522065,-1.4689175110501644,4.9971997679849425,7.286982946975041,1.440115206912258,-0.4176334100054513,1.0368829489770799,4.881990551436666,1.5121209672545197,-1.1088887093229127,-0.233757,0.106186,-0.8509190000000001,0.18185000000000007,0.003242999999999996,-0.7771870000000001,0.41560700000000006,0.102943,0.07373200000000002,0.8488381398762319,0.0,single,-0.7771870000000001
95,0.791667,jog,0.733501319894407,-0.5758339332853325,-0.14890808735301633,-0.46663582468610654,0.5834257926892052,-0.5986078560128199,0.02783777297816273,-0.034317254619631185,0.10343172546196246,2.1133909287256847,-1.3988480921526107,-0.2985361171106294,2.4805383673963695,-9.149742030957047,-12.251765692120465,0.28758763348428773,-0.7626753269604563,2.5184098548178846,10.538745654519325,-4.357282310119083,-0.1828937647478673,-0.23963800000000002,0.11069899999999999,-0.848816,0.19335000000000002,-0.0036159999999999526,-0.778434,0.43298800000000004,0.11431499999999994,0.07038200000000006,0.8125408385137127,0.0,single,-0.778434
96,0.8,jog,0.808592343693747,-0.5419416776671001,-0.08820352814113022,-0.1954253673398865,1.0320287165943411,-0.9958211718271203,0.028201128045119914,-0.02532101284050886,0.12072482899315921,2.0454818192727595,-1.3429737189487598,-0.27517100684027285,9.011283307253048,4.067233363522411,7.284838498966262,0.04360435220895002,1.0795921971825617,2.075255433960961,-8.14941911111543,6.705192992181769,2.803925389458351,-0.24614100000000005,0.115004,-0.8470749999999999,0.20365699999999998,-0.01029100000000005,-0.779992,0.44979800000000003,0.12529500000000005,0.06708299999999989,0.789109417194906,0.0,single,-0.779992
97,0.808333,jog,0.8151926077043082,-0.5767430697227914,-0.05208208328332394,-0.07559981307608415,0.24944798901919452,-0.6998597422077686,0.02496099843993614,-0.05436217448698438,0.14676587063482696,2.021960878435156,-1.270490819632785,-0.3145325813032548,0.7920633638019082,-4.176334100046999,4.334746772807706,-0.3888311058662909,-3.4850788007291236,3.1250499990001184,-2.8226258055446514,8.698295849751037,-4.723577878673023,-0.252726,0.11935699999999994,-0.845418,0.21371300000000004,-0.016071999999999975,-0.7821790000000001,0.46643900000000005,0.1354289999999999,0.06323899999999993,0.7358529542445966,0.0,single,-0.7821790000000001
98,0.816667,jog,0.8382529397648182,-0.5725941924645983,-0.054715622750181,-0.10256989761261613,0.7387796561360236,-0.6048113719292139,0.016918646508286138,-0.0628749700023956,0.17746580273577908,2.045356371490266,-1.283057355411565,-0.26397888168946204,2.76701848578231,0.49782544494757586,-0.31599945606635915,-0.9650050313954814,-1.0214537455496944,3.683697156341719,2.8072345878461396,-1.5078636643604233,6.065958676960927,-0.259571,0.12360499999999996,-0.843483,0.223773,-0.02199300000000004,-0.783923,0.483344,0.145598,0.059559999999999946,0.684944389418802,0.0,single,-0.783923
99,0.825,jog,0.9306372254890228,-0.6662666506660329,0.06312252490099979,0.31356634170173275,-0.6460583586995523,-1.2824042426163247,0.02628105124204623,-0.08328333133325078,0.201728069122767,2.085683427337113,-1.3259330373215021,-0.20076803072123162,11.086557749214627,-11.241144629957446,14.141143363876377,1.123533509391597,-2.4491013237555936,2.911588429975776,4.839440279232871,-5.145287640698137,7.585605540409337,-0.267107,0.128463,-0.8423280000000001,0.23339800000000005,-0.027490000000000014,-0.786122,0.500505,0.155953,0.05620600000000009,0.6336326190968091,0.0,single,-0.786122
100,0.833333,jog,0.9255970238809611,-0.5617424696987912,0.07500300012000288,0.3345986642969173,0.2641388216555605,-0.7946454766100134,0.025321012840522183,-0.08352334093364058,0.22872914916596543,1.9948397935917352,-1.2436097443897718,-0.24996999879995113,-0.6048483869028817,12.54340345220704,1.425714054842559,-0.11520921655154716,-0.028802304138942237,3.24025921555242,-10.901672116329962,9.879190319420378,-5.904472348340251,-0.274609,0.132448,-0.841047,0.24230799999999997,-0.03317199999999998,-0.78883,0.516917,0.16562,0.05221699999999996,0.5919751987039217,0.0,single,-0.78883
101,0.841667,jog,0.9563234941204537,-0.5883129349651972,0.10775137988960254,0.26568099261206174,-0.19531206645821636,-0.491427628893301,0.03503719702423287,-0.10463162946963969,0.27861771058315177,1.993640508759283,-1.218982481401482,-0.22114230861530879,3.686881478220826,-3.1882007759066293,3.9294912130548845,1.1658488341385427,-2.532792000959797,5.98614847818406,-0.14390266768085336,2.9550351557822867,3.4590460984691775,-0.28228699999999995,0.13647900000000002,-0.839623,0.25095300000000004,-0.03842800000000002,-0.791571,0.5332399999999999,0.17490700000000003,0.048051999999999984,0.5005469332710479,0.019480000000000053,single,-0.791571
102,0.85,jog,1.0109204368174805,-0.5825033001320136,0.15204608184327728,0.3873149765248797,0.17020345818191082,-0.562461990623771,0.05880235209408315,-0.12648505940237717,0.2775711028441158,1.927397095883852,-1.1408856354254193,-0.286451458058325,6.551895199451248,0.6971840673447371,5.315576857515318,2.8519326856894875,-2.622516492588225,-0.1255979526024224,-7.949527526152839,9.371996396983489,-7.837411429619203,-0.29022099999999995,0.14027900000000004,-0.838577,0.25859000000000004,-0.043080999999999925,-0.795225,0.5488109999999999,0.18335999999999997,0.04335200000000006,0.5,0.06647999999999998,flight,-0.795225
103,0.858333,jog,1.030121204848194,-0.5997839913596456,0.1689667586703419,0.7139536297107497,-0.018538245934870627,-0.4968317208912153,0.04056162246489236,-0.13308532341293916,0.24024960998439882,1.905196207848306,-1.1323652946117797,-0.28489139565582516,2.304184331058862,-2.0737658979517475,2.0305624417454142,-2.1889751145074663,-0.7920633638019876,-4.478758293497759,-2.6642131327908185,1.022481796908626,0.18721497689905597,-0.29846700000000004,0.14416799999999996,-0.8379829999999999,0.265882,-0.04751899999999998,-0.799007,0.564349,0.19168699999999994,0.0389759999999999,0.5372881157345715,0.11024000000000006,single,-0.799007
104,0.866667,jog,1.0448764098872207,-0.6027117830573588,0.5043196544276568,3.4160660926992295,-1.7775253882524682,-0.36257033755652696,0.07499400047997375,-0.15262778977681152,0.2958963282937377,1.822174226061926,-1.080153587712997,-0.2837772978161754,1.7704829660459327,-0.35130689917366276,40.23912836060917,4.131554837422796,-2.3449083709950167,6.677072031358194,-9.961840867096287,6.264903635563106,0.1336810462742718,-0.30655,0.14791900000000002,-0.83972,0.27235999999999994,-0.051498000000000044,-0.805575,0.5789099999999999,0.19941700000000007,0.03414499999999998,0.5,0.1585499999999999,flight,-0.805575
105,0.875,jog,1.063842553702145,-0.555622224888996,0.23160926437057233,0.8933298433881527,0.5890397043870617,0.07267063566586948,0.0854434177367013,-0.19752790111604818,0.34021360854434085,1.749789991599658,-1.0043201728069033,-0.2901716068642738,2.276028298922855,5.650973019124278,-32.72655586908476,1.2539802300165024,-5.388228889863971,5.318286361526819,-8.686455593695877,9.10037380368336,-0.7673477796829923,-0.31470300000000007,0.150903,-0.838815,0.278076,-0.05523699999999998,-0.8099230000000001,0.5927790000000001,0.20614,0.028891999999999918,0.5,0.21108,flight,-0.8099230000000001
106,0.883333,jog,1.1891275651025925,-0.6727469098763922,0.3662546501859991,1.5790413853285183,-1.147705447061386,-1.1100928724678194,0.08988359534381334,-0.2006480259210368,0.3136925477019074,1.6409456378255052,-0.9347173886955494,-0.28141125645025683,15.034802760164052,-14.055524419464257,16.15809262155601,0.5328426265585038,-0.3744299537967863,-3.182654607276291,-13.061844926695349,8.352668200090436,1.0512841010460725,-0.323863,0.154837,-0.8392529999999999,0.281841,-0.05742000000000003,-0.8153199999999999,0.605704,0.21225700000000003,0.023932999999999982,0.5,0.26067000000000007,flight,-0.8153199999999999
107,0.891667,jog,1.3087353011759133,-0.6150707943364523,0.017638588912888057,-3.435810035474072,1.6248530318620504,0.4718675886444612,0.08531317494600686,-0.21562275017999266,0.361171106311497,1.5602351811855157,-0.8966882649388043,-0.31509479241660887,14.351780186383662,6.920580218375357,-41.83058090630106,-0.5484065752107631,-1.7968231652214948,5.696971275448749,-9.684480038395716,4.563129800425411,-4.041700979883877,-0.334059,0.15816599999999992,-0.83639,0.283937,-0.059767000000000015,-0.818093,0.617996,0.21793299999999993,0.018297000000000008,0.5,0.31703000000000003,flight,-0.818093
108,0.9,jog,1.1792871714868582,-0.6117844713788583,0.349813992559701,1.6601773569032818,-1.888400697171376,-0.2779133885958233,0.13512540501619533,-0.25141005640225,0.34813392535701293,1.3667346693867677,-0.7911916476659119,-0.30985239409576265,-15.534396938564084,0.3943745298924755,39.862642943335125,5.977706716691259,-4.294648532612167,-1.564524295509904,-23.22099025545989,12.660100476766104,0.6291129630200646,-0.34276000000000006,0.161169,-0.8364039999999999,0.28549899999999995,-0.06126200000000004,-0.8235899999999999,0.628259,0.22243100000000005,0.012813999999999992,0.5,0.3718600000000001,flight,-0.8235899999999999
109,0.908333,jog,1.2475699027961185,-0.5859834393375754,0.4604584183367352,2.0799783740705093,2.4044893034913253,0.10595729453193162,0.17208688347534615,-0.3094923796951904,0.42373694947798207,1.1616464658586443,-0.6482659306372203,-0.3009720388815576,8.194255527332395,3.0962476948617734,13.277862207732529,4.4355548372916305,-6.970157601456968,9.072725803548522,-24.611568886130478,17.151772114327724,1.0656852531147403,-0.351722,0.16347299999999998,-0.83671,0.284783,-0.061780999999999975,-0.829935,0.636505,0.22525399999999995,0.0067749999999999755,0.5,0.43224999999999997,flight,-0.829935
110,0.916667,jog,1.3754499640028695,-0.6791456683465269,-0.21010319174465247,-3.681720309575764,0.06819528067621217,0.17374931256497075,0.19858411327093226,-0.29157667386609365,0.36945044396447985,0.9577633789296803,-0.560235181185505,-0.3484521238300914,15.344379794426448,-11.178573195218483,-80.46095633325923,3.179413222412516,2.1497127224737946,-6.513859552855989,-24.464013310410653,10.562844906613226,-5.697154421470293,-0.36153,0.16670299999999993,-0.83188,0.28130200000000005,-0.06079000000000001,-0.831088,0.6428320000000001,0.22749299999999995,0.0007919999999999039,0.5,0.49207999999999996,flight,-0.831088
111,0.925,jog,1.3370934837393489,-0.6012240489619644,0.2647305892235728,0.3235815911526002,1.7800209456731702,-0.025706749732416292,0.2782911316452732,-0.39709588383533917,0.4076563062522481,0.7277091083643299,-0.47821912876515055,-0.37201488059522125,-4.602961750092453,9.350968364882062,56.98233300950717,9.56522481391343,-12.662811708777761,4.584886870006969,-27.607616772512838,9.84231998324182,-2.827643917572275,-0.370353,0.1684040000000001,-0.830689,0.27622399999999997,-0.05976499999999996,-0.8363940000000001,0.646577,0.22816900000000007,0.005705000000000071,0.4429500000000001,0.5,flight,-0.830689
112,0.933333,jog,1.3784951398056011,-0.568942757710313,0.43885755430216533,2.9651181240888125,0.6174278272552464,-0.1888974691397548,0.25765030601224403,-0.3415336613464588,0.41185647425897465,0.4790591623664985,-0.4184567382695368,-0.3835353414136606,4.968397463848867,3.873909906594462,20.896071652297387,-2.476998155889757,6.667733408002026,0.5040403224200896,-29.839187087223532,7.171773730422935,-1.3825105986366772,-0.37969299999999995,0.1702990000000001,-0.8309139999999999,0.268729,-0.05851099999999998,-0.843247,0.6484219999999999,0.22881000000000007,0.012333000000000038,0.37667000000000006,0.5,flight,-0.8309139999999999
113,0.941667,jog,1.3650107991360583,-0.6533477321814112,0.20074394048476396,0.33909639098814714,0.5012016270753522,-0.038998345670933306,0.33585313174945697,-0.3672906167506681,0.37580993520518025,0.23386129109671122,-0.3428125749939977,-0.4259659227261784,-1.6179914410298473,-10.127786713594617,-28.571347950251926,9.38358840139337,-3.090587401512972,-4.325238667361906,-29.42139084110696,9.076573467187245,-5.091262456505578,-0.38826999999999995,0.17268299999999992,-0.829455,0.25930200000000003,-0.055923000000000056,-0.84847,0.6475719999999999,0.22860599999999998,0.019014999999999893,0.30985000000000007,0.5,flight,-0.829455
114,0.95,jog,1.23712948517942,-0.5643825753030188,0.0006000240009639748,-0.3410875123975688,1.1159194469925906,0.5806469467749507,0.3666146645865771,-0.41341653666146067,0.3226929077163129,0.0004800192007685152,-0.2494899795991793,-0.4948997959918445,-15.346371529657931,10.67624587524219,-24.01823070728451,3.6915316017185185,-5.535331802567262,-6.37429827059496,-28.00687290242948,11.199159413754861,-8.27239568770752,-0.39552400000000004,0.173941,-0.826771,0.248997,-0.053298999999999985,-0.852599,0.644521,0.22724,0.025827999999999962,0.24172,0.5,flight,-0.826771
115,0.958333,jog,1.366974678987152,-0.6669866794671835,-0.08844353774150782,-0.9133500546473091,-0.18445117473219216,0.018912907107947043,0.4471378855154196,-0.4496579863194576,0.34213368534741156,-0.21564862594503606,-0.1837273490939702,-0.5293411736469434,15.582046538789335,-12.312985019100472,-10.68565483528998,9.663173038382595,-4.349147924876607,2.332986635197235,-25.9364748764915,7.891831333878413,-4.133130643837606,-0.403189,0.17575200000000002,-0.823183,0.23580900000000002,-0.04927199999999998,-0.8562730000000001,0.6389980000000001,0.225024,0.033090000000000064,0.16910000000000008,0.5,flight,-0.823183
116,0.966667,jog,1.44048476121909,-0.6154307655387449,0.1723062155027576,0.8480246290028557,1.4916689703652692,-0.04323908561991387,0.4712023038156928,-0.45368370530356306,0.3225341972642159,-0.36909047276217566,-0.08879289656826941,-0.5685145188384894,8.820504227494306,6.186214774230648,31.287467391920256,2.8874991960970706,-0.4830476342819108,-2.3517504299490666,-18.411548694161077,11.391223005243589,-4.700425388954358,-0.411267,0.17710000000000004,-0.8219310000000001,0.22072800000000004,-0.044883000000000006,-0.8624470000000001,0.6319950000000001,0.22198300000000004,0.040515999999999996,0.09484000000000004,0.5,flight,-0.8219310000000001
117,0.975,jog,1.4077763110524606,-0.6509060362414537,-0.022080883235338376,0.09245135041329568,0.07896711674557248,-0.04504410427975006,0.6050642025681072,-0.5591023640945785,0.472698907956324,-0.4309372374895048,-0.02136085443417894,-0.4735389415576664,-3.9251710268366478,-4.257202772435997,-23.32738494396949,16.064070413106403,-12.650745084725354,18.02048610249724,-7.42190864362531,8.092168742840645,11.397525174705846,-0.41795600000000005,0.17786499999999994,-0.817808,0.20540599999999998,-0.03963700000000003,-0.866209,0.623362,0.21750199999999997,0.04840100000000003,0.01598999999999995,0.5,flight,-0.817808
118,0.983333,jog,1.4039361574462872,-0.6249849993999722,-0.127925117004681,-0.24732297676862242,-0.6628334978602479,-0.22182675437790367,0.5623424936997551,-0.4858994359774334,0.43621744869794604,-0.33097323892955705,-0.07512300492019834,-0.44173766950677806,-0.46083686621545494,3.1106488469316447,-12.701816124966061,-5.126810136607699,8.784702762167859,-4.3779502290145,11.996159673580623,-6.45171612696738,3.8163052983185177,-0.42496899999999993,0.17902399999999996,-0.8131069999999999,0.190949,-0.03505500000000006,-0.8688239999999999,0.615918,0.21407900000000002,0.055717000000000017,0.0,0.5,flight,-0.8131069999999999
119,0.991667,jog,1.3912886969042582,-0.7467002639788967,0.23914086873050563,1.601828840088398,-2.206798189627953,-1.002506584369069,0.586393088552916,-0.39224862011038936,0.3592512598992097,-0.015118790496758813,-0.08399328053756154,-0.0547156227501809,-1.5175738591347616,-14.604663376400906,44.04439473664372,2.8858405151381215,11.237198928131098,-9.235203839541251,37.89950185178786,-1.06434792624949,46.43893049635222,-0.431677,0.18197800000000008,-0.812106,0.179228,-0.029532000000000003,-0.871273,0.610905,0.2115100000000001,0.05916699999999997,0.0,0.8310387258826704,single,-0.812106
120,1.0,jog,1.331213248529938,-0.5778231129245028,-0.21876875075003138,-0.5665608334417109,-0.544136758850448,0.29263978929476325,0.6833073322932861,-0.5193807752310069,0.6133445337813492,0.1339253570142807,-0.16536661466458474,-0.004920196807872219,-7.2093421786055405,20.266068769277947,-54.951352391759876,11.63017445582259,-15.25646887322897,30.49241256235911,17.88601314185034,-9.765190702870859,5.9756901406826435,-0.437076,0.182465,-0.805172,0.16925099999999998,-0.02609500000000009,-0.8694909999999999,0.6063270000000001,0.20856000000000008,0.0643189999999999,0.0,0.6452452849203175,single,-0.805172
121,1.008333,jog,1.3728549141965811,-0.5469818792751835,-0.06984279371174568,-1.126409509949809,1.5482290190505468,0.7262330793773183,0.7215888635545543,-0.5130205208208409,0.6479059162366538,0.22740909636385423,-0.23904956198248073,-0.07668306732269368,4.997199767987947,3.7010960817616256,17.87182971778316,4.59396751005263,0.7632610596623094,4.147531795908426,11.218497461847399,-8.842307370442416,-8.611888937336149,-0.442503,0.18274800000000002,-0.799191,0.15970599999999996,-0.023529000000000022,-0.869548,0.602209,0.20627700000000004,0.070357,0.0,0.5,flight,-0.799191
122,1.016667,jog,1.2385409167266521,-0.5413966882649299,-0.16366690664747077,0.5975307848438279,-0.7890595678148071,0.2685890550694081,0.8354931605471428,-0.6151907847372154,0.7555795536357031,0.19186465082793436,-0.2752579793616378,-0.11831053515718662,-16.116390385160546,0.6701693076858078,-11.257992912853897,13.667422245330892,-12.259450913891737,12.919802903653517,-4.264992264929158,-4.344662512497817,-4.994896548415241,-0.44586200000000004,0.182133,-0.79153,0.15098299999999998,-0.02131099999999997,-0.86917,0.5968450000000001,0.20344399999999996,0.07764000000000004,0.0,0.5,flight,-0.79153
123,1.025,jog,1.306612264490586,-0.5909036361454559,-0.17184687387495523,-1.1778541719599727,-1.9225870673329475,0.5769114908761948,1.0222008880355338,-0.7635905436217527,0.809192367694715,0.12432497299892219,-0.21372854914197154,-0.1819272770910849,8.168888487211627,-5.941071388518716,-0.9816353327114524,22.40582353154838,-17.808683413481173,6.4337950388830505,-8.10508554290325,7.383826979439199,-7.634314404644048,-0.44823199999999996,0.18069400000000002,-0.783355,0.14113100000000003,-0.018167999999999962,-0.869254,0.589363,0.19886199999999998,0.08589899999999995,0.0,0.5,flight,-0.783355
124,1.033333,jog,1.232929317172666,-0.5841833673346811,-0.16284651386054455,0.40060894741546205,-1.4286109219768237,0.6765892862524945,1.1752070082803034,-0.8852754110164212,0.9113164526580925,0.010080403216128558,-0.1990879635185332,-0.1832473298931926,-8.842307370445052,0.806464515873598,1.0800864051854702,18.361468888127565,-14.602768198087881,12.25538041082151,-13.709896769805788,1.7569405524346675,-0.15841267275983184,-0.44871300000000003,0.17818500000000004,-0.774404,0.13094100000000003,-0.014958999999999945,-0.869424,0.5796540000000001,0.19314399999999998,0.09502,0.0,0.548714134512585,single,-0.774404
125,1.041667,jog,1.1826253899688288,-0.5569954403647857,-0.2700983921286352,1.4444699319556995,-1.2195985005412,0.5267976180745471,1.475521958243369,-1.021598272138251,0.8425725941924807,-0.03143748500120197,-0.08303335733141817,-0.19342452603792093,-6.035988385389754,3.262290253167265,-12.8691958565026,36.03491120267233,-16.357434739840713,-8.248603127623365,-4.98174804623606,13.925438707357479,-1.221165844099896,-0.44627200000000006,0.17431300000000005,-0.765131,0.12082299999999999,-0.011008999999999936,-0.868785,0.567095,0.185322,0.10365400000000002,0.0,0.645286104468521,single,-0.765131
126,1.05,jog,1.2475699027960854,-0.5846633865354497,-0.26953078123124097,1.1040046062097055,-0.8893078147812497,0.7678063816666358,1.7787111484459068,-1.185887435497406,0.7532701308052197,-0.02160086403456262,0.07776311052441745,-0.13716548661946215,7.7936532854020655,-3.320286351933704,0.06811603232859723,36.38415819063153,-19.71548822262716,-10.71672427544215,1.180441733666048,19.2963479966198,6.7513547844063115,-0.441846,0.16930299999999998,-0.7566080000000001,0.11024700000000001,-0.005488999999999966,-0.8676820000000001,0.5520930000000001,0.17479199999999995,0.111074,0.0,0.7347534197255406,single,-0.7566080000000001
127,1.058333,jog,1.209528381135257,-0.5837033481339282,-0.28429137165487667,0.6895536133693062,-1.4588100339981238,0.870543937401172,2.0013200528021367,-1.313092523700961,0.6811472458898402,-0.011760470418815299,0.006240249609977374,-0.1465258610344427,-4.565165205907674,0.1152092165512406,-1.7713417045044804,26.71413708823135,-15.26522119327446,-8.655092393541354,1.1808944696684762,-8.583086633198215,-1.1232898613921325,-0.43524799999999997,0.16322499999999995,-0.748563,0.10007000000000002,-0.0005730000000000457,-0.866534,0.535318,0.163798,0.11797100000000005,0.0,0.7547842371187758,single,-0.748563
128,1.066667,jog,1.2375809935205144,-0.5892728581713417,-0.3983681305495517,0.9752619216145171,-0.4066057324111963,0.9187453084289325,2.1868250539956557,-1.4478041756659248,0.5819534437244968,0.029757619390448322,-0.04463642908566416,-0.06623470122390121,3.3660442026946416,-0.6682877414702926,-13.688116018079455,22.258819437667107,-16.164105107386945,-11.902304075515083,4.9817722353327705,-6.104713066431623,9.634168443789402,-0.4273370000000001,0.15607000000000004,-0.740393,0.09000399999999997,0.003966000000000025,-0.863766,0.517341,0.15210400000000002,0.12337300000000007,0.0,0.8579420857583686,single,-0.740393
129,1.075,jog,1.235689427577111,-0.5811832473299036,-0.4075363014520564,1.1614556255269586,-0.4936807507660201,0.8461898194969226,2.3427337093484,-1.5748229929197306,0.5147005880235275,0.011400456018242243,-0.06036241449658416,-0.04728189127565211,-0.22699699308812632,0.9707921326578884,-1.1002245172812601,18.70978703381083,-15.242867785168244,-8.070665510736816,-2.202947722573653,-1.8871937370598992,2.274428170916749,-0.41811200000000004,0.1477900000000001,-0.732708,0.07980200000000001,0.008306000000000036,-0.8607640000000001,0.497914,0.13948400000000005,0.12805600000000006,0.0,0.8708019530173852,single,-0.732708
130,1.083333,jog,1.2678507140285378,-0.5353414136565293,-0.47929917196687666,0.6931372296646628,0.6170932873909359,1.375890422418006,2.464298571942831,-1.6612264490579391,0.4327373094923719,0.03276131045241698,-0.06096243849753319,0.00480019200768086,3.8595087545213156,5.501240090408429,-8.611888937335776,14.588367046013332,-10.368829489764435,-9.835986863213028,2.5634050683036556,-0.07200576034429612,6.250099997999767,-0.408142,0.13840799999999998,-0.725108,0.06951000000000002,0.01225900000000002,-0.85673,0.4776520000000001,0.12614899999999996,0.13162200000000002,0.0,0.8843765184671988,single,-0.725108
131,1.091667,jog,1.2337413006959694,-0.6291096712263136,-0.26625869930405727,0.49124856598443695,-3.0222691185436057,0.45714863303388564,2.63222942164633,-1.754499640028834,0.3849292056635529,0.0351571874250052,-0.03023758099352469,-0.008279337652987873,-4.09280217573422,-11.251290805109914,25.562811694603244,20.150089957223663,-11.19188756550235,-5.73651353837532,0.28748223813154095,3.6866879654438547,-1.5694180058398108,-0.3964869999999999,0.12902899999999995,-0.719681,0.05952099999999999,0.017249999999999988,-0.85458,0.45600799999999997,0.11177899999999996,0.134899,0.0,0.9214915686773231,single,-0.719681
132,1.1,jog,1.2576503060122173,-0.5841833673346811,-0.3424936997479867,0.584480313361919,-1.7434279442781453,0.6218503805950502,2.7871114844593223,-1.8233529341173245,0.2991719668786693,0.010320412816512808,-0.0002400096003909128,-0.011520460818433232,2.8691954057659217,5.391372121880673,-9.14856599591121,18.5865910011988,-8.2627257996507,-10.291280305398063,-2.9805321743060067,3.5998525612784413,-0.38895033786695093,-0.383742,0.118703,-0.714334,0.049127000000000004,0.022115999999999914,-0.851822,0.432869,0.09658700000000009,0.13748799999999994,0.0,0.9742183558633184,single,-0.714334
133,1.108333,jog,1.298811952478111,-0.5244209768390765,-0.4602184087363576,-0.018655974059489745,-0.5269609889166399,0.7348483138409834,2.9511580463218867,-1.9198367934717646,0.24648985959438607,-0.03108124324973138,0.01188047521901742,-0.007320292811712362,4.9395951597136785,7.171773730421836,-14.12753017981183,19.686374878503045,-11.578526263583466,-6.322105758344381,-4.968397463847902,1.4545163589833727,0.5040403224194058,-0.36997299999999994,0.10707499999999992,-0.708445,0.038044999999999995,0.02658499999999997,-0.8480479999999999,0.40801799999999994,0.08048999999999995,0.13960299999999992,0.0,0.9432163936943293,single,-0.708445
134,1.116667,jog,1.2571394288456845,-0.5651547876169987,-0.42656587473001534,0.1631802048229066,-1.0821351513031974,0.6455227193705622,3.08135349172063,-2.0031197504199496,0.1525077993760514,-0.025557955363569636,0.002159827213818377,0.021718262538996787,-5.000302811666204,-4.887666280048217,4.03798104227766,15.62220367155535,-9.993155381351615,-11.276945070594426,0.6627415270172428,-1.1663844498678868,3.4843478942535313,-0.35477000000000003,0.09509100000000004,-0.703619,0.02735499999999999,0.031313000000000035,-0.844312,0.38212500000000005,0.063778,0.14069299999999996,0.0,0.943985198789552,single,-0.703619
135,1.125,jog,1.2566902676107137,-0.5781831273250969,-0.35557422296891456,0.35620662868772696,-1.2623281277409708,0.5491397721386586,3.2283691347654178,-2.0140405616224824,0.09360374414976387,-0.008160326413054765,0.0037201488059526618,0.01872074882995377,-0.05390150425667298,-1.563463303503944,8.519338984891567,17.64258286868944,-1.3105497662945929,-7.068769377929687,2.087798986021245,0.18724608089935185,-0.35971603372651423,-0.33834000000000003,0.08312600000000003,-0.699876,0.016815000000000024,0.03616200000000003,-0.8411930000000001,0.35515500000000005,0.046964000000000006,0.14131700000000003,0.0,0.9654032407161433,single,-0.699876
136,1.133333,jog,1.257530301212062,-0.5463818552742061,-0.3884555382215379,-0.11269889533056275,-1.6564714025621725,0.576967623393587,3.269170766830708,-2.0352814112564657,0.02412096483859457,0.0055202208088312625,0.0020400816032695203,0.01644065762630499,0.10080806448437897,3.8163052983188614,-3.945915666941514,4.896391703503035,-2.5490039162346707,-8.338267048022313,1.6417313358797736,-0.20161612896713751,-0.2736218893134286,-0.321577,0.07071899999999998,-0.696438,0.006381999999999999,0.04073199999999999,-0.837819,0.327959,0.029986999999999986,0.14138099999999998,0.0,0.9708962586448813,single,-0.696438
137,1.141667,jog,1.3064554835613063,-0.5945524358051362,-0.21370290376770085,-0.20712320061158715,-2.1645875472490568,0.37021696188056874,3.40136789056873,-2.1396688264938724,-0.1010319174466013,0.013558915286777194,-0.006959443244540683,0.0242380609551235,5.870552237730248,-5.780007263130511,20.968638643368816,15.862385857693871,-12.525487789465549,-15.017144502663175,0.9645661720597397,-1.0798565932097592,0.9356135503741839,-0.304118,0.05784199999999995,-0.695499,-0.004393000000000008,0.04562900000000003,-0.8358359999999999,0.299725,0.012212999999999918,0.14033699999999993,0.0,0.9522808670769998,single,-0.695499
138,1.15,jog,1.2172086883475433,-0.48841953678147787,-0.5175807032281352,-0.5693463663216859,-0.15321625021288413,1.1529309915232329,3.593543741749703,-2.1622464898596117,-0.12588503540141988,0.024840993639744013,-0.003360134405379606,0.023520940837633928,-10.710043827404753,12.736457341132757,-36.46679460703674,23.06202462270188,-2.709427981007981,-2.9824934543164296,1.3539035584983707,0.4319343380728561,-0.08605785641300592,-0.284316,0.04389399999999999,-0.6922349999999999,-0.014329000000000008,0.04967100000000002,-0.8313269999999999,0.269987,0.005777000000000032,0.139092,0.0,0.9427093151327883,single,-0.6922349999999999
139,1.158333,jog,1.2217688707548082,-0.47281891275649524,-0.40597623904954455,-0.9842152224507338,-1.2249969298448338,1.2082383132717556,3.675027001079977,-2.189007560302368,-0.18600744029760816,0.0004800192007685024,-0.02688107524300949,0.03984159366374573,0.5472437786229315,1.8721497689886428,13.393071424287616,9.778382254922919,-3.2114569114071863,-7.214977186629933,-2.9234338700318117,-2.822625805547758,1.9585566814006377,-0.263873,0.02959299999999998,-0.6904020000000001,-0.024506,0.05338699999999996,-0.827612,0.239367,0.023793999999999982,0.13720999999999994,0.0,0.919892863226793,single,-0.6904020000000001
140,1.166667,jog,1.2363810895128633,-0.5016798656107595,-0.4510439164866978,-0.6736401647047382,-0.8256176947547538,1.4813361650587757,3.723782097432277,-2.2125029997600594,-0.2239020878329784,-0.0058795296376283205,-0.016798656107515197,0.027117830573554276,1.753325984887851,-3.4630372995278154,-5.407688677364302,5.850143550792024,-2.819227196747254,-4.546993944728938,-0.7630848138225275,1.2097935127783157,-1.5267294324684055,-0.243143,0.015334999999999988,-0.688509,-0.034859,0.057427999999999924,-0.823627,0.208284,0.042092999999999936,0.13511799999999996,0.0,0.945938809083433,single,-0.688509
141,1.175,jog,1.2294491779670977,-0.4784591383655351,-0.40093603744148193,-0.9088594753409925,-0.23586630477457385,1.7267932901412626,3.7676707068282047,-2.168966758670313,-0.2970118804752111,-0.0015600624024976327,-0.021960878435129005,0.045841833673346176,-0.8318626599982522,2.786598733376213,6.013186012866312,5.2668438012633025,5.224557913086001,-8.773526058110093,0.5183568024877729,-0.6194914589720051,2.24697025078502,-0.22199200000000002,0.0012480000000000269,-0.687643,-0.04511700000000002,0.061232000000000064,-0.8199040000000001,0.176875,0.05998400000000004,0.13226100000000007,0.0,0.9152423767624388,single,-0.687643
142,1.183333,jog,1.2529701188047626,-0.5083403336133513,-0.37501500060003273,-0.5341762070612766,-0.5940590988980534,1.8375483606540328,3.866674666986715,-2.217328693147742,-0.35209408376335616,-0.005760230409215521,-0.04368174726989491,0.021720868834753663,2.8226258055520326,-3.5858868652125833,3.110648846927809,11.880950457039615,-5.803664283862899,-6.610128799729456,-0.504040322419048,-2.606608524512913,-2.894631565893764,-0.200212,-0.012992999999999921,-0.687452,-0.055606,0.06510400000000005,-0.816598,0.144606,0.07809699999999997,0.1291460000000001,0.0,0.9181282940975672,single,-0.687452
143,1.191667,jog,1.1953443724501946,-0.48440124790015915,-0.4688024958003317,-0.4687234556182553,0.4874775599691733,2.0165605113491343,4.077873770098366,-2.2532997360211,-0.30633549316054476,-0.0011999040076772461,-0.055555555555554074,0.02291816654667653,-6.914536399636132,2.872460488743936,-11.2535991361049,25.34186502419598,-4.316179850414861,5.490591625007325,0.5471953925531845,-1.4247430148379017,0.14366423229215966,-0.17618899999999998,-0.027734999999999954,-0.686098,-0.06557799999999998,0.06867800000000002,-0.8125,0.11061099999999999,0.09641299999999997,0.12640200000000001,0.0,0.8998181947022883,single,-0.686098
144,1.2,jog,1.3298931957278424,-0.5198607944317823,-0.28537141485659584,-1.2761396319715452,-1.1541182327764186,2.062517110827833,3.9914796591864024,-2.190087603504172,-0.4262570502820151,-0.021000840033602555,-0.0651626065042693,0.03288131525260998,16.146504653504014,-4.25531579642668,22.01261021765721,-10.367708017756422,7.585759332404689,-14.391162501076616,-2.376207371405915,-1.1528922295350197,1.1956256697388148,-0.15400999999999998,-0.04165300000000005,-0.687272,-0.076835,0.07246699999999995,-0.809848,0.077175,0.11412,0.12257600000000002,0.0,0.8734168975063689,single,-0.687272
145,1.208333,jog,1.2637705508220105,-0.5557422296891841,-0.25189007560301513,-1.2967522337227004,-0.56060603341685,1.8767791847335624,4.0261610464417865,-2.1588863554541744,-0.5154206168246631,-0.02628105124204886,-0.0655226209048273,0.016320652826112426,-7.935034790091288,-4.305944468666879,4.017921427286707,4.161932947963946,3.7442995379811763,-10.700055987357068,-0.6336506910411872,-0.04320345620520689,-1.9873589855390936,-0.130991,-0.05501199999999995,-0.6894680000000001,-0.087585,0.07655200000000006,-0.807613,0.043406,0.13156400000000001,0.11814499999999994,0.0,0.879235407906132,single,-0.6894680000000001
146,1.216667,jog,1.3304535637149282,-0.586513078953682,-0.23038156947445035,-1.188013698087861,-0.6180830295027382,1.7618554574939815,4.106551475882008,-2.129229661627112,-0.45236381089513644,-0.00995920326373906,-0.0651547876169871,0.011159107271418835,8.001321441434957,-3.6922065352170024,2.5808142702862,9.646079846439056,3.558518577761358,7.566211414630174,1.9584650801907981,0.04413646362373423,-0.6193359196896676,-0.10785499999999999,-0.06786900000000007,-0.691318,-0.098756,0.080897,-0.8056,0.009098999999999996,0.14876600000000006,0.114282,0.0,0.8885841404397445,single,-0.691318
147,1.225,jog,1.3531741269650543,-0.6277451098043928,-0.24144965798631687,-0.7195115603327747,-0.08205388068098561,1.667735380403776,4.070682827313019,-2.0985239409575986,-0.5685827433097215,-0.013560542421696868,-0.0733229329173188,0.008640345613824716,2.726576653081216,-4.948041623750161,-1.3282237503739747,-4.304410004678841,3.6848338736964625,-13.946829762940476,-0.43217798607437247,-0.9802166447055741,-0.30226348945086706,-0.08521000000000001,-0.08012499999999995,-0.694044,-0.11014499999999999,0.08551700000000007,-0.803516,0.024934999999999985,0.165642,0.10947200000000001,0.0,0.874891198743136,single,-0.694044
148,1.233333,jog,1.3534141365654755,-0.6737069482779382,-0.1753270130805303,-0.752826444720494,0.08369115781865695,1.6546409047515906,4.025081003240168,-2.0452418096724094,-0.5863434537381551,-0.018000720028802666,-0.07128285131405122,0.07584303372134962,0.028802304142703097,-5.515641242475198,7.935034790086064,-5.472437786253549,6.394111518683512,-2.131370506232305,-0.5328426265577629,0.24481958517551813,8.06464515870941,-0.062947,-0.09155399999999997,-0.6974689999999999,-0.12157300000000001,0.09053700000000009,-0.801423,0.05862600000000001,0.18209100000000006,0.1039540000000001,0.0,0.82395205374455,single,-0.6974689999999999
149,1.241667,jog,1.4413246940244668,-0.6505879529637492,-0.12742980561555067,-0.7069741719854407,0.17727966425406996,1.4360753366722225,4.113630909527206,-2.076793856491464,-0.6033117350611911,-0.03959683225341906,-0.05195584353251901,0.053995680345571825,10.548423021237182,2.7740575131016154,5.747205119387961,10.625138743344992,-3.785942742867074,-2.036030876294196,-2.5913261608610787,2.3190554093510998,-2.6214726872783336,-0.040676000000000004,-0.10344000000000003,-0.7014349999999999,-0.133915,0.095526,-0.7999109999999999,0.093239,0.19896600000000003,0.09847600000000001,0.0,0.8587471504942076,single,-0.7014349999999999
150,1.25,jog,1.5400216008640488,-0.7025081003240224,-0.14256570262810245,0.1102132218492238,0.4255622508342065,1.3435617676500335,4.53126125045006,-2.021000840033619,-0.43513740549622265,-0.006120244809791907,-0.04200168006721177,0.06312252490099646,11.84410258485334,-6.230666909909248,-1.8163802967180982,50.117645616567536,6.695429792133128,20.18172681686907,4.017351187282787,1.194547397732789,1.095265157257256,-0.01575,-0.114427,-0.703873,-0.146799,0.10102999999999995,-0.7981969999999999,0.131049,0.21545699999999995,0.09432399999999996,0.0,0.8732231655090428,single,-0.703873
151,1.258333,jog,1.5408616344653927,-0.7411496459858413,-0.004920196807867288,-0.41690906313440146,0.3886188249451402,0.9835055418863952,4.3183727349094365,-1.981999279971214,-0.5565822632905371,0.014280571222850003,-0.03648145925836718,0.023880955238209482,0.10080806448384604,-4.637170966256958,16.5181214232853,-25.547643770625825,4.680374422465537,-14.57396589395362,2.4481958517511213,0.6624529951811639,-4.709176726603544,0.0073950000000000005,-0.12476700000000002,-0.70847,-0.15952,0.10690199999999994,-0.797957,0.16691499999999998,0.23166899999999996,0.08948699999999998,0.0,0.9235304779819625,single,-0.70847
152,1.266667,jog,1.5776337892968442,-0.7487401007919338,0.0915526757859314,-0.15543957841244205,0.4664922413360702,0.9069538263065007,4.3646508279337315,-2.002399808015348,-0.4874010079193639,0.0020398368130536497,-0.037556995440365414,0.09215262778977669,4.412305595326516,-0.9107817141939503,11.575818645764093,5.552926928761054,-2.4478675358931836,8.301086557616104,-1.4687706275253491,-0.12905401751838524,8.191945350559958,0.030622,-0.13521500000000003,-0.713295,-0.172651,0.11282899999999996,-0.797952,0.203273,0.248044,0.08465699999999998,0.0,0.8341118545417103,single,-0.713295
153,1.275,jog,1.6050642025681172,-0.7848313932557363,0.2216488659546454,-0.7964559092933835,0.26709363453214185,0.693006903290916,4.123364934597421,-1.9629185167406888,-0.4779791191647694,0.00972038881555244,-0.02544101764070466,0.13932557302292164,3.291781263803348,-4.33112834078997,15.6121673069381,-28.955465418974253,4.737944470737972,1.1306718774264526,0.9217031084242001,1.453975494979103,5.660979867172133,0.051607,-0.14503200000000005,-0.719125,-0.185945,0.11915699999999996,-0.7986380000000001,0.23755199999999999,0.264189,0.07951300000000006,0.0,0.7633958613381742,single,-0.719125
154,1.283333,jog,1.660626425056973,-0.8073922956918149,0.22644905796231118,-0.06998022657231504,0.757491636414525,0.4918085716528427,4.240729629185094,-1.9461178447137522,-0.473898955958231,0.004080163206528939,-0.013320532821309287,0.23544941797671476,6.66773340799891,-2.7074165889929525,0.5760460827631957,14.084326723589452,2.016161289683955,0.4896391703514096,-0.6768541472486982,1.4545163589817784,11.535322807367267,0.073107,-0.15452100000000002,-0.724961,-0.199749,0.125774,-0.798563,0.272856,0.280295,0.07360200000000006,0.0,0.6068979749620786,single,-0.724961
155,1.291667,jog,1.6745860331173827,-0.8411327093832672,0.33489320854332144,-0.3500643924070456,0.6604709879157679,0.4997713600611285,4.2282217422607005,-1.8989680825534327,-0.4658027357811476,0.1753059755219604,-0.05447564194863968,0.06047516198704272,1.6750189657319294,-4.048525760913481,13.012257089154346,-1.5008263648180933,5.657518857729818,0.9714687037537251,20.54545384154484,-4.938218037836714,-20.99523110027302,0.094389,-0.163337,-0.731634,-0.21224400000000002,0.13233000000000006,-0.80085,0.30663300000000004,0.29566700000000007,0.06921599999999994,0.0,0.6778672382180255,single,-0.731634
156,1.3,jog,1.7463098523940654,-0.892115684627369,0.39733589343573816,-0.7185909782449198,0.38757821827901157,0.4180467714226267,4.243609744389702,-1.858514340573587,-0.41881675267009866,0.08664346573862808,-0.007560302412100582,0.21960878435137002,8.607202601305826,-6.118201757362401,7.493421923966834,1.8466341208449935,4.854643223310324,5.638543515066379,-10.639926771070535,5.630065947022474,19.096798555661167,0.11519900000000001,-0.17139,-0.7384350000000001,-0.226074,0.13970100000000002,-0.802331,0.34127300000000005,0.311091,0.06389599999999995,0.0,0.6063268893695284,single,-0.7384350000000001
157,1.308333,jog,1.7757110284411528,-0.914676587063493,0.45493819752790393,-0.9493359874399151,0.12040120838235356,0.21368672593619367,4.3129725189007955,-1.7773910956438443,-0.48217928717149217,0.12504500180007497,0.03312132485298758,0.30277211088443784,3.5282822569407934,-2.7074165889984605,6.912552993179682,8.323865895967124,9.73517879872117,-7.60380829249899,4.608368662120154,4.881990551432681,9.979998383903586,0.13634200000000002,-0.178579,-0.746244,-0.239829,0.14759899999999998,-0.8035990000000001,0.37617100000000003,0.32617799999999997,0.057355000000000045,0.0,0.5,flight,-0.746244
158,1.316667,jog,1.7616990640748607,-0.9383249340052716,0.5452363810895078,-0.5441907913265246,0.898615386663712,0.06537801823620006,4.214422846172269,-1.7919366450683811,-0.41492680585552705,0.16942644588432756,0.03335733141348672,0.38324934005279315,-1.6813012198574566,-2.837574627043252,10.834915234173646,-11.825014726244984,-1.7453263048400138,8.069652185740892,5.325347262329284,0.028318521778154814,9.656494980604116,0.15678299999999998,-0.185693,-0.754246,-0.25309899999999996,0.15569699999999997,-0.804949,0.40988199999999997,0.34138999999999997,0.050703000000000054,0.0,0.5,flight,-0.754246
159,1.325,jog,1.848313932557319,-0.9971198847954023,0.44017760710428877,-0.570340331754583,0.7433798914607914,-0.025764419262039675,4.149765990639663,-1.7053882155286335,-0.4024960998439986,0.22008880355214439,0.015000600024006107,0.42805712228489456,10.394199985894534,-7.055676321868616,-12.607557180513616,-7.759133029233951,10.386226993849563,1.491744391159075,6.079726109182442,-2.2028958825729967,5.377148953810371,0.17596099999999998,-0.19159499999999996,-0.7612680000000001,-0.266667,0.16413100000000003,-0.80505,0.44262799999999997,0.355726,0.04378199999999999,0.06218000000000001,0.5,flight,-0.7612680000000001
160,1.333333,jog,1.7783511340453306,-1.0618024720988615,0.5431417256690075,0.19074008286368566,2.2179168329782826,-0.10227184588024828,4.088323532941251,-1.7075483019320463,-0.3644545781831207,0.30085203408135575,-0.040801632065282735,0.40441617664706025,-8.395871656304712,-7.76222096525358,12.356188475305048,-7.3733898594036935,-0.25922073723902206,4.565165205913502,9.691975342518894,-6.69653571214303,-2.8370269576183724,0.19521000000000002,-0.19697599999999998,-0.7688309999999999,-0.278979,0.172639,-0.806206,0.474189,0.36961499999999997,0.03737500000000005,0.12625000000000008,0.5,flight,-0.7688309999999999
161,1.341667,jog,1.8916486681065876,-1.0585553155747738,0.7075833933285521,-0.4507546787077499,0.7377014863739594,0.10850741585849842,4.105111591072788,-1.691024718022593,-0.3299736021118376,0.33621310295177015,-0.04883609311255747,0.45152387808976,13.594616518029653,0.3896276126815158,19.731421605417292,2.0144058233186057,1.982671455418,4.137386137663036,4.242988825343781,-0.9640582010169049,5.65247197536605,0.21365699999999999,-0.202247,-0.777478,-0.29194200000000003,0.18105399999999994,-0.8083400000000001,0.505599,0.38330099999999995,0.030862000000000056,0.19138,0.5,flight,-0.777478
162,1.35,jog,1.9035161406455943,-1.0822032881315093,0.7363494539781499,-0.34244032219276127,0.6644668687609292,0.10940568451946837,4.153006120244737,-1.6218648745949553,-0.36361454458177583,0.3690147605904198,-0.03684147365893926,0.5471018840753543,1.4241536708276077,-2.8378702216170826,3.452065360566092,5.747573403569953,8.299513191844053,-4.037074579375689,3.9363563708927276,1.4394119109105965,11.469819511051556,0.23240199999999997,-0.20674399999999998,-0.786644,-0.304729,0.18976500000000002,-0.809917,0.537131,0.396509,0.023272999999999988,0.26727,0.5,flight,-0.786644
163,1.358333,jog,1.9800792031681433,-1.0868834753390213,0.8737549501980137,-0.6784604425812053,-0.435520343111764,0.23635456227040255,3.9551182047282305,-1.5871834873395099,-0.3130925237009509,0.3238929557182292,-0.07092283691347817,0.6288251530061254,9.187935020106778,-0.5616449306986676,16.48931911914858,-23.747499761971508,4.161932947971411,6.0628850210998895,-5.414833177990046,-4.089927187632212,9.807184559074983,0.24886000000000003,-0.21091300000000002,-0.796534,-0.31853,0.198231,-0.811958,0.5673900000000001,0.409144,0.015423999999999993,0.34575999999999996,0.5,flight,-0.796534
164,1.366667,jog,1.94852411807054,-1.1546676265898632,0.5854331653467638,0.3637015701930314,0.9556096694816888,0.40934470102342585,3.8899688024957677,-1.5489560835133043,-0.22198224142068518,0.44912407007439353,-0.08831293496519718,0.7123830093592456,-3.7863073071278097,-8.133447474303024,-34.59584651442857,-7.817302883664783,4.586921505424202,10.932359284889014,15.026531600211591,-2.086644834619496,10.026140671120656,0.26504,-0.214199,-0.803263,-0.331026,0.20711800000000002,-0.8109,0.596066,0.42131700000000005,0.007637000000000005,0.42362999999999995,0.5,flight,-0.803263
165,1.375,jog,2.1806072242889907,-1.186487459498395,0.9008760350414149,-1.2649464349952393,-1.0579041677872074,1.526515939819335,3.7583103324133322,-1.495979839193582,-0.206408256330255,0.3984159366374679,-0.060122404896206565,0.7275891035641507,27.85108678968593,-3.818532690331457,37.85465854970046,-15.799648395828235,6.357403614511322,1.868952968970397,-6.085219421207982,3.3829989282360344,1.8248042967605054,0.278187,-0.21677799999999997,-0.81249,-0.345877,0.21650399999999997,-0.812344,0.624064,0.43328199999999994,0.0001460000000000905,0.5,0.4985399999999999,flight,-0.812344
166,1.383333,jog,2.0075603024121174,-1.1338053522140936,0.6497059882395391,0.46982127875495316,-0.17364045280233703,0.81967035903773,3.6668666746670167,-1.4366974678987303,-0.1035641425657039,0.4836193447737961,-0.12012480499219103,0.852274090963646,-20.766461283676335,6.322105758346552,-30.141611280676603,-10.973677876673037,7.114169122147142,12.341787323239174,10.224817969078241,-7.2005760345595835,14.962796999819565,0.292014,-0.21930200000000002,-0.818767,-0.358576,0.224951,-0.810656,0.65059,0.444253,0.00811099999999998,0.5,0.41888999999999993,flight,-0.810656
167,1.391667,jog,1.996880249580017,-1.1100311975041923,0.5938324934005211,0.9537570164159623,0.594003916226772,0.6859463564943339,3.460883129349633,-1.4313654907607276,-0.03167746580273558,0.34785217182624945,-0.06215502759779391,0.9199664026877772,-1.2815038195464592,2.852670351560009,-6.7042830380390575,-24.716048154233494,0.6397860736744262,8.625711154663758,-16.290757493106025,6.955816821981842,8.12242761268666,0.304215,-0.22198,-0.82398,-0.372319,0.233684,-0.807938,0.6765340000000001,0.455664,0.016042,0.5,0.33958,flight,-0.807938
168,1.4,jog,1.9721588863554693,-1.1016440657626432,0.5760230409216454,1.1396575454583693,0.24205109035192268,0.6892679861769303,3.2336493459738582,-1.368774750990052,-0.01920076803072062,0.38629545181807623,-0.05640225609024058,1.1075243009720492,-2.9666822542359284,1.0064960688286602,-2.137219786256563,-27.269144770884076,7.511189220049935,1.4972636231867364,4.6133781341446225,0.6903601953142192,22.507848108037173,0.314727,-0.224206,-0.82894,-0.385534,0.24239400000000005,-0.803509,0.700261,0.4666,0.02543099999999998,0.5,0.24569000000000007,flight,-0.803509
169,1.408333,jog,2.003120124804962,-1.1078843153725977,0.5241809672386717,0.9140983461122082,0.06327786471010774,1.0344841053737819,2.9845193807751857,-1.352214088563519,-0.009000360014401092,0.39469578783150805,-0.06912276491059773,1.2316092643705525,3.7154972338284016,-0.7488599075908313,-6.221297693864486,-29.896791695507993,1.9873589855433578,1.224097925875357,1.0080806448375943,-1.5265221193276042,14.890791239469712,0.322905,-0.22624199999999997,-0.833383,-0.398937,0.25105000000000005,-0.797614,0.721842,0.47729200000000005,0.03576899999999994,0.5,0.14231000000000005,flight,-0.797614
170,1.416667,jog,2.050035997120265,-1.1042716582673548,0.47432205423566826,0.4917588415962571,0.14774776200237183,1.131168093221333,2.7319414446844785,-1.2901367890569013,0.011759059275258306,0.4647228221742334,-0.0945524358051387,1.431605471562302,5.629454321490738,0.43348417389523664,-5.982590953084279,-30.30692777666331,7.4486800463905505,2.490931040275953,8.40257191537397,-3.051316402032812,23.99762505300614,0.32858800000000005,-0.22779100000000002,-0.8372379999999999,-0.412149,0.259465,-0.789636,0.740737,0.487256,0.04760199999999992,0.5,0.023980000000000112,flight,-0.789636
171,1.425,jog,2.0513620544821434,-1.122764910596408,0.40693627745109484,0.05227860103299132,0.17001936688571231,1.2023550482813363,2.4777391095643355,-1.2067682707308076,-0.02208088323532946,0.7137885515420502,-0.15420616824672484,1.442937717508676,0.1591332487553697,-2.2192790506483564,-8.08661667881582,-30.505500434434005,10.004622384026431,-4.06095553949204,29.889083087460996,-7.158734242359906,1.3599239105212835,0.332141,-0.228491,-0.840813,-0.423295,0.26753600000000005,-0.781003,0.755436,0.49602700000000005,0.05981000000000003,0.5,0.0,flight,-0.781003
172,1.433333,jog,2.0558022320893032,-1.1116044641785732,0.3058922356894332,0.4874492007096951,0.06556272855183273,1.0497676396690716,2.165846633865369,-1.1533661346453956,-0.06684267370694745,0.6395055802232148,-0.17184687387495523,1.345973838953571,0.5328426265642515,1.3393071424258802,-12.125770042201196,-37.428594227645455,6.408512670756329,-5.371629721783079,-8.914313130785565,-2.116969354161833,-11.636130871847582,0.33305799999999997,-0.22883900000000001,-0.843919,-0.43509699999999996,0.27536700000000003,-0.772336,0.7681549999999999,0.504206,0.07158299999999995,0.5,0.0,flight,-0.772336
173,1.441667,jog,2.016078713702893,-1.0913126949843952,0.19714422846171556,0.36513056701317775,-0.3313235787069637,0.8671613869552613,2.024598032157415,-1.0184785217182541,-0.1825053995680342,0.8897288216942566,-0.3228941684665201,1.2728581713462834,-4.766440891097899,2.4348175178999054,-13.04871696996842,-16.94847632684817,16.185218733758152,-13.878416829983903,30.024387025562742,-18.12422541295461,-8.773178258613743,0.33312899999999995,-0.228232,-0.847083,-0.44448400000000005,0.28177100000000005,-0.763371,0.777613,0.510003,0.08371200000000001,0.5,0.0,flight,-0.763371
174,1.45,jog,1.971918876755082,-1.087243489739601,0.025561022440900118,0.6972796176520646,0.39131833769993185,0.5541539514489924,1.6782671306852457,-0.9990399615984746,-0.24024960998440203,1.0489619584783485,-0.26161046441858765,1.4028561142445832,-5.29939240943376,0.4883241623417961,-20.590808354832234,-41.561370631485964,2.3327205231944905,-6.929582433261536,19.10874076372175,7.354338659298331,15.600377162882634,0.33068200000000003,-0.227497,-0.849298,-0.452175,0.288651,-0.751894,0.782857,0.5161479999999999,0.09740400000000005,0.5,0.0,flight,-0.751894
175,1.458333,jog,1.9786391455657883,-1.0530421216848462,0.004800192007685024,0.047981789880977475,-0.16016021435999747,0.5963620795830746,1.561022440897611,-0.8587543501739914,-0.3546141845673764,1.3066122644905578,-0.2527301092043567,1.6401056042241384,0.8064645158653909,4.104328339704095,-2.491399307958086,-14.069925571538779,16.83494676880845,-13.72429792187356,30.91927349240427,1.0656852531178227,28.47107764065175,0.32720200000000005,-0.22587800000000002,-0.8522930000000001,-0.457775,0.29532,-0.738267,0.784977,0.521198,0.11402600000000007,0.5,0.0,flight,-0.738267
176,1.466667,jog,1.9636429085673541,-1.0463162946964448,-0.064314854811614,0.12143379448219593,-0.7937211292947634,0.4731917138084046,1.3263738900888191,-0.745620350371984,-0.4942404607631481,1.5129589632829656,-0.39716822654188844,1.6807055435565463,-1.7994044874531443,0.8070346758341174,-8.293142166942687,-28.15557365116347,13.574993976723,-16.75381283846584,24.759623085242595,-17.3311875854973,4.871602991649709,0.32189100000000004,-0.22337200000000001,-0.8558760000000001,-0.461531,0.30073,-0.723724,0.7834220000000001,0.524102,0.13215200000000005,0.5,0.0,flight,-0.723724
177,1.475,jog,1.9188767550701697,-1.0451218048721793,-0.18876755070203036,0.24624890051696793,-0.2808526124202129,0.12101177253490376,1.1467658706348063,-0.5840633625344908,-0.6102244089763474,1.3412936517460463,-0.6476659066362523,1.5831033241329386,-5.372153305794264,0.1433445126923664,-14.934920903685848,-21.553824487460663,19.38761404506066,-13.918630530804911,-20.600661410886396,-30.060924048285074,-11.712734840226327,0.31545700000000004,-0.21952999999999998,-0.859388,-0.466344,0.30404200000000003,-0.708959,0.7818010000000001,0.523572,0.15042900000000003,0.5,0.0,flight,-0.708959
178,1.483333,jog,1.9036361454458373,-1.018960758430343,-0.2754110164406658,0.052450576448935936,-0.7975223599205365,0.0026683042872760595,0.8165126605064182,-0.3160926437057508,-0.7611904476179119,1.9368774750990219,-0.5483019320772935,1.5921036841473806,-1.8289463127724266,3.139451151066422,-10.397631793908104,-39.6319704942267,32.1577725703519,-18.116649302960017,71.47291771906649,11.9241539132317,1.0800864051892494,0.30639799999999995,-0.213673,-0.863436,-0.466067,0.30796399999999996,-0.6933969999999999,0.772465,0.5216369999999999,0.17003900000000005,0.5,0.0,flight,-0.6933969999999999
179,1.491667,jog,1.8722102231821285,-0.9899208063354898,-0.36669066474681117,-0.23089833488868733,-1.1820815084822949,-0.10987947412780988,0.5476361891048689,0.023158147348211814,-1.0277177825773864,2.0777537796976087,-0.6565874730021454,1.5931125509959094,-3.7708090069244697,3.484515490143148,-10.952681582210785,-32.26259556054083,40.70683837940485,-31.98072173739771,16.903804247490488,-12.99322545294589,0.12105433747646362,0.295359,-0.20522999999999997,-0.868945,-0.464354,0.3107420000000001,-0.677064,0.759713,0.5159720000000001,0.19188099999999997,0.5,0.0,flight,-0.677064
180,1.5,jog,1.7855514220569024,-0.9993999759990427,-0.48073922956919496,-0.24746847677294947,-1.0555664690655078,-0.4116904522962735,-0.05904236169446075,0.20868834753390214,-0.6669866794671848,2.052562102484118,-0.8096723868954903,1.4792991719668895,-10.399472113911779,-1.1375458614608156,-13.686375233695529,-72.804338269451,22.26451460286716,43.289463951782665,-3.0231221905065175,-18.370924504181723,-13.658151809554894,0.279988,-0.19516300000000003,-0.870497,-0.462129,0.31232299999999996,-0.660731,0.742117,0.507486,0.209766,0.5,0.0,flight,-0.660731
181,1.508333,jog,1.7089883595343975,-0.9500780031201344,-0.5213008520340745,-0.3385707743909443,-1.572972288817244,-0.5516422677593021,0.03804152166086819,0.2298091923676968,-0.21684867394696022,2.284171366854695,-0.823112924516982,1.419896795871849,-9.187935020101474,5.9188735004090764,-4.867589399361564,11.650532023920537,2.5346027641659505,54.0187214112839,27.794223493409195,-1.6129290317402976,-7.1285702742159085,0.266064,-0.18533100000000002,-0.8679600000000001,-0.457336,0.313381,-0.644555,0.7234,0.49871200000000004,0.22340500000000008,0.5,0.0,flight,-0.644555
182,1.516667,jog,1.6468682505399428,-0.9438444924406023,-0.5897528197744139,-0.5184021997519284,-1.5867285668325244,-0.8587318026541249,0.17530597552194904,0.0038396928245745146,-0.13150947924165962,2.3554115670746163,-0.8290136789056877,1.309815214782805,-7.453816773992593,0.7479614446282687,-8.213579042517258,16.47041682998318,-27.114170811509545,10.239884173902082,8.548140175176501,-0.7080338839339556,-13.2087330320426,0.25379999999999997,-0.17743299999999998,-0.864141,-0.451431,0.314338,-0.6287240000000001,0.7052309999999999,0.49177099999999996,0.235417,0.6346931600805298,0.0,single,-0.6287240000000001
183,1.525,jog,1.6356654266170767,-0.9177967118684817,-0.5808232329293305,-0.7340297963617479,-2.417629549896483,-0.9202061989389708,0.3764550582023383,-0.10632425297011952,-0.33325333013320774,2.6404656186247695,-0.9049561982479406,1.2704908196327984,-1.344392646449801,3.1258587030026264,1.0715932851414212,24.13885547586597,-13.220202303455544,-24.210230516206643,34.2078545001987,-9.113466859744825,-4.719116182648145,0.24330700000000005,-0.170671,-0.862078,-0.443058,0.314445,-0.613297,0.686365,0.485116,0.24878100000000003,0.5,0.0,flight,-0.613297
184,1.533333,jog,1.5495019800791803,-0.9017160686427291,-0.7052682107284193,-1.0955075912489773,-1.7970087868374545,-1.2933185679014754,0.484699387975499,-0.22440897635905002,-0.4941797671906794,2.7483499339973116,-0.980199207968296,1.1074042961718291,-10.340027185634815,1.929754377265361,-14.933994695678223,12.989839166345707,-14.170733636016854,-19.31194492469325,12.94663571013324,-9.029522347336378,-19.57116566194245,0.23443399999999992,-0.16502699999999998,-0.860319,-0.433068,0.31379100000000004,-0.598192,0.6675019999999999,0.478818,0.262127,0.5,0.0,flight,-0.598192
185,1.541667,jog,1.554715622750209,-0.9127669786417263,-0.6885049196064338,-0.7599982824269227,-2.2711709727936986,-1.6590204422396808,0.23998080153588192,-0.2640988720902388,-0.5067194624430139,2.9046076313895433,-0.9954403647708336,0.9558435325174136,0.6255870735575774,-1.326003119630114,2.011434019916704,-29.363881262253628,-4.762406495223126,-1.5046430588354622,18.749423733169497,-1.8287925129035243,-18.18583677158848,0.22347699999999993,-0.159621,-0.858804,-0.421818,0.31310200000000005,-0.5844880000000001,0.645295,0.47272300000000006,0.2743159999999999,0.5,0.0,flight,-0.5844880000000001
186,1.55,jog,1.5996639865594287,-0.8678747149885829,-0.738029521180833,-1.919301459225435,-2.0207381223715335,-1.3740594903675682,0.10464418576744025,-0.0444017760710415,-0.309492379695183,3.0698427937116937,-1.10764430577222,0.7647905916236537,5.394019417882976,5.387287129862304,-5.94318991652446,-16.241043533954073,26.364706110547637,23.6681966576056,19.829012639163267,-13.46501152062696,-22.927269998050708,0.21101900000000007,-0.152759,-0.855233,-0.409567,0.31110399999999994,-0.5719650000000001,0.6205860000000001,0.46386299999999997,0.28326799999999996,0.5,0.0,flight,-0.5719650000000001
187,1.558333,jog,1.557662306492273,-0.8117124684987498,-0.771270850834049,-1.8098727970590007,-2.3312905605311576,-1.5924128827657171,0.24468978759150747,0.21120844833793517,-0.09816392655706309,3.127085083403368,-1.1504860194407895,0.6021840873635027,-5.040403224187692,6.739739168346773,-3.989119123150885,16.806144464666808,30.674453907233772,25.360428793726374,6.869349536982448,-5.141211288679932,-19.513561053660446,0.2000780000000001,-0.144235,-0.8496239999999999,-0.396489,0.30828099999999997,-0.5605199999999999,0.5965670000000001,0.452516,0.289104,0.5,0.0,flight,-0.5605199999999999
188,1.566667,jog,1.521358291336681,-0.7860571154307597,-0.6630669546436272,-1.793710146799327,-2.6360322080272964,-1.4424078037614187,0.14542836573073933,0.14446844252459654,0.019558435325174248,3.205903527717757,-1.1559875209983017,0.4300455963522857,-4.356133328004767,3.0783960964710646,12.983428868541035,-11.910417789868896,-8.008160044796991,14.125553381597845,9.457456721188953,-0.6601273767113182,-20.654966524023965,0.18861100000000008,-0.13648,-0.843935,-0.38244999999999996,0.3051980000000001,-0.55141,0.571061,0.441678,0.29252500000000003,0.6567998930128155,0.0,single,-0.55141
189,1.575,jog,1.5101404056162433,-0.8096723868954803,-0.5323412936517504,-1.6488435248014048,-1.8528600219027798,-1.4298033797219096,0.0746429857194175,0.02568102724109058,0.006120244809792739,3.308052322092915,-1.268090723628956,0.21492859714388618,-1.3462001344579138,-2.833945933603834,15.687706827298447,-8.494585384774087,-14.255060036422302,-1.6126473677405053,12.2583456588454,-13.452922432575944,-25.815072507908493,0.17664899999999994,-0.129519,-0.839448,-0.367468,0.30137800000000003,-0.545183,0.544117,0.43089700000000003,0.294265,0.8680430639080541,0.0,single,-0.545183
190,1.583333,jog,1.4977799111964174,-0.8457938317532552,-0.36193447737907775,-1.2326998872213188,0.38338616888696886,-1.0680782459062843,0.07416296651866033,-0.0018000720028802186,0.017400696027840723,3.520700828033057,-1.4021360854433966,0.04716188647546206,-1.4833186631256066,-4.334746772803825,20.44963593815789,-0.057604608275190754,-3.2978638238293914,1.353708294497514,25.518841466475248,-16.08608686120704,-20.13281059263425,0.164786,-0.12248600000000001,-0.836287,-0.350611,0.296742,-0.541774,0.515397,0.41922800000000005,0.294513,0.873002951868111,0.0,single,-0.541774
