frame_id,timestamp,gait_type,root_linear_velocity_x,root_linear_velocity_y,root_linear_velocity_z,root_angular_velocity_x,root_angular_velocity_y,root_angular_velocity_z,left_linear_velocity_x,left_linear_velocity_y,left_linear_velocity_z,right_linear_velocity_x,right_linear_velocity_y,right_linear_velocity_z,root_acceleration_x,root_acceleration_y,root_acceleration_z,left_acceleration_x,left_acceleration_y,left_acceleration_z,right_acceleration_x,right_acceleration_y,right_acceleration_z,left_pos_rel_x,left_pos_rel_y,left_pos_rel_z,right_pos_rel_x,right_pos_rel_y,right_pos_rel_z,step_length,step_width,step_height,left_contact_prob,right_contact_prob,support_type,max_foot_height
<<<<<<< HEAD
1,0.008333,jog,0.07488299531980774,-0.004680187207489649,-0.010080403216125402,0.01309203328662605,0.20320635398281867,-0.19762540404898718,-0.0060002400095864,0.0003600144005730523,-0.0004800192007676781,0.00024000960039091698,-0.0028801152046110646,-0.003240129605184117,0.0,0.0,0.0,0.0,0.0,0.0,0.0,0.0,0.0,-0.04247299999999998,-0.06127199999999999,-0.907677,-0.013913999999999982,0.182755,-0.903819,0.028559,0.244027,0.003857999999999917,0.9899497223677973,0.9541836895415277,double,-0.903819
2,0.016667,jog,0.06515478761698586,-0.004679625629950953,0.006839452843769346,-0.023645997424484783,0.2864868479323213,-0.09649093847884696,0.006359491240683791,0.003959683225349262,-0.014038876889848697,0.0,-0.0038396928245778734,-0.0027597792176628486,-1.167291541015345,6.738391393042615e-05,2.030220309562605,1.4830491061039344,0.4319257049167518,-1.6269327680682766,-0.02879884813905891,-0.11514010318776204,0.057637435507711554,-0.042963000000000084,-0.06119999999999992,-0.907851,-0.014456999999999942,0.18276199999999998,-0.903899,0.028506000000000142,0.2439619999999999,0.0039519999999999555,0.9734789242920856,0.9525990062813968,double,-0.903899
3,0.025,jog,0.03492139685587918,-0.007200288011514338,-0.015840633625334208,0.23509798882151456,-0.05979568007680496,-0.004761010005527877,-0.006720268810732504,0.0004800192007685108,-0.0028801152046085666,-0.0009600384015370216,-0.002160086403438314,-0.0034801392055683724,-3.628152017413498,-0.3024915854510242,-2.721719245062229,-1.5696339915296165,-0.41757638600513036,1.3391049664274726,-0.11520921655310472,0.20156083297006594,-0.08644665641491944,-0.04330999999999996,-0.06113599999999997,-0.9077430000000001,-0.014755999999999991,0.18280400000000008,-0.903796,0.02855399999999997,0.24394000000000005,0.003947000000000034,0.9877880415037112,0.9535183002748424,double,-0.903796
4,0.033333,jog,0.03264130565223208,-0.0006000240009639692,-0.03852154086163635,0.14217846964810746,-0.11925081870764692,-0.03587930047810445,-0.006120244809795182,0.0007200288011461046,-0.0034801392055683724,-0.0009600384015370216,-0.0016800672027097725,-0.0021600864034558003,-0.2736218893132242,0.7920633638005963,-2.7218177410659,0.07200576034289241,0.028802304137476753,-0.07200576034559052,0.0,0.057604608271755835,0.15841267276041907,-0.04363300000000003,-0.061124999999999985,-0.907451,-0.01503600000000005,0.18279499999999993,-0.903493,0.028596999999999984,0.24391999999999991,0.003958000000000017,0.9882046140263285,0.9555865882740721,double,-0.903493
5,0.041667,jog,0.018238540916718258,-0.008039356851443271,-0.04259659227261749,0.1852647693757162,0.005746500749361275,-0.027668052679561028,-0.00755939524839768,0.0004799616030722342,-0.0031197504199661917,-0.002879769618433405,-0.00035997120230084524,-0.003599712023038426,-1.7281935127806363,-0.892648530175102,-0.48896705195357976,-0.1726842378932683,-0.028805759308119794,0.043243194816676336,-0.23034931808211942,0.15839884814121993,-0.1727412550495111,-0.04384800000000011,-0.06105400000000005,-0.9071220000000001,-0.015212000000000003,0.18285899999999988,-0.9031680000000001,0.028636000000000106,0.24391299999999994,0.003954000000000013,0.986346788905902,0.95275347697464,double,-0.9031680000000001
6,0.05,jog,-0.018120724828994628,0.013560542421687114,-0.01392055682227349,-0.0699614628240331,0.35568299302661505,-0.033307743812989433,-0.006480259210368234,0.0003600144005730523,-0.002880115204607734,-0.0028801152046110646,0.0015600624025009907,-0.0033601344053762446,-4.363286420942384,2.592091596439504,3.4412619045174604,0.1295015046237185,-0.014394240069504606,0.02875737613806046,-4.1472000199145895e-05,0.23041324910618458,0.028750464138027277,-0.043751000000000095,-0.061163999999999996,-0.90703,-0.015085000000000015,0.182759,-0.90308,0.02866600000000008,0.243923,0.003950000000000009,0.9881656768730862,0.9526792012496375,double,-0.90308
=======
1,0.008333,stand,0.07488299531980774,-0.004680187207489649,-0.010080403216125402,0.01309203328662605,0.20320635398281867,-0.19762540404898718,-0.0060002400095864,0.0003600144005730523,-0.0004800192007676781,0.00024000960039091698,-0.0028801152046110646,-0.003240129605184117,0.0,0.0,0.0,0.0,0.0,0.0,0.0,0.0,0.0,-0.04247299999999998,-0.06127199999999999,-0.907677,-0.013913999999999982,0.182755,-0.903819,0.028559,0.244027,0.003857999999999917,0.9899497223677973,0.9541836895415277,double,-0.903819
2,0.016667,stand,0.06515478761698586,-0.004679625629950953,0.006839452843769346,-0.023645997424484783,0.2864868479323213,-0.09649093847884696,0.006359491240683791,0.003959683225349262,-0.014038876889848697,0.0,-0.0038396928245778734,-0.0027597792176628486,-1.167291541015345,6.738391393042615e-05,2.030220309562605,1.4830491061039344,0.4319257049167518,-1.6269327680682766,-0.02879884813905891,-0.11514010318776204,0.057637435507711554,-0.042963000000000084,-0.06119999999999992,-0.907851,-0.014456999999999942,0.18276199999999998,-0.903899,0.028506000000000142,0.2439619999999999,0.0039519999999999555,0.9734789242920856,0.9525990062813968,double,-0.903899
3,0.025,stand,0.03492139685587918,-0.007200288011514338,-0.015840633625334208,0.23509798882151456,-0.05979568007680496,-0.004761010005527877,-0.006720268810732504,0.0004800192007685108,-0.0028801152046085666,-0.0009600384015370216,-0.002160086403438314,-0.0034801392055683724,-3.628152017413498,-0.3024915854510242,-2.721719245062229,-1.5696339915296165,-0.41757638600513036,1.3391049664274726,-0.11520921655310472,0.20156083297006594,-0.08644665641491944,-0.04330999999999996,-0.06113599999999997,-0.9077430000000001,-0.014755999999999991,0.18280400000000008,-0.903796,0.02855399999999997,0.24394000000000005,0.003947000000000034,0.9877880415037112,0.9535183002748424,double,-0.903796
4,0.033333,stand,0.03264130565223208,-0.0006000240009639692,-0.03852154086163635,0.14217846964810746,-0.11925081870764692,-0.03587930047810445,-0.006120244809795182,0.0007200288011461046,-0.0034801392055683724,-0.0009600384015370216,-0.0016800672027097725,-0.0021600864034558003,-0.2736218893132242,0.7920633638005963,-2.7218177410659,0.07200576034289241,0.028802304137476753,-0.07200576034559052,0.0,0.057604608271755835,0.15841267276041907,-0.04363300000000003,-0.061124999999999985,-0.907451,-0.01503600000000005,0.18279499999999993,-0.903493,0.028596999999999984,0.24391999999999991,0.003958000000000017,0.9882046140263285,0.9555865882740721,double,-0.903493
5,0.041667,stand,0.018238540916718258,-0.008039356851443271,-0.04259659227261749,0.1852647693757162,0.005746500749361275,-0.027668052679561028,-0.00755939524839768,0.0004799616030722342,-0.0031197504199661917,-0.002879769618433405,-0.00035997120230084524,-0.003599712023038426,-1.7281935127806363,-0.892648530175102,-0.48896705195357976,-0.1726842378932683,-0.028805759308119794,0.043243194816676336,-0.23034931808211942,0.15839884814121993,-0.1727412550495111,-0.04384800000000011,-0.06105400000000005,-0.9071220000000001,-0.015212000000000003,0.18285899999999988,-0.9031680000000001,0.028636000000000106,0.24391299999999994,0.003954000000000013,0.986346788905902,0.95275347697464,double,-0.9031680000000001
6,0.05,stand,-0.018120724828994628,0.013560542421687114,-0.01392055682227349,-0.0699614628240331,0.35568299302661505,-0.033307743812989433,-0.006480259210368234,0.0003600144005730523,-0.002880115204607734,-0.0028801152046110646,0.0015600624025009907,-0.0033601344053762446,-4.363286420942384,2.592091596439504,3.4412619045174604,0.1295015046237185,-0.014394240069504606,0.02875737613806046,-4.1472000199145895e-05,0.23041324910618458,0.028750464138027277,-0.043751000000000095,-0.061163999999999996,-0.90703,-0.015085000000000015,0.182759,-0.90308,0.02866600000000008,0.243923,0.003950000000000009,0.9881656768730862,0.9526792012496375,double,-0.90308
>>>>>>> 3b0d06690e55fb02323d988053aa126fb7c3a6e7
7,0.058333,jog,-0.01956078243128684,0.026401056042241446,0.007920316812673767,-0.17974245498814953,0.370725332481376,-0.08424513564400328,-0.007680307212269526,-0.00012000480019545849,-0.002040081603264505,-0.004560182407294191,0.0025201008040380123,-0.0034801392055683724,-0.1728138248280584,1.5409232713973757,2.621009676580734,-0.1440115206889826,-0.05760460827655236,0.1008080644837668,-0.20161612896713385,0.11520921655310472,-0.014401152069138098,-0.043652000000000024,-0.06138500000000002,-0.9071130000000001,-0.014960000000000084,0.18256000000000006,-0.9031750000000001,0.02869199999999994,0.24394500000000008,0.003937999999999997,0.986754093611936,0.9501773603086456,double,-0.9031750000000001
8,0.066667,jog,-0.007319414446854902,0.014998800095997328,0.0022798176145897822,-0.12215917622432017,0.24261205453268547,-0.036067437392850545,-0.005639548836108743,0.0004799616030722342,-0.0008399328053755773,-0.0026397888168906273,0.0035997120230350957,-0.0029997600191981333,1.4688466503998001,-1.3681612606484421,-0.6768057593093334,0.24487141542605978,0.07199020917538908,0.14400633523985215,0.23042879654470402,0.1295429828410227,0.05764089109314123,-0.043638000000000066,-0.06150600000000006,-0.907139,-0.014920999999999962,0.182465,-0.903219,0.028717000000000104,0.24397100000000005,0.003920000000000035,0.9904634677085045,0.9518363431601482,double,-0.903219
9,0.075,jog,-0.0019200768030740447,0.00804032161286923,-0.006720268810759157,-0.3026069641803649,0.4215263263948341,-0.0873811741861577,-0.003120124804975338,-0.0007200288011461051,0.000720028801151934,-0.004080163206539007,0.00324012960518412,-0.003960158406336053,0.6479464351111078,-0.8350508200081727,-1.0800535731848009,0.30234297745510713,-0.14400460869054846,0.18720288089853745,-0.17285184083143892,-0.04315161620676541,-0.11525241655321264,-0.04364799999999991,-0.06157900000000005,-0.907077,-0.014939000000000036,0.18242499999999995,-0.903196,0.028708999999999874,0.244004,0.0038810000000000233,0.9945298634620965,0.9502826851438461,double,-0.903196
10,0.083333,jog,0.006480259210368228,0.004080163206525676,0.005640225609026666,-0.42727779037908054,0.6230046999817263,-0.15216237685933895,-0.0033601344053928958,0.0020400816032695,0.003960158406336047,-0.00588023520940426,0.005280211208440291,-0.0034801392055683693,1.0080806448388655,-0.4752380182819574,1.4833186631208224,-0.028802304142272615,0.3312264975897759,0.3888311058663279,-0.21601728103507156,0.2448195851741473,0.0576046082764531,-0.04373000000000005,-0.061595999999999984,-0.907091,-0.015042,0.1824349999999999,-0.903272,0.028688000000000047,0.2440309999999999,0.003819000000000017,0.9907001656565564,0.9474177600564102,double,-0.903272
11,0.091667,jog,0.0034797216222770314,-0.0034797216222770314,0.008279337652986055,-0.22995595999266583,0.4652274526415355,-0.09297502085567803,-0.0034797216222503882,0.004559635229179568,0.0059995200383971044,-0.006719462443011285,0.007319414446854908,-0.0039596832253417725,-0.36003570771432675,-0.9071136103674962,0.3166681118261808,-0.014349318077452908,0.30232224932926205,0.24470381954176368,-0.10069921209587539,0.2446848138246482,-0.05754067911847894,-0.04378799999999994,-0.061528999999999945,-0.90711,-0.015127000000000113,0.18252500000000005,-0.903374,0.028660999999999826,0.244054,0.0037359999999999616,0.9861663678061741,0.9448133583728577,double,-0.903374
12,0.1,jog,0.021480859234360862,-0.009720388815552343,0.003000120004806521,-0.13968921598345826,0.27477608553122873,-0.17174514508616814,-0.007320292811723114,0.004680187207489645,0.009960398415936598,-0.008640345613806541,0.009600384015370207,-0.003960158406336047,2.1602229223669527,-0.7489100195938204,-0.6335314590399052,-0.46088697821585534,0.014466816069852026,0.4753244182814701,-0.2305152011034747,0.2737272973137282,-5.7024000272999364e-05,-0.044027999999999956,-0.061408999999999936,-0.9070520000000001,-0.015377999999999892,0.18268600000000013,-0.903432,0.028650000000000064,0.24409500000000006,0.0036200000000000676,0.9779709550472622,0.9412842154026783,double,-0.903432
13,0.108333,jog,0.02040081603264174,-0.01968078723148231,0.007920316812673772,-0.18749343523739675,0.3465938425687346,-0.12231562457295957,-0.010080403216125411,0.003720148805952631,0.008040321612865067,-0.008520340813651066,0.011040441617662433,-0.005040201608064371,-0.12961036862103975,-1.1952956217364665,0.590447234833464,-0.3312264975881794,-0.1152092165531039,-0.23041843310590812,0.014401152064739579,0.17281382482806043,-0.1296103686221438,-0.04428199999999993,-0.06121399999999999,-0.907051,-0.01561900000000005,0.18294200000000005,-0.90354,0.028662999999999883,0.24415600000000004,0.003511000000000042,0.9776330596280776,0.9401754523866501,double,-0.90354
14,0.116667,jog,0.017278617710573773,-0.03899688024958236,0.0032397408207342476,-0.18045594228329656,0.32353951674508585,-0.1340584934995201,-0.014038876889866169,0.009719222462202743,0.011159107271417779,-0.00827933765297272,0.011639068874491678,-0.002159827213823387,-0.3746338279419202,-2.3177457425126025,-0.5616241890976146,-0.4749788425414872,0.7198312522498328,0.3742243410790387,0.028918065836134564,0.07182952445755267,0.34561727792668356,-0.044543,-0.06080799999999997,-0.906985,-0.015831999999999846,0.18336400000000008,-0.9035850000000001,0.028711000000000153,0.24417200000000006,0.0033999999999999586,0.9660033079757255,0.9419237201891648,double,-0.9035850000000001
15,0.125,jog,0.022920916836679756,-0.04488179527180916,0.007800312012478315,-0.21155667073600032,0.3434011041100701,-0.13782060832358856,-0.014040561622455636,0.025201008040313527,0.02784111364454617,-0.009360374414979306,0.013440537621491666,-0.001440057602303868,0.6771029792518887,-0.7062180513892723,0.5472904346266736,-0.00020217599777590093,1.8578885849166924,2.0019208416090732,-0.1297296006248153,0.21618489703588023,0.08637580841467893,-0.044850999999999974,-0.060224000000000055,-0.906818,-0.01610099999999992,0.18384999999999996,-0.9036620000000001,0.028750000000000053,0.244074,0.0031559999999999366,0.933180263521703,0.9410367141750562,double,-0.9036620000000001
16,0.133333,jog,0.01920076803071377,-0.05172206888276369,-0.004440177607112052,-0.1881879658115415,0.26722043846939353,-0.17913753592204207,-0.007320292811723114,0.012600504020163404,0.009120364814592538,-0.01272050882034554,0.03516140645627007,0.01932077283091339,-0.44643571414448396,-0.8208656679412607,-1.4689175110512847,0.8064645158685366,-1.5121209672567038,-2.2465797227833453,-0.40323225793426515,2.6066085245143866,2.491399307958387,-0.045072,-0.05968799999999996,-0.906705,-0.0163669999999998,0.18457400000000013,-0.9034639999999999,0.028705000000000203,0.2442620000000001,0.0032410000000000494,0.971347850441179,0.8974427716668704,double,-0.9034639999999999
17,0.141667,jog,0.02699784017280325,-0.06155507559395091,-0.007919366450685224,-0.18967002865173374,0.3324949020908801,-0.2808702782602568,0.00035997120232748934,0.00923926085913054,0.005639548836092937,-0.008279337652999392,0.015478761699042958,-0.0022798176145914528,0.9355738111458483,-1.1798664160291867,-0.41746926368768666,0.9215579570495106,-0.403316913970827,-0.4176645042596123,0.5328979082488792,-2.3617284325926517,-2.591863504380237,-0.045293999999999945,-0.059097999999999984,-0.906592,-0.016661000000000037,0.18521599999999994,-0.9034169999999999,0.02863299999999991,0.24431399999999992,0.003175000000000039,0.9819492973694586,0.9387477842609928,double,-0.9034169999999999
18,0.15,jog,0.01332053282130951,-0.05772230889235009,-0.013800552022078019,-0.13897978298348881,0.15318977417601992,-0.21763019649933008,0.008640345613806541,0.005640225609026666,0.005640225609024168,-0.015120604824201415,0.015600624024983249,0.00048001920076851036,-1.6413425358806826,0.4599504022081864,-0.7057704993871102,0.993684676764556,-0.4319015060727074,8.121600038773225e-05,-0.8209848999402397,0.014624064075397892,0.3311936655898189,-0.04533300000000007,-0.05857000000000001,-0.90643,-0.01689800000000008,0.18582700000000008,-0.9032979999999999,0.028434999999999988,0.2443970000000001,0.0031320000000000237,0.980401256972885,0.9324614282349644,double,-0.9032979999999999
19,0.158333,jog,0.015480619224774467,-0.060962438497547525,-0.011280451218053333,-0.23566009380185998,0.18085299461826163,-0.23867157464984182,0.010320412816516312,-0.0014400576023055312,0.00432017280691243,-0.00840033601344227,0.019320772830895904,0.0018000720028802486,0.25922073724528455,-0.38883110586792663,0.3024241934507001,0.20161612897033118,-0.8496679720787462,-0.1584126727603189,0.8064645158717316,0.4464357141380838,0.15841267276031884,-0.04537600000000008,-0.05807399999999996,-0.9063,-0.01709700000000014,0.186496,-0.9031889999999999,0.028278999999999943,0.24456999999999995,0.003111000000000086,0.9811992479699128,0.9336488400707443,double,-0.9031889999999999
20,0.166667,jog,-0.0021598272138317128,-0.0635949124069977,-0.027237820974319295,-0.45729538427302857,0.38923881373832236,-0.15917768799565352,0.008759299256058275,-0.007199424046070185,0.005879529637629036,-0.011759059275249745,0.017398608111358484,-0.0005999520038402923,-2.116684237893708,-0.31587159940606857,-1.914731192256533,-0.18731864176362317,-0.6910686877567372,0.18710785105790792,-0.40301455025287647,-0.230641315039287,-0.2879798424190711,-0.04528500000000002,-0.05760399999999999,-0.9060239999999999,-0.017176999999999998,0.18717099999999998,-0.902967,0.028108000000000022,0.24477499999999996,0.0030569999999999764,0.978713208398159,0.9344162335939142,double,-0.902967
21,0.175,jog,-0.000840033601328242,-0.0686427457098306,-0.02940117604703472,-0.0178485650324735,0.07869631214512429,-0.33385827450068506,0.006960278411150086,-0.014160566422664441,0.005520220808832059,-0.013080523220918636,0.016800672026884594,0.00060002400096064,0.15838156876316742,-0.6057642269090258,-0.2596129932455816,-0.21589113703446466,-0.8353705000113132,-0.043118784207005656,-0.1585820167609377,-0.07175520034488077,0.1440028806913399,-0.04522000000000004,-0.057150000000000034,-0.905733,-0.017279000000000044,0.18788300000000002,-0.902717,0.027940999999999994,0.24503300000000006,0.0030160000000000187,0.9721392373304879,0.9343387207941873,double,-0.902717
22,0.183333,jog,0.0016800672026831248,-0.08280331213248143,-0.03336133445337816,0.06179654418809212,0.19943982730657525,-0.3886807052140106,0.018840753630140716,-0.025201008040313486,0.005880235209408423,-0.01500060002401928,0.015960638425529656,-0.00012000480019212759,0.30242419344910176,-1.6993359441558644,-0.4752380182819437,1.4257140548410678,-1.3249059903574985,0.04320345620741197,-0.23041843310940155,-0.10080806448517195,-0.08640691241482863,-0.045077000000000034,-0.05667,-0.905406,-0.017418000000000156,0.18870599999999993,-0.90244,0.027658999999999878,0.24537599999999993,0.002966000000000024,0.9466499513246716,0.9338337455441168,double,-0.90244
23,0.191667,jog,0.009239260859117188,-0.09395248380130651,-0.06215502759779433,0.21717249440375744,0.31153531146312635,-0.4232838498109835,0.026517878569717605,-0.02471802255820006,0.005879529637629036,-0.015838732901370393,0.019078473722104642,-0.001199904007679752,0.9070306763179813,-1.3377935767728661,-3.454966779987538,0.9211812982453662,0.05795362156388611,-8.466184057919458e-05,-0.10056789985014533,0.37411030676445683,-0.12957753869541916,-0.04493299999999989,-0.05609299999999995,-0.9048390000000001,-0.01762700000000006,0.18964800000000004,-0.901932,0.02730599999999983,0.245741,0.002907000000000104,0.9387911727547558,0.9295545715324758,double,-0.901932
24,0.2,jog,0.004320172806929917,-0.08508340333612853,-0.06984279371174498,0.17014867524893754,0.2929653484099282,-0.399588673341268,0.027241089643582985,-0.020040801632068655,0.010320412816512982,-0.01644065762628484,0.02028081123245957,-0.003000120004799859,-0.5903141788296252,1.0643322291105213,-0.9225688364275347,0.08678880041586222,0.5612889626942758,0.5329272985580153,-0.07223385634398748,0.14428627269349917,-0.21603456103685414,-0.04474200000000006,-0.05555100000000002,-0.9041710000000001,-0.017800000000000038,0.19052600000000008,-0.901375,0.02694200000000002,0.2460770000000001,0.0027960000000000207,0.9410692115998,0.9282409878512408,double,-0.901375
25,0.208333,jog,-0.0013200528021367235,-0.11724468978759248,-0.07176287051481926,0.25480315857955704,0.5312930976352522,-0.3603437832323085,0.013800552022064741,-0.01176047041880856,0.018240729629185135,-0.0190807632305317,0.022560902436080093,-0.003840153606143932,-0.6768541472538887,-3.8595087545258644,-0.23041843310623847,-1.612929031743463,0.9936794927709247,0.9504760365621233,-0.31682534552344466,0.2736218893100356,-0.10080806448386838,-0.04461599999999999,-0.05467199999999994,-0.903421,-0.017947999999999853,0.19169099999999994,-0.9008090000000001,0.026668000000000136,0.2463629999999999,0.0026119999999999477,0.9571343144879516,0.9242195802611846,double,-0.9008090000000001
26,0.216667,jog,0.009599232061444677,-0.1060715142788571,-0.08315334773218791,0.3359772835299087,0.3866427246208305,-0.3997143441251165,-0.00827933765297272,-0.01247900167987808,0.023878089752819485,-0.014998800095983993,0.023398128149768067,-0.00383969282457454,1.3102093668804164,1.3406738071436728,-1.3667479262501363,-2.6493748110196114,-0.08621685398002389,0.6764291005080807,0.48979639243432943,0.10045904891864327,5.528936517782271e-05,-0.044764999999999944,-0.05389200000000005,-0.902529,-0.018152999999999864,0.1927700000000001,-0.900148,0.02661200000000008,0.24666200000000016,0.0023810000000000775,0.953023762356141,0.9294287967607004,double,-0.900148
27,0.225,jog,0.019680787231495602,-0.11352454098163946,-0.07704308172327264,0.33262949817596776,0.40834602272228904,-0.3808182184233602,-0.024000960038398873,-0.0054002160086357495,0.00984039361574447,-0.013320532821336155,0.021600864034542998,-0.004440177607104558,1.2098350138066623,-0.8943989802930944,0.7332612515198931,-1.8866701530572592,0.849488260079482,-1.6845909200858038,0.2014001289628989,-0.2156803210398497,-0.07206105634585587,-0.045128999999999975,-0.05299100000000001,-0.901805,-0.01842800000000011,0.19389599999999996,-0.899543,0.026700999999999864,0.24688699999999997,0.0022619999999999862,0.9558398821767898,0.9344411190545296,double,-0.899543
28,0.233333,jog,0.02232089283571575,-0.14256570262810103,-0.10068402736108513,0.18861857991079747,0.42407755655826646,-0.4177587671318683,-0.04668186727468767,-0.025321012840508944,0.040201608064322776,-0.012120484819381572,0.015480619224774467,-0.0034801392055675367,0.3168253455202381,-3.485078800727415,-2.8370269576158016,-2.721817741064296,-2.3905912434745202,3.643491473488333,0.14401152069537762,-0.7344587555224439,0.11520921655310454,-0.04570399999999997,-0.052014000000000005,-0.9006310000000001,-0.018715000000000037,0.19521299999999997,-0.898733,0.02698899999999993,0.24722699999999997,0.0018980000000000663,0.8889879922100742,0.9477422508135672,double,-0.898733
29,0.241667,jog,0.05555555555554131,-0.13714902807775473,-0.08015358771298338,0.34056593500077276,0.3580011141471358,-0.5287046953471729,-0.05819534437245859,-0.026157907367416848,0.03359731221502318,-0.012598992080636189,0.019558435325163617,-0.005399568034557652,3.9878404991391454,0.6499489501255483,2.4634556813177104,-1.381506731194018,-0.10041930968417398,-0.7924521057474939,-0.057416278048310246,0.48929878814364763,-0.23031303443605955,-0.046651999999999916,-0.05108900000000005,-0.899683,-0.01928299999999994,0.1965189999999999,-0.8981100000000001,0.027368999999999977,0.24760799999999994,0.0015729999999999356,0.879818267096299,0.9444641402702665,double,-0.8981100000000001
30,0.25,jog,0.047761910476433474,-0.1525261010440443,-0.07548301932077164,0.10254188862437644,0.372239414062765,-0.35277357846326657,-0.06828273130925731,-0.030961238449535612,0.03300132005280178,-0.011280451218053333,0.0237609504380346,-0.0025201008040321815,-0.9352748204857586,-1.8453225688575008,0.5604906266904753,-1.2105348538099985,-0.5764227867657218,-0.07152192034338162,0.15823123275925294,0.5043219864239746,0.34554988965864253,-0.04761900000000008,-0.05007600000000001,-0.898779,-0.019775000000000098,0.19798800000000005,-0.897502,0.02784399999999998,0.24806400000000006,0.0012769999999999726,0.8634734782927926,0.9431914356670044,double,-0.897502
31,0.258333,jog,0.19632785311412154,-0.15576623064922893,-0.006000240009599738,-0.049668042109839036,-0.27574247672964763,-0.30495515500292625,-0.0952838113524497,-0.041881675267016034,0.031081243249730342,-0.008880355214197487,0.02580103204126422,-0.0018000720028802544,17.828626261573078,-0.3888311058663916,8.33826704802257,-3.240259215551717,-1.3105048382911855,-0.23041843310589707,0.2880230413843575,0.24481958517096164,0.08640691241472806,-0.05004900000000001,-0.04912700000000003,-0.8984700000000001,-0.021484999999999976,0.19950099999999993,-0.897467,0.028564000000000034,0.24862799999999996,0.0010030000000000872,0.8189603856198417,0.9443936226410294,double,-0.897467
32,0.266667,jog,0.07523398128148939,-0.1439884809215236,-0.044636429085677776,-0.0070396136771561785,0.23142946516325924,-0.16625825835163494,-0.13882889368851373,-0.08867290616749861,0.033237341012718885,-0.006719462443011273,0.03143748500119801,-0.002039836813054496,-14.530102211738905,1.4132169099718388,-4.635971811384449,-5.2249918809772,-5.6144985481740495,0.2587110346758508,0.25928638963117495,0.6763202495720883,-0.02876947566285592,-0.05183300000000002,-0.04866599999999999,-0.897821,-0.022167999999999966,0.2009629999999999,-0.897112,0.029665000000000052,0.24962899999999988,0.0007089999999999597,0.7199153558070821,0.939222954879757,double,-0.897112
33,0.275,jog,0.1366854674186963,-0.1874474978999095,-0.03732149285972158,-0.013877891265351392,0.07917755640113207,-0.39587457115334407,-0.16632665306610842,-0.15060602424096975,0.02556102244089728,-0.004200168006721121,0.024480979239180623,-0.0016800672026881154,7.374473315397415,-5.215290649032246,0.877827460213148,-3.299863119836142,-7.432271459674893,-0.9211950764216457,0.3023274254518351,-0.8348140840054429,0.04317408020717377,-0.054357999999999906,-0.04835900000000004,-0.897297,-0.023341999999999974,0.20272899999999994,-0.8968149999999999,0.031015999999999933,0.251088,0.00048200000000009346,0.6236133196724809,0.9536876184503098,double,-0.8968149999999999
34,0.283333,jog,0.1131645265810801,-0.1825273010920435,-0.026041041641655136,0.03353836219997969,0.22316238140868888,-0.16732849861493554,-0.1929677187087553,-0.17832713308532233,0.019920796831873262,-0.00480019200768512,0.008760350414015352,-0.0007200288011519352,-2.8226258055461733,0.5904472348333162,1.353708294499757,-3.1970557593480065,-3.326666127967437,-0.6768541472487737,-0.0720057603460939,-1.8865509210566793,0.11520921655300402,-0.0569090000000001,-0.048324000000000034,-0.896914,-0.024325000000000152,0.20432299999999992,-0.8966040000000001,0.032583999999999946,0.25264699999999995,0.00030999999999992145,0.5608279728204817,0.9802080172137213,double,-0.8966040000000001
35,0.291667,jog,0.13918886489078794,-0.17602591792657857,-0.02147828173746581,-0.14848725521647926,0.21659309571738697,-0.1794063823991984,-0.22162227021837416,-0.1540676745860405,0.003959683225342598,-0.00227981761458978,-0.0051595872330231825,0.0014398848092150361,3.122670783502257,0.7801035715700639,0.5474873895115578,-3.4382711194647047,2.9109021477419965,-1.91518041835021,0.30242073351275944,-1.6702588969328678,0.25916889973205776,-0.05991599999999986,-0.04814099999999999,-0.896702,-0.02550399999999997,0.205747,-0.896413,0.03441199999999989,0.253888,0.0002889999999999837,0.550095818533604,0.9874071686499396,double,-0.896413
36,0.3,jog,0.1215648625945224,-0.19020760830432634,-0.012480499219967987,-0.042685086213744845,0.0716066565980793,-0.1569764723716334,-0.20076803072123361,-0.15420616824672792,0.011400456018240501,-0.00036001440057305316,-0.012000480019199476,-0.0006000240009598073,-2.114964874146836,-1.7018709201665438,1.0797770931834687,2.5026088440106324,-0.016619904078652506,0.892928452285842,0.23038560110605205,-0.8209399719400349,-0.24479884917494882,-0.06260200000000005,-0.04784100000000002,-0.896503,-0.0265200000000001,0.20723199999999997,-0.896314,0.03608199999999995,0.255073,0.00018899999999999473,0.5776477415367456,0.9780752274600748,double,-0.896314
37,0.308333,jog,0.1374054962198424,-0.2100084003360161,-0.011280451218053295,-0.06448660254385621,0.3558323586729351,-0.3125942399110996,-0.15276611064443468,-0.14412576503060154,0.006840273610944588,0.0016800672026831191,-0.009960398415943227,0.0007200288011519304,1.9009520731213183,-2.376190091406416,0.14401152069059014,5.760460827648954,1.209696773806113,-0.5472437786266523,0.24481958517414665,0.2448195851741559,0.15841267276031826,-0.06502000000000008,-0.047292,-0.8963519999999999,-0.027651000000000092,0.20889899999999995,-0.896214,0.037368999999999986,0.25619099999999995,0.00013799999999997148,0.6497758255609051,0.9817421213250117,double,-0.896214
38,0.316667,jog,0.13942884569233166,-0.21538276937844988,-0.014758819294454635,-0.03628683417460693,0.24042037822181003,-0.15615214766080543,-0.12215022798175776,-0.15214782817373926,0.006119510439164361,-0.001079913606902542,-0.007199424046070233,-0.0008399328053755821,0.24278251409758356,-0.6448726952764371,-0.4173707795058028,3.673612030558807,-0.9625705715308094,-0.08648466184068052,-0.3311712034540049,0.33129042115106905,-0.1871804183498346,-0.06719999999999993,-0.046764999999999946,-0.896178,-0.028821999999999903,0.210634,-0.896098,0.03837800000000002,0.25739899999999993,8.000000000008001e-05,0.6746493847571853,0.986986231913777,double,-0.896098
39,0.325,jog,0.12768510740431674,-0.22848913956558367,0.006840273610941258,-0.04674464826509361,0.2271338163876393,-0.37415859921136657,-0.11364454578183454,-0.12912516500660895,0.01548061922476942,-0.0015600624025009842,-0.008400336013442242,0.0007200288011519304,-1.4093049667604551,-1.5728273355494697,2.591994828440634,1.0207226928984978,2.762830093259356,1.123377989392178,-0.05762016027822396,-0.14411520069266814,0.18720288089853668,-0.06921100000000013,-0.045937000000000006,-0.896106,-0.02989900000000012,0.212468,-0.896149,0.039312000000000014,0.258405,4.300000000001525e-05,0.711723394459992,0.9857095718405524,double,-0.896106
40,0.333333,jog,0.18564742589703215,-0.20196807872314823,0.061922476899084755,-0.46906518230199257,-0.5498779731209352,-0.00034247817945806127,-0.09600384015359581,-0.11820472818911618,0.024840993639745512,0.00012000480020878201,-0.012840513620527717,0.0027601104044164457,6.955756449383841,3.1826546072765516,6.6101287997292255,2.1169693541628196,1.3105048382926678,1.1232898613915896,0.20161612897033127,-0.5328426265553207,0.24481958517514943,-0.07155800000000001,-0.04523899999999992,-0.8964150000000001,-0.031444999999999945,0.21404400000000012,-0.896642,0.040113000000000065,0.25928300000000004,0.00022699999999997722,0.7405758630428161,0.9781094007597122,double,-0.8964150000000001
41,0.341667,jog,0.15562754979600196,-0.2555795536357047,-0.0032397408207342476,-0.18152756793735986,0.4089760788171397,-0.5257746795733231,-0.0811135109191409,-0.11375089992801284,0.011279097672185838,-0.0005999520038436226,-0.012598992080636145,0.004199664026877882,-3.6020969643664693,-6.432862360517932,-7.818840619128743,1.7866965724087944,0.5344166380013602,-1.6272973323205737,-0.08638790545385217,0.028980266365679377,0.17273261608608534,-0.07353100000000001,-0.04405700000000001,-0.896294,-0.03274699999999986,0.21606900000000007,-0.89658,0.04078400000000015,0.2601260000000001,0.00028600000000000847,0.7635336898424029,0.9778432527336165,double,-0.896294
42,0.35,jog,0.13644545781833295,-0.25045001800072797,-0.008280331213246839,0.07245738833678712,0.12419036969457319,-0.46965169604134777,-0.07788311532460114,-0.10404416176646505,0.004200168006720316,-0.00372014880596596,-0.011520460818444288,0.0050402016080643795,-2.3019431150448892,0.6155688989531704,-0.6048950429032286,0.3876629778638869,1.1648551735926804,-0.8495055400774679,-0.3744385937984334,0.12942892862016803,0.10086854448415926,-0.07531700000000008,-0.0428369999999999,-0.89619,-0.03391500000000014,0.21806000000000003,-0.8964690000000001,0.04140199999999994,0.26089699999999993,0.0002790000000000292,0.7804881566305931,0.9781441492159693,double,-0.89619
43,0.358333,jog,0.14412576503060154,-0.2798511940477608,-0.012480499219967906,0.006040569897699991,0.38565846137481347,-0.6996575267004419,-0.07212288491540515,-0.07080283211329509,-0.023400936037441488,-0.004440177607112037,-0.013560542421700381,0.005760230409216276,0.9216737324215237,-3.528282256934205,-0.5040403224194228,0.6912552993154882,3.9891191231453047,-3.3122649758984384,-0.08640691241402541,-0.24481958517413716,0.08640691241472384,-0.07711900000000016,-0.04109499999999999,-0.8962810000000001,-0.03515300000000021,0.220279,-0.896317,0.04196599999999995,0.261374,3.599999999992498e-05,0.8267370457548461,0.9743537016792387,double,-0.8962810000000001
44,0.366667,jog,0.15334773218141218,-0.2916966642668537,-0.024358051355899215,0.08779960457791036,0.3137204767893201,-0.7124826718970445,-0.0635949124069977,-0.07523398128148939,-0.011159107271417779,-0.007319414446828253,-0.017278617710573773,0.00551955843532486,1.1065475342945321,-1.4213427188736343,-1.425192240932481,1.0232748390217712,-0.5316953645541512,1.4689019397676624,-0.3454807823033613,-0.44613334399728677,-0.028878326600841813,-0.07892699999999997,-0.039290999999999965,-0.8961709999999999,-0.03649199999999997,0.22256600000000004,-0.896068,0.042435,0.261857,0.00010299999999996423,0.8347645577213111,0.9663701540923224,double,-0.896068
45,0.375,jog,0.1548061922476919,-0.2906516260650476,-0.024000960038398952,0.1929719275534149,0.202303644971331,-0.7179252902298761,-0.04680187207489661,-0.0564022560902402,-0.014280571222849075,-0.010440417616698481,-0.022080883235324904,0.006600264010560378,0.1750222088419213,0.1254096006007594,0.042852672206919885,2.0152454496701226,2.2598974188466623,-0.3745906577980684,-0.37453536179890023,-0.5762949147667279,0.12968985662252733,-0.0806070000000001,-0.0373389999999999,-0.89609,-0.03786899999999993,0.22480400000000011,-0.895813,0.042738000000000165,0.262143,0.00027700000000008274,0.8755504962262148,0.9550619759944345,double,-0.895813
46,0.383333,jog,0.14520580823232165,-0.2952118084723284,-0.036241449657989346,0.2834901806952281,0.1333942422101326,-0.8212296104166242,-0.011880475218990693,-0.0472818912756518,-0.007560302412096569,-0.011760470418835205,-0.024480979239180786,0.00648025921036825,-1.152092165531054,-0.5472437786248476,-1.4689175110512929,4.190735252118805,1.0944875572529011,0.8064645158709375,-0.15841267276331777,-0.2880230413843619,-0.014401152069138135,-0.08191599999999988,-0.035273,-0.895851,-0.03917700000000002,0.22705999999999993,-0.895457,0.04273899999999986,0.2623329999999999,0.00039400000000000546,0.917776032377111,0.9495238501206062,double,-0.895457
47,0.391667,jog,0.158507319414462,-0.29925605951523804,-0.023638108951284202,0.18458958922664906,0.18029199808538013,-0.754799452324393,-0.00227981761458978,-0.012718982481407536,-0.014758819294456202,-0.012239020878308658,-0.02843772498200654,0.00995920326373886,1.5960536575642348,-0.48527130344487823,1.5122799024124227,1.1519867535878214,4.147217277927074,-0.8637529256491031,-0.057421461419900774,-0.47477150741849644,0.41743989121317576,-0.083256,-0.03288500000000005,-0.8957769999999999,-0.04059999999999997,0.22931699999999988,-0.895177,0.04265600000000003,0.26220199999999994,0.0005999999999999339,0.9673064383383552,0.9397965877493661,double,-0.895177
48,0.4,jog,0.16788671546860942,-0.32509300372015615,-0.03192127685107252,0.31989042917562394,0.17286604121165544,-0.7217512319258037,0.00804032161286919,0.004680187207489629,-0.00936037441497676,-0.0152406096243835,-0.0457218288731505,0.013200528021120669,1.1255725493996618,-3.100557326883236,-0.9940199087709453,1.2384662459449092,2.087983882022932,0.6478392991094946,-0.3602050577312888,-2.074175433954625,0.3889745298670101,-0.08458799999999989,-0.03013699999999997,-0.895589,-0.042125999999999886,0.231645,-0.894801,0.042462,0.26178199999999996,0.0007880000000000109,0.9780045754048161,0.9088364188972917,double,-0.894801
49,0.408333,jog,0.1632065282611342,-0.327613104524183,-0.04788191527661577,0.18431306760093605,0.039452058242292955,-0.7535653892216969,0.00444017760708542,0.016320652826116083,-0.011280451218048373,-0.013080523220945281,-0.06084243369735227,0.009720388815553208,-0.5616449306942572,-0.3024241934509632,-1.915353225194202,-0.4320345620765366,1.3969117507052062,-0.2304184331059183,0.2592207372420766,-1.8145451607106446,-0.4176334100044965,-0.08591100000000007,-0.027270999999999934,-0.895284,-0.04359500000000005,0.23386799999999996,-0.8943209999999999,0.04231600000000002,0.2611389999999999,0.0009630000000000472,0.9661159056678406,0.8853913277655895,double,-0.8943209999999999
50,0.416667,jog,0.1648668106551458,-0.33945284377249435,-0.04895608351331456,0.14966468391281004,0.12621917346511932,-0.5812277374512983,0.006359491240710428,0.026877849772018448,-0.018478521718262683,0.0035997120230350926,-0.0903527717782581,-0.007679385649148248,0.19921794984540586,-1.420655057392767,-0.12888987721367792,0.23029921209803292,1.2667622925248805,-0.8636993640765902,2.0014681118286965,-3.540957293125246,-2.0878059112912695,-0.08723199999999998,-0.024217999999999962,-0.89503,-0.04493900000000006,0.23594399999999993,-0.893977,0.042292999999999914,0.2601619999999999,0.0010529999999999706,0.9446145400623911,0.838220075678521,double,-0.893977
51,0.425,jog,0.18180727229088406,-0.3512540501620089,-0.05256210248410543,0.2848192062586516,0.03902529485020252,-0.5300644203658169,0.01188047521901734,0.03708148325933091,-0.017760710428417457,0.018000720028812537,-0.07344293771748907,0.01800072002880088,2.032936713757146,-1.4162014147983404,-0.4327395860783482,0.6625445791799983,1.2244849978774135,0.08614080041344392,1.7281900882968295,2.029261257742598,3.0817359507919346,-0.08864799999999984,-0.020981999999999945,-0.89474,-0.0463039999999999,0.2382590000000001,-0.893389,0.04234399999999994,0.25924100000000005,0.001350999999999991,0.9286708543467559,0.8569403854835922,double,-0.893389
52,0.433333,jog,0.18804752190088678,-0.330253210128401,-0.06780271210847526,0.17741674238752025,0.04398468543329205,-0.4293840680462805,0.00204008160325617,0.04908196327853006,-0.022320892835713174,0.031081243249730967,-0.08064322572902953,0.026281051242050043,0.7488599075966269,2.520201612097423,-1.8289463127768828,-1.1808944696701222,1.4401152069121685,-0.5472437786266289,1.5697255755332262,-0.8640691241498178,0.9936794927696062,-0.090198,-0.017820999999999976,-0.894361,-0.04761199999999999,0.24033900000000008,-0.892605,0.04258600000000001,0.25816000000000006,0.0017559999999999798,0.9100706556789302,0.8318848495998945,double,-0.892605
53,0.441667,jog,0.1993040556755366,-0.3570914326853846,-0.09623230141588361,-0.06849505908243445,0.05018762147202616,-0.416295587757724,0.014878809695226026,0.0743940484761168,-0.03263738900887964,0.050395968322518275,-0.07391408687307122,0.028677705783537018,1.350675998878077,-3.220329080511615,-3.411277814663849,1.540524129106063,3.037207247130656,-1.2378805103391561,2.317581602206314,0.8074320681495503,0.2875755389353238,-0.0917349999999999,-0.014225000000000043,-0.893831,-0.048853000000000035,0.2426989999999999,-0.891564,0.042881999999999865,0.25692399999999993,0.002267000000000019,0.8623505601180776,0.8207568304660078,double,-0.891564
54,0.45,jog,0.19572782911318293,-0.316452658106323,-0.09864394575784195,0.03294865599857517,-0.11939142420317503,-0.16118707479118596,0.00204008160325617,0.07428297131885679,-0.04500180007200273,0.056642265690630744,-0.06132245289810705,0.05736229449177934,-0.42916435405660197,4.876848023408311,-0.28940889739089537,-1.540708999396352,-0.01332979206288386,-1.4837886791219292,0.7495856676001972,1.5110565192564642,3.4422883365225254,-0.09334900000000013,-0.010969000000000007,-0.893384,-0.05001200000000017,0.24482499999999996,-0.8902639999999999,0.04333699999999996,0.25579399999999997,0.0031200000000000117,0.8552081592746701,0.7999869679746737,double,-0.8902639999999999
55,0.458333,jog,0.23544941797669533,-0.3332533301332097,-0.14616584663385868,-0.0759829580209876,0.027224130780600226,-0.13493081264484325,-0.0008400336013548883,0.039721588863551066,-0.03480139205568215,0.06288251530060845,-0.09108364334572855,0.11964478579143253,4.766781334874895,-2.0161612896779935,-5.702856219370796,-0.3456276496593142,-4.147531795908534,1.2240979258755083,0.7488599075936309,-3.571485713143115,7.474197923875357,-0.09531800000000001,-0.007861000000000007,-0.892456,-0.051449999999999996,0.24684300000000003,-0.888049,0.04386800000000002,0.25470400000000004,0.00440700000000005,0.9119714824094284,0.6842821704754639,double,-0.888049
56,0.466667,jog,0.19450443964483957,-0.2894168466522639,-0.12203023758099887,0.02719824121063079,-0.3741943245096364,0.0015318068441695703,-0.0016798656107461574,0.0566354691624703,-0.06275497960163212,0.12251019918408443,-0.18838492920567193,0.1703863690904723,-4.913004359473928,5.259957221135796,2.896041403030931,-0.10077177938460143,2.0295032756082576,-3.3541621725401907,7.154749686042226,-11.675220285570349,6.088502915651515,-0.09695300000000007,-0.004977000000000009,-0.8919619999999999,-0.05204999999999993,0.24768499999999993,-0.885612,0.04490300000000014,0.25266199999999994,0.006349999999999967,0.8590844837369591,0.4664847956720953,single,-0.885612
57,0.475,jog,0.26953078123124635,-0.28285131405256925,-0.15972638905555914,-0.36459821410503157,-0.025541201021388536,0.2366301374726467,-0.0015600624025009946,0.027961118444742507,-0.055922236889475854,0.09936397455896206,-0.17700708028319895,0.21444857794311872,9.003521131214084,0.7878954277804733,-4.5237191257122715,0.014376960067822284,-3.4410597285164846,0.8199619239357115,-2.777658061337144,1.3653964865562236,5.287676569380358,-0.09921200000000008,-0.002386999999999917,-0.891097,-0.05346800000000007,0.2485670000000001,-0.882494,0.04574400000000001,0.250954,0.008603000000000027,0.895762630420019,0.4218292723497487,single,-0.882494
58,0.483333,jog,0.26269050762030327,-0.2479299171966883,-0.17040681627264742,-0.44443403832546297,-0.15735480541186322,0.38185210349090104,0.0,0.03744149765990371,0.015360614424577292,0.13776551062044212,-0.2516500660026409,0.2586103444137751,-0.820865667939884,4.19073525211578,-1.2817025341519548,0.18721497689919453,1.1376910134598783,8.554284329059504,4.6083686621240725,-8.957516586996476,5.299623961437202,-0.10140100000000007,-8.999999999925734e-06,-0.889549,-0.05450899999999992,0.2485360000000001,-0.878919,0.046892000000000156,0.24854500000000002,0.010630000000000028,0.9325501374987584,0.3937,single,-0.878919
59,0.491667,jog,0.27489800815935217,-0.2564194864410778,-0.17218622510198736,-0.399524736744267,-0.12852922446114548,0.5880032794957633,0.005399568034565961,-0.03851691864651013,-0.02555795536357064,0.15010799136067793,-0.33021358291337716,0.28521718262538936,1.464782882055302,-1.0186668159814618,-0.21351197856250761,0.6478963324413194,-9.114280814304507,-4.909835587730728,1.480979210491456,-9.426867879857953,3.1925651801792925,-0.10364700000000004,0.001807000000000003,-0.8883270000000001,-0.05554900000000007,0.24792099999999995,-0.8751070000000001,0.048097999999999974,0.24611399999999994,0.01322000000000001,0.9224343031261732,0.3678,single,-0.8751070000000001
60,0.5,jog,0.29569182767311025,-0.3002520100804045,-0.23316932677307486,-0.6849946902619739,-0.6742359935384993,0.7968555225188361,0.009120364814588404,0.0010800432017324826,-0.04596183847353922,0.1322452898116118,-0.38233529341172673,0.3339733589343583,2.495358155977215,-5.260113241248862,-7.318264931127763,0.44651347414166,4.751825494808917,-2.448563915752866,-2.143609930285153,-6.254855454020125,5.850975196084131,-0.1060350000000001,0.004318000000000044,-0.886767,-0.056910999999999934,0.24723700000000004,-0.8703810000000001,0.04912400000000017,0.242919,0.0163859999999999,0.9218826000401301,0.33614,single,-0.8703810000000001
61,0.508333,jog,0.29365174606982547,-0.2562102484099351,-0.18012720508819974,-0.2151413494744622,-0.6729986285965733,0.4498663650514121,0.008880355214224074,-0.015000600024005908,-0.03264130565222612,0.1651266050641805,-0.42877715108604747,0.3684147365894616,-0.24481958517757996,5.285222809368676,6.36530921455357,-0.028802304135884978,-1.9297543772636896,1.5985278796727518,3.9459156669349063,-5.573245850752496,4.133130643838133,-0.10840799999999984,0.006328,-0.885538,-0.05798199999999998,0.245799,-0.8658100000000001,0.05042599999999986,0.239471,0.019727999999999968,0.9383258215274943,0.30272000000000004,single,-0.8658100000000001
62,0.516667,jog,0.35265178785697643,-0.29469642428606047,-0.2038636909047295,-0.4885869537908053,0.16810319930506026,0.22660489906282785,0.0045596352291795905,-0.020878329733622327,-0.03143748500119988,0.22006239500841418,-0.5139188864890882,0.42152627789777086,7.079438659365406,-4.617971667401676,-2.848150445947912,-0.518444922611532,-0.7052711434624973,0.14444692236936021,6.591767451911926,-10.216190953088702,6.372875126986988,-0.11130899999999988,0.008610000000000007,-0.884101,-0.05908699999999989,0.24397199999999997,-0.8605980000000001,0.05222199999999999,0.23536199999999996,0.02350299999999994,0.9366445128858487,0.26497000000000004,single,-0.8605980000000001
63,0.525,jog,0.43345733829355043,-0.37549501980079625,-0.28249129965199427,-2.005398251168221,-0.22239632561938605,0.09880290845888483,-0.004440177607112037,-0.03444137765511053,-0.00936037441497676,0.26377055082202244,-0.5064202568102572,0.4483379335173392,9.697053934546222,-9.696219310540675,-9.435690477290825,-1.080020741184638,-1.62763085581281,2.6493592447165524,5.245188505173177,0.8998715563219789,3.217527375443204,-0.11495800000000012,0.011452000000000018,-0.881825,-0.06050100000000014,0.24288100000000012,-0.8545079999999999,0.05445699999999998,0.2314290000000001,0.027317000000000036,0.940056964978008,0.22683000000000003,single,-0.8545079999999999
64,0.533333,jog,0.3909756390255626,-0.31321252850114306,-0.2773310932437265,-1.063325756603557,0.10470443921049068,0.14910451178028963,-0.006840273610941349,-0.008280331213246894,-0.025681027241089747,0.32257290291612245,-0.6440657626305257,0.48013920556822764,-5.098007832471886,7.474197923875406,0.6192495389736951,-0.2880230413811753,3.1394511510697076,-1.9585566814008326,7.056564513872621,-16.518121423289312,3.8163052983185817,-0.11827300000000007,0.013993000000000033,-0.8797280000000001,-0.0610710000000001,0.240124,-0.848196,0.057201999999999975,0.22613099999999997,0.031532000000000115,0.9536059035056061,0.18467999999999996,single,-0.848196
65,0.541667,jog,0.41216702663784843,-0.21706263498919315,-0.23830093592512935,-2.2803182689110493,0.40512784319004996,0.6046574780158237,-0.00155987520998808,-0.01475881929445444,-0.018478521718262562,0.39140868730502437,-0.7345812335013095,0.4835613150947878,2.5427630924268874,11.537064256293398,4.683244218694128,0.6335971203447599,-0.7773563812344008,0.8642315242173183,8.259633355999688,-10.860987625483936,0.41062029356372803,-0.12172099999999997,0.015679,-0.877896,-0.061243999999999854,0.235811,-0.8421799999999999,0.060477000000000114,0.220132,0.03571600000000008,0.9604992362053664,0.14284000000000002,single,-0.8421799999999999
66,0.55,jog,0.39889595583824444,-0.29269170766830177,-0.20760830433217353,-0.11911771991513219,-0.4272362034232068,-0.05733990845463302,-0.002280091203647086,-0.009240369614783802,-0.011040441617664877,0.5316212648505839,-0.8511940477619089,0.49393975759030256,-1.5925921996404577,-9.07585175556322,3.68326312167955,-0.08642937641413692,0.6622404511785208,0.8926053162843698,16.826182352761187,-13.994097475170868,1.245462917978488,-0.12506400000000006,0.018040999999999974,-0.876258,-0.060138000000000025,0.23115699999999995,-0.8363339999999999,0.06492600000000004,0.21311599999999997,0.03992400000000007,0.9757058193051735,0.10075999999999996,single,-0.8363339999999999
67,0.558333,jog,0.34213368534740946,-0.28189127565103406,-0.21468858754349524,-0.4307708529201464,-0.37153774538600637,0.2821429598417899,0.027841113644547232,0.017160686427457765,-0.030361214448577773,0.6522260890435772,-0.9275171006840341,0.4992199687987562,-6.811744928697409,1.2961036862195863,-0.8496679720774952,3.6146891693501253,3.1682534552072252,-2.3185854831288935,14.473157829472498,-9.159132715963754,0.6336506910420822,-0.127683,0.020533000000000023,-0.874722,-0.05755399999999988,0.225777,-0.830385,0.07012900000000011,0.20524399999999998,0.04433699999999996,0.925624449387236,0.056630000000000014,single,-0.830385
68,0.566667,jog,0.4046076313894774,-0.2739380849532059,-0.15850731941444762,0.5146987950694217,0.1582962483602957,-0.1634180596352564,0.003959683225335912,-0.00863930885528683,-0.010799136069114364,0.731941444684419,-0.9968802495800239,0.44684425245979875,7.496273823142247,0.9543065392162374,6.741212878455386,-2.8655424069127835,-3.0957517737874247,2.347261624605623,9.565077470703296,-8.322912034555937,-6.284583194019323,-0.13102199999999997,0.022744000000000097,-0.873491,-0.05482599999999982,0.21975200000000006,-0.82534,0.07619600000000015,0.19700799999999996,0.048151000000000055,0.9760244286024937,0.018490000000000117,single,-0.82534
69,0.575,jog,0.42445697827914985,-0.27661106444258043,-0.1840873634945457,-0.0032471294319893367,0.38780645007569164,-0.07455277619895359,-0.008640345613806626,-0.02448097923918095,0.005160206408256542,0.8235929437177372,-1.072362894515797,0.3850954038161566,2.382016907437012,-0.3207703695397318,-3.0697280787349484,-1.5120639432548486,-1.9010764891268768,1.9151977051927342,10.99861982879143,-9.058279723481803,-7.41015824356687,-0.13463099999999995,0.024845000000000006,-0.871914,-0.0515000000000001,0.213121,-0.820597,0.08313099999999984,0.188276,0.051316999999999946,0.9558851987861012,0.0,single,-0.820597
70,0.583333,jog,0.4258970358814364,-0.29101164046560535,-0.22128885155405606,0.2905209725062282,0.6042702667122584,-0.18764713583871231,-0.0013200528021100684,-0.020640825633019232,-0.003960158406336867,0.9732389295571856,-1.1618864754590097,0.3034921396855866,0.1728138248273782,-1.7281382482929142,-4.46435714142688,0.8784702762146319,0.4608368662140527,-1.0944875572534947,17.958236630198947,-10.743259443563218,-9.79278340700464,-0.13819099999999995,0.027097999999999955,-0.8701030000000001,-0.046939000000000064,0.20586399999999994,-0.8162240000000001,0.09125199999999989,0.17876599999999998,0.05387900000000001,0.9649021575205532,0.0,single,-0.8162240000000001
71,0.591667,jog,0.41072714182864506,-0.22774178065755363,-0.4938804895608324,-3.013828234538574,2.5634409199267334,0.5170135446500959,0.00035997120230084253,-0.006719462443011228,-0.004439644828413137,1.1492680585553172,-1.2572594192464492,0.3454523638108933,-1.8202416670015873,7.591775834899357,-32.708379890421675,0.20158675358902065,1.6704299484050755,-0.057533767947716155,21.12180573531681,-11.44383774747286,5.034824109108037,-0.14161099999999993,0.028939999999999966,-0.866024,-0.04078399999999993,0.19728400000000001,-0.809229,0.100827,0.16834400000000005,0.05679500000000004,0.9865638132691373,0.0,single,-0.809229
72,0.6,jog,0.3924156966278548,-0.3054122164886647,0.02808112324492483,1.7185944266128925,-0.01870653233540405,-0.8349290927113615,0.007200288011514404,0.011280451218053445,-0.005280211208448671,1.2102484099363964,-1.3558142325693188,0.22176887075483084,-2.1974613225477526,-9.32082513273872,62.63789905265355,0.8208708519397124,2.1600760423694756,-0.10087200048428431,7.317934883124891,-11.827050680771682,-14.842612871242478,-0.14482099999999987,0.031579000000000024,-0.866302,-0.033968999999999916,0.188531,-0.807615,0.11085199999999995,0.15695199999999998,0.058687000000000045,0.9760223855823889,0.0,single,-0.807615
73,0.608333,jog,0.4719788791551866,-0.3361334453378052,-0.20172806912275598,-0.03422473303930299,-0.5028622230729751,-0.4131545841619496,-0.0015600624025009842,-0.0030001200047931873,0.0031201248049919765,1.3322932917316572,-1.315252610104395,0.16512660506420215,9.54796382183265,-3.6866949296940352,-27.57820621237008,-1.051284101045884,-1.7137370962254377,1.008080644838667,14.645971654297412,4.867589399366795,-6.797343776626479,-0.1487670000000001,0.034355000000000024,-0.864595,-0.026800000000000157,0.18037199999999998,-0.804558,0.12196699999999994,0.14601699999999995,0.06003700000000001,0.992331577458031,0.0,single,-0.804558
74,0.616667,jog,0.516198704103678,-0.281617470602352,-0.17854571634269897,-0.9275954363811402,0.08535731107008981,0.07028503921454378,-0.005759539236866844,-0.006119510439167692,0.004199664026877911,1.3966882649388241,-1.2143028557715474,0.1737461003119766,5.305954517457597,6.5413936567618824,2.781659800822791,-0.5038969083712364,-0.37429690837227286,0.12953434387880258,7.726778642568669,12.113001479823406,1.0342566891978033,-0.15311700000000017,0.03665099999999999,-0.863072,-0.01946200000000009,0.17259899999999995,-0.801622,0.13365500000000008,0.13594799999999996,0.061450000000000005,0.984342389303996,0.0,single,-0.801622
75,0.625,jog,0.5144605784231263,-0.29713188527541384,-0.128525141005645,0.20445481175268798,0.40081625785641994,-0.3067665311365152,-0.0075603024120873595,-0.01056042241689387,0.006720268810752461,1.5112204488179555,-1.3442937717508565,0.04296171846873823,-0.20858342500319724,-1.861804232936733,6.002709148812405,-0.2161002250354624,-0.5329307545573214,0.30248467345188285,13.74441184196938,-15.599533898872984,-15.694753611332992,-0.15746700000000002,0.039039000000000046,-0.861945,-0.011155999999999944,0.16387300000000005,-0.8001929999999999,0.14631100000000008,0.124834,0.06175200000000003,0.9756277305190795,0.0,single,-0.8001929999999999
76,0.633333,jog,0.5607824312972408,-0.28333133325332255,-0.16188647545900972,0.1879188566356585,0.5221765332022134,-0.3954871115297033,-0.01116044641787116,-0.011280451218053295,0.009600384015361016,1.6145445817832471,-1.3499339973598965,0.015240609624385166,5.558844698681664,1.6561324879504664,-4.003520275214759,-0.4320345620765374,-0.08640691241562722,0.3456276496590115,12.399391931512206,-0.6768541472506853,-3.326666127967473,-0.16223300000000007,0.041305999999999954,-0.8605160000000001,-0.002375000000000016,0.15498499999999993,-0.798717,0.15985800000000006,0.11367899999999997,0.06179900000000005,0.9690892181175019,0.0,single,-0.798717
77,0.641667,jog,0.5555555555555748,-0.2829373650108106,-0.12107031437485521,0.35100880010156543,1.2357073315060478,-0.30212887764682983,-0.019078473722078125,0.010679145668347281,0.046436285097192304,1.6982241420686541,-1.379889608831296,-0.1301895848332144,-0.6271749150067262,0.04727240730884617,4.8975475262964645,-0.9500872695232793,2.634940831101596,4.419954533457103,10.04074397473092,-3.5943858257019006,-17.45022731672671,-0.167022,0.04375300000000004,-0.85912,0.007147999999999932,0.14584300000000006,-0.798793,0.17416999999999994,0.10209000000000001,0.06032700000000002,0.9144566243002753,0.0,single,-0.798793
78,0.65,jog,0.5823832953318104,-0.26965078603144,-0.07512300492019834,0.6591336567526768,1.2421419483510985,-0.43640493186697027,-0.01920076803074035,-0.0038401536061480703,0.006840273610944588,1.7849513980559213,-1.3253330133205337,-0.04752190087603407,3.2194575514503225,1.5944532556546955,5.51389769046642,-0.014675904075630108,-1.7423856083637694,-4.751711446807579,10.407687025953054,6.547053343425186,9.920518895617423,-0.17203500000000016,0.04596800000000001,-0.858437,0.01716899999999999,0.137046,-0.7985629999999999,0.18920400000000015,0.09107799999999999,0.059874000000000094,0.9654310023382504,0.0,single,-0.7985629999999999
79,0.658333,jog,0.5911436457458336,-0.288011520460816,-0.12636505460218173,-0.42265676791777484,1.7946487639654085,-0.03189475544018141,-0.017760710428421738,-0.0032401296051841467,0.01872074882995294,1.8581543261730438,-1.3208928357134393,-0.09192367694707906,1.0512841010468261,-2.2033762665758063,-6.149291933515403,0.17281382483122842,0.07200576034608533,1.4257140548432088,8.784702762165264,0.5328426265563908,-5.328426265576071,-0.17710900000000018,0.04834099999999997,-0.857228,0.027726999999999835,0.12843899999999997,-0.798276,0.20483600000000002,0.080098,0.058952000000000004,0.9566536009590305,0.0,single,-0.798276
80,0.666667,jog,0.5877129829613402,-0.2987760979121638,-0.16330693544515662,0.09809345369718482,0.2492759921541496,-0.3322247210462202,-0.009239260859117126,-0.008279337652985986,0.017158627309815593,1.938204943604507,-1.3081353491720524,-0.12179025677945696,-0.41164660241100387,-1.291645962484726,-4.432671087469956,1.0224921489446301,-0.6046565932087593,-0.18743958724950013,9.60530566732213,1.5307759228925806,-3.5837028836546274,-0.1820839999999999,0.050761999999999974,-0.855724,0.03898200000000007,0.120027,-0.79793,0.22106599999999998,0.06926500000000002,0.05779400000000001,0.964710331054097,0.0,single,-0.79793
81,0.675,jog,0.6419056762270522,-0.28501140045601897,-0.01236049441978577,0.946201737559216,0.030811528954028687,-0.1426835868284058,-0.03252130085202317,0.0013200528021100684,0.025321012840513024,1.9871594863794457,-1.2932917316692658,-0.13404536181447285,6.503383327218497,1.6518297679280907,18.114297494944225,-2.7939565574110103,1.1519729335288629,0.9795254447014757,5.874780124197589,1.781305352548489,-1.4706714310591436,-0.18770399999999987,0.05314799999999997,-0.85541,0.050192000000000014,0.11162499999999997,-0.798944,0.23789599999999989,0.058477,0.056466000000000016,0.9312708366974318,0.0,single,-0.798944
82,0.683333,jog,0.6308652346093983,-0.3043321732869322,-0.210728429137165,-1.0056947508746565,0.9975351405213098,-0.22713866470840907,-0.021960878435142914,-0.016200648025920732,0.0063602544101769975,2.056282251290085,-1.2746909876395196,-0.15936637465498715,-1.3249059903580993,-2.318585483128932,-23.805104370260537,1.2673013820809256,-2.102568202091799,-2.2753820269214207,8.295063591820476,2.232178570712394,-3.0386430865852074,-0.19314399999999998,0.05554899999999996,-0.8536009999999999,0.06207000000000007,0.10353899999999994,-0.798516,0.25521400000000005,0.04798999999999998,0.05508499999999994,0.9532978107143826,0.0,single,-0.798516
83,0.691667,jog,0.8920086393088413,-0.3485721142308644,-0.07187425005999659,0.24482103551271214,-1.4614635123145394,-0.5554513795473355,0.005279577633781215,-0.022078233741295965,-0.011999040076794108,2.146508279337615,-1.222222222222203,-0.12634989200863814,31.334701787789907,-5.308368243812324,16.66116859577242,3.268593240811606,-0.7052538655357796,-2.2029391033082515,10.826257265122306,6.295748190222726,3.961660984683077,-0.200534,0.058270000000000044,-0.853102,0.07252499999999995,0.09625800000000007,-0.79897,0.27305899999999994,0.03798800000000002,0.05413200000000007,0.9572052927762824,0.0,single,-0.79897
84,0.7,jog,0.7329893195727899,-0.26617064682586855,-0.1845673826953009,-0.825386892205223,-0.4118067442460674,-0.19560766008592226,-0.007200288011514404,-0.014640585623433051,-0.005160206408256542,2.143765750630057,-1.259690387615527,-0.1376455058202335,-19.08308169159401,9.888571631464854,-13.523716864911238,-1.4976437831868155,0.8925534762826091,0.820692867939233,-0.32911660957136996,-4.496359701586982,-1.3555278785065954,-0.20670199999999994,0.06036599999999992,-0.851607,0.08428100000000005,0.08797899999999992,-0.798579,0.290983,0.027613,0.053027999999999964,0.9714800934520366,0.0,single,-0.798579
85,0.708333,jog,0.6858274330973108,-0.3543741749669952,-0.11256450258010206,0.07171953131547155,0.6982980099187894,-0.817410933055529,-0.012360494419772447,-0.02748109924396049,0.017160686427457536,2.1795271810872356,-1.124444977799106,-0.11016440657626285,-5.659652763168,-10.584846770805985,8.640691241473483,-0.6192495389725216,-1.5409232713941419,2.678614284857072,4.291543316594092,16.230098381905737,3.2978638238294167,-0.21251999999999982,0.06308999999999998,-0.850526,0.09672800000000015,0.08156199999999991,-0.798559,0.30924799999999997,0.018471999999999933,0.051966999999999985,0.9422053011701679,0.0,single,-0.798559
86,0.716667,jog,0.6561075113990865,-0.3260139188864962,0.14470842332612432,1.561868138193982,-1.081685127277839,-0.06921559815957973,-0.0077993760499137565,-0.04043676505879879,0.0494360451163898,2.2339812814974658,-1.2021838252939674,-0.15094792416606664,-3.5661053153616527,3.402958492980412,30.870281486228034,0.5472904211493468,-1.5545555333379175,3.872733224013921,6.533969331681032,-9.327915466146015,-4.893630620326792,-0.21805299999999983,0.06547000000000003,-0.85132,0.10987800000000014,0.07425999999999999,-0.801023,0.327931,0.008789999999999965,0.050296999999999925,0.89276343917485,0.0,single,-0.801023
87,0.725,jog,0.8825153006120424,-0.39073562942517165,0.022680907236289027,-0.7247499409136635,-0.10027852099803528,-1.7265519274588195,-0.011400456018262228,-0.03432137285491553,0.057602304092164366,2.2962918516740762,-1.1375255010200531,-0.13716548661946498,27.170021506415214,-7.766915941278773,-14.64388768628782,-0.43214688207710367,0.733876419522779,0.9799902767040253,7.477567523894279,7.759309285241193,1.653958663938772,-0.2255020000000001,0.06843999999999995,-0.8510289999999999,0.12165899999999996,0.0680369999999999,-0.8023549999999999,0.34716100000000005,0.0004030000000000422,0.048673999999999995,0.8866427418782566,0.013259999999999994,single,-0.8023549999999999
88,0.733333,jog,0.8513140525620909,-0.5102604104164186,-0.12636505460218003,1.0340771434889868,0.7223547244803934,-2.01125987349686,-0.0036001440057571543,-0.038401536061440734,0.0854434177367088,2.314172566902676,-1.291851674066947,-0.2938917556702264,-3.744299537975684,-14.343547460848004,-17.886230869851005,0.9360748844959847,-0.4896391703498365,3.3410672800365195,2.1457716582982984,-18.519881560889626,-18.807904602275382,-0.232626,0.07237199999999999,-0.849264,0.1338490000000001,0.06152400000000002,-0.803751,0.3664750000000001,0.010847999999999969,0.045513000000000026,0.8437575189073971,0.04487000000000002,single,-0.803751
89,0.741667,jog,0.6783057355411762,-0.2175425965922816,-0.06827453803696243,-0.422941956188884,1.1564139960076192,0.05919624733531228,0.0020398368130736593,-0.044996400287978924,0.10079193664506902,2.2942164626830017,-1.1363090952723953,-0.150947924166067,-20.759337295526237,35.12332779267322,6.970304363477074,0.6767435587749995,-0.7913204015524631,1.841674935008437,-2.394540943085484,18.663616366037026,17.15188762948887,-0.23826199999999997,0.07381000000000004,-0.8478549999999999,0.147316,0.053867,-0.8044399999999999,0.385578,0.019943000000000044,0.04341499999999998,0.8160023289265473,0.06585000000000002,single,-0.8044399999999999
90,0.75,jog,0.9033961358454276,-0.31129245169806485,-0.09384375375014355,0.033282446254926185,1.123908555434804,-1.5145277221815725,-0.04536181447257745,-0.054242169686788196,0.10920436817472666,2.2920916836673246,-1.1074042961718307,-0.1414856594263764,27.01192851365059,-11.250432629999144,-3.06842862272663,-5.688425691305762,-1.1095367093254809,1.0095321648455058,-0.25498368122849907,3.4687146406533693,1.1355171894504468,-0.24616799999999994,0.07595200000000002,-0.846163,0.15888799999999992,0.04723300000000008,-0.804837,0.40505599999999986,0.02871899999999994,0.041325999999999974,0.7831699256392993,0.08673999999999998,single,-0.804837
91,0.758333,jog,0.8250330013200451,-0.35353414136565364,-0.03408136325453748,0.06365502110127016,0.5247945623447124,-0.8168577207502257,0.01800072002878577,-0.04920196807872552,0.12156486259450328,2.34561382455298,-1.175087003480137,-0.2635305412216482,-9.4039523011379,-5.069205528331767,7.171773730421915,7.6038082924952555,0.6048483869029949,1.4833186631197124,6.422913822831512,-8.122249766987412,-14.645971654298728,-0.25289300000000003,0.078488,-0.8448659999999999,0.17155900000000002,0.04038700000000006,-0.8067489999999999,0.42445200000000005,0.03810099999999994,0.038116999999999956,0.7793766696506671,0.11883000000000005,single,-0.8067489999999999
92,0.766667,jog,0.8802495800336034,-0.3746100311975013,0.04439644828414862,0.10930970402965447,0.3600440428671012,-1.0409839365893963,0.024598032157428833,-0.05963522918166217,0.138108951283898,2.3208543316534773,-1.084113270938333,-0.1406287497000239,6.625459408874328,-2.5289044674643364,9.416584057917753,0.7916141263070674,-1.2518911810579207,1.9851318321808034,-2.9709014758222536,10.915974627046387,14.74703521977742,-0.26002400000000003,0.08111299999999999,-0.8440850000000001,0.18356499999999998,0.034474000000000005,-0.8082910000000001,0.443589,0.046638999999999986,0.03579399999999999,0.745946712882331,0.14205999999999996,single,-0.8082910000000001
93,0.775,jog,0.9483979359174319,-0.3602544101763995,0.08484339373575066,0.9694969542385706,0.06079540580933165,-1.215866087110532,0.04728189127565148,-0.08328333133324967,0.17052682107284203,2.284291371654846,-1.0597623904956195,-0.09396375855034234,8.178129831252637,1.722743432269503,4.853827607296516,2.722171981065949,-2.8378857736214327,3.8902999866727352,-4.387730709064093,2.9222225420272885,5.600022938879319,-0.267533,0.08342099999999997,-0.8433710000000001,0.1946969999999999,0.02864499999999992,-0.8097810000000001,0.4622299999999999,0.05477600000000005,0.03359000000000001,0.6740352471944266,0.16410000000000002,single,-0.8097810000000001
94,0.783333,jog,0.9283571342853757,-0.3658946357854443,0.2712108484339313,2.1169706969612383,-1.1892562879244484,-1.0235849640742734,0.02604104164165531,-0.07872314892595655,0.18216728669146998,2.2640105604224434,-1.0525621024841059,-0.13128525141005734,-2.404992395542592,-0.6768541472512738,22.36498916334841,-2.549003916236213,0.5472437786263235,1.396911750705394,-2.4337946996763287,0.8640691241466084,-4.478758293497582,-0.2750520000000001,0.08581400000000006,-0.844113,0.20582699999999998,0.022923000000000027,-0.8131349999999999,0.48087900000000006,0.06289100000000003,0.03097800000000006,0.6664151350391854,0.19022000000000006,single,-0.8131349999999999
95,0.791667,jog,0.9283657307415462,-0.329613630909518,-0.09131269498440195,-0.32312519375997767,0.6219354638358402,-0.37733630408490715,0.020998320134393438,-0.0731941444684419,0.2035037197024218,2.23002159827213,-0.9846412287017019,-0.05327573794096431,0.0010314922210777602,4.3533723153258945,-43.49934526257865,-0.6050781746174505,0.6634274607048972,2.560167147942362,-4.0783491901023865,8.149852865659161,9.360392784868303,-0.28261400000000014,0.087951,-0.841656,0.21667499999999995,0.017463999999999924,-0.8128179999999999,0.4992890000000001,0.07048700000000008,0.02883800000000003,0.6378609990408246,0.21161999999999997,single,-0.8128179999999999
96,0.8,jog,1.0576023040921545,-0.4383775351014043,0.10596423856955171,-0.3853512330572182,-0.7467759384957566,-1.2199527889990522,0.01140045601823543,-0.031201248049926425,0.25225009000359905,2.2066482659306366,-1.0176407056282126,-0.13596543861754354,15.509009162439433,-13.052190590649928,23.674178993634083,-1.1517897655295772,5.039349144187604,5.84979842807837,-2.804912077462283,-3.960095635006671,-9.923161007629771,-0.29133200000000015,0.09134399999999998,-0.8404370000000001,0.22625000000000006,0.01263700000000001,-0.8148340000000001,0.5175820000000002,0.07870699999999997,0.025603000000000042,0.5759533693614693,0.24396999999999996,single,-0.8148340000000001
97,0.808333,jog,1.0368414736589535,-0.41173646945877757,0.04536181447257805,-0.02901486889621259,0.746144809137392,-0.6550821541519375,0.07596303852155424,-0.13968558742349135,0.22332893315732852,2.201008040321626,-0.9891995679827283,-0.11556462258490512,-2.491399307956459,3.197055759345613,-7.272581794908702,7.747819813190856,-13.01864147048673,-3.4706776486584414,-0.676854147247177,3.4130730403797602,2.448195851750703,-0.299339,0.093611,-0.8389540000000001,0.23595100000000002,0.007824999999999971,-0.8161750000000001,0.53529,0.08578600000000003,0.022778999999999994,0.5430832225653259,0.27221,single,-0.8161750000000001
98,0.816667,jog,1.03851691864651,-0.555555555555554,-0.07499400047995944,-0.4775578266899912,1.679232441728315,-1.3510348833880337,0.07739380849532058,-0.14974802015838942,0.29601631869450185,2.129829613630885,-0.9282457403407615,-0.1099112071034309,0.20103731552153092,-17.25690977883074,-14.441542470906716,0.17167866255895523,-1.2073953365608343,8.721788521379022,-8.540727944653247,7.313874207099403,0.6783555893297545,-0.3073490000000001,0.096993,-0.8358620000000001,0.24504599999999988,0.004719000000000029,-0.816466,0.552395,0.09227399999999997,0.01939600000000008,0.5,0.30604,flight,-0.816466
99,0.825,jog,1.0820832833313228,-0.40777631105244727,0.177847113884555,3.2772168499053036,0.13605152988531818,-1.907101108388686,0.08676347053882585,-0.14304572182887096,0.250450018000723,2.0709228369134913,-0.8948757950318151,-0.10044401776071188,5.228172889093146,17.734218709121336,30.342147409638397,1.1244044213974986,0.8043079718610974,-5.468174810245924,-7.069095969926125,4.004553619218364,1.136108165452911,-0.3156429999999999,0.09919900000000004,-0.835257,0.253286,0.0006599999999999939,-0.8187850000000001,0.5689289999999999,0.09853900000000004,0.01647199999999993,0.5,0.3352800000000001,flight,-0.8187850000000001
100,0.833333,jog,1.1360854434177456,-0.42841713668546105,0.018840753630140653,-0.12275957391839173,0.9561072174034131,-0.7576960062897521,0.07596303852152658,-0.17052682107284287,0.24732989319572685,2.0327613104524143,-0.7655106204248167,-0.09744389775590902,6.480518431107964,-2.476998155887879,-19.081526491589308,-1.2961036862233561,-3.297863823829568,-0.3744299537976856,-4.579566357983548,15.524441930516973,0.360028801728411,-0.3244770000000001,0.101348,-0.833353,0.26075799999999993,-0.0021490000000000675,-0.819754,0.5852350000000001,0.10349700000000006,0.013599000000000028,0.5,0.36401,flight,-0.819754
101,0.841667,jog,1.184665226781851,-0.44168466522678396,0.05651547876169854,-0.1163073937804,0.8681179258010528,-0.9795840528872413,0.08723302135830797,-0.16930645548356615,0.30945524358051096,1.947804175665938,-0.9088072954163561,-0.1499880009599222,5.829107675078584,-1.5919760668733864,4.520605367357523,1.352289757233178,0.14643215614071303,7.454445690518796,-10.19404065112497,-17.194225460947724,-6.30478800144142,-0.333623,0.10361799999999999,-0.831245,0.26711799999999997,-0.006041999999999992,-0.821475,0.600741,0.10965999999999998,0.009770000000000056,0.5,0.4023,flight,-0.821475
102,0.85,jog,1.227049081963281,-0.47425897035881337,0.17472698907956632,0.3259518807989682,0.4165619565840157,-0.7312135873259407,0.08388335533421476,-0.19644785791431832,0.17856714268570945,1.8378735149406105,-0.7710308412336581,-0.117004680187209,5.086266072414564,-3.909072978762716,14.185948676091307,-0.4019760019312667,-3.257098575633315,-15.70720039539214,-13.19220697531845,16.533835855358127,3.9581568189983813,-0.3431489999999999,0.10593299999999994,-0.831213,0.272208,-0.00851500000000005,-0.823906,0.6153569999999999,0.114448,0.007306999999999952,0.5359765252939219,0.42693000000000003,single,-0.823906
103,0.858333,jog,1.262330493219717,-0.4111364454578214,0.16464658586343864,0.287089650375525,-0.1104594456206048,-0.691935154126129,0.09552382095283998,-0.10656426257050236,0.30661226449057855,1.7037081483259278,-0.7400696027841123,-0.13536541461658458,4.233938708320625,7.575005988358538,-1.2096967738062696,1.396911750705049,10.786462899773861,15.366029257754539,-16.100488013282387,3.715497233834833,-2.2033762665757233,-0.35287199999999985,0.10847099999999998,-0.83003,0.2758860000000001,-0.011256000000000044,-0.8264060000000001,0.6287579999999999,0.11972700000000003,0.0036239999999999606,0.5,0.4637600000000001,flight,-0.8264060000000001
104,0.866667,jog,1.3478521718262675,-0.3867290616750653,0.148908087353005,0.0745620711205211,0.02378235108822714,-0.3605912683591221,0.07391408687304457,-0.1385889128869719,0.33585313174946146,1.5791936645068458,-0.747300215982727,-0.2237820974322057,10.261780490346887,2.928651761789804,-1.888468743752546,-2.5929606527232463,-3.8426506259262916,3.508623381195475,-14.940542814864727,-0.8676041754997329,-10.609153205618146,-0.36348899999999995,0.11053899999999994,-0.828472,0.277814,-0.01426100000000008,-0.829512,0.641303,0.12480000000000002,0.001040000000000041,0.48960000000000004,0.5,flight,-0.828472
105,0.875,jog,1.3513740549621887,-0.3919356774270944,0.016320652826115976,-1.2770105623914993,1.543505937101213,0.1263437209399629,0.1750870034801237,-0.14916596663866422,0.37441497659906214,1.3996159846393772,-0.6191047641905547,-0.19188767550701985,0.4226428820258193,-0.6248188829988064,-15.911128588370152,12.141235642275136,-1.2692972220919572,4.62760648621151,-21.550183591439804,15.384069577843723,3.827483730371501,-0.37329100000000004,0.11256199999999994,-0.825488,0.278216,-0.016154,-0.8312470000000001,0.6515070000000001,0.12871599999999994,0.00575900000000007,0.44240999999999997,0.5,flight,-0.825488
106,0.883333,jog,1.3094923796951863,-0.48649945997839733,0.09420376815072992,0.9047879375600196,0.8220218248458041,-1.2146143784374022,0.23892955718229542,-0.18228729149165135,0.3262930517220674,1.2012480499220008,-0.5735029401176129,-0.23316932677306998,-5.026002072123148,-11.348107830469523,9.346347692861348,7.661412900776604,-3.9747179710772826,-5.774861979718533,-23.805104370259873,5.472437786264441,-4.953996311778466,-0.382212,0.115097,-0.823554,0.27731400000000006,-0.01687900000000009,-0.833975,0.6595260000000001,0.1319760000000001,0.010421000000000014,0.39579,0.5,flight,-0.823554
107,0.891667,jog,1.367290616750673,-0.40844732421407404,0.08279337652987429,-0.3666516479535803,1.5154398633797994,-0.11470665218364791,0.224382049436051,-0.30873530117591336,0.3482121430285599,0.971802255819536,-0.5334773218142519,-0.26649868010559313,6.93523362796822,9.365507051154756,-1.3691374635056037,-1.745561284646568,-15.172547358322861,2.630080550335088,-27.531292788872822,4.802689981204856,-3.999202463705705,-0.391737,0.11592800000000003,-0.821342,0.274018,-0.017920999999999965,-0.836886,0.665755,0.133849,0.015544000000000002,0.34456,0.5,flight,-0.821342
108,0.9,jog,1.4452178087123455,-0.4183367334693357,0.1339253570142807,-0.5379610282055955,0.907248376328982,-0.4216527112887644,0.2660506420256695,-0.32449297971919216,0.35953438137525334,0.743549741989674,-0.4863794551782019,-0.30889235569422563,9.351637100884686,-1.186776581694662,6.136083101452804,5.000431127999322,-1.8909970650760521,1.3587229505212275,-27.391397315475945,5.651970075128979,-5.087444568418615,-0.4015630000000001,0.11670999999999998,-0.819462,0.26817099999999994,-0.01848799999999995,-0.840576,0.669734,0.13519799999999993,0.021113999999999966,0.28886000000000006,0.5,flight,-0.819462
109,0.908333,jog,1.4246969878795142,-0.4446177847113875,0.07116284651385577,-0.3909434627081211,0.9036134512064984,-0.20710764973447313,0.2821312852514117,-0.3505340213608518,0.4035761430457261,0.40213608544342055,-0.41869674786992767,-0.3556942277691142,-2.462597003819938,-3.153852303138373,-7.531802532152349,1.9297543772641665,-3.125049998999147,5.285222809369152,-40.97127763665626,8.122249766983664,-5.616449306958957,-0.411084,0.11749399999999999,-0.816692,0.25965000000000005,-0.018272000000000066,-0.844133,0.670734,0.13576600000000005,0.02744100000000005,0.22559,0.5,flight,-0.816692
110,0.916667,jog,1.4702423806095484,-0.47036237101031975,-0.25485961123110135,-3.364456118683056,2.50798991235654,0.2111071851766804,0.27345812335014696,-0.33153347732180694,0.4126469882409373,0.055435565154782686,-0.3186945044396414,-0.3862491000719921,5.46500992680992,-3.0891032276136343,-39.11956536416542,-1.040696172457961,2.2798828940538445,1.0884143502773171,-41.600734375886155,11.999309266892906,-3.6662913730354774,-0.42105799999999993,0.11865100000000006,-0.811129,0.24785899999999994,-0.017008000000000023,-0.845228,0.6689169999999999,0.13565900000000009,0.03409899999999999,0.15900999999999998,0.5,flight,-0.811129
111,0.925,jog,1.547341893675736,-0.45445817832712937,0.15828633145326587,0.011184306217788648,-0.04626467734226804,-0.7302347894516669,0.30625225008998885,-0.38701548061922714,0.4806192247689881,-0.26857074282970755,-0.23628945157806197,-0.3787351494059745,9.252311660408886,1.9085794651614436,49.57949630197594,3.935452626886086,-6.658106719959195,8.156994663152586,-38.882312250628694,9.889001903465632,0.9017101483280373,-0.4314,0.11921300000000001,-0.808443,0.23272700000000002,-0.015190000000000037,-0.849703,0.664127,0.13440300000000005,0.04125999999999996,0.08740000000000003,0.5,flight,-0.808443
112,0.933333,jog,1.4615384615384677,-0.39289571582863664,0.019560782431287015,-0.7183216720720765,0.9709101813896661,0.18189990010617568,0.3596543861754669,-0.302292091683676,0.47353894155766724,-0.41869674786991434,-0.12708508340332783,-0.27385095403816395,-10.296823729421464,7.387791011459654,-16.647731791909294,6.408512670764257,10.167213360800663,-0.8496679720773953,-18.01584123847452,13.105048382903533,12.58660690841372,-0.4405819999999998,0.11996799999999996,-0.8046599999999999,0.2170590000000001,-0.012974999999999959,-0.8521479999999999,0.6576409999999999,0.13294299999999992,0.047487999999999975,0.025119999999999976,0.5,flight,-0.8046599999999999
113,0.941667,jog,1.4978401727861683,-0.33357331413486724,0.20206383489320925,0.2918483356484715,-0.5736790757933851,0.24287440752716208,0.4374850011998786,-0.3713702903767621,0.43580513558914913,-0.5068394528437693,-0.09479241660667895,-0.18166546676265777,4.355856881173551,7.118118753751974,21.898614406278,9.338926688794228,-8.28872074551063,-4.5276945006620855,-10.576278494582947,3.874810030795373,11.061373563175604,-0.449419,0.11965300000000001,-0.802712,0.20035200000000009,-0.010985000000000023,-0.8553459999999999,0.6497710000000001,0.13063800000000003,0.05263399999999996,0.0,0.5,flight,-0.802712
114,0.95,jog,1.495379815192628,-0.47809912396496146,-0.14520580823232263,-1.0945320718341203,1.3788536144537777,-0.4131666515412613,0.6233049321973108,-0.47125885035402015,0.4737789511580515,-0.44569782791312,-0.05052202088083626,-0.22668906756270396,-0.2952547214136882,-17.343790931248716,-41.67402413602965,22.299283691039705,-11.987106681538336,4.557040149874323,7.33728848321731,5.312659993500911,-5.40304821793431,-0.4566859999999999,0.11970999999999998,-0.797554,0.18417700000000004,-0.00742200000000004,-0.856025,0.640863,0.12713200000000002,0.05847100000000005,0.0,0.5,flight,-0.797554
115,0.958333,jog,1.4185767430697267,-0.4618984759390346,0.036601464058562155,-0.1424155522716785,-0.10937042846590625,-0.15332110430587825,0.6990279611184381,-0.5022200888035494,0.5971438857554271,-0.12156486259450827,-0.0244809792391673,-0.041881675267010754,-9.216737324241096,1.9441555293323878,21.817745384721473,9.08712695561347,-3.715497233832848,14.80438432705809,38.897511738702796,3.125049999000222,22.17777418645055,-0.46268200000000004,0.11937399999999998,-0.792883,0.1713429999999999,-0.0037770000000000303,-0.8566790000000001,0.634025,0.12315100000000001,0.06379600000000007,0.0,0.7818549865258996,single,-0.792883
116,0.966667,jog,1.4152867770578246,-0.4364050875929894,-0.011999040076792443,-0.08023577536131027,-0.7740371929930403,0.019396800111988393,0.7717782577393741,-0.6792656587472983,0.7315814734821164,0.12047036237100998,-0.08279337652987319,-0.07283417326613856,-0.3947643402810293,3.0589618845746345,-5.831593968725009,8.729337247532452,-21.243768891738362,16.13122002960023,29.041903643570485,-6.996927920651002,-3.7140026396841335,-0.46804500000000004,0.11734999999999995,-0.786686,0.16055199999999992,-0.0008299999999999974,-0.857186,0.628597,0.11817999999999995,0.07050000000000001,0.0,0.7278038482883789,single,-0.786686
117,0.975,jog,1.445097803912156,-0.4081363254530203,-0.0468018720748836,0.03193906360728812,-0.4453241677450325,0.15657770289921807,0.9125165006600281,-0.6530661226449054,0.714868594743795,0.2752910116404703,-0.10176407056283196,-0.1017640705628228,3.5774663211726545,3.3923871522824136,-4.176506900046979,16.889264721067473,3.1440700950909797,-2.0056256736255302,18.579221081178655,-2.2765743469289506,-3.4717265446639276,-0.472483,0.115309,-0.780339,0.15080400000000005,0.001722999999999919,-0.8576440000000001,0.623287,0.11358600000000008,0.07730500000000007,0.0,0.5,flight,-0.780339
118,0.983333,jog,1.394455778231119,-0.4106564262570529,-0.09156366254650979,0.15962903715297191,-0.8026546406539751,0.3880691643297404,1.0723628945157828,-0.7191887675507022,0.678147125885033,0.2781711268450777,-0.08484339373573734,-0.17748709948397876,-6.077286173171333,-0.30242419345164734,-5.371629721783991,19.18233455607273,-7.935034790087184,-4.406752533152752,0.34562764965887327,2.0305624417490162,-9.0871269556169,-0.4751669999999999,0.112738,-0.773925,0.14150200000000013,0.004438000000000053,-0.85836,0.616669,0.10829999999999995,0.08443500000000004,0.0,0.5,flight,-0.773925
119,0.991667,jog,1.3294936405087776,-0.41420686345092755,-0.06995440364770861,0.5826665697168846,-1.422852107182726,0.25994477106275476,1.2508999280057556,-0.7494600431965454,0.8680105591552714,0.19402447804175532,-0.08123350131989951,-0.169786417086634,-7.79483294004582,-0.4260183817944176,2.592903635565311,21.42273020038082,-3.6322624965014843,22.78178944927279,-10.09679011318969,0.43315243770552514,0.9240079670440123,-0.4758220000000001,0.10994400000000004,-0.766108,0.13203900000000002,0.007213000000000025,-0.859192,0.6078610000000001,0.10273100000000002,0.09308399999999994,0.0,0.5494700427916334,single,-0.766108
120,1.0,jog,1.3188527541101522,-0.36937477499100113,-0.18408736349452992,0.2711439419484579,-0.5423064410021766,0.6283552707731594,1.4323772950918179,-0.7751110044401734,0.8227529101164013,0.08568342733709222,-0.0819632785311396,-0.11724468978759085,-1.2769574461328845,5.380065817823861,-13.69650304174017,21.77815517653445,-3.0782384787745087,-5.43113513006959,-13.001446142405214,-0.08757676841954791,6.305259486264602,-0.47487599999999985,0.10656300000000007,-0.7577180000000001,0.12176300000000007,0.009608000000000061,-0.858635,0.5966389999999999,0.09695500000000001,0.10091699999999992,0.0,0.7220814166423297,single,-0.7577180000000001
121,1.008333,jog,1.3346933877355307,-0.44653786151446156,-0.14412576503060345,0.9411942969999884,-1.5949441327996052,0.027736632699303324,1.706948277931108,-0.8529941197647988,0.7898715948638023,0.0027601104044156313,-0.08832353294132685,-0.059282371294852504,1.9009520731283582,-9.259940780446554,4.7955836390167805,32.94983593415249,-9.346347692862839,-3.945915666938589,-9.951196079764472,-0.7632610596648625,6.955756449386641,-0.47177400000000014,0.10317600000000005,-0.749935,0.11066399999999998,0.012592999999999965,-0.857928,0.5824380000000001,0.09058300000000008,0.107993,0.0,0.8226501869575982,single,-0.749935
122,1.016667,jog,1.2998560115190663,-0.41948644108470323,-0.1813054955603586,1.0325800481728455,-1.3211263228351966,0.6307888457635833,1.9913606911447,-1.0808735301175842,0.8110151187904924,-0.07559395248380305,-0.059155267578589146,-0.016318694504440023,-4.180150733916987,3.2459107787086783,-4.4612107667092475,34.12675944487518,-27.343341774992048,2.5370199096100183,-9.40173540775355,3.499911850580451,5.155228796545734,-0.46601100000000006,0.09766399999999997,-0.741665,0.09920099999999998,0.015595999999999943,-0.856553,0.565212,0.08206800000000003,0.11488799999999999,0.0,0.8377237341518141,single,-0.741665
123,1.025,jog,1.3166926677067181,-0.4252970118804781,0.028561142445693345,2.6040767243616343,-3.2061362822069857,0.23223734403503538,2.2470898835953768,-1.1651266050642093,0.7488299531981343,-0.05724228969158215,0.001800072002878601,-0.04740189607584341,2.0204795617007076,-0.6972963873484823,25.185003960884902,30.68873064330723,-10.110773424532079,-7.462518371817912,2.2022876265715907,7.314933347110081,-3.7301333939041963,-0.45825799999999994,0.091499,-0.735663,0.08775200000000005,0.019154999999999922,-0.857186,0.54601,0.07234400000000007,0.12152300000000005,0.0,0.8760952455856199,single,-0.735663
124,1.033333,jog,1.3258130325212714,-0.2641305652226053,-0.48961958478337947,-0.6547677451362678,0.713164476184026,1.55612762101678,2.3780151206047626,-1.2127685107404156,0.7175087003479995,-0.007680307212296038,-0.015720628825151798,-0.005520220808831949,1.0944875572486608,19.340747228833546,-62.18417463447303,15.711656907402324,-5.717257371439513,-3.758700690043707,5.947675804546411,-2.1025682020916947,5.0260020721241725,-0.44949000000000006,0.08359399999999995,-0.725604,0.07664000000000004,0.02122499999999994,-0.853152,0.5261300000000001,0.06236900000000001,0.127548,0.0,0.9694223153576328,single,-0.725604
125,1.041667,jog,1.3144948404127976,-0.35853131749460615,-0.381929445644348,0.3074028234185898,-0.5051917045803619,1.073318729301616,2.620230381569537,-1.292056635469187,0.5861531077513911,0.019198464122876412,-0.02159827213822431,-0.021838252939765428,-1.358074407064309,-11.327184097912484,12.921782954047698,29.063506235274673,-9.513813862343754,-15.761410198777412,3.225194544657183,-0.7052607767065782,-1.958007215134844,-0.438608,0.07581399999999994,-0.7175360000000001,0.06584500000000004,0.02403299999999997,-0.8501510000000001,0.504453,0.051780999999999966,0.13261500000000004,0.0,0.9396313253717132,single,-0.7175360000000001
126,1.05,jog,1.4400576023040683,-0.668066722668907,0.25525021000839465,4.673768748016775,-7.485336535517651,-2.3492626905778646,2.7857914316572256,-1.335653426137019,0.48877955118204125,0.03540141605663375,-0.0471618864754554,-0.04104164166566615,15.068134152318311,-37.14573445029346,76.46461726301831,19.868120735351688,-5.2318241531058804,-11.685294200089777,1.94443200933122,-3.067756430724906,-2.304498827061129,-0.42739399999999994,0.07025100000000006,-0.7155900000000001,0.054139999999999966,0.029207000000000094,-0.85262,0.4815339999999999,0.04104399999999997,0.13702999999999999,0.0,0.8802558265700537,single,-0.7155900000000001
127,1.058333,jog,1.4100564022561077,-0.5178207128285128,0.00840033601342903,3.3026826490713943,-4.725526404989524,-0.7012279425423653,2.9783991359654567,-1.3614544581783454,0.41893675747030196,0.03936157446297828,-0.05100204008160478,-0.022200888035521345,-3.6002880172759943,18.030242390543087,-29.62316980618839,23.113849070950774,-3.0962476948669964,-8.381470504228961,0.47523801828207873,-0.46083686621257824,2.2609808748523914,-0.41432500000000005,0.06322099999999997,-0.7121689999999999,0.04271799999999992,0.03309700000000004,-0.8528749999999999,0.457043,0.03012399999999993,0.140706,0.0,0.8864289127871403,single,-0.7121689999999999
128,1.066667,jog,1.314374850011978,-0.3791696664266758,-0.23206143508519037,1.1580311961820227,-2.159384173637155,0.3801074728232904,3.1311495080393303,-1.370650347972147,0.33789296856251066,0.00011999040077138805,-0.006239500839938998,-0.014038876889848591,-11.480867799871483,16.636794624650342,-28.853104283491426,18.328578362595692,-1.1034185017760407,-9.724476710798017,-4.708613398392919,5.371075022998013,0.9793629884416476,-0.399184,0.05495799999999995,-0.707419,0.03176500000000004,0.03620499999999993,-0.851058,0.430949,0.01875300000000002,0.14363899999999996,0.0,0.9743942371527532,single,-0.707419
129,1.075,jog,1.3117724708988507,-0.4520580823233062,-0.33037321492860083,1.3636768028879735,-1.6902521935092603,0.0848103168962609,3.3226929077163314,-1.4425777031081313,0.22368894755790492,-0.05268210728428792,0.021720868834751998,-0.02868114724589047,-0.3122979854947021,-8.746959785987164,-11.79788549662923,22.986127406336593,-8.631627881433447,-13.705030721781686,-6.336505182414472,3.3553785761059944,-1.7571427284341787,-0.3824270000000001,0.04670400000000008,-0.7028019999999999,0.020395000000000052,0.040152999999999994,-0.848544,0.4028220000000001,0.0065510000000000845,0.14574200000000004,0.0,0.8936749117853101,single,-0.7028019999999999
130,1.083333,jog,1.3139325573022675,-0.3576143045721745,-0.3596543861754307,-0.604050691298089,-1.3218666216565145,0.3395394724082528,3.406936277451055,-1.4465378615144364,0.17016680667226422,-0.012600504020163194,-0.042841713668538874,-0.006360254410175995,0.2592207372395017,11.333706678402738,-3.513881104863719,10.109608752516753,-0.47523801827734047,-6.422913822829684,4.809984791086526,-7.747819813187297,2.678614284857084,-0.3649859999999999,0.03763000000000005,-0.6983870000000001,0.009341000000000044,0.042776000000000036,-0.8456,0.37432699999999997,0.005145999999999984,0.14721299999999993,0.0,0.924821730980781,single,-0.6983870000000001
131,1.091667,jog,1.3142548596112549,-0.39392848572115413,-0.41336693064555996,0.44681916830275586,-0.4324983804699308,0.5259500650906055,3.5347972162227577,-1.4240460763139207,0.002999760019198191,-0.022798176145911578,-0.03299736021118676,-0.014638828893688437,0.0386731832238227,-4.3573531496256654,-6.444989737236653,15.342085285781751,2.6987983201963264,-20.05844092309446,-1.2236227652686078,1.1812279166489443,-0.9933494700639068,-0.34648,0.0290450000000001,-0.694917,-0.0018019999999999703,0.04578400000000005,-0.8422769999999999,0.34467800000000004,0.01673899999999995,0.14735999999999994,0.0,0.9288413757888306,single,-0.694917
132,1.1,jog,1.3711748469938614,-0.43801752070081207,-0.2634105364214459,0.6732305690377326,-0.5510169946939547,0.5263708560324004,3.637105484219305,-1.4390975639025312,-0.12612504500179744,0.016080643225724844,-0.03216128645146301,-0.006120244809792576,6.8306717127811725,-5.290895833392195,17.995487126378425,12.277483258915838,-1.8062507606636578,-15.49559642637626,4.665644950394305,0.10033286448142736,1.0222709809067219,-0.32759800000000006,0.020703000000000027,-0.6937730000000001,-0.01309400000000005,0.04916599999999993,-0.840133,0.314504,0.028462999999999905,0.14635999999999993,0.0,0.9392090826114738,single,-0.6937730000000001
133,1.108333,jog,1.1562462498499986,-0.35521420856835484,-0.45625825033002737,-0.557552846156025,-0.9269669926567661,1.4172433833233853,3.8726749069963344,-1.4140165606624513,-0.1568462738509558,0.004920196807880611,-0.023640945637826056,-0.0054002160086399666,-25.792463355798006,9.936794927692066,-23.14265137508499,28.269461511704243,3.009840782440912,-3.686694929696223,-1.3393071424270173,1.0224817969083202,0.08640691241481055,-0.30496199999999984,0.011880000000000002,-0.691278,-0.02268799999999993,0.051929,-0.836376,0.2822739999999999,0.040049,0.14509800000000006,0.0,0.9587600187177103,single,-0.691278
134,1.116667,jog,1.3380129589632754,-0.35469162467001875,-0.31413486921046185,-0.4644123891178979,-0.4997458311644277,0.7509088795952539,3.8954883609310915,-1.3928485721142145,-0.2692584593232516,-0.011999040076792443,-0.04811615070794116,-0.012119030477562166,21.810260272771234,0.062705051396219,17.05344145903101,2.737395480532387,2.5399554293540434,-13.488383186020513,-2.030146014479593,-2.9367896652405707,-0.8061932408113929,-0.2836479999999999,0.0032280000000000086,-0.690904,-0.03393899999999994,0.05448399999999998,-0.8338589999999999,0.24970899999999996,0.05125599999999997,0.14295499999999994,0.0,0.9149181469043248,single,-0.690904
135,1.125,jog,1.3234129365174774,-0.3867754710188414,-0.297611904476173,-0.15415818789765565,0.002719622460222383,1.132843125061645,3.830793231729305,-1.3904956198248073,-0.39217568702748384,-0.008400336013442354,-0.02808112324492483,-0.005760230409216353,-1.752072776406839,-3.8502155704815744,1.9828350815179445,-7.763726053256587,0.2823655693516454,-14.750657350802037,0.4318617620724975,2.4042994675406835,0.7630865316627711,-0.26275399999999993,-0.005136000000000029,-0.691692,-0.045036999999999994,0.057472999999999996,-0.831427,0.21771699999999994,0.06260900000000003,0.13973500000000005,0.0,0.9502144771655829,single,-0.691692
136,1.133333,jog,1.3426137045481914,-0.3930157206288321,-0.1952478099124037,-0.15809207775626463,-0.6569929602331627,1.056753980441309,3.9523580943238015,-1.3729749189967766,-0.47185887435498075,0.0014400576023055455,-0.013800552022078158,0.0020400816032645243,2.304184331058946,-0.7488599075951947,12.284182714961023,14.588367046021554,2.102568202091787,-9.562364973898672,1.1808944696685455,1.7137370962254654,0.9360748844930936,-0.24100699999999997,-0.013302000000000036,-0.693997,-0.05621299999999996,0.06063300000000005,-0.8297829999999999,0.184794,0.07393500000000008,0.13578599999999996,0.0,0.9766255757670422,single,-0.693997
137,1.141667,jog,1.2844972402207684,-0.41060715142788695,-0.24358051355891058,-0.31977584047746205,0.3234889976444387,1.3753143113079629,4.192944564434824,-1.4323254139668689,-0.4580033597312165,-0.0029997600192047716,-0.02087832973362205,-0.016318694504440023,-6.97341784586304,-2.110802831660032,-5.799460480742322,28.868066967965046,-7.121489677236838,1.6625287525514962,-0.5327354957415747,-0.8492653841545282,-2.202876902772307,-0.21676799999999985,-0.021816999999999975,-0.695784,-0.06694299999999997,0.06388100000000008,-0.827889,0.14982499999999987,0.08569800000000005,0.13210500000000003,0.0,0.9555526840277945,single,-0.695784
138,1.15,jog,1.3854554182167447,-0.40057602304091955,-0.10620424816993072,-0.6578705871203088,-0.7016028491326523,1.1365986107462955,4.195007800312039,-1.4154566182647434,-0.5558622344893843,-0.027361094443778718,0.0021600864034516565,0.017520700828033316,12.115465978156392,1.2037835577784104,16.485811279128896,0.247598209194199,2.0243364577133756,-11.743534712368744,-2.923477070031702,2.7647205252698805,4.060889875491857,-0.19335599999999997,-0.030274000000000023,-0.699531,-0.07871600000000001,0.06723699999999999,-0.826858,0.11463999999999996,0.09751100000000001,0.12732699999999997,0.0,0.9457303435524356,single,-0.699531
139,1.158333,jog,1.3766950678026926,-0.4564982599303928,-0.13296531861274194,-0.46044530592262445,0.2711792215524989,1.3380257342218527,4.260050402016,-1.44053762150483,-0.6021840873634834,0.026641065642631898,-0.035161406456256164,0.04728189127565002,-1.0512841010502754,-6.710936864211239,-3.2114569114137463,7.805424421451979,-3.009840782441631,-5.558844698679738,6.480518431106405,-4.4787582934966,3.571485713142468,-0.16932900000000006,-0.03847399999999995,-0.703441,-0.08996599999999999,0.07074800000000003,-0.825356,0.07936300000000007,0.10922199999999999,0.121915,0.0,0.8922238930163365,single,-0.703441
140,1.166667,jog,1.4001679865611065,-0.47948164146869154,-0.046556275497954325,-0.755069662917609,-0.4581964063215038,1.2420114117528345,4.209383249340136,-1.4511639068874758,-0.6430285577153954,-0.002399808015361217,-0.004799616030722434,0.007439404847612279,2.8165249290154066,-2.7577851617829614,10.368255713317646,-6.079571955347338,-1.2750522417381767,-4.900944366680195,-3.48462606887373,3.6431234011920215,-4.780715914091492,-0.14591700000000007,-0.04657199999999995,-0.708412,-0.10165500000000005,0.07470399999999999,-0.824906,0.044262000000000024,0.12127599999999994,0.11649399999999999,0.0,0.9847120111562089,single,-0.708412
141,1.175,jog,1.4568582743309393,-0.4225369014760512,-0.03744149765991654,-0.6338008588979053,0.26062489698525226,1.5277837099778382,4.2635305412215745,-1.4743789751589829,-0.677547101884065,-0.04800192007679695,-0.008280331213246674,-0.026881075243008656,6.803106656646078,6.8336421448025115,1.0938170932482447,6.497934943170235,-2.785919629365978,-4.142390995880117,-5.472472346266042,-0.4177025300041017,-4.118622355768671,-0.122529,-0.05533699999999997,-0.713746,-0.11419499999999994,0.078156,-0.8248179999999999,0.008334000000000064,0.13349299999999997,0.11107199999999995,0.0,0.9072736939177009,single,-0.713746
142,1.183333,jog,1.4585383415336746,-0.5190207608304408,0.02412096483859457,-0.38841642899731843,0.638891636287572,1.4146816929079662,4.495019800792068,-1.4144965798632065,-0.6410656426257092,-0.02172086883476532,-0.034201368054720065,-0.008160326413057264,0.20161612897339443,-11.578526263577398,7.38779101146186,27.779822341353167,7.186174882488524,4.377950229011893,3.1538523031359493,-3.110648846930713,2.246579722783099,-0.09722600000000003,-0.06279899999999994,-0.719289,-0.12653000000000003,0.08219600000000005,-0.825087,0.029303999999999997,0.14499499999999999,0.10579800000000006,0.0,0.9311176395963712,single,-0.719289
143,1.191667,jog,1.569474442044622,-0.5161987041036578,0.16942644588433756,-1.3804077239057546,-0.07371454971157848,1.387299951699749,4.446604271658238,-1.4515238780897446,-0.6887449004079615,-0.017998560115188664,-0.00959923206143129,0.018478521718262562,13.311267159940801,0.3386197176365513,17.435262904456668,-5.809398744160071,-4.442920353556248,-5.72105324961027,0.44664131504399174,2.952020157582024,3.196406063273293,-0.07324799999999998,-0.07059400000000005,-0.726441,-0.13976,0.086418,-0.826345,0.06651200000000002,0.15701200000000004,0.09990399999999999,0.0,0.9541273142490614,single,-0.726441
144,1.2,jog,1.5796231849274158,-0.5945037801512132,0.1594863794551693,-0.6206336968206446,0.5201163851826034,0.9879450424701945,4.503900156006279,-1.465618624745,-0.6522260890435705,-0.003600144005757202,-0.021960878435142914,0.03864154566182717,1.2178978618497376,-9.396985005106941,-1.1928556857276305,6.875781153011091,-1.6914372561209146,4.382432661033408,1.7278790482937232,-1.4834569031215334,2.4196596596141595,-0.048880000000000035,-0.077853,-0.733205,-0.152953,0.09118899999999996,-0.827352,0.10407299999999997,0.16904199999999997,0.09414699999999998,0.0,0.9256806764016774,single,-0.733205
145,1.208333,jog,1.6312252490099277,-0.5738629545181784,0.21996879875195638,-0.6711333109824754,0.7009028418822385,1.118268778017102,4.566182647305816,-1.457698307932294,-0.6888275531021114,-0.029281171246852,-0.006840273610941167,0.09660386415456451,6.192495389716907,2.476998155890371,7.258180642840036,7.4741979238612375,0.9504760365661655,-4.392351381080077,-3.0818465427930333,1.8145451607106065,6.955756449386334,-0.024422999999999973,-0.08521799999999996,-0.740778,-0.16679,0.09591400000000005,-0.82838,0.14236700000000002,0.18113200000000002,0.08760199999999996,0.0,0.8313741575900001,single,-0.740778
146,1.216667,jog,1.6448284137269396,-0.5700743940484809,0.28329733621310194,-1.00849631599327,0.7153244604165985,1.016388595001195,4.56947444204473,-1.421766258699331,-0.6211903047756282,0.0065994720422400165,-0.025077993760501405,0.07283417326613967,1.6322491861065633,0.4545908890925745,7.5988165900104105,0.39498376996816337,4.3115009878766255,8.115820533535457,4.305332768069678,-2.1883513498392833,-2.852134735832169,-4.899999999996574e-05,-0.09231600000000001,-0.748316,-0.18044300000000002,0.10045599999999999,-0.830134,0.18039400000000005,0.192772,0.08181800000000006,0.0,0.8711452626916423,single,-0.748316
147,1.225,jog,1.6948277931116944,-0.6395055802232011,0.33817352694107017,-0.6386934451997349,1.1370423404141905,0.7619323915774435,4.533181327253011,-1.4125765030600947,-0.6384255370214703,0.035401416056647074,-0.02808112324492408,0.09768390735629282,6.000165532791788,-8.33207562399124,6.585406303608217,-4.355347988925752,1.102814789299895,-2.0683106019250945,3.4563715365902503,-0.36038995372886395,2.982087374313298,0.02360300000000004,-0.09875799999999996,-0.756454,-0.19427099999999997,0.10555100000000006,-0.8321379999999999,0.217874,0.20430900000000002,0.07568399999999997,0.0,0.8206186906033744,single,-0.756454
148,1.233333,jog,1.7631105244209975,-0.616344653786154,0.38461538461538974,-0.766155741079669,0.9775733418835414,0.5428104771821819,4.6393855754230495,-1.3858154326173178,-0.6744269770790894,0.012120484819381692,-0.029041161646475182,0.15912636505460373,8.194255527337537,2.7794223493396566,5.57324585075243,12.745019581187956,3.2114569114097233,-4.3203456207391575,-2.7938235014119277,-0.1152092165547954,7.373389859391753,0.04757099999999992,-0.10516999999999999,-0.765279,-0.2088620000000001,0.11044499999999996,-0.834017,0.256433,0.21561499999999995,0.06873799999999997,0.0,0.729653025017825,single,-0.765279
149,1.241667,jog,1.8381329493640335,-0.6499880009599188,0.3371730261579023,-1.0293671524439187,1.4385757712351037,0.28034946221572876,4.691264698824064,-1.3708903287736898,-0.7033837293016513,0.03251739860811365,-0.005639548836095379,0.2177825773938065,9.001970835497414,-4.0368787105549035,-5.692627604690076,6.224996808376999,1.79086919170001,-3.4745323041230702,2.4474338599390215,2.8079688997335763,7.038182426110189,0.071349,-0.111178,-0.773951,-0.22391000000000005,0.11581499999999995,-0.835012,0.29525900000000005,0.22699299999999994,0.06106100000000003,0.0,0.632884983434638,single,-0.773951
150,1.25,jog,1.7953918156726436,-0.7287891515660687,0.39541581663267467,-0.7809588945480418,1.547105035973531,-0.05713919973913513,4.660626425057046,-1.3775351014040709,-0.5994239769590838,0.08400336013441022,0.015240609624397026,0.3072122884915424,-5.129141208615176,-9.45651633339141,6.989414433550091,-3.676739921639019,-0.7974046118302127,12.475669307880528,6.1785625256566705,2.5057192440288727,10.731994611512869,0.095225,-0.11658400000000002,-0.782241,-0.23817100000000002,0.12201500000000004,-0.835747,0.333396,0.23859900000000006,0.053506000000000054,0.0,0.5,flight,-0.782241
151,1.258333,jog,1.8534741389655673,-0.7335893435737472,0.5706228249129962,-0.9107877953155997,0.6982911243097827,0.013703600530016987,4.669986799472019,-1.3649345973839073,-0.6003840153606191,0.13812552502100367,0.02124084963398348,0.37789511580463636,6.97015760145497,-0.5760460827647298,21.025682020919614,1.1232898613912066,1.5121209672583302,-0.115209216552906,6.4949195831746005,0.7200576034545192,8.482278568714099,0.11869500000000005,-0.12184500000000004,-0.791999,-0.25246499999999994,0.128305,-0.837353,0.37116,0.25015000000000004,0.045354000000000005,0.04646000000000006,0.5,flight,-0.791999
152,1.266667,jog,1.909167266618657,-0.754139668826493,0.6244300455963459,-1.110896672114152,0.7553325041699874,-0.09986385686637549,4.653227741780619,-1.3527717782577298,-0.5361171106311454,0.18286537077033335,0.01871850251979035,0.44924406047515825,6.682640707114137,-2.465841762988439,6.456349974003988,-2.0109260488840293,1.4594215414179825,7.711411654604419,5.36835202175778,-0.30265744110788445,8.56118846538533,0.14156400000000002,-0.126834,-0.8016709999999999,-0.266852,0.13474599999999998,-0.8388129999999999,0.408416,0.26158,0.03714200000000001,0.12858000000000003,0.5,flight,-0.8016709999999999
153,1.275,jog,1.9399975999040155,-0.7892715708628417,0.5969038761550557,-0.9267145763475116,0.6228615096392827,-0.14439140675930123,4.614544581783315,-1.353894155766238,-0.44581783271331216,0.24192967718709182,0.01368054722189602,0.48157926317053157,3.6997879857624913,-4.215996884237258,-3.3032724638534035,-4.642164886271985,-0.13469068864854303,10.836346804012251,7.088000290022682,-0.6045788189000812,3.880379538626379,0.16385100000000002,-0.13153899999999996,-0.81036,-0.281002,0.14143700000000003,-0.839774,0.444853,0.272976,0.02941400000000005,0.20586,0.5,flight,-0.81036
154,1.283333,jog,1.9839193567742353,-0.8047521900875881,0.632065282611296,-0.5944106958101631,0.691514387405842,-0.20924708390640873,4.544341773670869,-1.3339733589343359,-0.4076563062522443,0.30517220688826563,0.0002400096003775896,0.5333013320532723,5.270821657292564,-1.8577486169142141,4.219537556251016,-8.424673960451837,2.3905912434779584,4.579566357982381,7.589407140426341,-1.6129290317434533,6.2068965417904565,0.18518700000000005,-0.135949,-0.819024,-0.294991,0.14814499999999997,-0.840597,0.48017800000000005,0.28409399999999996,0.021573000000000064,0.28427,0.5,flight,-0.819024
155,1.291667,jog,2.0076793856491957,-0.8408927285817311,0.608231341492691,-0.22632692119869294,0.9957893459155189,-0.1941355939576116,4.4536837053036615,-1.3126949844012734,-0.30681545476362354,0.3612910967122682,-0.01631869450442963,0.5716342692584707,2.850975386964348,-4.336517697881413,-2.8598441467009232,-10.878097956228592,2.553200687912512,12.09993418390001,6.7337280806339885,-1.9868855417335658,4.599584497864063,0.20557199999999998,-0.13988099999999998,-0.82665,-0.3087120000000001,0.15501700000000007,-0.840902,0.5142840000000001,0.29489800000000005,0.014252000000000042,0.35748,0.5,flight,-0.82665
156,1.3,jog,2.0398415936637058,-0.8555142205688073,0.610824432977313,0.08288958192705702,0.7834425682462758,-0.23330952686779516,4.315132605304135,-1.2539301572062647,-0.2085683427337061,0.4138965558622315,-0.00840033601344213,0.609864394575771,3.8596193465150033,-1.7546492244180882,0.311183425491661,-16.626797071825766,7.052061345854761,11.790125048591829,6.312907614300055,0.9502410285596259,4.587798550017957,0.224532,-0.14320099999999997,-0.833478,-0.322261,0.16207600000000005,-0.84091,0.5467930000000001,0.305277,0.007431999999999994,0.42567999999999995,0.5,flight,-0.833478
157,1.308333,jog,2.054602184087375,-0.8325933037321569,0.6513860554422223,0.26260495758332797,1.0015112745647314,-0.2736030910945527,4.1125645025801365,-1.1978879155166304,-0.11040441617664858,0.4315372614904688,-0.001560062402501005,0.6865474618984827,1.771341704508524,2.750620045199885,4.867589399365128,-24.30914469266775,6.725338016276821,11.780142392542714,2.116969354162659,0.8208656679396602,9.202336172172373,0.24168100000000003,-0.14624499999999996,-0.8398260000000001,-0.3357859999999999,0.169001,-0.8406170000000001,0.577467,0.31524599999999997,0.0007909999999999862,0.49209,0.5,flight,-0.8398260000000001
158,1.316667,jog,2.0871130309575165,-0.8340532757379328,0.610751139908794,0.41676516891985194,0.6313533608654,-0.23954660831829339,3.8668106551475594,-1.144708423326131,0.02387808975282016,0.49844012479001193,-0.0014398848092166917,0.7195824334053224,3.9009895452533163,-0.17518262608301471,-4.875799800027349,-29.488102643697534,6.3810285805734255,16.112611702599917,8.02770137983473,0.01442015758151097,3.9638794704630906,0.256513,-0.14883400000000002,-0.8447169999999999,-0.349026,0.17593999999999999,-0.83971,0.6055389999999999,0.324774,0.005006999999999984,0.5,0.44993000000000005,flight,-0.83971
159,1.325,jog,2.096363854554196,-0.8519140765630729,0.5425417016680714,0.6325931863681025,0.25305123281645353,-0.35777369274485415,3.591383655346248,-1.0434417376695106,0.0873634945397815,0.5231009240369665,-0.013320532821309641,0.7343093723749017,1.1101432373310438,-2.143381834290214,-8.185460007287087,-33.052562078640825,12.152488378329698,7.618553316568093,2.959414286206025,-1.4257347908428006,1.767303368484275,0.268971,-0.15042999999999995,-0.84851,-0.36213599999999996,0.18292800000000004,-0.838112,0.631107,0.333358,0.010398000000000018,0.5,0.3960199999999999,flight,-0.838112
160,1.333333,jog,2.1125645025800672,-0.8714748589943434,0.4512180487219526,0.7854838568401952,-0.045689796004154314,-0.36336414077488466,3.233889355574166,-0.9494779791191518,0.11376455058202181,0.5327013080523093,-0.027841113644546493,0.8099123964958462,1.9441555293256805,-2.347387787263905,-10.959276724603045,-42.90103201392962,11.276102070125672,3.1682534552069908,1.152092165527737,-1.7425394003644064,9.07272580354533,0.278315,-0.15108,-0.851322,-0.375301,0.18995800000000002,-0.8351230000000001,0.653616,0.341038,0.016198999999999963,0.5,0.3380099999999999,flight,-0.8351230000000001
161,1.341667,jog,2.137748980081634,-0.8785697144228622,0.42440604751619493,0.6147968025982558,0.415660416003802,-0.1336686732072313,2.8434125269978936,-0.8561315094792582,0.09611231101512016,0.6081113510919196,-0.004799616030722434,0.9398848092152797,3.0218955485441663,-0.8513145462585766,-3.217182770069375,-46.85347115146148,11.200680302363253,-2.1180993000842316,9.048481286250508,2.7647585329763014,15.595441890981038,0.284196,-0.150893,-0.854058,-0.38804900000000003,0.19723999999999997,-0.830827,0.672245,0.34813299999999997,0.023231,0.5,0.26769,flight,-0.830827
162,1.35,jog,2.137645505820198,-0.8814352574102798,0.35341413656546683,0.5189401455982172,0.04145771023825627,-0.3861622321018256,2.4322572902915702,-0.7130685227408975,0.017160686427457307,0.5957038281531253,0.009360374414979136,1.1101644065762448,-0.01241740806859971,-0.34387891364665074,-8.519370088890778,-49.34060202883909,17.168245138408523,-9.474573933476716,-1.4889623111477388,1.699266824157125,20.434369058077777,0.286651,-0.14949,-0.8568600000000001,-0.400898,0.20466299999999998,-0.8245210000000001,0.687549,0.354153,0.03233900000000001,0.5,0.17660999999999993,flight,-0.8245210000000001
163,1.358333,jog,2.1554062162486702,-0.8987159486379566,0.2814112564502522,0.5831291047252392,0.10770580416425148,-0.3273506880115615,2.0266410656426443,-0.5885035401416101,-0.0817232689307581,0.6749069962798528,-0.004200168006721177,1.2820112804512296,2.1313705062369146,-2.0737658979571445,-8.64069124147549,-48.6758939936313,14.948395847748532,-11.866549304958154,9.504760365622019,-1.6273301838114047,20.62244976298888,0.285578,-0.14690499999999998,-0.8598859999999999,-0.413235,0.212117,-0.816183,0.698813,0.35902199999999995,0.043702999999999936,0.5,0.06296999999999997,flight,-0.816183
164,1.366667,jog,2.117470602351792,-0.8536117110631029,0.25569954403647444,0.577329099550977,-0.03309429452400206,-0.6653650562800318,1.6615070794336324,-0.43760499160066996,-0.17206623470122315,0.8848092152627712,-0.06575473962082898,1.3970482361410965,-4.551909514864169,5.412075542938969,-3.0851586769591544,-43.81257333921396,18.106377314727503,-10.840288669362174,25.18625137783979,-7.385957717075514,13.803330416350619,0.28177800000000003,-0.14343800000000004,-0.863451,-0.423508,0.21868299999999996,-0.8066709999999999,0.705286,0.362121,0.05678000000000005,0.5,0.0,flight,-0.8066709999999999
165,1.375,jog,2.1197647905916446,-0.8733949357974407,0.13608544341774748,0.7311053954691721,0.13841343864220532,-0.5944222054053905,1.2474498979959314,-0.2787711508460354,-0.33409336373455184,0.9474378975159076,-0.10248409936397807,1.3825753030121335,0.27531360132636906,-2.374081931397814,-14.354266244897163,-49.68884932649763,19.060823323489263,-19.444033245329432,7.515742500076432,-4.407699477157017,-1.7368214483335125,0.274509,-0.13848300000000002,-0.8673690000000001,-0.433277,0.22510699999999995,-0.796284,0.707786,0.36358999999999997,0.07108500000000006,0.5,0.0,flight,-0.796284
166,1.383333,jog,2.108364334573402,-0.8515540621624932,0.03804152166086819,0.6606467230102999,-0.35265608305230783,-0.7433636018321597,0.9263170526821162,-0.1374054962198509,-0.47857914316573164,1.1096843873755058,-0.16164646585863426,1.3535341413656683,-1.3681094465669579,2.6210096765807833,-11.765741240475242,-38.537482936975664,16.96455713742779,-17.338987091225384,19.470357597455862,-7.099767970077612,-3.4850788007278846,0.264659,-0.13253200000000004,-0.8716740000000001,-0.441599,0.23085599999999995,-0.7853220000000001,0.706258,0.363388,0.08635199999999998,0.5,0.0,flight,-0.7853220000000001
167,1.391667,jog,2.0877129829613468,-0.8626109911207038,-0.06359491240701061,0.4930736073511248,-0.6967878985777473,-0.5932781624832519,0.6635469162466944,-0.0009599232061411308,-0.6159107271418238,1.3916486681065405,-0.11207103431725261,1.4490040796736154,-2.4779639563301283,-1.3267253369583105,-12.195396456428849,-31.529893980731917,16.372158988925932,-16.478471799386984,33.83300704716014,5.948575898893841,11.455476158860861,0.25279,-0.12535100000000002,-0.876277,-0.4474,0.23711099999999996,-0.772716,0.70019,0.36246199999999995,0.10356100000000001,0.5,0.0,flight,-0.772716
168,1.4,jog,2.0908436337453717,-0.8330733229329254,-0.14796591863675157,0.21935198481712925,-0.9440199276543426,-0.6551616281736645,0.3544941797671937,0.12516500660026375,-0.7407896315852699,1.6463458538341729,-0.15012600504020324,1.5456618264730733,0.375693121807872,3.54466196901221,-10.124925744598793,-37.08781189001602,15.135597000648751,-14.986067975932702,30.564884882711468,-4.5667791579204335,11.599393591678712,0.23832099999999998,-0.11736600000000003,-0.881217,-0.451104,0.24280199999999996,-0.7586029999999999,0.689425,0.360168,0.12261400000000011,0.5,0.0,flight,-0.7586029999999999
169,1.408333,jog,2.085323412936478,-0.8228729149165825,-0.25693027721107775,0.11768010511799777,-1.148885881224392,-0.7783563104940018,0.14916596663866388,0.28465138605543877,-0.8017520700827893,1.8811952478098823,-0.24516980679226943,1.6194647785911127,-0.6624529951870259,1.224097925878151,-13.076246078762063,-24.64037119027076,19.139131099864663,-7.31578525111224,28.183054599268615,-11.405712438745294,8.856708522505478,0.22218700000000002,-0.10813700000000001,-0.885757,-0.45280499999999996,0.24761599999999995,-0.742967,0.6749919999999999,0.355753,0.14278999999999997,0.5,0.0,flight,-0.742967
170,1.416667,jog,2.0694744420446773,-0.8244540436765235,-0.3276937844972511,-0.12033176870339224,-1.1985320245954572,-0.8677630271420246,0.05219582433405318,0.2626589872810221,-0.7145428365730871,2.0333573314135274,-0.36405087592993024,1.62706983441328,-1.901724369066609,-0.18972027357103627,-8.490941599013045,-11.635486237654494,-2.638876742790627,10.464270879494093,18.257989393286287,-14.264587129549204,0.9125336959644036,0.20537499999999997,-0.099077,-0.888981,-0.45310599999999995,0.251453,-0.726676,0.658481,0.35053,0.16230500000000003,0.5,0.0,flight,-0.726676
171,1.425,jog,2.001920076803034,-0.8205928237129354,-0.40069602784110436,-0.12507479298948002,-1.0757898543134017,-0.9854766240502828,0.08820352814112405,0.2008880355214184,-0.5474618984759299,2.3627745109803926,-0.5337813512540417,1.501260050401989,-8.106848102921193,0.46336493022777603,-8.760619626047278,4.321097300740457,-7.412810723581258,20.050514592242212,39.53164281373569,-20.368471777764128,-15.097777992474334,0.189428,-0.09056499999999998,-0.890204,-0.45009899999999997,0.253843,-0.710827,0.639527,0.34440799999999994,0.179377,0.5,0.0,flight,-0.710827
172,1.433333,jog,1.9950798031921493,-0.7955118204728258,-0.503420136805484,-0.3946658129514377,-1.7019430952205465,-1.0954968615839593,0.14736589463578761,0.0933637345493796,-0.3054122164886622,2.5562222488899806,-0.5959438377535187,1.3471738869554888,-0.8208656679328736,3.0098407824444826,-12.32738617117252,7.099767970078497,-12.903432253934932,29.047123723421322,23.21465713543619,-7.459796771808178,-18.491079256750474,0.174031,-0.08315800000000001,-0.888554,-0.445423,0.25550599999999996,-0.695406,0.619454,0.33866399999999997,0.193148,0.5,0.0,flight,-0.695406
173,1.441667,jog,1.9011279097672038,-0.8114950803935645,-0.5845932325413907,-0.5259911949001531,-1.9325111147782879,-1.1478638882521506,0.30069594432445107,-0.02231821454283541,-0.2433405327573778,2.8280537556995164,-0.7123830093592423,1.2105831533477247,-11.273325344965773,-1.9178377634675627,-9.739992288925615,18.398134111910522,-13.880723433191042,7.448006207257489,32.617171443428575,-13.971582866057439,-16.38957686678222,0.16069299999999997,-0.07658099999999998,-0.88571,-0.43769800000000003,0.256332,-0.680445,0.598391,0.332913,0.20526500000000003,0.5,0.0,flight,-0.680445
174,1.45,jog,1.897755910236426,-0.7843513740549677,-0.6162246489859652,-0.7315191963112326,-2.0385542562077026,-1.3375952836341913,0.369014760590428,-0.09300372014880655,-0.281651266050644,3.0567622704908537,-0.8047521900876097,1.0672026881075323,-0.4046561299385269,3.2573750556338785,-3.7959218102213783,8.19858589535312,-8.482599976715683,-4.597471894067749,27.44611961974551,-11.08474507720728,-17.206344082586554,0.147954,-0.07082,-0.882922,-0.42804,0.256162,-0.666417,0.575994,0.326982,0.21650499999999995,0.5,0.0,flight,-0.666417
175,1.458333,jog,1.842073682947286,-0.7679107164286423,-0.6325453018120512,-0.8525609423730219,-1.7970853920497845,-1.5262730265609563,0.26581063242529174,-0.15444617784711243,-0.21072842913716186,3.3219728789150964,-0.8421936877474914,0.8551542061682343,-6.682134560079108,1.972957833472353,-1.958556681397538,-12.38499077944731,-7.373389859390952,8.511080872852622,31.82654607275148,-4.493159445563547,-25.446835706143553,0.134819,-0.06570800000000002,-0.879407,-0.41570799999999997,0.255543,-0.65402,0.550527,0.32125100000000006,0.225387,0.5,0.0,flight,-0.65402
176,1.466667,jog,1.8237341012719317,-0.7865370770338496,-0.6315094792416748,-1.2018266387724212,-1.8926379328847325,-1.5336337654236696,0.13510919126470164,-0.11063114950803887,-0.14818814494840693,3.529037676985904,-0.9766018718502715,0.689704823614121,-2.200573755142136,-2.234984473867007,0.12428876534394007,-15.682918305806645,5.257382810064121,7.504233763949618,24.845788105448946,-16.12769187698376,-19.85233771947642,0.120746,-0.06007500000000002,-0.875379,-0.401496,0.253959,-0.643009,0.522242,0.31403400000000004,0.23236999999999997,0.6182879535387025,0.0,single,-0.643009
177,1.475,jog,1.8119524780990923,-0.7831513260530323,-0.6164646585863397,-1.777304550993198,-2.0215582714599205,-1.5174076460590806,0.07572302892115464,-0.027001080043201613,-0.0596423856954273,3.7718708748349257,-1.17952718108722,0.5414616584663311,-1.4138513347940918,0.4063063699528648,1.8054506966680446,-7.126624546207364,10.036009776171342,10.62591614700325,29.141149387857606,-24.352011188880965,-17.78989141339101,0.106278,-0.05377399999999999,-0.8707389999999999,-0.38516400000000006,0.25065600000000005,-0.6333599999999999,0.49144200000000005,0.30443000000000003,0.237379,0.8331646719738333,0.0,single,-0.6333599999999999
178,1.483333,jog,1.7719908796352017,-0.7008280331213327,-0.6147845913836596,-1.9489806163425105,-1.7514721416655785,-1.4765132465073794,0.08676347053882251,0.04908196327853071,-0.0798031921276857,3.9656786271451243,-1.185767430697242,0.3052922116884692,-4.795583639012474,9.87919031941682,0.20161612896677278,1.3249059903597713,9.130330411824435,-2.4193935476129353,23.257860591647717,-0.7488599075989518,-28.341467272034567,0.092235,-0.047524999999999984,-0.866281,-0.366884,0.24661500000000003,-0.625693,0.459119,0.29414,0.2405879999999999,0.7871784236281449,0.0,single,-0.625693
179,1.491667,jog,1.7429805615550635,-0.8150947924165997,-0.5682745380369482,-2.4316834439729154,-1.937778549808446,-1.3405891144394622,0.030117590592752496,0.020638348932085934,-0.008279337652987651,3.9824814014878505,-1.176025917926564,0.1709863210943123,-3.480959692841131,-13.71091424229255,5.580759940810065,-6.796961836581423,-3.41296068471857,8.582175962886671,2.0161716273969303,1.1688880214396526,-16.115417637887674,0.07795999999999999,-0.040559999999999985,-0.861614,-0.34822000000000003,0.24360699999999996,-0.619532,0.42618,0.28416699999999995,0.24208200000000002,0.9376043506296008,0.0,single,-0.619532
180,1.5,jog,1.7091083643345863,-0.7373094923796999,-0.5778231129245239,-1.7677924384633614,-1.0140637364702982,-1.606697164236545,0.03900156006240355,0.06516260650425931,-0.042001680067203444,4.16740669626789,-1.3223328933157448,-0.07896315852634081,-4.064826259507679,9.334609388803608,-1.1458748215019625,1.0661189811173812,5.3431246336462,-4.046842963424469,22.19192305052699,-17.55753934827579,-29.995137359973047,0.06404300000000002,-0.033873000000000014,-0.857149,-0.327735,0.23873199999999994,-0.615375,0.391778,0.272605,0.24177400000000004,0.8553603317992727,0.0,single,-0.615375
181,1.508333,jog,1.7298691947678078,-0.7500300012000588,-0.5103804152166208,-1.5029512819326387,-0.6752138725766833,-1.6249290876598528,0.022920916836673282,0.061802472098886375,-0.037921516860674395,4.172086883475379,-1.3331333253330164,-0.21036841473659193,2.4913993079589103,-1.5265221193278564,8.093447462846962,-1.9297543772627406,-0.40323225793507356,0.4896391703503043,0.561644930695923,-1.2961036862200592,-15.769261515690907,0.049819,-0.027107999999999965,-0.853212,-0.307384,0.23387300000000005,-0.612875,0.357203,0.260981,0.24033700000000002,0.8732570906302651,0.0,single,-0.612875
182,1.516667,jog,1.8140148788096822,-0.7842572594192389,-0.37796976241900193,-1.3309406887244135,0.2856788755552556,-1.2642102929775492,0.014158867290615816,0.0193184545236373,-0.013318934485241078,4.335733141348659,-1.3543316534677179,-0.42404607631388946,10.096674351076764,-4.106942430907101,15.888007295130533,-1.0513618365799615,-5.097674295086243,2.952073719154443,19.635980066388143,-2.5435958884930763,-25.639268247815682,0.03481899999999999,-0.020410999999999985,-0.850173,-0.286368,0.229122,-0.613259,0.321187,0.24953299999999998,0.23691399999999996,0.954323899272606,0.0,single,-0.613259
