frame_id,timestamp,gait_type,root_linear_velocity_x,root_linear_velocity_y,root_linear_velocity_z,root_angular_velocity_x,root_angular_velocity_y,root_angular_velocity_z,left_linear_velocity_x,left_linear_velocity_y,left_linear_velocity_z,right_linear_velocity_x,right_linear_velocity_y,right_linear_velocity_z,root_acceleration_x,root_acceleration_y,root_acceleration_z,left_acceleration_x,left_acceleration_y,left_acceleration_z,right_acceleration_x,right_acceleration_y,right_acceleration_z,left_pos_rel_x,left_pos_rel_y,left_pos_rel_z,right_pos_rel_x,right_pos_rel_y,right_pos_rel_z,step_length,step_width,step_height,left_contact_prob,right_contact_prob,support_type,max_foot_height
1,0.008333,stand,-0.06048241929677906,-0.0018000720028652614,-0.0030001200047932,0.0019703814495205304,0.1084981978236333,-0.07647778889982439,-0.0015600624025009907,-0.010440417616725102,-0.013560542421697106,-0.001200048001901292,-0.0030001200048198466,0.00024000960038342268,0.0,0.0,0.0,0.0,0.0,0.0,0.0,0.0,0.0,-0.025055999999999967,0.13014899999999985,-0.908437,0.11959200000000014,-0.11859600000000015,-0.910313,0.1446480000000001,0.248745,0.0018759999999999888,0.9525983236115831,0.994599783991341,double,-0.908437
2,0.016667,stand,-0.08603311735059474,0.0,-0.012958963282937002,0.047843236550844416,0.08336835075173453,-0.04451478544381397,0.0009599232061444684,-0.011159107271406132,-0.01259899208063366,-0.0014398848092300241,-0.0023998080153478495,0.0019198464122872716,-3.065838499377931,0.21599136103494854,-1.1949655961295658,0.3023740831108062,-0.08623585969294811,0.11537681078275099,-0.028778114630277424,0.07203167620254343,0.20156429228507905,-0.024331000000000103,0.13005599999999995,-0.908434,0.12029699999999988,-0.11861600000000005,-0.910189,0.14462799999999998,0.248672,0.001755000000000062,0.9543538491612031,0.9943435982626487,double,-0.908434
3,0.025,stand,-0.06504260170407325,0.00024000960036427057,-0.006120244809795182,-0.005330665007573982,0.09370310046770108,-0.07864542508535742,0.0006000240009639692,-0.009960398415943268,-0.012240489619584535,-0.0012000480019279385,-0.001080043201719157,0.001440057602303867,2.5189626360880224,0.028802304135877903,0.820679043938776,-0.04318963220694817,0.14385081668821115,0.04302201620654318,0.028781568138975835,0.1583781127599535,-0.05757696027641961,-0.023784000000000027,0.12997100000000006,-0.908485,0.12082899999999985,-0.11862699999999982,-0.910126,0.14461299999999988,0.24859799999999987,0.0016410000000000036,0.9572693727102564,0.9963943044967163,double,-0.908485
4,0.033333,stand,-0.06516260650425539,-0.004920196807867243,-0.0004800192007685108,-0.022533835083306936,0.12872758856199298,-0.0540944046772691,0.0,-0.008640345613833193,-0.010200408016320862,-0.004440177607085409,0.0014400576022922092,-0.0003600144005755504,-0.01440115206793901,-0.6192495389693403,0.6768541472490904,-0.07200576034609016,0.1584126727601194,0.2448195851750477,-0.38883110586313097,0.3024241934491019,-0.21601728103677156,-0.023241000000000067,0.12993999999999994,-0.908566,0.12133499999999997,-0.11857399999999996,-0.910125,0.14457600000000004,0.2485139999999999,0.001558999999999977,0.9621299705749053,0.9921971242037517,double,-0.908566
5,0.041667,stand,-0.08519318454523497,-0.006359491240683791,-0.006839452843769346,-0.007588844461802714,0.16137793252110105,-0.012464589170934999,-0.00035997120230084524,-0.00815934725221466,-0.008039356851451596,-0.005279577633807897,0.004679625629937631,-0.0010799136069116943,-2.4034770867506103,-0.1727015158167204,-0.7630709914807816,-0.043193088828995106,0.05771518617932968,0.2593053953526837,-0.10071994561104972,0.3887170659521745,-0.08638099428079479,-0.022534000000000054,0.12992499999999985,-0.908576,0.1220009999999998,-0.1184820000000002,-0.910077,0.14453499999999986,0.24840700000000004,0.0015009999999999746,0.9658896956515165,0.9881047337349209,double,-0.908576
6,0.05,stand,-0.06888275531022134,-0.003360134405392899,-0.005520220808831212,-0.02763292955080007,0.09655253707691228,-0.0630121038092922,0.00024000960039091698,-0.006600264010550369,-0.00540021600864075,-0.004080163206512357,0.004080163206539003,-0.0007200288011519335,1.957329801393692,0.359937217723616,0.15831417675964646,0.0720005763460653,0.18709747289863077,0.31670956952008233,0.14393548869501263,-0.07193836834256907,0.043187904207339596,-0.021957999999999922,0.12989800000000007,-0.908575,0.12254100000000001,-0.11841999999999997,-0.910037,0.14449899999999993,0.24831800000000004,0.0014619999999999633,0.9711611331755983,0.9903083791835048,double,-0.908575
7,0.058333,stand,-0.07944317772710194,-0.004200168006721138,-0.009000360014406246,-0.03785691944909695,0.061177592151779564,-0.042650005436994695,-0.0013200528021367203,-0.004800192007685108,-0.0033601344053762446,-0.006600264010577016,0.005400216008649077,-0.0009600384015361888,-1.267301382080955,-0.10080806448196801,-0.41763341000540427,-0.18721497690239255,0.21601728103507278,0.24481958517514762,-0.30242419345549726,0.15841267276011928,-0.028802304138276173,-0.021307000000000187,0.12989300000000004,-0.908528,0.12314799999999981,-0.11833999999999989,-0.90997,0.144455,0.24823299999999993,0.0014419999999999433,0.975569604579174,0.9856969805361662,double,-0.908528
8,0.066667,stand,-0.06383489320854054,0.0009599232061444684,-0.007559395248371036,-0.053985326188593245,0.07085003326530366,-0.07248626810628939,-0.00023998080151613468,-0.0026397888168906273,-0.0007199424046075187,-0.002519798416105917,0.0029997600191914724,0.0008399328053755773,1.8728443146821934,0.6191614126308622,0.17290193976904358,0.12959827221269324,0.2592276446837629,0.3167976962765449,0.48961670200037183,-0.2880316762008165,0.21597926648809285,-0.020777000000000045,0.12986300000000006,-0.908471,0.12365899999999996,-0.11832299999999996,-0.9099,0.144436,0.24818600000000002,0.0014290000000000136,0.9811321569705478,0.9933222110803185,double,-0.908471
9,0.075,jog,-0.08760350414018,-0.00468018720747633,-0.0062402496099906455,-0.06304346175226525,0.20933957669028472,0.07018238732066236,-0.0007200288011461051,-0.0010800432017191578,0.0010800432017283174,-0.005160206408258164,0.0038401536061480894,0.0006000240009598062,-2.8523474056929663,-0.6768403232474263,0.15830380875799735,-0.05760806427816763,0.18717696089901245,0.21600691303682198,-0.31686163352361085,0.10085126448537354,-0.028790208138218074,-0.020052999999999876,0.12989300000000004,-0.90841,0.12434600000000007,-0.11825200000000002,-0.909843,0.14439899999999994,0.24814500000000006,0.0014329999999999066,0.982855637969638,0.9892329542512079,double,-0.90841
10,0.083333,jog,-0.06684267370693846,-0.005280211208466937,-0.002760110404415604,-0.02288636436159899,0.08226702065694241,-0.03941761275036502,-0.0003600144005996984,-0.0001200048002087816,0.0018000720028802486,-0.004560182407294187,0.0043201728069032705,-0.001080043201727483,2.491399307961302,-0.07200576034928677,0.4176334100054048,0.04320345620381692,0.11520921654990705,0.08640691241472825,0.07200576034609096,0.05760460827495268,-0.20161612896763323,-0.019499000000000155,0.12993600000000005,-0.908372,0.124865,-0.11817199999999994,-0.909829,0.14436400000000016,0.248108,0.0014570000000000416,0.9823639354140556,0.9893769576984092,double,-0.908372
11,0.091667,jog,-0.08063354931605549,-0.0035997120230350987,-0.00971922246220276,-0.10087080155675063,0.10708692289152283,0.034443183036432026,-0.00011999040075806745,0.00107991360692918,0.003239740820734253,-0.003839692824577877,0.002519798416132562,-0.0007199424046075193,-1.6547726912787424,0.20164377075016074,-0.835026644802875,0.02880057593492094,0.14397869056131057,0.17274643842740647,0.08645183377925497,-0.21602764468091068,0.04320863896327861,-0.018828000000000067,0.12997500000000017,-0.908264,0.12550499999999998,-0.11812099999999992,-0.909754,0.14433300000000004,0.2480960000000001,0.0014899999999999913,0.9794048432661708,0.9922520715831387,double,-0.908264
12,0.1,jog,-0.06060242409696115,-0.006960278411123416,-0.0037201488059526245,-0.03828164759685761,0.050887254268328706,-0.013995533078615388,-0.00036001440057305197,0.00180007200286526,0.004440177607104558,-0.0014400576023188543,0.0010800432017191559,0.0014400576023038656,2.4038311795385,-0.40328409793451514,0.7199176354554339,-0.02880403213908368,0.08642246441090595,0.14405817669150406,0.2879677453808977,-0.17277753683108185,0.25921036924413576,-0.018326000000000064,0.13004799999999994,-0.908196,0.12599799999999983,-0.1180540000000001,-0.909711,0.1443239999999999,0.24810200000000004,0.001515000000000044,0.9768421831996702,0.9961579717764032,double,-0.908196
13,0.108333,jog,-0.06516260650428209,-0.004680187207502976,-0.007680307212282855,-0.04736201772695847,0.058253686969238785,0.007707127928135522,-0.0006000240009639698,0.003120124805001984,0.004080163206528181,-0.0021600864034383156,0.0001200048002087818,0.000720028801151934,-0.547243778629658,0.2736218893100254,-0.4752380182803593,-0.028802304139075724,0.15841267276331755,-0.0432034562074135,-0.08640691241083186,-0.11520921654990698,-0.08640691241472846,-0.017787999999999915,0.13011300000000015,-0.9080980000000001,0.12652300000000016,-0.11801399999999984,-0.909641,0.14431100000000008,0.248127,0.001542999999999961,0.9759510706722503,0.9961998479939465,double,-0.9080980000000001
14,0.116667,jog,-0.08411327093830573,-0.005039596832238472,-0.011639068874491678,-0.06969025125603817,0.17388485113186133,0.1442350110741939,-0.0005999520038436226,0.0035997120230350926,0.0035997120230375906,-0.0007199424046283331,-0.0007199424046283331,-0.0002399808015361169,-2.2738978202572144,-0.0431257049118665,-0.4750133983931868,8.638963324592397e-06,0.05754586249497337,-0.057649530056466294,0.17280345558075128,-0.1007856017323151,-0.11519193696760859,-0.017092000000000107,0.130185,-0.9079710000000001,0.12721799999999983,-0.11797800000000014,-0.9095460000000001,0.14430999999999994,0.24816300000000013,0.001574999999999993,0.9757066797203083,0.9982565798961445,double,-0.9079710000000001
15,0.125,jog,-0.05772230889235019,-0.0016800672026831276,-0.010080403216138735,-0.08109498811672078,0.05249057004193301,0.045525246436387,-0.0008400336013282406,0.00324012960518412,0.004200168006720309,-0.0010800432017191578,-0.001800072002865263,0.0003600144005763834,3.1670421271997555,0.40315968193391905,0.1870473608967891,-0.028810944135919614,-0.04315161620676504,0.0720576003459401,-0.04321382420386715,-0.1296207366178964,0.07200230434567392,-0.01661800000000002,0.13022599999999995,-0.907852,0.12768999999999986,-0.11797900000000006,-0.9094589999999999,0.14430799999999988,0.248205,0.001606999999999914,0.974978664346338,0.9964502101385742,double,-0.907852
16,0.133333,jog,-0.07068282731311319,-0.007800312012478302,-0.010320412816502988,-0.041664896773922204,0.05003314100768141,0.12324535852180492,-0.0007200288011727504,0.003600144005757166,0.0030001200048006917,-0.0008400336013282392,-0.0010800432017191559,-0.00048001920076851036,-1.555324423468498,-0.7344587555256413,-0.028802304135875707,0.014401152064741402,0.04320345620701378,-0.1440115206911816,0.028802304139075776,0.08640691241402934,-0.10080806448396654,-0.01603500000000002,0.1303209999999999,-0.907741,0.12827200000000016,-0.117923,-0.909377,0.14430700000000019,0.2482439999999999,0.0016359999999999708,0.9757377854053589,0.9975832941370726,double,-0.907741
17,0.141667,jog,-0.049076073914072794,-0.003599712023061748,-0.008159347252228001,-0.028365741671844576,0.0005147252814465444,0.06384666707345614,0.00011999040078471086,0.0032397408207342584,0.0026397888168939645,0.0008399328053597599,-0.0010799136069291817,-0.0002399808015352851,2.5926029996448823,0.504031676195892,0.2593071231431475,0.10079424069563993,-0.0432449226089403,-0.04323628364611568,0.20157984241516713,1.555013078643977e-05,0.028802303723689204,-0.015625,0.1303780000000001,-0.907651,0.1286879999999999,-0.11790199999999995,-0.909311,0.1443129999999999,0.24828000000000006,0.0016599999999999948,0.9764320568793761,0.9976850178180097,double,-0.907651
18,0.15,jog,-0.06528261130446412,-0.004680187207476322,-0.01224048961957703,-0.014273622359370878,0.015481160734409494,0.14058101967157843,-0.0002400096003909168,0.003120124805001979,0.00024000960038425518,0.0004800192007818336,-0.0012000480019279376,-0.00024000960038425518,-1.9448622813382115,-0.12966220861809352,-0.489756674348857,-0.04320172821020369,-0.01435449606771624,-0.2879850253821802,-0.04319136020375928,-0.014416704068013424,-3.456000116414386e-06,-0.015082999999999958,0.1304430000000001,-0.907547,0.12923600000000013,-0.11787300000000012,-0.909211,0.14431900000000009,0.2483160000000002,0.0016639999999999988,0.9781291120322153,0.9978090221308442,double,-0.907547
19,0.158333,jog,-0.04320172806911264,-0.0007200288011461039,-0.010680427217089363,-0.008934980203435477,-0.021616441573590807,0.0680631078105345,0.00036001440057305197,0.002760110404402281,0.0012000480019204432,0.0008400336013282392,-0.0013200528021100728,0.00024000960038425518,2.6498119807214047,0.47523801828035706,0.18721497689759584,0.07200576034609003,-0.043203456210212134,0.11520921655300459,0.043203456203816784,-0.01440115206793892,0.057604608276552255,-0.014720000000000066,0.13047199999999992,-0.907448,0.1296029999999999,-0.11787800000000015,-0.90912,0.14432299999999998,0.24835000000000007,0.0016720000000000068,0.9782280655465172,0.9973617132768933,double,-0.907448
20,0.166667,jog,-0.04487640988722055,0.0020398368130470023,-0.011279097672190834,-0.03691153168223167,0.01400232455172204,0.16232426779597492,0.001439884809230023,0.0011999040076872453,0.000959923206143635,0.0008399328053864003,-0.0008399328053597571,-0.0010799136069116935,-0.20094574251354816,0.33115738111268345,-0.07183470783554963,0.12957408311218743,-0.18720979082253827,-0.028812670479578584,-1.2094545457026865e-05,0.05760979082677168,-0.15837811462634357,-0.014333999999999847,0.13046500000000005,-0.907346,0.1299840000000001,-0.11790199999999995,-0.909035,0.14431799999999995,0.248367,0.0016890000000000516,0.9796002950214171,0.9973243964162388,double,-0.907346
21,0.175,jog,-0.05340213608544699,0.0010800432017191595,-0.017880715228603756,-0.031198946017671,-0.015292972860218301,0.16903549060894313,0.0015600624024743482,0.002160086403438319,-0.000480019200768512,0.0014400576022922126,-0.00012000480020878201,-0.0008400336013440632,-1.0231280689099316,-0.11517984055296353,-0.7922257958013846,0.014421888064841647,0.11522649654999115,-0.17280000082949126,0.07201785634295138,0.08639481641077366,0.028786752138201234,-0.013876,0.13047399999999998,-0.907201,0.13044100000000003,-0.11791200000000002,-0.9088930000000001,0.14431700000000003,0.248386,0.0016920000000000268,0.9785676138355265,0.9972142109130148,double,-0.907201
22,0.183333,jog,-0.03228129125163236,0.0010800432017458023,-0.009000360014406239,0.0191982399282682,-0.018880509206789013,0.13400898926170432,0.0019200768030740415,0.002760110404428927,-0.00024000960038425518,0.0007200288011727504,0.0,-0.0018000720028802486,2.5346027641683206,3.197257951012813e-12,1.0656852531138257,0.043203456210211565,0.07200576034928687,0.028802304138276325,-0.08640691241083183,0.014401152071136673,-0.11520921655300427,-0.01359100000000013,0.13048799999999994,-0.9071279999999999,0.13071600000000005,-0.11792100000000016,-0.908833,0.14430700000000019,0.2484090000000001,0.0017050000000000676,0.9773319465157662,0.996768771866581,double,-0.9071279999999999
23,0.191667,jog,-0.03863690904729484,-0.0021598272138317128,-0.005639548836095417,0.027364715220709365,0.00873928411568606,0.19876687418341726,0.001079913606929178,0.001799856011530868,0.0025197984161267296,0.0005999520038169795,0.001079913606929178,-0.001679865610751153,-0.7626131264293826,-0.3887533496013333,0.403265080190883,-0.10081151861589426,-0.11522130944301155,0.3311504699437223,-0.014408063037649485,0.129579266490182,0.014423613166438138,-0.013259999999999827,0.1305210000000001,-0.90706,0.13104300000000002,-0.11789399999999994,-0.9087999999999999,0.14430299999999985,0.24841500000000005,0.0017399999999999638,0.9771341771183235,0.9965246485887119,double,-0.90706
24,0.2,jog,-0.03852154086160967,0.0063602544101860935,-0.018120724828994614,0.005142265608861149,-0.01613787673584943,0.20502699870245178,-0.0015600624025009894,0.0007200288011461039,0.0025201008040321815,0.0016800672027097712,0.0010800432017191559,-0.002640105604224309,0.013844736071662807,1.0224506929098522,-1.49780103118915,-0.31680979352336075,-0.12958444862411655,3.6288000174233114e-05,0.12961900862748,1.555199687722008e-05,-0.11523340855312073,-0.012952000000000075,0.13047399999999998,-0.9068879999999999,0.131378,-0.1179380000000001,-0.908671,0.14433000000000007,0.24841200000000008,0.00178300000000009,0.9770864906487686,0.9944825336116774,double,-0.9068879999999999
25,0.208333,jog,-0.025441017640717812,0.004920196807867256,-0.013200528021114094,0.052449642865976,-0.08139427349854325,0.1807736878255971,-0.002760110404428936,0.0010800432017191595,0.004440177607104572,0.002400096003829237,0.0002400096003909176,-0.0018000720028794217,1.5697255755300483,-0.1728138248312542,0.5904472348350572,-0.14401152069218165,0.04320345620701506,0.2304184331060117,0.08640691241083252,-0.10080806448196812,0.10080806448396606,-0.01276300000000008,0.13044199999999995,-0.906741,0.13161,-0.117977,-0.908576,0.14437300000000008,0.24841899999999995,0.001835000000000031,0.9727524535303187,0.9949838248714153,double,-0.906741
26,0.216667,jog,-0.017158627309815707,0.006599472042226563,-0.009719222462202743,0.035161968863526266,-0.07282651024190827,0.1499105738879522,-0.003959683225335938,-0.0007199424046016899,0.004199664026877882,0.003359731221492315,-0.0021598272138317128,-0.0014398848092158688,0.9938073351214419,0.20149690837044704,0.41772324920942505,-0.14393722353095756,-0.21598099427895942,-0.028859320881532247,0.11514701435842058,-0.2879573811162261,0.04321900571916878,-0.012653000000000025,0.13038100000000008,-0.906625,0.13178099999999993,-0.11804999999999999,-0.9085070000000001,0.14443399999999995,0.24843100000000007,0.0018820000000000503,0.9714854158519073,0.9929238436873287,double,-0.906625
27,0.225,jog,-0.02028081123245957,0.007920316812687083,-0.011640465618626384,0.05783806361322922,-0.07355711015333082,0.18085623125162853,-0.00036001440057305197,0.01956078243128682,0.0382815312612504,0.003960158406356865,-0.0014400576022922079,-0.0024000960038400537,-0.37467705779957544,0.1585077127637728,-0.230558401106881,0.4319775380730689,2.4337843316798864,4.089987667631403,0.07205414434951993,0.08637580841707719,-0.11522995255300421,-0.012486999999999915,0.13047799999999987,-0.906209,0.13198300000000018,-0.11812800000000001,-0.90843,0.1444700000000001,0.24860599999999988,0.0022209999999999175,0.9061382679243464,0.9919175977634178,double,-0.906209
28,0.233333,jog,-0.015960638425529656,0.012480499219954623,-0.004560182407294187,0.0058869791516534455,-0.15987921692225793,0.1944524787713739,-0.0013200528021100728,0.006960278411150062,0.009720388815552343,0.0043201728069032705,-0.0012000480019279376,-0.0034801392055683693,0.5184414744905691,0.5472437786232494,0.849667972078746,-0.11520921655310451,-1.5121209672551,-3.4274741924514616,0.043203456203816784,0.02880230413587784,-0.12961036862214265,-0.01236499999999996,0.1304320000000001,-0.9060900000000001,0.13215200000000005,-0.11824199999999996,-0.908421,0.144517,0.24867400000000006,0.002330999999999972,0.9566432509087026,0.9905402347370896,double,-0.9060900000000001
29,0.241667,jog,-0.010559155267589179,0.009599232061444708,-0.003719702423806494,0.051167463622174995,-0.10734925170596789,0.1697915054826817,-0.000479961603085557,0.005879529637624893,0.01247900167986563,0.005759539236866825,-0.002399808015347855,-0.0011999040076789234,0.6481261288625497,-0.3457244010691051,0.10084953005611896,0.10080287965256991,-0.12967947846474348,0.33100706315254314,0.17271015478324428,-0.1439596848356036,0.27360633523991496,-0.012280999999999986,0.130401,-0.9059550000000001,0.13228800000000018,-0.11834199999999995,-0.9084,0.14456900000000017,0.24874299999999994,0.0024449999999999195,0.9525448849391758,0.9894102853412721,double,-0.9059550000000001
30,0.25,jog,-0.009120364814588375,0.01272050882034554,-0.003840153606148083,0.06679154425457977,-0.1610735061679049,0.1586310766109634,-0.0024000960038292286,0.00684027361094128,0.01296051842073729,0.005760230409195478,-0.003000120004819844,-0.0025201008040321815,0.17266176083052956,0.3745681937958514,-0.014454720069793463,-0.23042534510304452,0.11529388855350856,0.057784320277410095,8.29439971982234e-05,-0.07204032034945257,-0.15842995276050126,-0.01222499999999993,0.13035200000000002,-0.905815,0.13241199999999997,-0.11847300000000005,-0.908389,0.1446369999999999,0.24882500000000007,0.002573999999999965,0.9495098685954999,0.9883891953488686,double,-0.905815
31,0.258333,jog,-0.003600144005757178,0.015120604824201465,-0.0010800432017324826,0.07773223613897189,-0.179270536274779,0.13614701634904658,-0.002400096003829237,0.005160206408258173,0.012840513620544372,0.005880235209430926,-0.001920076803074048,-0.0015600624024959984,0.6624529951795525,0.28802304138436713,0.33122649758977646,-9.88831934584166e-16,-0.2016161289671321,-0.014401152069232854,0.014401152074336789,0.1296103686242408,0.11520921655300438,-0.012214999999999865,0.13026899999999997,-0.9056989999999999,0.13249100000000014,-0.11861500000000014,-0.9083929999999999,0.144706,0.2488840000000001,0.002693999999999974,0.9496513726111497,0.9893675476138674,double,-0.9056989999999999
32,0.266667,jog,-0.005399568034539317,0.018118550515960175,-0.0015598752099747685,0.059704482527990245,-0.16881271010791085,0.1569291159542466,-0.0029997600192181134,0.004919606431480405,0.009839212862971635,0.007799376049913808,-0.007319414446828253,0.000959923206143635,-0.21591361036502726,0.359724705034642,-0.057575234970276626,-0.0719539255326225,-0.02886968763832099,-0.36012728072627004,0.23027847857965922,-0.6478686877554836,0.3023740831101069,-0.012195000000000178,0.1301589999999999,-0.905604,0.13260099999999997,-0.11882700000000002,-0.908372,0.14479600000000015,0.24898599999999993,0.0027679999999999927,0.9533162578702371,0.9821017111949137,double,-0.905604
33,0.275,jog,-0.01800072002881242,0.020280811232432857,-0.005760230409222106,0.10110227326472289,-0.1806087322843392,0.2174983506597281,-0.0018000720028652538,0.002880115204611053,0.008040321612864195,0.00792031681266041,-0.0016800672026831191,-0.0014400576023046935,-1.5121987272618564,0.25948166524333055,-0.5040627864211351,0.14396832069517035,-0.2447487371738082,-0.2158755850362934,0.01451347206847491,0.6767487392469831,-0.2880092173824935,-0.01205999999999996,0.13001400000000007,-0.905489,0.13281699999999996,-0.11900999999999984,-0.9083359999999999,0.14487699999999992,0.2490239999999999,0.002846999999999933,0.9569829408808648,0.9862939783999475,double,-0.905489
34,0.283333,jog,-0.00588023520940428,0.02604104164168178,-0.00012000480018213558,0.08918679949267952,-0.17599291113899584,0.1806003739100363,-0.0018000720028919124,0.0030001200047932073,0.004440177607104572,0.00648025921036825,0.0014400576022922126,-0.004800192007680124,1.4545163589833396,0.6912552993218455,0.6768541472506882,-3.1991575492029457e-12,0.014401152067941283,-0.4320345620736387,-0.1728138248280527,0.37442995379519256,-0.40323225793537004,-0.012026000000000092,0.12982199999999988,-0.905451,0.13291999999999993,-0.11921500000000007,-0.908375,0.14494600000000002,0.24903699999999995,0.0029240000000000377,0.9613383705641709,0.9863466153319164,double,-0.905451
35,0.291667,jog,-0.00683945284376934,0.031077513798897165,-0.009239260859143832,0.003792334316920697,-0.11573421999198037,0.22260982949066468,0.001079913606929178,0.002519798416132558,0.0028797696184300722,0.0051595872330231825,0.001439884809230023,-0.0035997120230384233,-0.11509690837113747,0.6043283126008373,-1.0942231892202647,0.34557062752832823,-0.057633979920884204,-0.18723397992254603,-0.1584679598446204,-2.0733508782048572e-05,0.14404607447104625,-0.01195999999999997,0.12958399999999992,-0.90535,0.13301999999999992,-0.11946199999999996,-0.9083279999999999,0.1449799999999999,0.24904599999999988,0.002977999999999925,0.963593313524592,0.9892435374299093,double,-0.90535
36,0.3,jog,-0.010560422416907264,0.03036121444855842,-0.004200168006707826,0.06875975074270206,-0.15095799294232978,0.23133484495251172,-0.00012000480020878201,-0.0006000240009639708,0.0018000720028802544,0.006000240009613062,0.0,-0.002760110404415613,-0.44653421014495775,-0.08595936041506612,0.6047153309055584,-0.14399596869530337,-0.3743936657982163,-0.12956889662184334,0.10088236848552516,-0.17279308883115643,0.10075622448371682,-0.011873000000000022,0.12932600000000005,-0.9053,0.1331580000000001,-0.1197149999999998,-0.908316,0.14503100000000013,0.24904099999999985,0.0030160000000000187,0.966671277347539,0.9889922893669023,double,-0.9053
37,0.308333,jog,-0.010680427217089328,0.0322812912516589,-0.006120244809795156,0.061600234428385,-0.1440925887954813,0.2574643404932249,-0.0009600384015370176,-0.000240009600390916,-0.0001200048001921272,0.0070802832113055275,-0.0016800672027097656,-0.002520100804032173,-0.014401152067930415,0.2304184331093808,-0.23041843310780294,-0.10080806448196712,0.04320345620701467,-0.23041843310600907,0.12961036861784006,-0.20161612897032985,0.028802304138178237,-0.011792000000000025,0.12905499999999992,-0.90525,0.13330599999999992,-0.11999800000000005,-0.908286,0.14509799999999995,0.24905299999999997,0.0030360000000000387,0.967978608771763,0.9871651576406253,double,-0.90525
38,0.316667,jog,-0.008159347252214707,0.03431725461963164,-0.008399328053757487,0.07761649985240805,-0.15115342259415906,0.23400527957851439,-0.0016798656107461687,-0.0005999520038169835,0.0007199424046075229,0.007439404847613013,-0.001919846412288948,-0.002879769618430924,0.3025053953533281,0.24429606047189295,-0.27346811182653524,-0.0863723553166733,-0.0431896332404691,0.10078560172782038,0.0430911490649733,-0.028771203453225796,-0.04315680518343571,-0.011738000000000026,0.1287640000000001,-0.905174,0.1334359999999999,-0.12030000000000007,-0.90824,0.14517399999999991,0.24906400000000017,0.003066000000000013,0.9661340125706371,0.9863248372151976,double,-0.905174
39,0.325,jog,-0.01740069602784845,0.03612144485780697,-0.010800432017284785,0.097071194694572,-0.1482963060290761,0.26474373766895537,-0.000240009600390916,0.00024000960036426957,-0.00048001920076767607,0.007200288011540955,-0.002280091203647086,-0.0037201488059517797,-1.1090062133245775,0.21651148904059958,-0.28814400138332985,0.1727896328279427,0.1007994244787291,-0.14400115269113092,-0.028695168135372266,-0.043231104207144655,-0.10084953648396161,-0.011595000000000022,0.12846499999999983,-0.905088,0.13364100000000012,-0.12062000000000017,-0.908181,0.14523600000000014,0.249085,0.0030930000000000124,0.9680901649094923,0.9859680453483533,double,-0.905088
40,0.333333,jog,-0.014760590423601765,0.042841713668539734,-0.015960638425529708,0.050467059688830536,-0.12385149788865228,0.27649771014351243,0.002520100804038019,0.0002400096003909176,0.0006000240009598073,0.008880355214197487,-0.002640105604220154,-0.0025201008040321897,0.31682534552342384,0.8064645158685688,-0.6192495389709511,0.3312264975913767,3.1978922346550733e-12,0.1296103686220432,0.20161612896394296,-0.043203456207016586,0.14401152069117878,-0.0114510000000001,0.12810999999999995,-0.90495,0.1338379999999999,-0.12099900000000008,-0.908069,0.145289,0.24910900000000002,0.003118999999999983,0.964473929879449,0.9839981099732422,double,-0.90495
41,0.341667,jog,-0.02591792656587398,0.04331653467723247,-0.014518838492925082,0.09543789812636941,-0.13288833269304703,0.2855585887679634,0.005879529637624873,0.002519798416132558,0.0004799616030722338,0.007919366450698519,-0.0023998080153478474,-0.0035997120230384233,-1.3387732352138475,0.05697396312607798,0.17300215174041572,0.4030992120934546,0.2735527736671032,-0.014406335239689634,-0.11530942686572683,0.0288334039923574,-0.12954298284212054,-0.01118600000000014,0.12776999999999994,-0.904825,0.13412000000000002,-0.12138000000000004,-0.907978,0.14530600000000016,0.24914999999999998,0.0031529999999999614,0.9577788021721296,0.9849599266642797,double,-0.904825
42,0.35,jog,-0.018840753630167427,0.045841833673332937,-0.013200528021127417,0.10603958113424376,-0.1460047946227027,0.21794935384880207,0.008880355214224133,0.002400096003829237,0.003000120004799869,0.009360374414952676,-0.003360134405392907,-0.004320172806912445,0.8492947240737515,0.303048001452115,0.15820358475911053,0.36011347373086133,-0.014364864070961395,0.30243110545153506,0.17292787282541225,-0.11524377655646971,-0.08645875241497937,-0.010954999999999826,0.12740799999999997,-0.90469,0.134355,-0.12179000000000006,-0.9079039999999999,0.14530999999999983,0.24919800000000003,0.003213999999999939,0.9517335991477058,0.9819283059353408,double,-0.90469
43,0.358333,jog,-0.02988119524780303,0.051842073682945654,-0.016680667226689025,0.058927542514582126,-0.08992587183349234,0.24298996653805474,0.009120364814588344,0.0006000240009639668,0.004680187207487964,0.012000480019199396,-0.003720148805939289,-0.004080163206528161,-1.324905990355881,0.7200576034576613,-0.41763341000379134,0.028802304135870614,-0.21601728103507292,0.20161612896772926,0.31682534552342606,-0.043203456203813835,0.02880230413827941,-0.010629999999999917,0.126981,-0.904512,0.13470399999999993,-0.12225299999999995,-0.9077989999999999,0.14533399999999985,0.24923399999999996,0.003286999999999929,0.9500155782509111,0.9779836702258022,double,-0.904512
44,0.366667,jog,-0.03323734101270223,0.05039596832254458,-0.017998560115188786,0.044956900035228446,-0.109161766284113,0.2503290409517728,0.00983921286296081,-0.0002399808015427777,0.0,0.009479241660686609,-0.005639548836082095,-0.0032397408207342476,-0.40270527536587447,-0.17351876174718883,-0.15813449586030234,0.0862548654154627,-0.10079251289977725,-0.5615775386954595,-0.30252440106944867,-0.23030957885082845,0.10084261888575868,-0.010271000000000141,0.12655899999999987,-0.904362,0.13505999999999996,-0.12271999999999994,-0.9076759999999999,0.1453310000000001,0.2492789999999998,0.003313999999999928,0.9504564349616919,0.9808401132192959,double,-0.904362
45,0.375,jog,-0.028921156846292855,0.0564022560902402,-0.01944077763110475,0.08480113332598142,-0.15503177280612768,0.1516014111477591,0.011160446417871233,-0.0010800432017191595,0.0,0.010560422416880617,-0.00684027361096795,-0.003600144005760509,0.5179628184818658,0.7207833634580146,-0.1730730248309095,0.1585543687640017,-0.10081152048198536,0.0,0.129746880618506,-0.14409273669577072,-0.04325011220763977,-0.009936999999999863,0.12607999999999997,-0.9042,0.13538899999999998,-0.1232470000000001,-0.907544,0.14532599999999984,0.24932700000000008,0.0033440000000000136,0.947872358691448,0.9781881211289918,double,-0.9042
46,0.383333,jog,-0.04260170406814882,0.06468258730350036,-0.03192127685107274,0.010141206396581778,-0.11142254328839143,0.19940067676952253,0.010200408016307564,-0.00588023520940428,0.00060002400096064,0.010200408016334211,-0.006360254410159468,-0.003360134405376253,-1.6417313358761545,0.9936794927709327,-1.4977198151887698,-0.11520921655630285,-0.5760460827655265,0.07200576034569081,-0.04320345620381693,0.05760460828134921,0.028802304138276322,-0.009497000000000089,0.12549199999999994,-0.903929,0.13582899999999998,-0.12383900000000003,-0.907306,0.14532600000000007,0.24933099999999997,0.0033769999999999634,0.9465813134013437,0.9791972449017603,double,-0.903929
47,0.391667,jog,-0.04559635229182225,0.0635949124069977,-0.028797696184307386,0.10505281733462796,-0.20533575574099117,0.11170022839806304,0.009959203263745522,-0.007919366450698519,-0.004559635229182058,0.028197744180463762,-0.001079913606929178,-0.009839212862970802,-0.3593290405175698,-0.13051054673658022,0.374799696036159,-0.02894225492705088,-0.2446761748613196,-0.6191095788508151,2.159507579089217,0.6335902091709005,-0.7774272207336865,-0.009033999999999986,0.1248959999999999,-0.903727,0.136444,-0.1243780000000001,-0.907148,0.145478,0.249274,0.0034210000000000074,0.9432627098801225,0.9501923393880642,double,-0.903727
48,0.4,jog,-0.06948277931118502,0.06456258250329115,-0.03204128165125466,0.003860167079281657,-0.052904038836030204,0.1793255398430091,0.008760350414015293,-0.006600264010550342,-0.0008400336013440577,0.009960398415943227,-0.004320172806903256,-0.004080163206528161,-2.866485901759591,0.11612505655747572,-0.38924582586670575,-0.14386809669149456,0.15829862476277115,0.4463700501425639,-2.188569034503835,-0.3888466578632022,0.6911136033172467,-0.00838199999999989,0.12430300000000005,-0.903467,0.13710600000000017,-0.12495199999999995,-0.906915,0.14548800000000006,0.249255,0.0034480000000000066,0.9471856908716736,0.9806694569917523,double,-0.903467
49,0.408333,jog,-0.06276251050039967,0.06612264490579257,-0.026401056042254834,0.13732895660213168,-0.13001071328539351,0.07727259725499555,0.008040321612869245,-0.006240249609977332,-0.0008400336013440632,0.010080403216125428,-0.005760230409222144,-0.0022800912036479337,0.8064645158748782,0.18721497689924707,0.6768541472458706,-0.08640691241402254,0.0432034562070095,-6.635582718920061e-16,0.014401152067946957,-0.17281382483126026,0.21601728103686932,-0.007792000000000021,0.12370000000000014,-0.903254,0.13771299999999997,-0.12555099999999997,-0.9067139999999999,0.145505,0.2492510000000001,0.0034599999999999076,0.9483793309241233,0.9802801848622626,double,-0.903254
50,0.416667,jog,-0.07547396208303217,0.07487401007921518,-0.04163666906647299,-0.058368886402165795,-0.12931041733006982,0.1408874944060741,0.009359251259901898,-0.0032397408207342476,-0.0010799136069116935,0.010799136069105278,-0.0035997120230350926,-0.001679865610751153,-1.5252521697423187,1.0500798144255576,-1.828127312721159,0.15825889693216363,0.36003225212899953,-0.028783298004275263,0.08624104307413594,0.2592414670250839,0.07202130944285819,-0.007085000000000008,0.12304899999999996,-0.9029159999999999,0.1384319999999999,-0.12620500000000012,-0.906381,0.1455169999999999,0.2492540000000001,0.0034650000000000514,0.9487453053718484,0.9808223788581283,double,-0.9029159999999999
51,0.425,jog,-0.0686427457098306,0.06348253930157242,-0.019800792031677804,0.11908621459542787,-0.2260920755011075,-0.022473841821536663,0.009120364814588404,-0.000960038401537024,0.003360134405376253,0.009480379215161457,-0.001920076803074048,-0.0013200528021125753,0.8197787559344276,-1.3670311745641168,2.6204100605778518,-0.028667520138424808,0.27357523331300004,0.5328270745575372,-0.15825715275936927,0.20156428896688453,0.04317926420719772,-0.006437000000000026,0.12251199999999995,-0.9027229999999999,0.13908299999999985,-0.12675000000000014,-0.906227,0.14551999999999987,0.2492620000000001,0.0035040000000000626,0.9486817569107822,0.9837291309737196,double,-0.9027229999999999
52,0.433333,jog,-0.093963758550339,0.0769230769230636,-0.04104164166566087,0.09896182663800795,-0.18745652314105232,0.024511512640287666,0.009240369614770478,0.004440177607112037,0.0022800912036487512,0.008880355214224074,-0.0015600624025009842,0.0,-3.038643086584459,1.6129290317402045,-2.5490039162346068,0.014401152067931456,0.648051843111609,-0.12961036862204453,-0.0720057603428994,0.043203456207015746,0.1584126727604188,-0.005577000000000165,0.12190800000000013,-0.902362,0.13993999999999995,-0.12740400000000007,-0.905885,0.14551700000000012,0.2493120000000002,0.003523000000000054,0.9472661572713281,0.9849727559052,double,-0.902362
53,0.441667,jog,-0.08987281017519978,0.08339332853373124,-0.03719702423806506,0.08765202698314571,-0.2163178733889158,0.003300278826584915,0.010799136069131993,0.014278857691382398,0.012239020878329555,0.010199184065261723,-0.0014398848092033894,0.001559875209983105,0.49087453505390516,0.7763680838334143,0.4613171859366246,0.18703701156245786,1.180547166339143,1.1949759628846723,0.1582468023803284,0.014420157583104812,0.18717005159384614,-0.004737999999999909,0.121332,-0.90195,0.14077399999999995,-0.12811100000000009,-0.905562,0.14551199999999986,0.24944300000000008,0.0036119999999999486,0.9277359691085111,0.9826370577784832,double,-0.90195
54,0.45,jog,-0.08508340333614157,0.07800312012478275,-0.02496099843993581,0.052747328658105656,-0.16555047195564632,0.052808486944113206,0.013680547221882515,0.02484099363972703,0.01584063362534497,0.010200408016334142,-0.0015600624025009842,0.002520100804032173,0.574751810759413,-0.6468508831091409,1.468381831048746,0.3457831696568476,1.2675070140819138,0.432210818074571,0.0001468800038903853,-0.014421888071234167,0.11523168055310978,-0.003914999999999891,0.12088900000000002,-0.90161,0.14156800000000014,-0.12877399999999994,-0.905333,0.14548300000000003,0.24966299999999997,0.003723000000000032,0.9086313402930462,0.9822961847754443,double,-0.90161
55,0.458333,jog,-0.12480499219967989,0.06888275531022152,-0.025681027241095406,0.19349996282557305,-0.2003362804775474,0.09096724485232234,0.00816032641305138,0.031201248049939956,0.016680667226689136,0.01176047041880856,-0.0030001200047932073,0.005280211208448636,-4.766781334878004,-1.0944875572496402,-0.08640691241564818,-0.662452995179545,0.7632610596679397,0.10080806448387951,0.1872149768960064,-0.17281382482806032,0.33122649758988,-0.002807000000000004,0.1205750000000001,-0.901257,0.142706,-0.12937299999999996,-0.905075,0.145513,0.24994800000000006,0.003817999999999988,0.9013047708293155,0.9779401058403454,double,-0.901257
56,0.466667,jog,-0.11591072714183123,0.09275257979363258,-0.032037437005041636,0.14102421545455537,-0.333901655981268,0.033963319066271314,0.00863930885530021,0.051355891528662406,0.02003839692824578,0.010199184065288299,0.0014398848092033799,0.00383969282457454,1.0672264288275313,2.8641498060248423,-0.7627081550211451,0.05747329520624291,2.418363748346824,0.40289533256019194,-0.18733937527240926,0.5327579570430265,-0.17284837819463575,-0.0017689999999999095,0.12022999999999984,-0.9008229999999999,0.14375700000000013,-0.1301340000000002,-0.9047759999999999,0.14552600000000004,0.25036400000000003,0.003952999999999984,0.8674705584895065,0.9816788021339811,double,-0.9008229999999999
57,0.475,jog,-0.11112444497779728,0.09576383055320489,-0.0223208928357025,0.1452302531628193,-0.2763003812151615,0.004586699737330671,0.015600624024956655,0.08064322572903007,0.05196207848313896,0.010080403216125428,0.00204008160328283,0.0045601824072958675,0.5743768347574665,0.3613645457305079,1.1660319415983633,0.835391236008216,3.5146206888716836,3.830995026388247,-0.014254272070427355,0.07202649634938817,0.08646220841489609,-0.0007129999999999637,0.12010399999999999,-0.900204,0.1447670000000001,-0.1309149999999999,-0.904552,0.14548000000000005,0.2510189999999999,0.0043480000000000185,0.794529200139164,0.9812493166394503,double,-0.900204
58,0.483333,jog,-0.15588623544941002,0.0844833793351776,-0.020400816032641638,0.14872619975615026,-0.22019040063320755,0.1441524378252501,0.014160566422664347,0.08880355214208085,0.028081123244930284,0.01392055682227343,-0.0006000240009639668,0.011400456018240426,-5.371629721782378,-1.3537082944950487,0.23041843310462648,-0.17281382482806934,0.979278340699718,-2.8658292617554997,0.4608368662124068,-0.3168253455234352,0.8208656679400612,0.0007040000000000379,0.12013999999999991,-0.8998,0.14618200000000003,-0.13162399999999996,-0.9042870000000001,0.145478,0.2517639999999999,0.004487000000000019,0.798116713255437,0.9699948000586329,double,-0.8998
59,0.491667,jog,-0.15238780897529436,0.0903527717782581,-0.018238540916731563,0.16845447108484404,-0.19866030488624456,0.13886467107383624,0.013798896088296748,0.07931365490761004,0.036957043436524534,0.03851691864651013,-0.012598992080636145,0.019798416126710495,0.41977759468630416,0.7042707515095373,0.25945225772859043,-0.04339696836664254,-1.1386965724107039,1.065025220973631,2.951327312723383,-1.4397609886815657,1.0076745990484834,0.0020890000000000075,0.12004799999999993,-0.89934,0.14777300000000015,-0.132482,-0.9039699999999999,0.14568400000000015,0.2525299999999999,0.004629999999999912,0.8060622258548888,0.9248286234920461,double,-0.89934
60,0.5,jog,-0.1578063122524851,0.10956438257529628,-0.03300132005280522,0.1570911769583414,-0.2746020223381736,0.03237834488577358,0.010920436817480316,0.06420256810274518,0.033121324852994016,0.007800312012478328,0.0030001200047932073,0.004320172806911612,-0.6502464031190144,2.305485515065191,-1.7716043605032632,-0.34542892965515887,-1.8134029527018964,-0.46030464220935163,-3.6861402416934927,1.8719683289846865,-1.8574634969157473,0.003495000000000026,0.11967000000000017,-0.898789,0.1491530000000001,-0.13337,-0.903659,0.14565800000000007,0.25304000000000015,0.004870000000000041,0.829527810015658,0.9843200871054758,double,-0.898789
61,0.508333,jog,-0.19080763230528905,0.10392415696628222,-0.0219608784351293,0.16510670522567925,-0.1449229099734424,0.07312083035937034,0.010680427217089328,0.053522140885628774,0.03432137285491424,0.008160326413051327,0.004200168006721121,0.0027601104044164275,-3.9603168190092184,-0.6768541472475743,1.3249059903607192,-0.028802304139084006,-1.281702534155329,0.1440115206912538,0.04320345620700797,0.1440115206921767,-0.18721497689849728,0.005174000000000012,0.11925000000000008,-0.89832,0.15081100000000003,-0.13420100000000001,-0.9034530000000001,0.14563700000000002,0.2534510000000001,0.005133000000000054,0.84121655109761,0.9840268847489155,double,-0.89832
62,0.516667,jog,-0.19606431485480233,0.1000719942404615,-0.01871850251980392,0.2008488960332404,-0.26255749790351357,0.07090295460259032,0.007559395248371081,0.04223662107030357,0.03611711063115003,0.00779937604991386,0.0032397408207342692,0.0010799136069117006,-0.6307514458259312,-0.4622225492945466,0.3890539855202062,-0.374493876736053,-1.3541540455153909,0.2154712954446604,-0.04331057873019784,-0.11524204295498645,-0.20160748710160026,0.0068709999999998495,0.11876799999999998,-0.897863,0.15250999999999992,-0.13500800000000002,-0.903288,0.14563900000000007,0.253776,0.005425000000000013,0.8522750732326185,0.9858095884532416,double,-0.897863
63,0.525,jog,-0.1952478099124011,0.10788431537261244,-0.013200528021114006,0.11003151524861969,-0.2037483403800863,-0.03364919562750534,0.007200288011540955,0.03288131525262287,0.03264130565222529,0.006120244809795156,0.0019200768030740352,0.005040201608064346,0.09798451246864666,0.9375160364995688,0.6621834271798741,-0.04309459220330305,-1.122681605385895,-0.417113282002247,-0.2015038089666023,-0.1583660167598978,0.47525357028112664,0.008558000000000066,0.11814300000000011,-0.8974810000000001,0.154188,-0.13589099999999998,-0.903136,0.14562999999999993,0.2540340000000001,0.005654999999999966,0.8653034163170565,0.9864038686352553,double,-0.8974810000000001
64,0.533333,jog,-0.20808832353295814,0.11460458418337308,-0.016920676827080167,0.16104782681973095,-0.24975200274077747,-0.06527317309925462,0.003600144005757202,0.03156126245048657,0.022320892835714305,0.0045601824072942325,0.0030001200047932272,0.0064802592103682935,-1.5409232713977157,0.8064645158719191,-0.4464357141445092,-0.43203456207653734,-0.15841267276326762,-1.2384990779444474,-0.18721497689918848,0.12961036862104908,0.1728138248294685,0.010322000000000164,0.11745099999999997,-0.897154,0.1559600000000001,-0.13682100000000008,-0.902941,0.14563799999999993,0.25427200000000005,0.005786999999999987,0.8774234705914867,0.9858785286546692,double,-0.897154
65,0.541667,jog,-0.21790256779455291,0.10955123590112006,-0.015958723302128355,0.06522692173457625,-0.23109108684293844,-0.05901465933573645,0.0071994240460701376,0.026757859371260205,0.020038396928245644,0.0011999040076872372,0.0039596832253625544,0.006479481641468453,-1.177615102183189,-0.6063532856075082,0.11542518897909831,0.4318790545131879,-0.5763622605263174,-0.27387759868834227,-0.4032011518606875,0.11513837539828653,-9.33008039165876e-05,0.012197999999999931,0.11676100000000011,-0.896854,0.15778599999999998,-0.13770099999999985,-0.9027540000000001,0.14558800000000005,0.25446199999999997,0.005900000000000016,0.8840070156320097,0.9871869702586469,double,-0.896854
66,0.55,jog,-0.2280091203648152,0.10872434897396731,-0.008400336013442242,0.16574506056011715,-0.29476721048497145,-0.08718768248956561,0.009840393615734445,0.022320892835715672,0.019680787231488875,-0.0015600624025009842,0.01032041281648963,0.005760230409216276,-1.2128348218243405,-0.0992304004743493,0.9070427563525839,0.31692902552073643,-0.5324572825566439,-0.0429148802060203,-0.33120921759128885,0.7633180836585922,-0.08631360041427738,0.01417999999999986,0.11604100000000006,-0.8966200000000001,0.15967299999999995,-0.13852100000000012,-0.902636,0.1454930000000001,0.2545620000000002,0.00601599999999991,0.8876015246748352,0.9801306370838503,double,-0.8966200000000001
67,0.558333,jog,-0.2358094323772966,0.12012480499220435,-0.023280931237253,0.0817538444095091,-0.2540768800902763,-0.13238235740831428,0.011160446417871308,0.017400696027822037,0.016920676827073506,-0.0025201008040380353,0.006960278411150132,0.007920316812673005,-0.9360748844931573,1.36810944656632,-1.78574285657157,0.15841267276333548,-0.5904472348366352,-0.33122649758975087,-0.11520921655310931,-0.40323225793106077,0.25922073724429967,0.016237999999999975,0.11518499999999987,-0.896285,0.1616169999999999,-0.13946400000000003,-0.9023760000000001,0.14537899999999992,0.2546489999999999,0.006091000000000069,0.8945663143314239,0.9819316266153362,double,-0.896285
68,0.566667,jog,-0.2338612910967079,0.11735061195103383,-0.024358051355899052,-0.008820152445337022,-0.2698287472473942,-0.13055670835992625,0.019558435325163423,0.008879289656842928,0.01367890568754525,-0.0033597312214922927,0.010439164866804363,0.008279337652987651,0.23375825301040204,-0.3328765348176744,-0.12924407471154836,1.0076780546306756,-1.0224869655602404,-0.3889814182299294,-0.10074759028728714,0.41743298004010143,0.043079054513396095,0.018349999999999866,0.11428100000000008,-0.895968,0.16353799999999996,-0.140355,-0.9021039999999999,0.1451880000000001,0.2546360000000001,0.006135999999999919,0.8961976653306226,0.9770985572404287,double,-0.895968
69,0.575,jog,-0.2563302532101473,0.11568462738509225,-0.030361214448571944,0.022599641720222635,-0.2009504277986828,-0.17337652270813128,0.00972038881555244,0.015240609624383703,0.015960638425536477,-0.005040201608076071,0.012480499219981395,0.00984039361574457,-2.6963833089451112,-0.19992614495878985,-0.7204083874562519,-1.1806128056655554,0.7633889316621666,0.2738188813142023,-0.201664512970574,0.24496992117809316,0.18733420889918784,0.020567000000000002,0.1134440000000001,-0.895582,0.165632,-0.14121499999999987,-0.901769,0.145065,0.25465899999999997,0.006187000000000054,0.8979393391376428,0.9722111213520991,double,-0.895582
70,0.583333,jog,-0.2604104164166562,0.10800432017282122,-0.031081243249730967,0.08125216628700623,-0.28153142241204077,-0.05933995787409234,0.008520340813624377,0.01812072482899455,0.006120244809791825,-0.006720268810759123,0.014640585623419532,0.012720508820352992,-0.4896391703478788,-0.9216737324218168,-0.08640691241557891,-0.14401152069219456,0.3456276496592867,-1.18089446966814,-0.2016161289671241,0.25922073724206507,0.3456276496589957,0.02280799999999994,0.11269499999999999,-0.895272,0.16774599999999995,-0.14199300000000004,-0.901404,0.144938,0.254688,0.006132000000000026,0.9037827590854937,0.9657898607892736,double,-0.895272
71,0.591667,jog,-0.27933765298774516,0.1231101511879006,-0.03911687065034017,0.004961028467068056,-0.1417451537059214,-0.16660917316147347,0.007559395248397623,0.014518838492924985,0.002999760019199776,-0.007919366450671823,0.01667866570673004,0.01355891528677636,-2.2710867015945313,1.8125547174321175,-0.9641981522209192,-0.11530424348773066,-0.43219178498554583,-0.374428220613394,-0.14388020637301313,0.2445500459935797,0.10060072791257045,0.02519899999999997,0.11179000000000006,-0.8949210000000001,0.17000799999999994,-0.14288000000000012,-0.900965,0.14480899999999997,0.2546700000000002,0.006043999999999938,0.9118241583727478,0.9618213832939732,double,-0.8949210000000001
72,0.6,jog,-0.27721108844354436,0.11184447377894413,-0.03360134405376942,0.1523887362288547,-0.25521357531439187,-0.07002220740875012,0.009840393615734576,0.015000600023992783,-0.004560182407297563,-0.010320412816516415,0.017640705628239602,0.013680547221889359,0.2551979532222264,-1.351935366489448,0.6618896671751832,0.27373075331056923,0.057813696275987335,-0.9072293803549032,-0.288137089384929,0.11544940855749067,0.014596416070202697,0.02759099999999992,0.11098300000000005,-0.894679,0.17223199999999994,-0.14366499999999993,-0.900571,0.14464100000000002,0.254648,0.005892000000000008,0.9102288064709434,0.9590100693917849,double,-0.894679
73,0.608333,jog,-0.2696507860314533,0.12468498739949692,-0.0510020400816041,-0.042614072198632745,-0.09940166781962584,-0.0872725208709317,0.012720508820345498,0.0159606384255296,-0.011040441617664045,-0.01308052322091855,0.014520580823237398,0.01692067682707328,0.9072725803541359,1.5409232713971839,-2.088167050022154,0.34562764965929565,0.11520921655307975,-0.7776622117324439,-0.3312264975881583,-0.37442995379841487,0.38883110586630365,0.02994399999999997,0.11007699999999998,-0.894346,0.17437000000000014,-0.1445829999999999,-0.9000049999999999,0.14442600000000017,0.2546599999999999,0.00565899999999997,0.904735982210561,0.9569155654730217,double,-0.894346
74,0.616667,jog,-0.28941684665225254,0.12395008399328863,-0.05087592992560384,0.06266336642981322,-0.17098445804863163,-0.048155357491463775,0.011999040076792603,0.011279097672190909,-0.013078953683705137,-0.02363810895128436,0.019438444924405617,0.01895848332133421,-2.3717375354930805,-0.08818135423665568,0.01513200815937854,-0.08656932368045354,-0.5617399512045498,-0.24460187977455047,-1.2668089429284701,0.5900964844214359,0.24451721793387834,0.03245599999999982,0.10913799999999996,-0.894031,0.176585,-0.14545399999999997,-0.899423,0.14412900000000017,0.25459199999999993,0.005391999999999952,0.9110302719726908,0.9399991336702069,double,-0.894031
75,0.625,jog,-0.3074522980919434,0.08892355694226299,-0.03312132485300046,0.06609182609066516,-0.19373763036333652,-0.1451454366951449,-0.0003600144005730508,-0.030121204848193948,-0.06264250570022878,-0.03432137285491507,0.0152406096243835,0.023040921636865105,-2.1643407463927518,-4.203351380178267,2.130637834225765,-1.483145863118397,-4.968235031847437,-5.947864156549074,-1.2820429501536865,-0.5037603864181086,0.48991219435147926,0.03501500000000002,0.10814600000000008,-0.894277,0.17886100000000016,-0.14606799999999986,-0.898955,0.14384600000000014,0.25421399999999994,0.00467799999999996,0.8373716782805269,0.9265698198920849,double,-0.894277
76,0.633333,jog,-0.28657146285849333,0.09984399375976989,-0.03072122884914459,-0.03965090717316438,-0.25459445572542466,-0.024336540856636075,0.012240489619590312,0.006600264010550342,-0.030961238449537173,-0.07620304812194414,0.0319212768510592,0.023880955238209163,2.5058004600324004,1.3105048382943545,0.28802304138435875,1.5121209672582876,4.406752533150622,3.8019041462488268,-5.026002072126353,2.0017601376065803,0.10080806448386594,0.0375049999999999,0.10736899999999983,-0.894279,0.18061399999999983,-0.14663400000000015,-0.8985000000000001,0.14310899999999993,0.254003,0.00422100000000003,0.9012216696997397,0.8566649953395247,double,-0.894279
77,0.641667,jog,-0.2864170866330877,0.13030957523397246,-0.08231341492681538,0.035352399872576906,-0.04281662721484906,0.03130439101885455,0.01559875209982772,0.015118790496768805,-0.03143748500119988,-0.071394288456912,0.017758579313659446,0.031677465802736005,0.018523665155465694,3.655577330717872,-6.190567083953813,0.40295926088762024,1.0221414070336587,-0.05714501459835744,0.577004999403909,-1.6993877534677029,0.935506427229048,0.040022,0.10640899999999998,-0.893855,0.18240600000000007,-0.14757200000000004,-0.89755,0.14238400000000007,0.253981,0.003695000000000004,0.8993620812878722,0.8665003807413689,double,-0.893855
78,0.65,jog,-0.3013320532821216,0.10428417136685528,-0.07032281291251326,0.045213823021518454,-0.047713902261703335,0.09826926831848216,0.011280451218053295,0.006360254410186072,-0.045721828873154666,-0.061922476899071016,-0.0016800672026831191,0.052082083283331575,-1.7898675925877654,-3.123173390989689,1.4389297989082044,-0.5182168344863083,-1.0510663730448453,-1.7141898322278561,1.136662853455051,-2.332730891196746,2.448652043753208,0.04262699999999997,0.10559300000000005,-0.8936499999999999,0.18440100000000004,-0.148455,-0.8965299999999999,0.14177400000000007,0.25404800000000005,0.0028799999999999937,0.8919993572670719,0.8651156959727111,double,-0.8936499999999999
79,0.658333,jog,-0.3085323412936667,0.0763230529221273,-0.06576263050521997,0.20030302530842717,-0.09204219271414099,0.2276449421728362,0.01188047521901742,0.0024000960038292525,-0.0414016560662428,-0.10872434897396877,0.02448097923918095,0.04812192487699535,-0.8640691241503856,-3.355468432104673,0.5472437786263451,0.07200576034610959,-0.47523801828355405,0.5184414744884084,-5.616449306960059,3.13945115106976,-0.4752380182810828,0.04529700000000014,0.10497699999999988,-0.893447,0.18606600000000006,-0.148887,-0.895581,0.14076899999999992,0.25386399999999987,0.0021339999999999693,0.9067610879914503,0.7976799698347131,double,-0.893447
80,0.666667,jog,-0.281737461003093,0.09851211903047209,-0.09587233021358148,0.10250482123847528,-0.17611266731335207,0.1519873472711342,0.012479001679851352,0.0037197024238197784,-0.04355651547876163,-0.14314854811614958,0.013078953683694971,0.10823134149267977,3.2151284245948517,2.662474935006555,-3.6128749350085534,0.07181742990567884,0.15834010319060665,-0.2585624445066975,-4.130573451185571,-1.3681336159690294,7.212552989642904,0.04774899999999982,0.10418700000000003,-0.893011,0.18722099999999986,-0.14959900000000004,-0.89388,0.13947200000000004,0.25378600000000007,0.0008690000000000087,0.9155411316183826,0.7001084032033552,double,-0.893011
81,0.675,jog,-0.32017280691228894,0.05208208328333657,-0.08784351374054385,-0.10779250166268453,0.161215846756507,0.09645309397938893,0.009960398415943227,0.00588023520940424,-0.03996159846393839,-0.15024600984039668,0.015720628825138687,0.12264490579623158,-4.612426006143741,-5.571827162742749,0.9634965166251767,-0.30224448144823174,0.25927430524234396,0.43140729807071015,-0.8517294760886928,0.3170136975211454,1.7296969043023824,0.05049999999999999,0.10380199999999995,-0.8926120000000001,0.18863699999999994,-0.1499020000000002,-0.8921260000000001,0.13813699999999995,0.25370400000000015,0.00048599999999998644,0.9306635406450849,0.6708340121095131,double,-0.8921260000000001
82,0.683333,jog,-0.30661226449059265,0.04764190567622517,-0.09912396495859846,0.20680783903839367,-0.17088468857486505,0.17143557520417554,0.007320292811723187,0.008400336013442354,-0.03396135845433831,-0.16644665786631943,0.03960158406338252,0.1550462018480747,1.627330183810923,-0.5328426265584352,-1.3537082944983458,-0.31682534552022845,0.30242419345231464,0.7200576034561547,-1.9441555293319208,2.8658292617597563,3.888311058663555,0.05311600000000016,0.10347499999999998,-0.892069,0.189805,-0.14996900000000002,-0.890008,0.13668899999999984,0.253444,0.0020609999999999795,0.9404291691426603,0.5945664470612297,double,-0.890008
83,0.691667,jog,-0.2952963762898735,0.04727621790256809,-0.11123110151187954,0.2612306603889674,-0.20336463392693116,0.2379280091572489,0.003719702423793135,0.007439404847612913,-0.03323734101271866,-0.2213822894168299,0.11459083273338515,0.1747060235181171,1.3577979602494687,-0.04387902251704782,-1.452740167180344,-0.432036283648911,-0.11530251569827621,0.08687514298291799,-6.5917484461855125,8.99799000120015,2.3589898812145735,0.05560799999999988,0.10314299999999998,-0.8914190000000001,0.19042099999999995,-0.14940799999999999,-0.887625,0.13481300000000007,0.25255099999999997,0.003794000000000075,0.9428962501668136,0.4620600000000001,single,-0.887625
84,0.7,jog,-0.273130925237032,0.04284171366854002,-0.12348493939758395,0.2877554425809153,-0.280511030864539,0.13097052944793827,0.00432017280692996,0.01512060482417492,-0.02964118564742667,-0.25297011880475434,0.13800552022080823,0.22080883235329715,2.6599605247619964,-0.5321617945551559,-1.4705193670592258,0.07205932834955363,0.9217808684221862,0.4315559060712862,-3.7906911541971335,2.8098748934865343,5.53255836255616,0.057920000000000194,0.10291199999999989,-0.890637,0.19058900000000012,-0.14861499999999994,-0.884756,0.13266899999999993,0.25152699999999983,0.005881000000000025,0.9440760320237325,0.44118999999999997,single,-0.884756
85,0.708333,jog,-0.3280931237249493,-0.0036001440057571543,-0.06132245289810705,-0.327094139649679,0.19434067462762158,0.17265814229868615,0.0032401296051841034,0.011280451218053295,-0.0304812192487695,-0.2898115924637041,0.16176647065881425,0.24972998919956688,-6.595727647655959,-5.573245850749667,7.45979677180807,-0.12961036862424724,-0.4608368662092415,-0.10080806448371854,-4.421153685221359,2.851428109685098,3.470677648658299,0.06068100000000021,0.1030359999999999,-0.8903800000000001,0.19090800000000008,-0.14723700000000006,-0.8821640000000001,0.13022699999999987,0.25027299999999997,0.008216000000000001,0.9455621724035159,0.41784,single,-0.8821640000000001
86,0.716667,jog,-0.3342932565394689,-0.015118790496768604,-0.07559395248380305,-0.06186900817890759,0.0240192418122141,0.16132766847640237,0.007439404847612913,0.012838972882178838,-0.0237580993520521,-0.37820974322054474,0.15238780897529333,0.2688984881209474,-0.7439564212286466,-1.3821270087606625,-1.712442954847119,0.5038727192739114,0.18700763908393703,0.8067098508180162,-10.606929536457882,-1.1253493740725757,2.3000358676962307,0.06352900000000017,0.10326900000000006,-0.8899480000000001,0.190542,-0.1458409999999999,-0.879293,0.12701299999999982,0.24910999999999994,0.010655000000000081,0.9533145497927891,0.39345,single,-0.879293
87,0.725,jog,-0.34261370454816464,-0.017640705628212957,-0.07092283691347817,-0.0634658522882325,-0.1119159512905286,0.056612663627916227,-0.0007200288011727575,0.03288131525259666,-0.006960278411135975,-0.4222968918756582,0.17508700348012604,0.3489739589583625,-0.9984937007915304,-0.30264192145018315,0.5605562906906176,-0.9791712047024774,2.4051772915418224,2.0158191456757804,-5.290669465392282,2.7240123010719928,9.609440878125021,0.06637799999999983,0.10368999999999984,-0.8894150000000001,0.189878,-0.1442350000000001,-0.875794,0.12350000000000017,0.24792499999999995,0.013621000000000105,0.9439706225425821,0.36379,single,-0.875794
88,0.733333,jog,-0.34441377655107863,-0.02628105124204588,-0.06732269290772007,-0.048604843429847513,-0.07782703917732825,-0.06477860688465775,-0.005040201608049358,0.002280091203647086,-0.008160326413057155,-0.47953918156727393,0.20292811712469722,0.3493339733589325,-0.21601728104091933,-1.0368829489779054,0.43203456207345337,-0.5184414744841692,-3.6722937776250384,-0.14401152069136863,-6.869349536975336,3.3410672800397285,0.04320345620665303,0.0692060000000001,0.1039279999999998,-0.888922,0.18875200000000003,-0.14232500000000003,-0.872322,0.11954599999999993,0.24625299999999983,0.016599999999999948,0.983568883236509,0.33399999999999996,single,-0.872322
89,0.741667,jog,-0.37305015598752655,-0.03647708183346337,-0.06935445164386497,-0.20622934586146338,0.06768450958775415,-0.04594533293412599,-0.00035997120230084735,0.012718982481420942,-0.00743940484761218,-0.6802255819534385,0.37640988720901886,0.46232301415886934,-3.4360906451221607,-1.2234257969063531,-0.24379154501378872,0.5615827220720586,1.2525667479930302,0.08650366755999268,-24.080441611011008,20.816147118349246,13.557600287969459,0.07231200000000015,0.10433800000000004,-0.888406,0.18619200000000014,-0.138884,-0.867891,0.11387999999999998,0.24322200000000005,0.02051500000000006,0.9754345070884283,0.29485000000000006,single,-0.867891
90,0.75,jog,-0.3885755430217015,-0.053642145685837556,-0.021480859234374115,-0.5100564199731717,0.09202593276553929,-0.20762219716410393,-0.005640225609039971,0.00972038881555231,-0.004200168006720288,-0.7009480379215122,0.29773190927636445,0.38989559582383154,-1.8631209689397428,-2.059890057887209,5.745060891574542,-0.6336558750436939,-0.3598456337295835,0.3887239698658201,-2.486794187936345,-9.441735021319342,-8.691637865719128,0.07550299999999988,0.10486600000000013,-0.888262,0.183589,-0.13595599999999997,-0.864463,0.10808600000000013,0.2408220000000001,0.023799000000000015,0.9800042007931762,0.26200999999999997,single,-0.864463
91,0.758333,jog,-0.3943357734309503,-0.056642265690630744,-0.04596183847354141,-0.4212127051657422,-0.17017194191630525,-0.301932201914761,-0.003720148805939289,0.013200528021100683,-0.004200168006720288,-0.8397935917436734,0.2562102484099351,0.29845193807752224,-0.6912552993218234,-0.3600288017272502,-2.9378350221009475,0.2304184331094052,0.41763341000220316,0.0,-16.66213294397704,-4.982798615916136,-10.973677876672138,0.0787580000000001,0.10544799999999999,-0.887914,0.17987700000000006,-0.13334899999999994,-0.8615929999999999,0.10111899999999996,0.23879699999999993,0.02632100000000004,0.9760942325381234,0.23679,single,-0.8615929999999999
92,0.766667,jog,-0.4032877369810375,-0.07403407727380264,-0.06383489320854091,0.07908890998462689,-0.2044466038553618,-0.1729652674348564,-0.004199664026878744,0.0158387329013705,0.0010799136069117006,-0.9380849532037614,0.26889848812094436,0.32193424526038156,-1.074149694034948,-2.0868504419452836,-2.144595000599904,-0.05753722353485208,0.31655926089150854,0.6335591089071297,-11.794019853622336,1.5224669679636806,2.817651449827148,0.08208400000000005,0.10619699999999987,-0.887373,0.1754199999999999,-0.13049100000000013,-0.858378,0.09333599999999986,0.236688,0.028994999999999993,0.9726306715028783,0.21004999999999996,single,-0.858378
93,0.775,jog,-0.4024960998440016,-0.07164286571462333,-0.07164286571462333,-0.08076450639458639,-0.27338753975675295,-0.25938408285655495,-0.002400096003855867,-0.0031201248049753222,-0.011760470418816808,-1.076323052922113,0.23184927397096325,0.32269290771630693,0.0950002564545651,0.28695686537613035,-0.9369941804971067,0.21595680103478568,-2.2751539309187256,-1.5409077193961906,-16.589235535623555,-4.446083541339368,0.09104313643650197,0.085418,0.10676799999999997,-0.886874,0.16980499999999998,-0.12796200000000013,-0.855092,0.08438699999999999,0.2347300000000001,0.03178200000000009,0.9793303561218247,0.18217999999999995,single,-0.855092
94,0.783333,jog,-0.42793711748469826,-0.08820352814114471,-0.06720268810752551,0.24064124376319898,-0.5241662038098232,-0.1165484018483154,-0.0074402976119053235,0.00900036001440633,-0.008760350414016242,-1.1420856834273472,0.26161046441858765,0.2976119044761813,-3.053044238653175,-1.987358985542005,0.5328426265568056,-0.6048483869014164,1.4545163589801708,0.3600288017281404,-7.891831333881522,3.5714857131434865,-3.009840782446401,0.08892199999999995,0.10757800000000017,-0.886387,0.16385399999999994,-0.1250469999999999,-0.852052,0.074932,0.23262500000000008,0.034335000000000004,0.9756696207090462,0.15665000000000007,single,-0.852052
95,0.791667,jog,-0.43568514518837437,-0.10343172546195246,-0.01775857931365921,-0.25749996454939283,-0.2664057435615792,-0.04814910498985718,-0.00611951043916761,0.011399088072948824,-0.0037197024238064566,-1.2313414926805755,0.22210223182145825,0.10343172546196246,-0.9296889493251799,-1.827237499496957,5.932818429789529,0.15848178218594952,0.28782434107781096,0.6048293724753715,-10.70984032316146,-4.7406086629624555,-23.299757501105997,0.09250199999999986,0.10853500000000005,-0.88627,0.1572229999999999,-0.12233399999999994,-0.851042,0.06472100000000003,0.230869,0.03522800000000004,0.9775634349138388,0.14772000000000002,single,-0.851042
96,0.8,jog,-0.5927037081483266,-0.1424456978279184,0.09840393615745104,-1.1068435356892796,-0.6125151662164867,-0.9183885646798569,-0.006600264010550342,0.01008040321612536,-0.010320412816512114,-1.296651866074632,0.1989679587183404,0.10332413296531825,-18.84298127444517,-4.681863958474233,13.940059458911527,-0.057692736275378555,-0.15824851275932533,-0.7921169318019476,-7.837558309619137,-2.7762238213269845,-0.012911616061946612,0.09738599999999997,0.10980600000000007,-0.887176,0.15135699999999996,-0.11948899999999996,-0.851001,0.05397099999999999,0.22929500000000003,0.03617499999999996,0.9735588213243966,0.13825000000000004,single,-0.851001
97,0.808333,jog,-0.5799831993279889,-0.1453258130325314,0.22608904356174414,-2.476217158748924,-0.8350785468711276,-0.9592479867444877,-0.005160206408258207,0.009120364814588465,-0.006480259210369126,-1.4798991959678534,0.13884555382216313,0.0686427457098294,1.5265221193253118,-0.34562764965954734,15.322825801547376,0.17281382482805083,-0.11520921655309065,0.46083686621181125,-21.990559209555144,-7.214977186628802,-4.16193294797662,0.10217600000000004,0.11109300000000011,-0.8891140000000001,0.14385800000000004,-0.11712099999999981,-0.852313,0.041682,0.22821399999999992,0.036801000000000084,0.9794653041604252,0.13198999999999994,single,-0.852313
98,0.816667,jog,-0.47840172786176294,-0.14230861531076316,-0.10463162946963969,0.38449930084144174,-0.41288345259758524,-0.46684507105972317,-0.010199184065261588,-0.005279577633781215,-0.016438684905207245,-1.4553635709143224,0.17266618670505846,0.06491480681545425,12.188801471829278,0.3620347638310781,-39.68330609927782,-0.6046289485245191,-1.7278548654151153,-1.1949154901413537,2.9440394832650254,4.058151293843901,-0.44731688197445585,0.10607800000000012,0.11223500000000008,-0.888379,0.13571599999999995,-0.11449599999999993,-0.8509,0.02963799999999983,0.22673100000000002,0.03747900000000004,0.9665781318677884,0.12521,single,-0.8509
99,0.825,jog,-0.4555382215288546,-0.1032041281651375,0.02796111844472937,-0.9030326812661077,-1.1645622218111165,0.22209703474431997,-0.01308052322094537,-0.0003600144005730556,-0.009960398415936697,-1.5292211688467616,0.045121804872187136,-0.05304212168486763,2.7437305091693935,4.692726166521784,15.911766220373249,-0.3457745296632435,0.5903712028330979,0.7774254757315021,-8.863266282544084,-15.305938057466996,-14.155397635944194,0.10976499999999989,0.11309200000000019,-0.888695,0.1267689999999999,-0.11325999999999992,-0.851575,0.01700400000000002,0.2263520000000001,0.03712000000000004,0.9725916053661117,0.12879999999999997,single,-0.851575
100,0.833333,jog,-0.45505820232809335,-0.14640585623424862,-0.08016320652826103,0.677647717544101,-0.9426483728317123,0.08945731874700343,-0.013680547221882515,-0.006600264010576988,-0.011040441617664877,-1.7899915996639706,-0.24384975399016265,0.12480499219968738,0.05760460827567949,-5.184414744883109,-12.975438014279366,-0.07200576034287087,-0.7488599075967727,-0.129610368622126,-31.293703446202795,-34.67797418244913,21.34250736644117,0.11344299999999996,0.11425700000000005,-0.888119,0.115645,-0.11407199999999995,-0.8498669999999999,0.0022020000000000373,0.228329,0.038252000000000064,0.9687033810659761,0.11747999999999992,single,-0.8498669999999999
101,0.841667,jog,-0.5045596352291796,-0.1545476361890984,-0.011519078473720213,-0.29819452168772687,-0.9024349206356994,-0.043440113111610036,-0.016078713702913066,-0.0031197504199495167,-0.0032397408207342263,-1.8561315094792221,-0.08771298296136688,-0.008279337652987651,-5.93969677238851,-0.9769354397467852,8.236636435629984,-0.2877569571670905,0.41762822061764393,0.9360092148944794,-7.936154285487284,18.73491373035692,-15.968842074954887,0.1175139999999999,0.11551900000000015,-0.88805,0.10438100000000006,-0.11351500000000003,-0.8498399999999999,0.01313299999999984,0.22903400000000018,0.03821000000000008,0.972173464023199,0.11789999999999995,single,-0.8498399999999999
102,0.85,jog,-0.5504620184807585,-0.15108604344172694,-0.030001200047998892,-0.13171111180703338,-1.0930103294683082,-0.0003314637898937167,-0.017640705628212957,-0.009600384015370304,-0.005520220808832095,-2.036481459258407,-0.05640225609024058,0.1266050642025693,-5.508506330442738,0.41540774599441826,-2.2179433066457275,-0.18744652889714453,-0.777707139736091,-0.27366854531355933,-21.642859687889906,3.7574375220360725,16.18677569369473,0.12195400000000012,0.11669799999999997,-0.887846,0.09199800000000002,-0.1127260000000001,-0.848535,0.029956000000000094,0.22942400000000007,0.039310999999999985,0.9652855015046504,0.10688999999999999,single,-0.848535
103,0.858333,jog,-0.470778831153232,-0.12744509780392582,-0.06792271690867072,-0.2586681517471111,-0.44318416887565765,0.006187876739596445,-0.0008400336013548828,-0.0013200528021100684,-0.01236049441977661,-1.8556342253690075,-0.10848433937357639,-0.12732509300372039,9.562364973902095,2.8370269576144262,-4.550764053842754,2.0161612896745473,0.993679492770935,-0.820865667940056,21.70253616817459,-6.2500999980001914,-30.472837778265767,0.12586999999999993,0.1177490000000001,-0.887383,0.08045799999999992,-0.112568,-0.8490300000000001,0.04541200000000001,0.2303170000000001,0.03835299999999997,0.9792347767922013,0.11647000000000002,single,-0.8490300000000001
104,0.866667,jog,-0.5249580033597363,-0.1039116870650394,-0.046076313894894784,-0.9287855889133507,-0.6080961390035615,0.16315302219586367,-0.004679625629937659,-0.001079913606902542,-0.015478761699064656,-1.92560595152387,-0.20254379649627086,-0.1707463402927768,-6.500980586333648,2.8237833859955077,2.62135865296089,-0.46071418629503214,0.028814398273041497,-0.3741621405433241,-8.395935463746444,-11.286231956166906,-5.210132864057675,0.13020600000000004,0.11860600000000021,-0.887128,0.0687850000000001,-0.11338999999999988,-0.850069,0.06142099999999995,0.2319960000000001,0.037059000000000064,0.9729888308507607,0.12940999999999991,single,-0.850069
105,0.875,jog,-0.5679827193087551,-0.13548541941676837,-0.027001080043205304,-0.5360138368975874,-1.2464539700260047,0.09907841724947358,-0.019560782431286755,-0.0020400816032828165,-0.016320652826112645,-2.0121204848193814,-0.28357134285372676,-0.1354854194167767,-5.163172440779865,-3.788999442185148,2.2891196269878074,-1.785810248571827,-0.11522476855637472,-0.1010309764848177,-10.38215928183261,-9.723694510675095,4.231479764310568,0.134776,0.11971799999999999,-0.8870389999999999,0.056750999999999996,-0.11462400000000006,-0.850973,0.07802500000000001,0.23434200000000005,0.03606599999999993,0.957405339049272,0.13934000000000002,single,-0.850973
106,0.883333,jog,-0.5574222968918746,-0.11328453138126149,-0.19584783391335173,0.9333278972519446,-0.8766278226091906,0.5390353562693141,-0.00900036001440621,0.012120484819408178,0.03156126245049781,-1.9721588863554531,-0.3109324372974918,-0.15996639865594567,1.2673013820809365,2.6642131327861254,-20.262420961255934,1.2673013820809433,1.6993359441606786,5.746059675580254,4.7955836390169395,-3.283462671758663,-2.937835022101149,0.13934599999999997,0.12076300000000018,-0.885144,0.044961999999999946,-0.11627100000000001,-0.850674,0.09438400000000002,0.2370340000000002,0.03447,0.9416898636571549,0.1553,single,-0.850674
107,0.891667,jog,-0.5507559395248525,-0.1900647948163927,-0.0032397408207342692,0.028930487620704284,-1.2800250165119453,-0.04808035334079975,-0.014518838492925177,-0.008759299256058334,0.0033597312215023285,-2.05543556515481,-0.30045596352290066,-0.13882889368850634,0.7998988921312916,-9.212894580649348,23.11112228133172,-0.6621644442667386,-2.5053736591632627,-3.3839130344367225,-9.992402063757805,1.2570762868479979,2.5362976922773512,0.14381500000000003,0.122274,-0.885089,0.03242199999999995,-0.11719100000000005,-0.851804,0.11139300000000008,0.23946500000000004,0.03328500000000001,0.9711898075268892,0.16715000000000008,single,-0.851804
108,0.9,jog,-0.6180247209888355,-0.06852274090964801,-0.06132245289812037,-0.20202458618284497,-1.271279713217512,0.3306249680664216,-0.010440417616698412,-0.002880115204611053,0.010440417616705073,-2.0855634225368966,-0.2524900996039958,-0.18900756030241048,-8.072576678745085,14.585629894005065,-6.970204257456601,0.4894300823505039,0.7055303073859662,0.849716356078569,-3.6154875053505733,5.756133915625181,-6.021680860902907,0.14887800000000007,0.12282100000000007,-0.8844909999999999,0.020192999999999905,-0.11872400000000005,-0.852868,0.12868500000000016,0.24154500000000012,0.03162299999999996,0.9749278982170031,0.18377000000000004,single,-0.852868
109,0.908333,jog,-0.6182647305892347,-0.16224648985959825,-0.013800552022078158,-0.1310838268625628,-1.0409997427228683,0.08316379800093068,-0.010560422416907333,-0.003480139205575066,0.014640585623424724,-2.1016440657626365,-0.2976119044761863,-0.15216608664346776,-0.028802304140065103,-11.24729976598477,5.702856219373892,-0.014401152071153575,-0.07200576034609606,0.5040403224192596,-1.9297543772638934,-5.414833177990026,4.421153685220576,0.15394200000000002,0.12414400000000003,-0.884254,0.007832000000000061,-0.11985200000000007,-0.854021,0.14610999999999996,0.2439960000000001,0.030232999999999954,0.9693595837935085,0.19767000000000007,single,-0.854021
110,0.916667,jog,-0.6312694984401152,-0.16498680105590277,-0.048356131509470615,-0.3857303041338659,-0.9053950737352606,-0.10376876799371203,-0.006239500839925676,0.014998800095983894,0.043316534677225516,-2.114830813534901,-0.38720902327811907,-0.0988720902327796,-1.5604473063211364,-0.3288110386734464,-4.146337831460547,0.5184691117088582,2.2172953325604534,3.4408386193665192,-1.5822831500197498,-10.750794192696436,6.394767987843503,0.15915100000000004,0.12564399999999987,-0.8834900000000001,-0.0045319999999999805,-0.12170400000000003,-0.854442,0.16368300000000002,0.2473479999999999,0.029048000000000074,0.9228958577367596,0.20951999999999998,single,-0.854442
111,0.925,jog,-0.601464058562342,-0.20808832353295537,-0.08064322572902953,0.31913397041809843,-0.4484325775485065,-0.06585636114137192,0.001440057602292203,-0.0032401296051841034,0.01776071042841734,-2.1442457698307837,-0.4336973478939147,-0.08316332653306087,3.576795857167053,-5.172389592830003,-3.8746062905986776,0.9215838764211984,-2.1887591145047307,-3.0668215827202774,-3.529935952944007,-5.578822106779721,1.8851270490482015,0.16417499999999996,0.127351,-0.8826700000000001,-0.01738799999999996,-0.12358399999999992,-0.8544630000000001,0.18156299999999992,0.2509349999999999,0.028206999999999982,0.9698146908120301,0.21793,single,-0.8544630000000001
112,0.933333,jog,-0.6299051962078612,-0.2262090483619263,-0.06156246249851211,0.23319855780503596,-0.5832238049591139,-0.2436636013166853,-0.0006000240009639748,-0.00540021600862248,0.021960878435137086,-2.1236049441977793,-0.44185767430697187,-0.05880235209408482,-3.4130730403839573,-2.174573962435028,2.289783178989271,-0.24481958517415053,-0.2592207372420972,0.504040322419271,2.476998155886786,-0.9792783407005003,2.923433870031954,0.169419,0.12919100000000006,-0.8819739999999999,-0.029834999999999834,-0.12538099999999996,-0.85444,0.19925399999999982,0.254572,0.027533999999999947,0.9622949110646415,0.22465999999999997,single,-0.85444
113,0.941667,jog,-0.6633069354451566,-0.21238300935925555,-0.10691144708422946,-0.2127692830526758,-0.4289515460844899,-0.24777464079201633,0.009719222462202678,-0.005399568034565924,0.03431725461963035,-2.102471802255808,-0.4220062395008358,-0.058915286777058026,-4.0078880774292225,1.6589919609635986,-5.441442834859252,1.23821051873849,7.775066673330314e-05,1.4826465304167473,2.535774171102855,2.381981618206851,-0.013551077870555189,0.17502799999999996,0.13091600000000003,-0.8807969999999999,-0.041828999999999894,-0.1271279999999999,-0.85404,0.21685699999999986,0.25804399999999994,0.02675699999999992,0.9398776112865914,0.23243000000000008,single,-0.85404
114,0.95,jog,-0.6611064442577747,-0.21372854914197154,-0.14712588503539667,-0.010666602913230676,-0.3963560306096038,-0.28466486808793523,0.005040201608076071,0.008400336013442354,0.021720868834753663,-2.094083763350549,-0.3913356534261623,-0.016680667226689247,0.26406950526604944,-0.16147123277523034,-4.825925591163755,-0.5615049626937059,1.6560547279501268,-1.5116267592555868,1.0066049328284115,3.6806175536630055,5.068357080327513,0.18057900000000005,0.13276700000000008,-0.87939,-0.05376999999999987,-0.12860800000000006,-0.8529530000000001,0.23434899999999992,0.26137500000000014,0.026436999999999933,0.9602869521747518,0.23563000000000006,single,-0.8529530000000001
115,0.958333,jog,-0.636385455418221,-0.29101164046560535,-0.06708268330732915,-0.10610356613295377,-0.1730839192235004,-0.7382803492289766,0.003720148805939289,0.016680667226675702,0.023400936037441488,-2.0208808352334233,-0.532701308052303,0.0010800432017291448,2.966637326239475,-9.27434193251332,9.605568430105267,-0.15841267276332363,0.9936794927677083,0.2016161289676969,8.784702762165521,-16.96455713742231,2.1313705062304473,0.185913,0.13533099999999987,-0.8786360000000001,-0.065307,-0.13062200000000002,-0.8523850000000001,0.25122,0.2659529999999999,0.026251000000000024,0.9517043832879832,0.23748999999999998,single,-0.8523850000000001
116,0.966667,jog,-0.7531797456203285,-0.2630189584833159,-0.048596112311026715,-0.7425400941879514,-0.2860368742273866,-0.7232071551374526,-0.0025197984161058977,0.005879529637651477,0.030117590592752496,-2.0488360931125293,-0.52759779217662,-0.029037676985841643,-14.014193688757695,3.358853129624337,2.2182110626712617,-0.7487337679439812,-1.2960328280566524,0.8059340719115619,-3.3543625964849784,0.6123729152487389,-3.613837315523225,0.19216900000000003,0.13757200000000003,-0.87798,-0.07610500000000009,-0.13282700000000003,-0.8522219999999999,0.2682740000000001,0.27039900000000006,0.02575800000000006,0.948684323493084,0.24242000000000008,single,-0.8522219999999999
117,0.975,jog,-0.7193087723509072,-0.22260890435619574,-0.1729269170766744,-0.4964827519403254,0.06161263353585414,-0.3383356186884162,-0.0055202208088312625,0.011280451218026798,0.025801032041281875,-2.0102004080163343,-0.5324612984519459,-0.02028081123244978,4.064679379505779,4.8494004712733165,-14.920293383613203,-0.3600650897306363,0.6481365151056487,-0.5180077464863386,4.636467670250262,-0.583644098803071,1.0508659250440349,0.1981170000000001,0.139521,-0.876324,-0.086862,-0.1354089999999999,-0.8509500000000001,0.2849790000000001,0.2749299999999999,0.025373999999999897,0.9521746617641109,0.2462600000000001,single,-0.8509500000000001
118,0.983333,jog,-0.7310692427697061,-0.2934117364694612,-0.09996399855995203,-0.4713803101034728,-0.01598784256322031,-0.8086078831008742,-0.012360494419799093,0.02004080163206859,0.057002280091202964,-1.9849993999759807,-0.5423016920676732,-0.01416056642265602,-1.411312902771974,-8.496679720780655,8.75590045802497,-0.8208656679428539,1.0512841010490523,3.744299537972034,3.024241934519791,-1.1808944696660584,0.7344587555254691,0.2041059999999999,0.14213300000000006,-0.8750159999999999,-0.09731099999999993,-0.1374829999999998,-0.850235,0.3014169999999998,0.27961599999999986,0.024780999999999942,0.8972100917194883,0.25218999999999997,single,-0.850235
119,0.991667,jog,-0.7610991120710372,-0.31713462922965757,-0.12167026637868553,0.12538014696541902,-0.44883385726012626,-0.6219271756090923,-0.006839452843769386,0.03275737940964354,0.07811375089992831,-1.9479241660667355,-0.5560355171586338,-0.024238060955124655,-3.603296052475556,-2.846519409670804,-2.604543774746055,0.6624719913642594,1.5258672639278883,2.5331738431396045,4.448672175335432,-1.647927176741136,-1.209202607687628,0.2103919999999999,0.14504899999999998,-0.873351,-0.10720200000000002,-0.13947399999999988,-0.849423,0.31759399999999993,0.28452299999999986,0.02392799999999995,0.8583668461144393,0.26072000000000006,single,-0.849423
120,1.0,jog,-0.7806312252490046,-0.2923316932677154,-0.12576503060121608,-0.20424909361384214,-0.256391836922038,-0.5042146570075021,-0.031201248049913102,0.0003600144005730508,0.05952238089523597,-1.895235809432363,-0.5600624024960947,-0.014880595223808784,-2.3439473392496524,2.9764713742880184,-0.4913913623581583,-2.923532366031875,-3.8878393146610284,-2.2310536427087797,6.322855710353093,-0.48324557031812876,1.1229408053901155,0.21663699999999997,0.14748799999999984,-0.871807,-0.11648999999999998,-0.14170499999999997,-0.8484990000000001,0.33312699999999995,0.2891929999999998,0.023307999999999884,0.8879910554454792,0.26692000000000005,single,-0.8484990000000001
121,1.008333,jog,-0.6837873514940637,-0.8425537021481135,0.09060362414496065,3.8107069422668274,-1.1517318679758615,-2.7900838792146927,-0.0393615744629916,0.006960278411150132,0.06648265930637273,-1.849513980559237,-0.5537021480859426,-0.024120964838592905,11.621729719781813,-66.02928223693786,25.965277180628668,-0.9792783407030567,0.792063363803809,0.8352668200092197,5.486838938332681,0.7632610596606441,-1.1088887093224775,0.22200699999999984,0.15456700000000012,-0.872008,-0.12620399999999998,-0.13929799999999992,-0.849455,0.3482109999999998,0.29386500000000004,0.022553000000000045,0.8707100265100277,0.27447,single,-0.849455
122,1.016667,jog,-0.9082073434125125,-0.13570914326853667,-0.34377249820014216,0.3366141069749544,-0.873235415667117,-0.10514610958660986,-0.028557715382764418,0.01931845452364729,0.08867290616750635,-1.8114950803935712,-0.5463162946964236,-0.022918166546675698,-26.928244770632006,84.81456190059653,-52.120965004211605,1.2963593808767817,1.4828625044992878,2.6626166140068936,4.561903067634462,0.8862315082216187,0.14432424909013655,0.22933799999999982,0.1558590000000002,-0.868404,-0.13373200000000018,-0.14271999999999996,-0.846781,0.36307,0.29857900000000015,0.021622999999999948,0.841433241527805,0.28376999999999997,single,-0.846781
123,1.025,jog,-0.8406336253450395,-0.41245649825992364,0.025321012840509197,0.4078025191685071,-0.4154382992929576,-1.241831545969182,-0.04536181447257805,0.008040321612842651,0.10296411856474325,-1.7422296891875872,-0.5564622584903449,-0.015480619224769626,8.109170534918235,-33.21101103940832,44.29299304460035,-2.016572553679802,-1.353430086500029,1.7150140882319722,8.312179431895427,-1.2175643578448807,0.8925413802839481,0.23596499999999998,0.15936299999999992,-0.867757,-0.14124500000000006,-0.14392000000000005,-0.847121,0.37721000000000005,0.30328299999999997,0.020635999999999988,0.8119991822144187,0.29364,single,-0.847121
124,1.033333,jog,-0.8923556942277533,-0.3877355094203681,0.017640705628225808,0.24300617312162767,-0.3504173027023393,-0.869276906090286,-0.036961478459134715,0.026761070442827353,0.1700468018720721,-1.7004680187206944,-0.5145805832233016,-0.0024000960038408465,-6.206896541787219,2.966637326239662,-0.9216737324232875,1.0080806448389765,2.246579722787036,8.050244006639588,5.011600920063855,5.026002072127998,1.5697255755344475,0.243093,0.162817,-0.866487,-0.14797899999999986,-0.1449769999999999,-0.8472879999999999,0.39107199999999986,0.3077939999999999,0.019199000000000077,0.7065614743158345,0.30801000000000006,single,-0.8472879999999999
125,1.041667,jog,-0.9191264698824269,-0.3196544276457944,0.0327573794096573,-0.8180647076615806,0.44947951172663253,-0.41692727686701386,-0.10067194624430648,0.008279337652999529,0.156827453803699,-1.6393088552916153,-0.5161987041036848,0.005279577633789682,-3.2122360996729147,8.169076286846055,1.8138557453121882,-7.644644562655744,-2.2176305243374337,-1.5861948726149935,7.338512530487195,-0.19415897292816148,0.9214871175462772,0.24991399999999997,0.16555000000000009,-0.865453,-0.15398099999999992,-0.14661499999999994,-0.8475170000000001,0.4038949999999999,0.312165,0.017935999999999952,0.689095234038441,0.32064000000000004,single,-0.8475170000000001
126,1.05,jog,-0.976359054362148,-0.39697587903516507,-0.0019200768030740096,-0.030138198236837537,-0.22014046337773405,-0.38365443177351066,-0.09216368654744587,0.04800192007679695,0.24156966278650735,-1.5589823592943415,-0.5213008520340873,0.008400336013440465,-6.868184864961013,-9.278945324537302,-4.161461203975843,1.0210320049034505,4.766900566878282,10.169471856811096,9.63956510227678,-0.6122822429379976,0.37450598579751937,0.257282,0.16925800000000013,-0.863424,-0.15883599999999998,-0.14765099999999998,-0.847431,0.416118,0.3169090000000001,0.015992999999999924,0.5617134643870332,0.3400700000000001,single,-0.847431
127,1.058333,jog,-1.092523700948048,-0.418696747869901,0.10068402736108614,-0.7854914620019563,-0.2950702856812979,-0.24036647394290575,-0.09948397935917151,0.016200648025920732,0.18888755550222086,-1.5076203048122185,-0.5267010680427237,0.004080163206529049,-13.940315202916242,-2.6066085245093182,12.312985019100093,-0.8784702762181332,-3.816305298317113,-6.322105758344771,6.163693085578233,-0.6480518431100962,-0.5184414744883543,0.26555700000000004,0.17288199999999998,-0.8626889999999999,-0.16229500000000008,-0.1485510000000001,-0.848236,0.4278520000000001,0.3214330000000001,0.014452999999999938,0.6431696957578341,0.35546999999999995,single,-0.848236
128,1.066667,jog,-0.9704823614110911,-0.5424766018718458,-0.055435565154782686,1.9866437827882806,-0.3677113041881543,-0.11411256825867612,-0.11303095752339708,0.03515718742499094,0.22030237580993403,-1.45140388768896,-0.4833213342932433,-0.0237580993520521,14.643789241295405,-14.85239428869016,-18.73285247370622,-1.6255073391199257,2.274602759667634,3.7694768787752495,6.745430420357358,5.205151637806577,-3.3403242810872253,0.27270300000000014,0.17769599999999985,-0.860391,-0.16630299999999987,-0.14805800000000002,-0.847972,0.439006,0.3257539999999999,0.012419000000000069,0.5831828206055863,0.37581,single,-0.847972
129,1.075,jog,-1.0776431057242373,-0.5235809432377483,-0.012360494419772612,1.0687806397624129,-0.005042612005208201,0.21984433220135974,-0.11664466578665593,0.02616104644186409,0.2062882515300629,-1.4257770310812599,-0.42793711748469826,-0.008520340813632817,-12.859803709726044,2.2675697388812734,5.169215256811529,-0.43366233808458965,-1.0795801011792787,-1.6817621840719155,3.075345806756302,6.646371871900342,1.8286041687770818,0.28071099999999993,0.18227700000000002,-0.858569,-0.1692039999999999,-0.14726099999999986,-0.84794,0.44991499999999984,0.3295379999999999,0.010629,0.6026294021713046,0.39371,single,-0.84794
130,1.083333,jog,-1.1062042481699013,-0.5498619944797533,0.017400696027834894,0.45338300771189627,-0.3201194239803101,0.2635930921913415,-0.16500660026399616,0.013080523220945021,0.3013320532821259,-1.3429737189487285,-0.4204968198728084,-0.04356174246969829,-3.4274741924473164,-3.1538523031326666,3.5714857131413638,-5.80366428385208,-1.5697255755332822,11.405712438744914,9.936794927700694,0.8928714282838985,-4.205136404183951,0.288554,0.18696800000000002,-0.8562029999999999,-0.1711769999999999,-0.14618300000000017,-0.848448,0.4597309999999999,0.3331510000000002,0.007754999999999956,0.5,0.42245,flight,-0.848448
131,1.091667,jog,-0.9302855771538332,-0.5723542116630974,0.15778737700985015,-0.6025760288125332,0.7365264749696231,-0.885600127021196,-0.1757859371250393,0.02327813774895718,0.24406047516199098,-1.2392608591313068,-0.40760739140867974,-0.04151667866570742,21.108551837781548,-2.6988501539890306,16.845054113513072,-1.293416949969202,1.2236158540931548,-6.872039611247424,12.444547614281701,1.5466076870805023,0.2453880254368737,0.2948419999999998,0.191932,-0.855484,-0.17375200000000013,-0.14480999999999988,-0.850109,0.46859399999999996,0.3367419999999999,0.005375000000000019,0.5,0.4462499999999999,flight,-0.850109
132,1.1,jog,-1.0884435377415067,-0.5939037561502201,0.07128285131404932,1.1303353290905593,-0.9900288641799296,-0.6507312931912475,-0.1736469458778292,0.03672146885877045,0.26617064682586977,-1.2218888755549904,-0.33085323412937384,-0.12744509780390914,-18.97971445909885,-2.586048780405889,-10.38095832182879,0.256689217233896,1.6132642637481143,2.6533267327347185,2.0847214180146545,9.210867308208876,-10.311822769494805,0.302465,0.197187,-0.8538600000000001,-0.1748639999999999,-0.14261800000000013,-0.851765,0.4773289999999999,0.33980500000000013,0.002095000000000069,0.5,0.47905,flight,-0.851765
133,1.108333,jog,-1.0356414256570257,-0.5781831273250969,0.05364214568582495,1.0161040640920496,-1.26078080468827,-0.18704177489381418,-0.19716788671547775,0.017520700828030818,0.2826113044521802,-1.0645625825033187,-0.376455058202325,-0.10176407056282363,6.3365069104142,1.8865509210516374,-2.1169693541611108,-2.822625805550074,-2.3041843310620194,1.972957833470607,18.879910362615277,-5.4724377862656395,3.0818465427920008,0.30945199999999984,0.20215099999999997,-0.851952,-0.17510500000000007,-0.1409370000000001,-0.85306,0.4845569999999999,0.34308800000000006,0.0011079999999999979,0.48892,0.5,flight,-0.851952
134,1.116667,jog,-1.1325893928485604,-0.5523158147348332,0.12071034317253944,0.17288189928234285,-1.004458879273609,-0.480430574930455,-0.23122150227979066,0.02531797456203019,0.31809455243580276,-1.009359251259902,-0.2987760979121505,-0.13762898968082557,-11.632825436949126,3.1038292044952676,8.047539895214062,-4.086106979159186,0.9355980002398984,4.257649146102987,6.623869839622797,9.320729576454754,-4.303446018478721,0.316964,0.20696500000000007,-0.8503069999999999,-0.17407800000000018,-0.13882399999999984,-0.855213,0.4910420000000002,0.3457889999999999,0.004906000000000077,0.4509399999999999,0.5,flight,-0.8503069999999999
135,1.125,jog,-1.2098883955358501,-0.5688227529101176,0.12360494419777941,-0.18367620303171986,-1.017280252223771,-0.4180509616057004,-0.2625705028201247,0.037801512060490594,0.3428537141485689,-0.9313572542901689,-0.27625105004200734,-0.16812672506900422,-9.276251372529753,-1.980911817506856,0.34736601766950675,-3.7620305460619585,1.49808442319219,2.971218254262136,9.36061406093048,2.703113868971961,-3.659874641567135,0.3248580000000001,0.2120200000000001,-0.84848,-0.17175699999999994,-0.1363859999999999,-0.8576440000000001,0.49661500000000003,0.348406,0.009164000000000061,0.40835999999999995,0.5,flight,-0.84848
136,1.133333,jog,-1.10992439697587,-0.5732629305172297,0.011040441617662525,1.3666393660964917,-0.8926814436442971,-0.5776921784741955,-0.28645145805834166,0.025921036841473174,0.3423736949478004,-0.8547941917676773,-0.2314892595703933,-0.21060842433697452,11.99615967358466,-0.5328426265585092,-13.508280640839782,-2.8658292617565344,-1.4257140548442973,-0.05760460827655292,9.187935020099875,5.371629721782607,-5.098007832469781,0.3317199999999998,0.21701300000000012,-0.845719,-0.1696310000000001,-0.13353799999999993,-0.859491,0.5013509999999999,0.35055100000000006,0.013772000000000006,0.36228000000000005,0.5,flight,-0.845719
137,1.141667,jog,-1.142068634509247,-0.6983441324693895,0.14866810655147356,1.7287688315882555,-1.9276847365729022,-0.41236080487950794,-0.30477561795056,0.005879529637624834,0.34401247900167825,-0.7882169426445881,-0.15562754979600094,-0.29373650107991206,-3.85699994400968,-15.00854355077501,16.513998672163424,-2.19872328920305,-2.404788481383272,0.19663835539690885,7.988630804306307,9.102676958770312,-9.974571243452953,0.33869799999999994,0.22288200000000002,-0.844091,-0.166682,-0.12901499999999988,-0.863178,0.5053799999999999,0.3518969999999999,0.019086999999999965,0.3091299999999999,0.5,flight,-0.844091
138,1.15,jog,-1.2398895955838356,-0.6363854554182294,0.13632545301812507,0.34383625597534107,-0.526429107479466,-0.2757438593978562,-0.35713428537140224,-0.0025201008040380353,0.3508940357614332,-0.6513860554422223,-0.13392535701429584,-0.34357374294972,-11.738984888346273,7.435338659685667,-1.4811776711086762,-6.28329142215801,-1.007995972838467,0.8258198439643585,16.4203632788152,2.6043673084969754,-5.980708252707114,0.3460540000000001,0.22816400000000003,-0.842303,-0.16177799999999998,-0.12482799999999994,-0.8671770000000001,0.5078320000000001,0.352992,0.024874000000000063,0.25126000000000004,0.5,flight,-0.842303
139,1.158333,jog,-1.202088083523313,-0.6870274810992295,0.09144365774629978,1.2002499347692503,-0.809994229532259,0.11695236596086792,-0.4035761430457154,-0.019680787231495276,0.3340933637345429,-0.4498979959198292,0.07152286091444024,-0.41965678627144354,4.536362901778706,-6.077286173166828,-5.386030873853894,-5.573245850751509,-2.0593647458846682,-2.016161289678386,24.17953432405971,24.65477234234159,-9.13033041182314,0.352708,0.23372499999999996,-0.840281,-0.15551000000000004,-0.11850699999999992,-0.871436,0.5082180000000001,0.3522319999999999,0.031155000000000044,0.18845000000000012,0.5,flight,-0.840281
140,1.166667,jog,-1.1918646508279527,-0.6970242380609627,0.05771538276938731,0.5406845589441458,-0.5235656305203178,-0.03452993015855694,-0.44168466522679567,-0.03719702423803892,0.32589392848572857,-0.32649388048956385,0.08063354931605696,-0.3869690424766099,1.2267137863403523,-1.199514874218068,-4.047069231691038,-4.572656849181788,-2.101780298361408,-0.9838535215760128,14.807309266890773,1.0931951525818204,3.9222154781418594,0.35895999999999995,0.2392240000000001,-0.8380460000000001,-0.14829800000000004,-0.11202599999999996,-0.8751420000000001,0.507258,0.35125000000000006,0.03709600000000002,0.12904,0.5,flight,-0.8380460000000001
141,1.175,jog,-1.273730949237962,-0.709468378735127,0.04356174246969829,0.5165096520323059,-0.25915220304500264,0.14039476633321754,-0.49621984879394304,-0.07920316812673628,0.3424936997479834,-0.05088203528140796,0.2822512900515863,-0.3872554902196029,-9.824348783152278,-1.4933566151642998,-1.6985047761536995,-6.544483807409867,-5.040938904199763,1.9920522335598854,33.07474441475472,24.19509669213078,-0.03437510416332874,0.36543900000000007,0.24447599999999992,-0.835555,-0.1381079999999999,-0.10376200000000013,-0.8787320000000001,0.503547,0.34823800000000005,0.04317700000000002,0.06822999999999996,0.5,flight,-0.835555
142,1.183333,jog,-1.2556102244089746,-0.7235089403576284,-0.004440177607112096,0.23391158396367798,-0.24747442957788102,-0.012931944604181725,-0.5462618504740107,-0.048721948877944336,0.3231729269170798,0.15996639865595114,0.2866914676587059,-0.2966518660746451,2.1745739624370066,-1.6849347920918594,-5.760460827650404,-6.005280412824682,3.657892625560089,-2.3185854831277797,25.30282418545074,0.5328426265594218,10.872869812187526,0.37135000000000007,0.25009900000000007,-0.8328249999999999,-0.12631199999999998,-0.0953440000000001,-0.8811669999999999,0.49766200000000005,0.34544300000000017,0.048341999999999996,0.016579999999999984,0.5,flight,-0.8328249999999999
143,1.191667,jog,-1.1951043916486552,-0.7066234701223888,0.061315094792420845,-0.35643753895556674,-0.11810989744487467,0.1972317955883028,-0.5993520518358585,-0.06383489320856671,0.33525317974561836,0.21070314374848276,0.2831773458123496,-0.21646268298535953,7.260119121708536,2.0260943406814778,7.8900014878248665,-6.370314538258631,-1.8134082470149098,1.4495143782743571,6.087922377313563,-0.4216608886916574,9.621932216136905,0.37631499999999996,0.2554559999999999,-0.830542,-0.11459600000000014,-0.08709499999999992,-0.883482,0.4909110000000001,0.34255099999999983,0.05293999999999999,0.0,0.5,flight,-0.830542
144,1.2,jog,-1.2224888995560137,-0.7061082443297797,-0.08628345133805733,0.14526876531362665,-0.3763935153038736,0.09695541181052703,-0.6623064922597026,-0.09168366734669313,0.3606144245769856,0.19644785791433164,0.12432497299892552,-0.1077643105724234,-3.2862723997790373,0.0618295682958241,-17.712534037019026,-7.554835044263135,-3.3419865760382423,3.043471118608843,-1.7107027282072778,-19.06304725950144,13.04432646261096,0.38098300000000007,0.2605759999999999,-0.8268179999999999,-0.10277199999999986,-0.08017499999999989,-0.883661,0.48375499999999994,0.3407509999999998,0.05684300000000009,0.0,0.5729246539821277,single,-0.8268179999999999
145,1.208333,jog,-1.1717268690747284,-0.7326293051721973,-0.12492499699987285,0.3767168139334997,-0.31939647523512704,0.6054779486306758,-0.7224288971558633,-0.11232449297969632,0.38425537021480144,0.021480859234360505,0.08364334573382161,-0.1374054962198464,6.091687325247133,-3.182654607274343,-4.6371709662564315,-7.2149771866266255,-2.4769981558865752,2.8370269576161538,-20.996879716784843,-4.881990551434441,-3.5570845610731414,0.38472700000000004,0.2657450000000001,-0.8225750000000001,-0.09282900000000005,-0.07337299999999991,-0.883765,0.4775560000000001,0.33911800000000003,0.06118999999999997,0.0,0.7295173707034844,single,-0.8225750000000001
146,1.216667,jog,-1.1981041516678785,-0.7470602351812075,-0.20590352771779258,0.917654166685469,0.06173586428762221,-0.03137735665033302,-0.8185745140389051,-0.12083033357331405,0.4728821694264549,-0.11435085193184542,0.03971682265417152,-0.097432205423568,-3.165020709521309,-1.731573075235237,-9.716646354442197,-11.536551101877084,-1.0206192216964107,10.63436515618612,-16.298501459828234,-5.270761108669417,4.796411182658888,0.38788999999999985,0.2709640000000002,-0.816918,-0.08379700000000012,-0.06681599999999999,-0.882861,0.47168699999999997,0.3377800000000002,0.06594299999999997,0.0,0.7410138463966005,single,-0.816918
147,1.225,jog,-1.2662906516260568,-0.7843513740549335,-0.10188407536301138,-1.5224832767934644,1.6859105025922332,-1.0639387895898682,-0.9403576143045502,-0.16008640345615566,0.5921036841473548,-0.23508940357614422,-0.006000240009586295,-0.08988359534381214,-8.18270730327338,-4.475115669473825,12.482833595917363,-14.614556614141721,-4.710916822613815,14.307154052669848,-14.489205765546224,-5.486266970329655,0.9058694443484603,0.390606,0.2761659999999999,-0.8111349999999999,-0.07520400000000005,-0.060329999999999995,-0.882761,0.46581000000000006,0.3364959999999999,0.07162600000000008,0.0,0.5804033310100374,single,-0.8111349999999999
148,1.233333,jog,-1.0970838833553422,-0.6824672986919537,-0.22968918756750134,0.4197126055169195,-0.18684164512777637,0.5636606441884673,-1.074282971318871,-0.23148925957036665,0.6953078123125014,-0.18312732509299534,-0.0558022320892766,-0.06360254410176497,20.30562441746263,12.22657810668196,-15.337226953617082,-16.071685709147015,-8.568685481124643,12.384990779448879,6.2356988459317595,-5.976478108687239,3.1538523031378154,0.3907959999999999,0.27992400000000006,-0.803427,-0.06758799999999998,-0.055107999999999935,-0.881377,0.4583839999999999,0.335032,0.07794999999999996,0.0,0.6637841718393194,single,-0.803427
149,1.241667,jog,-1.1711063114950704,-0.6625869930405549,-0.11543076553875822,0.04994261870114508,-0.7137522458831903,0.16607541656268324,-1.214422846172276,-0.2814974802016035,0.6250299976001862,-0.14050875929925896,0.03407727381808841,-0.0795536357091423,-8.881980818301846,2.3854458425004323,13.709913850341042,-16.815439747228673,-6.0005064352335555,-8.432663152425565,5.113818789745147,10.784677934648947,-1.9139778746552925,0.3904350000000001,0.2830999999999999,-0.797256,-0.058999000000000024,-0.04930199999999996,-0.881078,0.4494340000000001,0.33240199999999986,0.08382200000000006,0.0,0.7249608462962198,single,-0.797256
150,1.25,jog,-1.1317652706108308,-0.6793471738869516,-0.278411136445459,-0.1308331951596453,-0.4309831860509187,0.5168847917452232,-1.3709348373935204,-0.37033481339252977,0.7687507500300076,-0.07092283691347817,0.07572302892116332,-0.0558022320892841,4.721113750658824,-2.011302153653774,-19.55842684587811,-18.782190234158875,-10.66090641916802,17.24718017878588,8.350644712082255,4.997690519989836,2.850282445680837,0.38844199999999995,0.2856749999999999,-0.78853,-0.050159000000000065,-0.04300999999999999,-0.879223,0.438601,0.3286849999999999,0.09069300000000002,0.0,0.8036590620389179,single,-0.78853
151,1.258333,jog,-1.184087363494559,-0.6290651626065062,-0.18636745469819282,-0.470123285411439,0.26945567412521976,0.04558879906652813,-1.4962198487939562,-0.4495379815192681,0.7872314892595789,-0.03528141125645256,0.06456258250329201,0.009960398415936697,-6.2789023021395325,6.034082716962182,11.045683637017524,-15.03480276016284,-9.504760365623312,2.217777418645319,4.277142164529693,-1.3393071424302667,7.8918313338799235,0.3858410000000001,0.28717099999999984,-0.7804169999999999,-0.04058600000000001,-0.037230000000000096,-0.877587,0.4264270000000001,0.32440099999999994,0.09717000000000009,0.0,0.8762583944895933,single,-0.7804169999999999
152,1.266667,jog,-1.1364290856731383,-0.6724262059035423,-0.4155267578593673,-0.8054136665140985,0.20501056686853647,0.7153748738120428,-1.7796976241900726,-0.5061195104391676,0.7476601871850179,-0.000479961603058909,-0.005879529637624834,0.0014398848092150266,5.7185358557019885,-5.2029089629272525,-27.49691662601065,-34.01461187858342,-6.789240331161393,-4.74817639483569,4.175839891215909,-8.45237726672862,-1.022379842419199,0.38047999999999993,0.28855699999999995,-0.770723,-0.031118999999999897,-0.0316749999999999,-0.874112,0.4115989999999998,0.32023199999999985,0.10338899999999995,0.0,0.9898795448933131,single,-0.770723
153,1.275,jog,-1.1591263650545962,-0.7026281051242046,-0.4147365894635841,-0.9498096209295427,1.0191716431482347,0.762787106945582,-2.004440177607112,-0.5801032041281711,0.6333853354134229,0.004200168006721177,0.009120364814588465,-0.01044041761670438,-2.72378247707406,-3.624372881394765,0.09482400045400537,-26.97018521745366,-8.878398378615644,-13.713530753821681,0.5616380186943633,1.8000593366390778,-1.4256933188430958,0.3734359999999999,0.2895779999999999,-0.761989,-0.021425000000000027,-0.02574399999999999,-0.8707429999999999,0.3948609999999999,0.3153219999999999,0.1087539999999999,0.0,0.9758577833081263,single,-0.761989
154,1.283333,jog,-1.2067682707308158,-0.6980679227168918,-0.38293531741268305,-0.6764947742652856,-0.743937029317009,0.6202910812153615,-2.2850114004559887,-0.699147965918611,0.5595823832953221,-0.021240849633996237,0.029161166446656544,-0.02832113284531333,-5.717257371441112,0.5472437786286738,3.8163052983199925,-33.669893537606136,-14.285942852566638,-8.856708522512847,-3.0530442386555823,2.404992395543949,-2.1457716582993682,0.36445099999999986,0.28956899999999997,-0.754135,-0.011546000000000056,-0.019684000000000035,-0.867788,0.3759969999999999,0.309253,0.113653,0.0,0.9235576853774776,single,-0.754135
155,1.291667,jog,-1.1569474442044771,-0.655627549796045,-0.3711303095752425,-1.0316012345382084,0.8262870466580818,0.49315494472319765,-2.6654667626590327,-0.8068154547636285,0.3951283897288281,-0.015358771298285145,-0.003959683225336017,-0.011759059275258306,5.978020941485436,5.092437355513271,1.416487621483173,-45.65099138505534,-12.919065136191454,-19.73290059593198,0.7057929368503963,-3.9741840259171095,1.9872898452190226,0.35187899999999983,0.28830900000000015,-0.747749,-0.0020320000000000338,-0.014252999999999849,-0.864793,0.35391099999999986,0.302562,0.11704400000000004,0.0,0.9670924518082573,single,-0.747749
156,1.3,jog,-0.8712348493939658,-0.7607104284171081,-1.0639625585023262,-2.85611547953787,10.701598589653514,-0.1360483608581538,-2.782191287651442,-0.8958358334333283,0.30349213968558253,-0.012960518420736242,0.011040441617662232,-0.010200408016320684,34.28688285257487,-12.610449852521457,-83.14319559907256,-14.007503299220822,-10.682872755274001,-10.996789876784344,0.28780185738015857,1.8000869846391439,0.18704563289782733,0.335955,0.28718299999999997,-0.736354,0.005120000000000013,-0.007821999999999996,-0.856012,0.330835,0.29500499999999996,0.11965800000000004,0.0,0.9669211920581793,single,-0.736354
157,1.308333,jog,-1.1465258610344593,-0.6235449417976751,-0.3428537141485689,1.1198541401513995,-1.8279863110103354,1.6416971954972248,-2.8183127325093236,-0.9435977439097594,0.22860914436577887,-0.0032401296051841467,-0.006600264010577076,0.0064802592103682935,-33.03624284657339,16.46051681500472,86.53652278336301,-4.334746772816758,-5.731658523512722,-8.986318891132168,1.166493317598966,-2.1169693541629027,2.0017601376082,0.3220240000000001,0.284516,-0.731592,0.014647000000000077,-0.0026810000000001555,-0.853101,0.307377,0.28719700000000015,0.12150899999999998,0.0,0.983665333022026,single,-0.731592
158,1.316667,jog,-1.2373410127189717,-0.6555075593952429,-0.27885769138468625,-1.5678543041359985,0.5630305823637597,0.3366099087699991,-3.016318694504429,-0.9671226301895722,0.18430525557955005,-0.006599472042253162,0.005879529637651477,0.0009599232061436286,-10.896946446425687,-3.835207295124497,7.678908418992342,-23.75881473423375,-2.822760532734903,-5.316041371037735,-0.40308884534065154,1.4974554413521068,-0.6623873295205931,0.30719799999999997,0.28191900000000003,-0.727732,0.024903999999999926,0.002831000000000028,-0.850769,0.28229400000000004,0.279088,0.12303699999999995,0.0,0.9851822785753945,single,-0.727732
159,1.325,jog,-0.956798271930887,-0.8163926557062494,-0.8573142925717154,-0.6732049793941285,2.1568816532464887,-0.010799457949065035,-3.0830433217328865,-1.0549621984879483,0.045361814472581384,0.004440177607112096,0.11544461778470133,0.08388335533421393,33.66647555359262,-19.30698383667443,-69.41756884519793,-8.007275558437298,-10.541169842598924,-16.673879888031912,1.3248109503618575,13.148336511106546,9.951209903764678,0.28948000000000007,0.27993100000000015,-0.7202099999999999,0.032914,0.01059600000000005,-0.842926,0.25656600000000007,0.2693350000000001,0.12271600000000005,0.0,0.762048135967444,single,-0.7202099999999999
160,1.333333,jog,-1.2188887555501973,-0.6469458778350929,-0.3046921876874971,-0.2113457997958518,0.24930734238790123,1.1978163886617585,-3.3351734069362236,-1.1302052082083263,0.017760710428414605,-0.009480379215161268,0.041761670466819736,0.024120964838593096,-31.452116118961445,20.334426721607286,66.31730527831617,-30.256820497219802,-9.029522347339096,-3.3122649758989913,-1.6705336400183752,-8.842307370440453,-7.171773730423592,0.271845,0.2759039999999999,-0.717523,0.04299200000000003,0.01633499999999999,-0.840186,0.22885299999999997,0.25956899999999994,0.12266299999999997,0.0,0.9180831102921458,single,-0.717523
161,1.341667,jog,-1.4044876409887568,-0.9320854331653642,-0.27393808495321315,0.4808620489485299,1.8059892308457626,2.8243355194302078,-3.533237341012796,-1.2267818574514284,0.028197744180467655,-0.007919366450698677,0.0343172546196321,0.024118070554356084,-22.270084645855896,-34.21400951887169,3.6901971123451593,-23.76577082752294,-11.58827084750468,1.2523438627373709,0.18730654721173753,-0.8932584409872543,-0.00034728632553542927,0.254104,0.2734479999999999,-0.7150049999999999,0.054630999999999985,0.024388999999999994,-0.837702,0.199473,0.24905899999999992,0.12269700000000006,0.0,0.9288571144949591,single,-0.7150049999999999
162,1.35,jog,-1.144125765030573,-0.6469458778350929,-0.25345013800551613,0.06404078819598612,0.6108656197341976,1.3898700137965774,-3.679227169086698,-1.3814952598103643,-0.04764190567622723,-0.006840273610941167,0.035161406456242834,0.030481219248769925,31.244674901977593,34.21811536424652,2.4586519798027906,-17.51948014807386,-18.56635093710946,-9.101122027684335,0.12949632062372393,0.10130227248418561,0.7636083876651543,0.23297899999999994,0.26732699999999987,-0.71329,0.06410799999999994,0.030072999999999794,-0.835336,0.168871,0.23725400000000008,0.12204599999999999,0.0,0.9216096205246311,single,-0.71329
163,1.358333,jog,-1.1988479539181742,-0.6781471258850503,-0.19476779071162184,-0.2959219149442824,1.2641199735119262,1.746927357654255,-3.6645865834633766,-1.3427337093483733,-0.12276491059642451,0.0038401536061481215,0.013320532821336288,0.04968198727949136,-6.566925343525954,-3.7442995379764397,7.042163361801852,1.7569405524206783,4.651572118323687,-9.015121195271567,1.2817025341520925,-2.6210096765758726,2.3041843310598353,0.21243199999999995,0.26178900000000005,-0.71269,0.07413000000000003,0.03583500000000006,-0.833299,0.13830199999999992,0.225954,0.12060899999999997,0.0,0.9140335460387365,single,-0.71269
164,1.366667,jog,-1.202903767698569,-0.7462203023758012,-0.1990640748740045,0.6631653579427023,0.2539466341702313,1.5249079104991758,-3.672666186705032,-1.437724982001448,-0.14314854811614958,0.0005999520038436186,0.03299736021115924,0.027237820974321612,-0.4866587209496925,-8.168127728671745,-0.515512858457237,-0.9694748310121407,-11.398040875098859,-2.445840835100181,-0.38879308882943103,2.361030404346389,-2.69308450985956,0.19184899999999994,0.25602599999999986,-0.7122240000000001,0.08416000000000001,0.04232899999999984,-0.8314130000000001,0.10768899999999992,0.21369700000000003,0.11918899999999999,0.0,0.9286813758401171,single,-0.7122240000000001
165,1.375,jog,-1.2322092883715527,-0.7171486859474422,-0.17364694587784715,0.08325682540753629,0.8899339891643084,1.8639153312423884,-3.8046321852874407,-1.4735389415576672,-0.20796831873275268,-0.0510020400816181,0.012720508820372314,-0.022200888035521345,-3.516803152884198,3.4887335207439394,3.0501774866383737,-15.83655329202089,-4.297847060628774,-7.778683621337296,-6.192486749725452,-2.4333194996744405,-5.932882396477068,0.17041300000000004,0.24972299999999992,-0.71251,0.09400299999999995,0.04841099999999998,-0.830151,0.07641000000000009,0.20131199999999994,0.117641,0.0,0.9048991928603316,single,-0.71251
166,1.383333,jog,-1.1555262210488524,-0.693987759510398,-0.20328813152525965,0.7801542197283483,0.08078018203658663,2.2094708021346534,-3.814352574102993,-1.5250210008400404,-0.2937717508700348,-0.03720148805949997,0.05748229929195974,-0.006240249609984868,9.202336172171014,2.779422349339297,-3.5570845610719752,-1.1664933175989993,-6.178094237654354,-10.296823729423128,1.6561324879537085,5.371629721779412,1.9153532251934025,0.14825700000000008,0.24279800000000007,-0.713264,0.10332200000000014,0.05467299999999997,-0.8285089999999999,0.04493499999999995,0.1881250000000001,0.11524499999999993,0.0,0.8854100770267386,single,-0.713264
167,1.391667,jog,-1.1975041996640163,-0.7126229901607717,-0.1750659947204196,0.7111952643543734,0.2581001710371454,2.3797974080993503,-3.9140868730501372,-1.5207583393328508,-0.3635709143268517,0.03839692824572516,0.014398848092166919,0.08687305015598715,-5.036954477461438,-2.2360487941412894,3.3863855057403227,-11.967158500977128,0.5114784625857508,-8.375229596450243,9.071084269885356,-5.169600575929025,11.172702155744098,0.12561699999999998,0.2360629999999999,-0.714835,0.113622,0.06073200000000001,-0.826326,0.011994999999999978,0.1753309999999999,0.111491,0.0,0.8398908552086584,single,-0.714835
168,1.4,jog,-1.3480139205568271,-0.7742709708388555,-0.07176287051481973,-0.2679306944345979,0.8203371518838384,1.7070668854842652,-3.9913596543861933,-1.7220688827553094,-0.3172926917076721,-0.05688227529102242,0.04368174726989491,0.05868234729389269,-18.061888982696768,-7.398053603514271,12.396870779503276,-9.273104684514195,-24.158231539956862,5.553608858655946,-11.433961782881129,3.514088464865986,-3.3830196642379353,0.10359000000000007,0.22816500000000017,-0.716881,0.12438099999999985,0.06754800000000016,-0.8252390000000001,0.020790999999999782,0.160617,0.10835800000000007,0.0,0.8455538014320227,single,-0.716881
169,1.408333,jog,-1.343333733349315,-0.7191887675506793,0.015720628825151798,0.30663192493620983,0.2880965576456596,1.7458908641577462,-3.972038881555205,-1.718348733949351,-0.4011760470418728,-0.008400336013415484,0.06612264490579126,0.023640945637824595,0.5616449306986793,6.610128799733024,10.498439858390736,2.31858548313791,0.4464357141435647,-10.066405296315763,5.818065435930167,2.6930154369249912,-4.205136404184265,0.08168500000000001,0.2198389999999999,-0.720355,0.1355050000000001,0.07409200000000005,-0.825173,0.05382000000000009,0.14574699999999985,0.10481800000000008,0.0,0.8821292595311119,single,-0.720355
170,1.416667,jog,-1.2822174226062126,-0.8010559155267882,0.0004799616030722434,1.0511968254465422,0.21252381421598723,2.443997122120077,-4.056755459563309,-1.8308135349172407,-0.41300695944325244,-0.013798896088323668,0.02771778257737876,0.05087592992560701,7.333370619522855,-9.82327189538163,-1.8287337679481455,-10.165176146880956,-13.494696540423785,-1.4195959204919424,-0.6477753869580377,-4.608214822223809,3.267936679599584,0.058562,0.21125700000000003,-0.723801,0.14607599999999998,0.08099900000000004,-0.8247530000000001,0.08751399999999998,0.13025799999999998,0.10095200000000004,0.0,0.9007382073888214,single,-0.723801
171,1.425,jog,-1.3601344053761992,-0.7887915516620455,0.021240849633982914,0.9220770826070813,0.09699932693312095,1.8706074276298124,-4.131045241809601,-1.8406336253449638,-0.4662186487459416,-0.01896075843034918,0.03360134405376852,0.04488179527181001,-9.350411948876182,1.4717825350705038,2.4914062199580354,-8.915130474773877,-1.1784579896463285,-6.3856581426482935,-0.6194482589734097,0.7060556193915349,-0.7193249314528857,0.03547200000000006,0.20249200000000012,-0.7278629999999999,0.15725199999999995,0.08785200000000004,-0.824556,0.12177999999999989,0.11464000000000008,0.09669300000000003,0.0,0.9013573195076958,single,-0.7278629999999999
172,1.433333,jog,-1.451098043921769,-0.8316332653306066,0.19968798751950245,0.9699391670970842,0.49867201645040604,1.8774893633164687,-4.068762750510066,-1.9741989679587355,-0.5066602664106615,-0.01680067202685806,0.0032401296051841467,0.036001440057602835,-10.916073268399222,-5.141211288678919,21.41451312678761,7.474197923861223,-16.028482252942872,-4.853188247296328,0.2592207372484268,-3.6434914734890977,-1.065685253114995,0.013658999999999977,0.192971,-0.733749,0.16920400000000013,0.09480899999999992,-0.82592,0.15554500000000016,0.09816200000000008,0.092171,0.0,0.9335657236512487,single,-0.733749
173,1.441667,jog,-1.510799136069105,-0.8104151667866687,0.13402927765779052,1.266534906805796,-0.7002045211769388,0.9375690792305782,-4.108351331893406,-2.022318214542839,-0.47012239020878027,-0.022558195344381516,0.0023998080153478313,0.05279577633789291,-7.163557973042421,2.5459681478206977,-7.878414910212555,-4.750249746021066,-5.773847682277779,4.384194408673023,-0.6908475303003854,-0.10083052433841001,2.0151591409035214,-0.007988999999999913,0.182871,-0.738784,0.18160700000000007,0.10158299999999998,-0.826597,0.189596,0.08128800000000003,0.08781300000000003,0.0,0.9042279144295251,single,-0.738784
174,1.45,jog,-1.4978999159966528,-0.8575543021720797,0.3079323172926894,1.0711362411505454,-0.2698546914596139,0.8990352502601734,-4.013680547221936,-2.0652826113044647,-0.5253810152406135,-0.026881075243010203,0.003720148805965985,0.08904356174247047,1.5479683274273819,-5.6569225231503015,20.869199524169023,11.360948598520425,-5.155933848749091,-6.631300255830285,-0.5187663384889868,0.1584472327634904,4.349908244879142,-0.028953000000000007,0.17280699999999993,-0.745728,0.19386500000000007,0.10875999999999997,-0.828421,0.22281800000000007,0.06404699999999997,0.08269300000000002,0.0,0.8448550176166387,single,-0.745728
175,1.458333,jog,-1.533661346453833,-0.8719548781951252,0.37213488539541173,0.9015372889571489,0.07116262394535619,0.7098973956527943,-4.093123724948916,-2.178927157086243,-0.47845913836552845,-0.01032041281651614,-0.008640345613833042,0.14352574102963817,-4.291543316594195,-1.7281382482953558,7.704616356980826,-9.533562669744244,-13.637891009453535,5.630850459028474,1.9873589855386742,-1.4833186631223823,6.538123039381585,-0.05028099999999991,0.16191600000000006,-0.752816,0.20655900000000005,0.115954,-0.830326,0.25683999999999996,0.04596200000000006,0.07750999999999997,0.0,0.7597408526938709,single,-0.752816
176,1.466667,jog,-1.6781857451404139,-1.0027597792176755,0.61675065994722,0.7707195473163109,2.0008584183331486,1.1857464416910757,-4.078353731701547,-2.2858171346292746,-0.46388288936885697,-0.017878569714417755,-0.03623710103192107,0.16990640748740432,-17.341540519148513,-15.695332496106642,29.35154482263174,1.7722574090915926,-12.825771243464564,1.7490099588039068,-0.9069062752461913,-3.3113457425112256,3.1654267407927352,-0.07028400000000001,0.151223,-0.761822,0.22039600000000004,0.12400899999999992,-0.8340500000000001,0.29068000000000005,0.02721400000000007,0.07222800000000007,0.0,0.7089246086038741,single,-0.761822
177,1.475,jog,-1.7038281531261006,-0.9584783391335445,0.47581903276130166,0.7938286398015708,0.19592748842421875,0.39979718649661194,-3.9965198607943586,-2.2685707428296773,-0.5151806072242823,-0.05232209288372679,-0.05400216008638324,0.19584783391335245,-3.0772120467642248,5.313985369510399,-16.912471761180353,9.82045732715555,2.069649801943718,-6.155972381546191,-4.133388115841645,-2.1318923622299124,3.1130956949415185,-0.08938899999999994,0.14030599999999993,-0.7700800000000001,0.23415799999999998,0.13154600000000005,-0.8363830000000001,0.3235469999999999,0.008759999999999879,0.066303,0.0,0.6503564960552249,single,-0.7700800000000001
178,1.483333,jog,-1.906636265450637,-0.9912396495859979,0.6927877115084567,0.8964958765062415,1.0505253660860518,0.7420516779135631,-4.077403096123886,-2.299411976479078,-0.5117004680187243,-0.07716308652345555,-0.0814832593303855,0.2820112804512212,-24.337946996824467,-3.931514514875032,26.03728294097649,-9.706376494603168,-3.701096081771405,0.41763341000336496,-2.981038478306611,-3.2978638238332545,10.34002718563177,-0.10747799999999996,0.129405,-0.780117,0.24940300000000004,0.139127,-0.8398059999999999,0.356881,0.009722000000000008,0.05968899999999999,0.0,0.5,flight,-0.780117
179,1.491667,jog,-1.757739380849508,-0.9648428125749824,0.6840652747780206,1.1284137875312514,0.378210883588743,0.3160456417970488,-3.9898008159346983,-2.4029277657787045,-0.5059995200383929,-0.1142308615310843,-0.07823374130070698,0.37449004079673326,17.866196856386825,3.167367051957676,-1.046608678958014,10.51143270808581,-12.420901043871558,0.6840590329171274,-4.447777178741117,0.3899109706837643,11.096563516380051,-0.12608000000000008,0.11742000000000008,-0.790035,0.2630999999999999,0.14651599999999987,-0.8423860000000001,0.38917999999999997,0.02909599999999979,0.052351000000000036,0.0,0.5,flight,-0.790035
180,1.5,jog,-1.7801512060482598,-0.9713188527541246,0.6186247449898077,0.9899881437070686,1.3517628292505002,0.41703397005966664,-3.981999279971227,-2.4441377655106455,-0.4124564982599353,-0.14316572662906643,-0.1196447857914225,0.47269890795632236,-2.689526604914429,-0.7771559077333758,-7.853177701693689,0.9362217644871209,-4.945397783744323,11.225611637880528,-3.4723227046660736,-4.969524119850702,11.785535480570022,-0.144428,0.1051470000000001,-0.7986270000000001,0.2767409999999999,0.153613,-0.8436020000000001,0.4211689999999999,0.0484659999999999,0.04497499999999999,0.05025000000000002,0.5,flight,-0.7986270000000001
181,1.508333,jog,-1.8147125885035529,-0.9959198367934743,0.7245889835593475,1.1535390832656642,0.684064205207633,0.39311756701426404,-3.8846753870155206,-2.500300012000522,-0.4614184567382739,-0.29053162126485405,-0.16128645145806123,0.6084243369734851,-4.147531795907041,-2.9522361741689624,12.71621727703598,11.679334328058014,-6.739739168351982,-5.875670044202456,-17.68461474088431,-4.9971997679874125,16.287702990179284,-0.16167700000000007,0.09261099999999989,-0.8085100000000001,0.28944199999999987,0.16056799999999993,-0.84457,0.45111899999999994,0.06795700000000005,0.03605999999999998,0.13940000000000008,0.5,flight,-0.8085100000000001
182,1.516667,jog,-1.844132469402443,-0.9997600191984573,0.7491000719942346,0.46303720880414756,0.28858150861944454,-0.05752378795623888,-3.879889608831264,-2.5581953443724315,-0.45356371490280334,-0.2079433645308341,-0.17458603311734738,0.5621550275977872,-3.5301032996028217,-0.4607850257958882,2.941095324560456,0.5742474423154058,-6.946884133898358,0.9424936207668011,9.909798024240379,-1.5958221333436593,-5.551872975245679,-0.178643,0.07962299999999989,-0.8185330000000001,0.30307799999999996,0.16744499999999995,-0.846128,0.48172099999999995,0.08782200000000007,0.027594999999999925,0.22404999999999992,0.5,flight,-0.8185330000000001
183,1.525,jog,-1.8397935917436845,-1.0097203888155657,0.7194287771510893,0.824549897904617,-0.026104417984509312,0.014532496171216677,-3.8474738989559873,-2.613584543381745,-0.42181687267491136,-0.29857194287769667,-0.23592943717747872,0.6092643705748283,0.5206861464968859,-1.1952921657396538,-3.5606978090898243,3.8900407866646995,-6.646969759908063,3.8097734582854037,-10.875864436201057,-7.361502947333721,5.653347291136624,-0.19537299999999996,0.06625800000000004,-0.828043,0.3159210000000001,0.17389300000000008,-0.847046,0.5112940000000001,0.10763500000000004,0.019002999999999992,0.30996999999999997,0.5,flight,-0.828043
