frame_id,timestamp,gait_type,root_linear_velocity_x,root_linear_velocity_y,root_linear_velocity_z,root_angular_velocity_x,root_angular_velocity_y,root_angular_velocity_z,left_linear_velocity_x,left_linear_velocity_y,left_linear_velocity_z,right_linear_velocity_x,right_linear_velocity_y,right_linear_velocity_z,root_acceleration_x,root_acceleration_y,root_acceleration_z,left_acceleration_x,left_acceleration_y,left_acceleration_z,right_acceleration_x,right_acceleration_y,right_acceleration_z,left_pos_rel_x,left_pos_rel_y,left_pos_rel_z,right_pos_rel_x,right_pos_rel_y,right_pos_rel_z,step_length,step_width,step_height,left_contact_prob,right_contact_prob,support_type,max_foot_height
1,0.008333,jog,-0.049081963278516945,0.1323652946117803,-0.011880475219003988,-0.03472247053746216,-0.0903060820761063,-0.008176189625933335,0.0012000480019279385,-0.011040441617662424,0.029641185647425978,0.0012000480019279385,0.0028801152046110646,0.003600144005760084,0.0,0.0,0.0,0.0,0.0,0.0,0.0,0.0,0.0,0.0842639999999999,0.05990400000000007,-0.902687,-0.12115600000000004,-0.07511499999999993,-0.9080680000000001,0.20541999999999994,0.135019,0.00538100000000008,0.8934345012632934,0.9920599090998463,double,-0.902687
2,0.016667,jog,-0.056155507559411434,0.1457883369330546,-0.0014398848092167025,-0.031369979941225035,-0.18605933450585632,-0.0300863993034009,0.026157907367416782,-0.008879289656829673,0.03959683225341977,0.0027597792176486946,0.0029997600191914724,0.005279577633789164,-0.8487574131142894,1.6106362276547044,1.252770627524272,2.9947035475748547,0.25931748990073816,1.1945820261571622,0.18715277366459754,0.014356229251308831,0.20151591409036237,0.08495000000000008,0.05861499999999997,-0.9023450000000001,-0.12066500000000002,-0.07630500000000007,-0.908012,0.2056150000000001,0.13492000000000004,0.005666999999999978,0.8628628392179334,0.9888833356454135,double,-0.9023450000000001
3,0.025,jog,-0.05280211208448289,0.15264610584422655,-0.023520940837643705,0.17616426508594013,0.09898996891253974,-0.017418551090185135,0.006240249609977317,-0.011160446417857883,0.035161406456258024,0.004920196807867243,0.002160086403451637,0.0042001680067203055,0.4024235539335825,0.8229651879481528,-2.649832716719909,-2.3902145394743144,-0.27374976131383777,-0.5322723865548717,0.25926048124547557,-0.10076486448335958,-0.1295343366217279,0.08544200000000002,0.05725000000000002,-0.901856,-0.12018400000000007,-0.07755900000000004,-0.907781,0.2056260000000001,0.13480900000000007,0.005924999999999958,0.8783930351519289,0.9886329275264032,double,-0.901856
4,0.033333,jog,-0.04404176167046756,0.14400576023040668,-0.010560422416893913,-0.24060194294388973,-0.11418070887875388,-0.14372627658157228,0.009720388815552351,-0.011640465618626394,0.03276131045241838,0.0038401536061480864,0.0014400576023055323,0.0034801392055683724,1.0512841010458813,-1.0368829489763443,1.5553244234669137,0.4176334100054044,-0.057604608276552394,-0.28802304138241225,-0.12961036862104358,-0.08640691241402912,-0.08640691241472856,0.08589000000000002,0.05595300000000003,-0.9014949999999999,-0.11978500000000003,-0.07874700000000001,-0.907664,0.20567500000000005,0.13470000000000004,0.006169000000000091,0.8781414898457933,0.9910352674782879,double,-0.9014949999999999
5,0.041667,jog,-0.05771538276937289,0.15682745380370267,-0.0179985601151888,0.13851847056804523,0.06284676362587899,-0.05286359468413885,0.008399328053757437,-0.012598992080636157,0.0329973602111828,0.0041996640268787185,-0.0013198944084453137,0.004079673626109828,-1.6407032756065902,1.5384801503834877,-0.8925051233855154,-0.15851461024656996,-0.11501397432322572,0.02832370515531731,0.043137799463718755,-0.33116774787027187,0.07193837539494305,0.08644099999999999,0.05454099999999995,-0.90107,-0.11926900000000007,-0.08006500000000005,-0.90748,0.20571000000000006,0.134606,0.006409999999999916,0.8753903796879942,0.9899968010555955,double,-0.90107
6,0.05,jog,-0.05700228009120403,0.16356654266170684,-0.02964118564742556,0.08590889875158253,0.09196894013385676,-0.07495139101349775,0.014400576023028676,-0.014760590423615052,0.024480979239169903,0.004560182407294191,-0.0004800192007685108,0.0028801152046081502,0.08557574441003896,0.8087230118809758,-1.3971709507064396,0.7201785634550869,-0.2594021772445571,-1.0220065969054235,0.043263936207304975,0.10078905648347568,-0.14395276869094895,0.08703599999999989,0.05305499999999996,-0.900619,-0.11875600000000008,-0.08143200000000006,-0.907209,0.20579199999999997,0.13448700000000002,0.006590000000000096,0.8807518259200984,0.9909752276709669,double,-0.900619
7,0.058333,jog,-0.055202208088312124,0.17808712348493097,-0.02940117604704797,-0.005571022181554858,-0.00027730376702700334,-0.07627430864537464,0.009720388815552351,-0.01332053282130952,0.021960878435136885,0.006120244809795182,-0.0003600144005730523,0.004080163206528178,0.2160172810382706,1.7425394003629104,0.02880230413747639,-0.5616449306943867,0.172813824829657,-0.30242419345170024,0.1872149768991949,0.014401152069537801,0.14401152069123094,0.0875769999999998,0.05146000000000006,-0.900191,-0.11824500000000016,-0.08291899999999996,-0.9069299999999999,0.20582199999999995,0.13437900000000003,0.0067389999999999395,0.8868387470429808,0.9877259602443532,double,-0.900191
8,0.066667,jog,-0.06707463402930143,0.1846652267818656,-0.012479001679864767,-0.10303002428237881,-0.05490313325905913,-0.0344292866056586,0.008519318454542148,-0.008039356851456592,0.017998560115191298,0.0074394048476129696,-0.0013198944084453137,0.004439644828414004,-1.4245771467469768,0.7893092508920826,2.0304984841832496,-0.14411691396810689,0.6336904211486594,-0.47544016318041593,0.15828654161480532,-0.11517638683372465,0.0431343438787888,0.08820700000000015,0.049853999999999954,-0.899937,-0.11762399999999995,-0.08446900000000002,-0.906789,0.2058310000000001,0.13432299999999997,0.006851999999999969,0.8956890090581784,0.9853943207451314,double,-0.899937
9,0.075,jog,-0.06252250090003529,0.18180727229088375,-0.016320652826102733,-0.024746409892839872,0.06406434297303906,-0.06608547593716357,0.009000360014406253,-0.007440297611905262,0.01704068162726466,0.010920436817480299,-0.01812072482899464,-0.005280211208448626,0.5462778266250021,-0.34296825764812633,-0.46101657821168474,0.057727296275543606,0.07188998434553348,-0.11495001655185884,0.41774054600592014,-2.016180297677828,-1.1664293815987805,0.08880300000000019,0.048277000000000014,-0.899659,-0.1170119999999999,-0.08613499999999996,-0.9066970000000001,0.20581500000000008,0.13441199999999998,0.0070380000000001,0.8951901462203204,0.9636568347011379,double,-0.899659
10,0.083333,jog,-0.07368294731787974,0.20376815072603946,-0.012240489619590353,-0.11359634359389355,-0.060168020590235925,0.03978697382010077,0.008280331213233488,-0.008280331213246811,0.014640585623425411,0.004920196807867239,-0.028441137645510924,-0.01440057602304074,-1.3393071424270293,2.6354108286518287,0.48963917034829907,-0.08640691241722837,-0.10080806448356515,-0.28802304138236473,-0.7200576034577049,-1.2384990779450706,-1.0944875572533428,0.08948599999999995,0.04650999999999994,-0.899435,-0.11635700000000004,-0.08807000000000009,-0.9067149999999999,0.205843,0.13458000000000003,0.007279999999999953,0.895953910582515,0.9462391293423051,double,-0.899435
11,0.091667,jog,-0.06947444204464934,0.19702423806094582,-0.03491720662347509,0.05173635824989747,0.1630363877678475,-0.02346168178612558,0.0,-0.003839692824577877,0.0278377729781613,0.005279577633781259,-0.03359731221501646,-0.023998080153587585,0.5049802343688986,-0.8092047834285628,-2.720988361397259,-0.9935602607671579,0.5328339799218788,1.5835357997043313,0.043122249329736025,-0.6186914530244227,-1.1516083669962627,0.09006500000000006,0.04483599999999999,-0.8989119999999999,-0.115734,-0.08999199999999996,-0.906624,0.20579900000000007,0.13482799999999995,0.007712000000000052,0.8760444471056572,0.930626590526292,double,-0.8989119999999999
12,0.1,jog,-0.07284291371652486,0.2098883955358213,-0.026401056042241425,-0.15292099255662236,-0.0159654991563355,0.02895585573111989,0.004080163206539,-0.009720388815552343,0.01128045121804917,-0.0030001200047931973,-0.013800552022078019,0.0043201728069120135,-0.4042327699358601,1.5437606474109535,1.0219789489059952,0.4896391703514936,-0.7057117473868307,-1.9869580895370353,-0.9936034607673646,2.375706251402667,3.3983262883114813,0.09070599999999995,0.04300599999999999,-0.898598,-0.11515200000000014,-0.09185599999999994,-0.906368,0.2058580000000001,0.13486199999999993,0.007769999999999944,0.8965672781700302,0.9753851981501405,double,-0.898598
13,0.108333,jog,-0.0823232929317397,0.2163686547461899,-0.02076083043321479,-0.17700041275174042,-0.060625475070206374,-0.00018650353931591048,0.0025201008040380145,-0.008280331213246825,0.0066002640105603675,-0.0052802112084403,-0.016200648025920597,0.004680187207488404,-1.1376910134663207,0.7776622117327019,0.6768541472490865,-0.18721497689919436,0.17281382482965546,-0.5616449306958845,-0.27362188931322506,-0.2880230413827649,0.04320345620741516,0.09141300000000019,0.041134000000000004,-0.89837,-0.11450999999999989,-0.09379399999999993,-0.906156,0.20592300000000008,0.13492799999999994,0.00778599999999996,0.9039987120639226,0.9705492039740368,double,-0.89837
14,0.116667,jog,-0.0879529637628836,0.23758099352051595,-0.03119750419965523,0.07690607648938115,0.10398250227851465,0.10751504451779204,0.0021598272138050696,-0.008879289656829664,0.005159587233021518,-0.006599472042253206,-0.01607871370291317,0.0034797216222703644,-0.6755064592205289,2.5452770307566626,-1.252300667919418,-0.043229372478155094,-0.0718692636888455,-0.17286738391394865,-0.15829863616665524,0.014630948285028422,-0.1440443466784303,0.09216399999999991,0.039080000000000004,-0.8980670000000001,-0.11383200000000016,-0.095908,-0.9058670000000001,0.20599600000000007,0.134988,0.007800000000000029,0.9045096869017817,0.970457820731047,double,-0.8980670000000001
15,0.125,jog,-0.0858034321372881,0.22800912036481633,-0.02760110404416941,-0.18715334147037394,-0.11528587103632126,0.06116651727532668,0.0004800192007818344,-0.009240369614783847,-0.0003600144005763834,-0.007560302412087397,-0.017520700828030672,0.003960158406336053,0.25795411323598993,-1.1486707255129769,0.43158528206958174,-0.20158502496378694,-0.04333132820763033,-0.6623786911793959,-0.11530425655036505,-0.17304537682917354,0.05765472027669379,0.09288300000000005,0.037103,-0.89784,-0.11318000000000006,-0.09795399999999999,-0.905604,0.2060630000000001,0.13505699999999998,0.007763999999999993,0.9069269492988836,0.967518552959213,double,-0.89784
16,0.133333,jog,-0.09012360494419124,0.23100924036962245,-0.042481699267966536,-0.07137324158665376,0.050316418246620594,-0.011408448916074752,0.00048001920075518715,-0.006120244809781853,-0.004200168006720302,-0.0015600624025009894,-0.013200528021114051,0.004440177607104141,-0.5184414744873557,0.3600288017288036,-1.7857428565699165,-3.197797905292882e-12,0.3744299537983909,-0.46083686621191833,0.7200576034545065,0.5184414744889736,0.05760460827650155,0.09363799999999989,0.03512700000000002,-0.897521,-0.11244200000000015,-0.099989,-0.905213,0.20608000000000004,0.135116,0.007692000000000032,0.9106827303353798,0.9766426961269461,double,-0.897521
17,0.141667,jog,-0.07079433645309477,0.23146148308134906,-0.038396928245738864,-0.03836566254556043,-0.023022553273807377,0.21691686482155353,-0.0014398848092033846,-0.006599472042239906,-0.007559395248380214,0.004799616030722354,-0.006359491240710449,0.004919606431485833,2.3193266727977577,0.05426478422445581,0.4901333120023616,-0.23037005159090188,-0.057502667681552,-0.4030750229973506,0.7631003639576863,0.8208587449488383,0.05752685677726098,0.09421600000000008,0.033143000000000034,-0.8972640000000001,-0.11181200000000002,-0.10197100000000003,-0.904852,0.2060280000000001,0.13511400000000007,0.007587999999999928,0.9072240146105228,0.984393558103235,double,-0.8972640000000001
18,0.15,jog,-0.09168366734669221,0.24744989799592063,-0.030961238449535612,-0.19370126005593266,0.014145618567191686,0.220629175726153,-0.0001200048002087816,-0.011040441617662416,-0.01248049921996878,0.010680427217089363,0.003000120004806521,0.006600264010560356,-2.5068199800308926,1.9186865372100743,0.8923184682831208,0.1583919367568225,-0.532937666557363,-0.5905560988345808,0.705725571386896,1.1231982773931313,0.20168697696802132,0.09497899999999992,0.030989000000000044,-0.8971100000000001,-0.11095900000000003,-0.10400799999999999,-0.9045390000000001,0.20593799999999995,0.13499700000000003,0.007429000000000019,0.8979376809952424,0.9784854228621176,double,-0.8971100000000001
19,0.158333,jog,-0.0847233889355688,0.24204968198728488,-0.04380175207008993,-0.3656590603075597,-0.09463395432977896,0.08640221637486438,0.004800192007685103,-0.013680547221895885,-0.020760830433217255,0.01344053762151829,0.009600384015356884,0.005520220808832041,0.8352668200076092,-0.6480518431100132,-1.540923271397373,0.5904472348366592,-0.3168253455218369,-0.9936794927695269,0.3312264975913747,0.7920633638005949,-0.12961036862214265,0.09572500000000006,0.02885799999999994,-0.896918,-0.11014099999999982,-0.10594500000000007,-0.904128,0.20586599999999988,0.134803,0.00721000000000005,0.8856964161646205,0.9709747110945552,double,-0.896918
20,0.166667,jog,-0.10631149508038655,0.2470602351811759,-0.03599712023037757,0.0031412792740221442,-0.09611193427309302,0.265267426216487,-0.003119750419949537,-0.01307895368370838,-0.031917446604271905,0.01619870410367124,0.019078473722104642,0.00659947204223697,-2.590365508137477,0.6012182858040569,0.9364809022932991,-0.9503170659508798,0.07218544974652072,-1.3386868455789105,0.3309535015782273,1.1372797824271357,0.1294997880255494,0.09658500000000014,0.02668999999999999,-0.896884,-0.10911999999999988,-0.10784499999999997,-0.903773,0.20570500000000003,0.13453499999999996,0.006889000000000034,0.873386635053234,0.9568613602748972,double,-0.896884
21,0.175,jog,-0.27745109804390683,0.3378135125405039,0.015720628825152114,-0.19758584736182133,-0.806947804188523,1.335710129524255,-0.004080163206539014,-0.009600384015356917,-0.04236169446777872,0.008880355214197487,0.024000960038398952,0.008880355214208312,-20.537573858576827,10.890828916276039,6.20637814178925,-0.11525414455651974,0.4174450580044968,-1.2533598780159412,-0.8782369962167011,0.5907219868347922,0.27371692931373426,0.09886299999999992,0.02379500000000001,-0.897368,-0.1067340000000001,-0.11046,-0.90383,0.20559700000000003,0.134255,0.006461999999999968,0.8626680824528944,0.9548530947219812,double,-0.897368
22,0.183333,jog,-0.087723508940362,0.23004920196808543,-0.07800312012480966,-0.2874916824669478,0.03474862238084562,0.17084947705643458,-0.01344053762151829,-0.015600624024956603,-0.03708148325932995,0.003480139205575031,0.0332413296531827,0.013440537621504968,22.76822142128221,-12.93223455807253,-11.247299765986043,-1.123289861391968,-0.7200576034560999,0.633650691041493,-0.6480518431084186,1.108888709322422,0.5472437786267433,0.09948199999999985,0.02174799999999999,-0.897027,-0.10597400000000001,-0.11210000000000009,-0.903068,0.20545599999999986,0.13384800000000008,0.006040999999999963,0.8688977105761355,0.9399596104101388,double,-0.897027
23,0.191667,jog,-0.1003119750420036,0.20746340292776325,-0.0687544996400209,-0.17725716091483365,-0.10728640965527958,0.2874898778818569,-0.005399568034539317,-0.01307895368370838,-0.04523638108951308,-0.0009599232061444676,0.04955603551715818,0.023638108951283786,-1.510495092589584,-2.710079078512378,1.109745678520369,0.9648391633044117,0.3025762348509983,-0.9785094588652649,-0.532764868216882,1.9576080950294534,1.2236106707197993,0.10027300000000006,0.019909999999999983,-0.896831,-0.10514599999999996,-0.11341600000000007,-0.902298,0.20541900000000002,0.13332600000000006,0.005467,0.866333788091948,0.9084776544660585,double,-0.896831
24,0.2,jog,-0.11232449297972484,0.2185287411496412,-0.08676347053882498,-0.39627237023097106,-0.23397195815615124,0.33159988653116707,0.004080163206512354,-0.008760350414015322,-0.0388815552622102,-0.007560302412087385,0.05532221288852086,0.02556102244089778,-1.4415598149191438,1.3278937023734467,-2.1611629543746633,1.1376132534563377,0.5182531224880661,0.7626096036604906,-0.7920771878006614,0.6919689633220532,0.23075884910764333,0.10124299999999997,0.018016000000000032,-0.896432,-0.10427299999999984,-0.11477599999999999,-0.901362,0.2055159999999998,0.13279200000000002,0.00492999999999999,0.8839257782029534,0.8976515852634693,double,-0.896432
25,0.208333,jog,-0.1128045121804804,0.21720868834753185,-0.09612384495380459,-0.22650967683254197,-0.2926877099222152,0.2873673043186527,0.011520460818444288,-0.000960038401537024,-0.03636145445817856,-0.011280451218053369,0.07740309612384595,0.04224168966758659,-0.05760460827499872,-0.15841267276003151,-1.1232898613920117,0.8928714282889659,0.9360748844927778,0.3024241934515361,-0.446435714144485,2.6498119807182468,2.0017601376081666,0.10227900000000001,0.016198000000000046,-0.895934,-0.10342699999999994,-0.11594099999999996,-0.9002089999999999,0.20570599999999994,0.132139,0.004274999999999918,0.8936584635803559,0.8518367246806106,double,-0.895934
26,0.216667,jog,-0.11999040076795188,0.24538036957044307,-0.10655147588192933,-0.17919508519807517,-0.29142327085247716,0.4536139229352268,0.048716102711771785,0.02471802255820006,-0.026517878569714274,0.025677945764331203,0.101751859851207,0.09959203263738901,-0.8622376514844575,3.380331320243724,-1.2512156141258373,4.463119977601087,3.0811208255024067,1.1811346158464453,4.434652865656892,2.921617917849894,6.881490637125315,0.10368500000000003,0.01435900000000001,-0.8952669999999999,-0.10221299999999989,-0.11713800000000008,-0.8984909999999999,0.20589799999999991,0.13149700000000009,0.0032240000000000046,0.8665528803222254,0.7588720323222636,double,-0.8952669999999999
27,0.225,jog,-0.12168486739467749,0.18816752670106954,-0.12672506900275352,0.11422800329051412,0.045105657489959976,0.4039089770225843,0.03552142085684312,0.016080643225725114,-0.03576143045721822,-0.01872074882995858,0.10212408496340399,0.08544341773670949,-0.2033441289722316,-6.8658157769558965,-2.4209280116193654,-1.5834251595978222,-1.0365269809762314,-1.1092705973243653,-5.328056473573713,0.044668800215647585,-1.697901704149707,0.10499499999999995,0.012924999999999964,-0.894509,-0.10135500000000008,-0.11785500000000004,-0.896723,0.20635000000000003,0.13078,0.0022140000000000493,0.889680285549773,0.7758945387094083,double,-0.894509
28,0.233333,jog,-0.17244689787593082,0.21024840993639438,-0.07644305772230867,0.0025353025552874776,-0.20542159106443159,0.6155085660158968,0.027481099243973902,0.012480499219967946,-0.04188167526701089,-0.02424096963878979,0.1182047281891291,0.09708388335533422,-6.091687325243404,2.6498119807182072,6.034082716962056,-0.9648771886318509,-0.4320345620733428,-0.7344587555253413,-0.6624529951795518,1.9297543772621022,1.3969117507049937,0.10666100000000012,0.011276999999999981,-0.894221,-0.10011999999999999,-0.118622,-0.895277,0.2067810000000001,0.129899,0.0010559999999999459,0.9033998220531033,0.7418803960335508,double,-0.894221
29,0.241667,jog,-0.1761459083273372,0.22402207823373607,-0.0867530597552233,-0.18802412698193582,-0.5133969361799907,0.579410866873529,0.03191744660425703,0.015718742500599056,-0.02987760979121668,-0.028077753779679145,0.12179025677945651,0.1216702663786897,-0.4438457465090468,1.652707979042684,-1.2371012758476905,0.5323190977061599,0.388558109027012,1.4403726272851263,-0.46037726672538565,0.43022901251828954,2.950129952406473,0.10839500000000002,0.009541000000000022,-0.893747,-0.09888599999999981,-0.11947399999999997,-0.89354,0.20728099999999983,0.129015,0.00020699999999995722,0.9225677028629392,0.7072178446126767,double,-0.89354
30,0.25,jog,-0.19560782431294815,0.2066482659306372,-0.06660266410656086,0.004370390362663476,-0.2802087546132572,0.5643147985557906,0.03564142565702526,0.016080643225725114,-0.023400936037441564,-0.0063602544101860935,0.13512540501619577,0.1729269170766831,-2.33552333920688,-2.0849408740068225,2.418144203607634,0.446895362146673,0.043429824208095276,0.7772319397306022,2.606204172506064,1.6002817996806968,6.151044125524222,0.11032199999999981,0.007952999999999988,-0.893387,-0.09730900000000009,-0.12007000000000001,-0.891544,0.2076309999999999,0.128023,0.001843000000000039,0.9240522453545503,0.6156501295722151,double,-0.891544
31,0.258333,jog,-0.17220688827554045,0.23604944197768593,-0.09744389775591467,-0.08189807817529711,-0.021954854249674725,0.45284567130638964,0.03348133925358705,0.010320412816516345,-0.025441017640705738,0.028441137645511018,0.15924636985480395,0.2170886835473422,2.8082246534750697,3.5282822569361336,-3.701096081765736,-0.25922073724207495,-0.6912552993170267,-0.2448195851751085,4.176334100047666,2.8946315658956245,5.299623961437565,0.11203600000000002,0.006071999999999966,-0.892787,-0.09563699999999997,-0.12070999999999998,-0.888923,0.207673,0.12678199999999995,0.0038639999999999786,0.9278359050205751,0.5101400451774531,double,-0.888923
32,0.266667,jog,-0.19402447804175402,0.21946244300455578,-0.06155507559395071,-0.020970094594790087,-0.2150303544775867,0.4795329780402347,0.028077753779705696,0.00839932805375743,-0.020518358531317178,0.06047516198704817,0.18598512119029745,0.26013918886489096,-2.617901339838438,-1.9902806543232703,4.306314154303326,-0.6483783865948346,-0.23051173059262217,0.5906718393794763,3.8437754189509388,3.208393488780114,5.16564738631494,0.11388700000000007,0.004313000000000011,-0.892445,-0.09351599999999993,-0.12098900000000001,-0.886242,0.207403,0.12530200000000002,0.00620300000000007,0.9403735702270636,0.43796999999999997,single,-0.886242
33,0.275,jog,-0.20868834753389268,0.238209528381136,-0.04236169446778426,0.13248684899404373,-0.15464070821506676,0.5439064231287482,0.02700108004319198,0.0009600384015370176,-0.013200528021121085,0.0667226689067561,0.2167286691467619,0.28429137165486457,-1.7597347284457696,2.2497402347990074,2.3032978670546465,-0.12920601662231013,-0.8927504682851771,0.8781747882150561,0.7497308195977321,3.689373329708906,2.8983778699116174,0.11585099999999993,0.0023360000000000047,-0.8922019999999999,-0.091221,-0.12116800000000005,-0.88352,0.20707199999999992,0.12350400000000006,0.008681999999999968,0.9498825286266885,0.41318,single,-0.88352
34,0.283333,jog,-0.19620784831393942,0.24228969158766328,-0.0754830193207719,0.7552197501719359,0.4169109082524653,0.32615195377330664,0.028081123244937965,0.003120124804988666,-0.015120604824192722,0.06276251050039967,0.23496939877595346,0.3446537861514469,1.497719815187002,0.48963917035009036,-3.974717971077369,0.12961036862426334,0.2592207372436882,-0.23041843310592122,-0.47523801828350365,2.188975114507574,7.243779490769525,0.11772000000000005,0.0003429999999999822,-0.8916989999999999,-0.08906300000000011,-0.12122900000000003,-0.880019,0.20678300000000016,0.12157200000000001,0.011679999999999913,0.9465907479991242,0.38320000000000004,single,-0.880019
35,0.291667,jog,-0.2129829613631006,0.2572594192464642,-0.04355651547876192,0.252383927852706,0.3958170456369673,0.3975683063390168,0.032997360211159454,-0.0010799136069158564,-0.013798896088312983,0.07595392368611772,0.35229181665467324,0.37772978161747084,-2.0128525376963244,1.7962236211664184,3.830873991121903,0.5899012438470703,-0.5039642922851594,0.15859236091669515,1.5828429548497767,14.077563940331133,3.968801951766731,0.11976999999999993,-0.0018100000000000893,-0.891451,-0.08665499999999993,-0.12043700000000002,-0.876508,0.20642499999999986,0.11862699999999993,0.01494300000000004,0.9403621688029534,0.35057,single,-0.876508
36,0.3,jog,-0.18480739229567728,0.28681147245889943,-0.09168366734669252,0.6725425562074783,0.23629234089664602,0.1824738735277521,0.022560902436106738,-0.00036001440057305316,-0.009960398415936631,0.08784351374054443,0.3939757590303532,0.3994959798391944,3.381203536232257,3.546388241021874,-5.7754892437214345,-1.2524250300075292,0.08639136041555323,0.46063814621101185,1.426807878846362,5.002273176008648,2.612048268537573,0.12149799999999988,-0.004203000000000068,-0.89077,-0.0843830000000001,-0.1195440000000001,-0.8724149999999999,0.20588099999999998,0.11534100000000003,0.01835500000000001,0.9588926383416296,0.31645,single,-0.8724149999999999
37,0.308333,jog,-0.1952478099124011,0.3081723268930629,-0.09504380175207147,0.6709881013806684,0.22147728861814545,0.2989302104958031,0.026161046441863744,-0.004320172806903256,-0.008760350414016542,0.07224288971558729,0.4659786391455736,0.41785671426856885,-1.2529002300160537,2.5634050683023375,-0.40323225793579015,0.4320345620733218,-0.4752380182803535,0.1440115206912378,-1.8721497689856086,8.640691241476068,2.20337626657559,0.12334299999999998,-0.0068069999999998965,-0.8900509999999999,-0.08215400000000006,-0.11822899999999992,-0.8681409999999999,0.20549700000000004,0.11142200000000002,0.021909999999999985,0.9534582629546573,0.28090000000000004,single,-0.8681409999999999
38,0.316667,jog,-0.2361411087113008,0.24886009119270844,-0.05495560355171119,0.15147853170307862,-0.005828115011971554,0.2914083978270366,0.016678665706730263,-0.004439644828421523,-0.012838972882169434,0.06527477801777094,0.5605951523878133,0.4233261339092901,-4.906803311603066,-7.116898932128006,4.810198968125811,-1.1377946646428527,-0.01433549574253272,-0.48939554453478706,-0.8361065152167488,11.353073343201377,0.6562778546581786,0.12544999999999984,-0.008917999999999981,-0.8897,-0.07964199999999999,-0.11563099999999993,-0.864155,0.20509199999999983,0.10671299999999995,0.02554500000000004,0.9641481613431182,0.24455,single,-0.864155
39,0.325,jog,-0.24600984039362758,0.27901116044641927,-0.03456138245529266,0.8621017744416989,0.5607877206999707,0.47235911258897845,0.01284051362055428,0.0,-0.01908076323052949,0.026761070442801065,0.6555862234489347,0.45829833193327496,-1.184295173686155,3.6182730413669395,2.4474044277473235,-0.4605966742080845,0.5327786905582028,-0.7490448035953473,-4.621829782187653,11.399384502714625,4.196831636143614,0.12760700000000003,-0.011243000000000003,-0.889571,-0.07736900000000002,-0.11249299999999995,-0.860048,0.20497600000000005,0.10124999999999995,0.029522999999999966,0.9616683219379423,0.20477,single,-0.860048
40,0.333333,jog,-0.18600744029760521,0.3154926197047881,-0.15612624504980196,0.03734624082291493,-0.09107623881405334,0.02203325557640641,0.006360254410186114,0.011640465618626424,-0.026881075243009606,0.0002400096003909176,0.6833073322932907,0.3865354614184579,7.200576034564085,4.37795022901343,-14.588367046022993,-0.777662211732651,1.3969117507052025,-0.9360748844929961,-3.1826546072735167,3.3266661279678433,-8.61188893733556,0.12921000000000005,-0.013774999999999982,-0.888494,-0.07581700000000002,-0.10942799999999997,-0.855526,0.20502700000000007,0.09565299999999999,0.032968,0.9500404196096413,0.17032000000000003,single,-0.855526
41,0.341667,jog,-0.264338852891763,0.278017758579315,-0.12023038156948133,0.550456184978353,0.342678445071816,0.4430510273566656,0.010919126469863346,0.011279097672190834,-0.036237101031917435,-0.0481161507079548,0.8027357811375051,0.39128869690424645,-9.399017589891734,-4.496623605168354,4.307159044914878,0.547020885490428,-0.04336068471749326,-1.1226332840062179,-5.8022750549970805,14.330267439910527,0.5703426308841538,0.13150399999999984,-0.015997999999999957,-0.887794,-0.07401500000000016,-0.10505500000000001,-0.851263,0.205519,0.08905700000000005,0.03653099999999998,0.9341809539055694,0.1346900000000001,single,-0.851263
42,0.35,jog,-0.24972998919956854,0.30145205808231906,-0.15912636505459518,0.5344271242824834,0.22841465933641178,0.3992329242669082,0.01548061922477452,0.01764070562822616,-0.03024120964838586,-0.07332293291730693,0.9027961118444829,0.37429497179887417,1.753133768414077,2.812228429497676,-4.66770472640273,0.5474010266304075,0.7634234916639078,0.7195357474536889,-3.024934862516764,12.007719993637116,-2.0393285857881103,0.1337139999999999,-0.018362999999999907,-0.8867200000000001,-0.07254500000000008,-0.10004399999999991,-0.8468180000000001,0.20625899999999997,0.081681,0.03990199999999999,0.9361996423807956,0.10097999999999996,single,-0.8468180000000001
43,0.358333,jog,-0.17856714268572538,0.3969758790351704,-0.13800552022081972,0.5107570709188632,0.2819037007367133,-0.2605039710751549,0.039121564862600156,-0.002160086403464951,0.016920676827072864,-0.11880475219009268,0.9506780271210791,0.3265330613224517,8.539883176988223,11.463317047023994,2.534602764163612,2.8370269576173692,-2.37619009140658,5.659652763165551,-5.458036634199635,5.746059675578535,-5.731658523511614,0.1355280000000001,-0.02168900000000007,-0.8854289999999999,-0.07204699999999997,-0.09543000000000001,-0.8429469999999999,0.20757500000000007,0.07374099999999995,0.04248200000000002,0.9288688200330758,0.07517999999999997,single,-0.8429469999999999
44,0.366667,jog,-0.21778257739379628,0.358531317494599,-0.15946724262057982,0.014652129835546052,0.09628082498846825,0.3783256797911651,0.020518358531308022,-0.008759299256058275,-0.025797936165106755,-0.18658507319414105,1.1454283657307336,0.34509239260858976,-4.70547572691035,-4.612978346600837,-2.5752006719174565,-2.2322061832603928,-0.7918421949356033,-5.125823493182095,-8.13298788145528,23.368171179464163,2.2269415990086454,0.13751399999999991,-0.02475000000000005,-0.8843150000000001,-0.07178700000000005,-0.08887200000000006,-0.8387420000000001,0.20930099999999996,0.06412200000000001,0.045572999999999975,0.9431556249568808,0.04427000000000009,single,-0.8387420000000001
45,0.375,jog,-0.3034921396855886,0.34597383895355527,-0.16920676827073394,-0.20073281913958751,-0.05892614570392299,0.7008182059895499,0.012360494419772529,0.014160566422664441,-0.02904116164646583,-0.2562102484099368,1.2364094563782657,0.29581183247330073,-10.285558897370997,-1.5069577032333796,-1.1687898296116823,-0.9789828526983696,2.7504939012027805,-0.3892026258681249,-8.355355240105112,10.918167604408058,-5.913903772385594,0.14014599999999988,-0.027514999999999956,-0.883147,-0.07139300000000004,-0.08145199999999997,-0.834867,0.21153899999999992,0.05393700000000001,0.04827999999999999,0.9423445932599919,0.017199999999999993,single,-0.834867
46,0.383333,jog,-0.35989439577582877,0.3403336133445286,-0.14040561622464987,0.5720472482430419,0.5783860454994965,0.33068449387816456,0.011760470418835205,-0.012600504020163448,-0.03156126245049802,-0.32437297491898553,1.1618864754590175,0.17388695547821859,-6.768541472487739,-0.676854147249091,3.4562764965899615,-0.0720057603428928,-3.2114569114158114,-0.3024241934516015,-8.17985437526088,-8.94311543492721,-14.631570502229982,0.143243,-0.030455999999999928,-0.88224,-0.07109699999999997,-0.07460599999999995,-0.832248,0.21433999999999997,0.04415000000000002,0.049992000000000036,0.9400649737562122,8.000000000008001e-05,single,-0.832248
47,0.391667,jog,-0.3376529877609901,0.266978641708667,-0.2601391888648976,1.1108979808110908,-0.46959841218877907,1.1542209913050603,0.0017998560115042247,0.020158387329007176,-0.016318694504439714,-0.3972882169426519,1.2948164146868233,0.17098632109431344,2.6687554613437277,-8.801892444907795,-14.366879366480399,-1.195178114630546,3.9307525017003346,1.8289618365800686,-8.749129112510952,15.950316682002123,-0.34804828220604034,0.14607199999999998,-0.032513000000000014,-0.880208,-0.07159399999999994,-0.06603999999999999,-0.8286549999999999,0.21766599999999992,0.033526999999999973,0.05155300000000007,0.9566698766670456,0.0,single,-0.8286549999999999
48,0.4,jog,-0.23268930757229148,0.3591743669746803,-0.2672506900275975,0.5983368974044351,0.23749714049437481,0.3968064951477471,-0.006240249609977291,0.015000600024005908,-0.03348133925357018,-0.4716188647545869,1.3050522020880742,0.10680427217088495,12.596145468462524,11.063929589105117,-0.8534142760950251,-0.964851268628523,-0.6189592349695483,-2.0595997538858026,-8.92003453881372,1.2283436218949741,-7.702153956969665,0.14795899999999995,-0.035380999999999996,-0.8782599999999999,-0.07358500000000001,-0.05815800000000004,-0.825538,0.22154399999999996,0.022777000000000047,0.052721999999999936,0.937974942463019,0.0,single,-0.825538
49,0.408333,jog,-0.2122884915396779,0.3888155526221083,-0.15084603384134834,-0.14907052162468631,0.5166366000283816,-0.011006628727562801,-0.021720868834751852,0.013920556822273524,-0.024360974438977417,-0.5365414616584814,1.5220208808352371,0.1587663506540271,2.448195851747704,3.5570845610738133,13.969117507050214,-1.8577486169176287,-0.12961036862263126,1.094487557253424,-7.7910232693981305,26.03728294097726,6.235698845930912,0.1495470000000001,-0.03850500000000001,-0.877206,-0.076287,-0.048715000000000064,-0.8229580000000001,0.2258340000000001,0.010210000000000052,0.05424799999999996,0.9408618585007398,0.0,single,-0.8229580000000001
50,0.416667,jog,-0.2801775857931334,0.345572354211662,-0.24454043676505668,0.4128594269436862,-0.6443828501399627,0.37512201737230283,0.0010799136069025348,0.024238060955127823,-0.044396448284137496,-0.6442284617230564,1.4397648188144914,0.031197504199663557,-8.146039627244472,-5.1887687077569336,-11.242428956528467,2.7358750229966837,1.2380014558260486,-2.4040645362563065,-12.921406295245367,-9.869937847461685,-15.307037011562688,0.151891,-0.04118299999999997,-0.875538,-0.07932099999999997,-0.039596000000000076,-0.8206600000000001,0.23121199999999997,0.001586999999999894,0.05487799999999998,0.915677628635546,0.0,single,-0.8206600000000001
51,0.425,jog,-0.21624864994598147,0.36745469818792953,-0.278291131645275,0.9096049364429141,0.2967564551301796,0.38760034374395275,0.008880355214224133,0.013800552022078066,-0.02424096963878529,-0.7418696747869825,1.5393015720628902,0.03936157446297968,7.671779172825163,2.6259863166047754,-4.050245395442029,0.9360904364960538,-1.2525511740129345,2.418754187609775,-11.717414264241736,11.944888185335303,0.9797276207027651,0.153767,-0.04413,-0.873421,-0.08370100000000003,-0.029831000000000052,-0.818013,0.237468,0.01429899999999995,0.05540800000000001,0.9512107550025,0.0,single,-0.818013
52,0.433333,jog,-0.25009000360013994,0.361094443777741,-0.2710908436337455,0.9668062617261217,0.709397574970201,0.17329726038258272,-0.0008400336013548828,0.008040321612855868,-0.01368054722188876,-0.8005520220808912,1.5513020520820795,-0.003000120004799849,-4.0611248834943385,-0.7632610596650039,0.8640691241485021,-1.166493317602181,-0.6912552993186336,1.2673013820828616,-7.04216336180348,1.440115206910986,-5.083606680400738,0.15584399999999987,-0.047072,-0.8712759999999999,-0.08828800000000014,-0.01991299999999996,-0.8157789999999999,0.24413200000000002,0.027159000000000044,0.05549700000000002,0.9735157384062465,0.0,single,-0.8157789999999999
53,0.441667,jog,-0.2492200623950226,0.526397888168953,-0.4035277177825803,-0.40486961472914834,-0.14250053856581732,-0.5141892439545922,-0.011159107271406198,0.00815934725222803,-0.012239020878329971,-0.8797696184305178,1.6013918886489136,-0.057955363570916,0.1043845938465752,19.83482654082229,-15.891153605571816,-1.238189785223347,0.014281934169925825,0.17296932368116122,-9.505351133864544,6.010299564054999,-6.594101699797991,0.15782800000000008,-0.051390999999999964,-0.868015,-0.09354299999999993,-0.01095400000000002,-0.8128989999999999,0.251371,0.040436999999999945,0.055116000000000054,0.9692277968715005,0.0,single,-0.8128989999999999
54,0.45,jog,-0.2967718708748274,0.3231729269170821,-0.2929317172686794,-0.3726676666073197,0.40051340659369816,0.23681968097770106,0.00012000480018213478,-0.01284051362055428,0.0544821792871712,-0.9740789631585405,1.639985599423978,-0.06324252970118775,-5.706445275387572,-24.387970869059174,13.2720509437058,1.3535475904942138,-2.52008410809819,8.006864294431885,-11.317574070325485,4.631430550229725,-0.6344853150452097,0.16030199999999994,-0.0541910000000001,-0.86512,-0.09918700000000014,1.8999999999991246e-05,-0.8109850000000001,0.2594890000000001,0.05421000000000009,0.05413499999999993,0.9067083269901569,0.0,single,-0.8109850000000001
55,0.458333,jog,-0.2684507380295272,0.4184567382695206,-0.35677427097084013,0.1324512637744182,0.13381416079282515,0.08647521663390946,-0.022080883235324904,0.007680307212296192,-0.00648025921036825,-1.043441737669497,1.6654266170646803,-0.0877235089403573,3.3986718883115703,11.434514742882365,-7.661412900775339,-2.6642131327861627,2.4625970038222156,-7.315785251114797,-8.323865895950654,3.0530442386538272,-2.9378350221012366,0.16235500000000003,-0.05761399999999994,-0.862201,-0.10564499999999999,0.01041000000000003,-0.808743,0.268,0.06802399999999997,0.053458000000000006,0.959566711913983,0.0,single,-0.808743
56,0.466667,jog,-0.3048956083513201,0.39104871610271286,-0.40688744900408325,-0.025826738538634177,0.29734725520436206,-0.0388208662556196,-0.0227981761458978,0.008639308855286887,-0.002279817614591029,-1.1132709383249206,1.638348932085438,-0.15442764578833637,-4.373034595847481,-3.2886995640518046,-6.01310031596389,-0.08606826380764285,0.11507099147956489,0.5040126704796276,-8.37883377194906,-3.249062272527263,-8.00385611326842,0.16470600000000002,-0.060800999999999994,-0.858829,-0.11238199999999998,0.020805000000000073,-0.806639,0.277088,0.08160600000000007,0.05218999999999996,0.9591890516652897,0.0,single,-0.806639
57,0.475,jog,-0.2725309012360662,0.45817832713308504,-0.4616584663386601,-0.6855859395737847,0.02144328567385117,0.012824414907287512,-0.026881075243010023,0.00036001440057305316,-0.00396015840633606,-1.1622464898596172,1.6854674186967489,-0.09732389295571921,3.8839202106389044,8.05587555866703,-6.572784991548899,-0.48996749035308196,-0.9935550767687332,-0.20164896096784296,-5.877301276214651,5.654444571140155,6.852724448892032,0.16675300000000015,-0.064616,-0.855015,-0.11979600000000001,0.03103200000000006,-0.803603,0.28654900000000016,0.09564800000000007,0.05141200000000001,0.9547106625501635,0.0,single,-0.803603
58,0.483333,jog,-0.3242529701188013,0.46429857194287716,-0.4338173526940968,0.037957118964442794,-0.46964944137314374,-0.2611752134549034,-0.019440777631131268,-0.009360374414965936,-0.008520340813632704,-1.2744509780390985,1.7442697707908201,-0.11208448337933355,-6.206896541789853,0.7344587555252723,3.3410672800387795,0.8928714282825782,-1.1664933175973777,-0.54724377862674,-13.465077184625079,7.056564513869076,-1.7713417045018938,0.16929299999999992,-0.06856299999999993,-0.851471,-0.12771399999999988,0.04169800000000001,-0.800922,0.2970069999999998,0.11026099999999994,0.050548999999999955,0.9613363272828681,0.0,single,-0.800922
59,0.491667,jog,-0.351091912646986,0.4214062874970083,-0.325053995680354,0.6701100905280546,-0.6756531433550315,-0.04309374453393141,-0.02591792656587398,0.005999520038396261,0.012838972882169349,-1.3236141108711306,1.7319414446844306,-0.06251499880009684,-3.2204154701445553,-5.1466624005122155,13.050558796945372,-0.7771956965134037,1.8430398912121648,2.562912610487405,-5.899104011522925,-1.479280790303522,5.947862320522757,0.1720029999999999,-0.072025,-0.8486549999999999,-0.1358189999999999,0.05262,-0.7987339999999999,0.3078219999999998,0.124645,0.04992099999999999,0.9507677730085309,0.0007900000000000129,single,-0.7987339999999999
60,0.5,jog,-0.3616944677787207,0.44005760230409036,-0.26545061802472064,0.40945625909541394,0.9414527498846648,0.15912429028570724,-0.010080403216125428,-0.005520220808831226,-0.007320292811712314,-1.3723748949958035,1.7308292331693267,-0.10992439697587933,-1.2723575101085707,2.2382473067421205,7.152691426333072,1.900578825122836,-1.3824241986352472,-2.41920865161187,-5.851528156087004,-0.13347072064129134,-5.689355355308125,0.174933,-0.07573799999999997,-0.8465039999999999,-0.14424099999999984,0.06337599999999999,-0.797438,0.31917399999999985,0.13911399999999996,0.04906599999999994,0.9772896221943499,0.009340000000000015,single,-0.797438
61,0.508333,jog,-0.3468138725548812,0.48481939277571423,-0.3854554182167262,-0.6767946836391898,-1.4233788289417781,-0.39872954396277654,-0.008040321612842545,-0.003000120004806511,-0.007920316812672485,-1.434297371894892,1.8437537501500036,-0.07632305292211629,1.7857428565749953,5.371629721783714,-14.40115206912337,0.24481958517735203,0.3024241934507026,-0.07200576034563409,-7.430994467669293,13.55148409704506,4.032322579354722,0.17775600000000003,-0.07980300000000007,-0.8433579999999999,-0.1533030000000002,0.07469999999999999,-0.794862,0.3310590000000002,0.15450300000000006,0.048495999999999984,0.9805364364563562,0.015040000000000053,single,-0.794862
62,0.516667,jog,-0.37065034797217866,0.5457163426925873,-0.43388528917686264,0.36537736153051686,0.3940112342658599,-0.5330884102164242,-0.0050395968322651495,-0.014518838492925177,-0.004559635229181672,-1.5608351331893429,1.7384209263258972,-0.007079433645308835,-2.860148238216652,7.307049426070723,-5.811119625646356,0.3600581690157683,-1.38213564772243,0.40324953005649533,-15.183316689998998,-12.638927744673275,8.308569627646731,0.18080300000000005,-0.0844720000000001,-0.83978,-0.16322199999999998,0.08463999999999994,-0.791305,0.344025,0.16911200000000004,0.048474999999999935,0.9732821074912845,0.015250000000000041,single,-0.791305
63,0.525,jog,-0.34369374774990585,0.5259810392415573,-0.3649345973839024,-1.8713927660304959,-1.8067746957754427,-0.34299225448179455,0.0015600624025009842,-0.019320772830909164,-0.009000360014400795,-1.527781111244449,1.7466698667946627,-0.035161406456258294,3.2349214235296646,-2.368331147369488,8.274413991714866,0.7919907878034449,-0.5762551707649066,-0.5329082905579149,3.9666412990392033,0.9899124527499735,-3.369971536175368,0.18368000000000007,-0.08901599999999998,-0.836814,-0.17308900000000005,0.09481200000000001,-0.788557,0.3567690000000001,0.183828,0.048256999999999994,0.9643811637740756,0.017430000000000057,single,-0.788557
64,0.533333,jog,-0.4158166326653166,0.6037441497659971,-0.5203408136325375,0.7851081176244762,0.2911462659825823,-0.744751587668,0.0022800912036471162,-0.007320292811709864,-0.005160206408256126,-1.6227049081963467,1.7232689307572508,-0.04608184327373083,-8.655092393545111,9.3319465407945,-18.649491929513562,0.0864069124140332,1.4401152069122056,0.4608368662120131,-11.391311286679292,-2.8082246534755915,-1.3105048382902476,0.1871640000000001,-0.09410799999999997,-0.8325210000000001,-0.18314600000000003,0.10414100000000004,-0.784605,0.37031000000000014,0.198249,0.04791600000000007,0.9845967866878794,0.020840000000000025,single,-0.784605
65,0.541667,jog,-0.4569234461243106,0.5609551235901067,-0.35193184545237005,-0.3736022801003578,-2.0770256609550577,-0.49558894828036043,0.0023998080153478313,-0.017038636909044204,-0.0002399808015361153,-1.645068394528412,1.711183105351555,-0.034557235421165636,-4.932423021237541,-5.134272399314866,20.207459584853147,0.014364868214628528,-1.1661080030398685,0.5903798424190032,-2.683403687552799,-1.4501830340407755,1.3828423149226186,0.19099200000000005,-0.09892499999999993,-0.8295899999999999,-0.1930479999999999,0.11372700000000002,-0.78196,0.38403999999999994,0.21265199999999995,0.04762999999999995,0.9713191983969398,0.023699999999999943,single,-0.78196
66,0.55,jog,-0.4603384135365336,0.6128645145805907,-0.2246489859594356,-2.7115403914178517,-1.472869994308773,-0.9124144408378323,0.006240249609977291,-0.014160566422664347,-0.002640105604223884,-1.6510260410416404,1.6710668426736959,0.04812192487699471,-0.40981248196603987,6.229376093901807,15.274554121316921,0.4608714262125817,0.34538227365652757,-0.28802649738242636,-0.7149461794345942,-4.814144087106551,9.921896111623665,0.19487999999999994,-0.10415000000000008,-0.82774,-0.20296999999999998,0.1225449999999999,-0.779687,0.3978499999999999,0.22669499999999998,0.04805300000000001,0.973836384774156,0.019470000000000043,single,-0.779687
67,0.558333,jog,-0.6019440777631052,0.576023040921632,-0.08472338893555632,3.3752543113619633,0.9366030560874652,-0.18525739852783712,0.014160566422664536,-0.015240609624383703,0.008760350414016658,-1.7140285611424535,1.6710668426737314,0.0018000720028802666,-16.99335944156641,-4.421153685222484,16.791743312598175,0.9504760365639408,-0.12961036862106873,1.36810944656674,-7.560604836291091,4.263426951638705e-12,-5.558844698681732,0.20001399999999991,-0.10907699999999998,-0.8269610000000001,-0.212237,0.13167000000000006,-0.778966,0.4122509999999999,0.24074700000000004,0.04799500000000001,0.9623782877955535,0.020050000000000012,single,-0.778966
68,0.566667,jog,-0.5556755459563255,0.6399088072954153,-0.03323734101271533,-1.9547677617055181,-0.6592758868040174,-0.8389680623331444,0.01223902087833522,-0.007439404847612913,0.008039356851451537,-1.7225821934245171,1.656827453803675,0.0494360451163898,5.551779674439566,7.665678710557092,6.177831524218934,-0.23056701995791956,0.9360696876374767,-0.08651230652329198,-1.026353765546384,-1.708589977208589,5.7158595048607115,0.204747,-0.11447200000000002,-0.826617,-0.221962,0.14014499999999996,-0.778277,0.426709,0.254617,0.04834000000000005,0.972625557583964,0.016600000000000004,single,-0.778277
69,0.575,jog,-0.5966638665546649,0.7070682827313167,-0.03840153606144124,-1.3808562666103275,-0.05300475067806433,-0.6670424814349263,0.009360374414979384,-0.003120124804988687,0.016320652826113276,-1.81435257410298,1.5773430937237687,0.0027601104044156313,-4.9187952236097106,8.059459430685468,-0.6197281949749137,-0.3454513936584499,0.5183343384884515,0.9937952687701687,-11.012886196863521,-9.538504749778825,-5.601336218885707,0.209797,-0.12039,-0.826161,-0.232109,0.147397,-0.777934,0.441906,0.267787,0.04822700000000002,0.9682144557377176,0.01773000000000008,single,-0.777934
70,0.583333,jog,-0.6500660026401035,0.7639505580223156,-0.09384375375015687,0.16444430109172187,-0.700104494359618,-0.5692408792430024,0.012240489619590312,-0.002880115204611053,0.0192007680307212,-1.745109804392175,1.5877835113404462,0.046081843273731875,-6.408512670759441,6.826146080763067,-6.6533322559360855,0.34562764965929627,0.028802304137481475,0.3456276496589357,8.309464743886336,1.2529002300104912,5.198815896953806,0.21531600000000006,-0.12678,-0.825219,-0.24123400000000006,0.154262,-0.776768,0.4565500000000001,0.281042,0.04845100000000002,0.9617466725235025,0.015489999999999948,single,-0.776768
71,0.591667,jog,-0.5711543076553949,0.8658507319414381,0.09335253179746227,-2.892146764566933,2.0940581766296917,-1.2756707686224504,0.013558915286780522,-0.004199664026878687,0.01619870410367155,-1.7416606671466084,1.5602351811854918,0.011519078473721878,9.468645906492444,12.227042706878061,22.461757325128115,0.158198424188889,-0.15833319201675358,-0.36021885373765644,0.41386336039914523,-3.3055351757804394,-4.147200000001168,0.2201890000000002,-0.134031,-0.8258620000000001,-0.2509889999999999,0.160049,-0.7774500000000001,0.4711780000000001,0.29408,0.04841200000000001,0.9641035681001326,0.015880000000000005,single,-0.7774500000000001
72,0.6,jog,-0.8185527421096878,0.822392895715836,0.2205688227529129,1.3848169291978516,-0.8273710657630957,-0.07760984241105662,0.012120484819381692,0.0006000240009639748,0.02484099363974568,-1.7140285611424668,1.5018600744029964,0.01872074882995377,-29.6889996945032,-5.21514895303043,15.266565577277305,-0.17261856083029448,0.5759856027652354,1.0371162289780642,3.315985359911415,-7.0052930256205315,0.864235012148321,0.22711100000000006,-0.14087899999999998,-0.827493,-0.258451,0.16571100000000005,-0.779132,0.48556200000000005,0.30659000000000003,0.04836099999999999,0.9539221327512848,0.01638999999999996,single,-0.779132
73,0.608333,jog,-0.6974678987159372,0.9847593903756166,-0.2506900276011039,-1.3060853050542616,0.13413074754762966,-1.4521291085505312,0.020640825633032555,-0.004080163206525663,0.04896195847833918,-1.6864274570982747,1.4774990999639912,0.019680787231488875,14.53076243774752,19.48475874952357,-56.5533241754488,1.0224817969099758,-0.5616449306959821,2.8946315658938437,3.3122649759020786,-2.923433870035413,0.11520921655287407,0.23309500000000005,-0.149119,-0.8249960000000001,-0.26669200000000004,0.169817,-0.7768790000000001,0.4997870000000001,0.318936,0.048116999999999965,0.911181133250497,0.018829999999999958,single,-0.7768790000000001
74,0.616667,jog,-0.7742980561555171,0.9332853371730256,0.17578593712502363,-2.2824233562659013,-1.008336085031446,-0.666911008398686,0.009719222462202809,0.006239500839925759,0.046196304295656604,-1.6389488840892794,1.4158867290616803,-0.020638348932086208,-9.21888138223906,-6.176392272929109,51.17302192538157,-1.3104875414962573,1.2382606247241996,-0.33185195376560983,5.696973003239206,-7.392893076831199,-4.8379093068844865,0.2396290000000001,-0.156845,-0.826076,-0.273898,0.17383900000000002,-0.778516,0.5135270000000001,0.33068400000000003,0.04756000000000005,0.9206363295648492,0.024400000000000033,single,-0.778516
75,0.625,jog,-0.8259930397215821,0.9264370574823027,0.3171726869074824,-1.9682758238540718,0.4659341637945432,-0.7332221615350453,0.013680547221882515,0.011640465618626345,0.06096243849753941,-1.585263410536408,1.3451338053522115,-0.03648145925837003,-6.2036461737747315,-0.8218264359441934,16.96708865744128,0.4753779862810141,0.6481416991120321,1.77200698450531,6.442514526925612,-8.490690472755135,-1.9012492891256154,0.246626,-0.16446800000000006,-0.828211,-0.28022499999999995,0.17732799999999999,-0.781463,0.526851,0.34179600000000004,0.04674800000000001,0.8940771150569794,0.03252000000000005,single,-0.781463
76,0.633333,jog,-0.8665546621864745,1.0025201008040248,0.1784471378855033,-1.7159835369086043,-0.24896201314950384,-0.7142420395104047,0.02256090243610659,0.02160086403456957,0.10500420016800638,-1.49153966158646,1.3022920916836587,-0.08412336493459623,-4.867589399363038,9.130330411823088,-16.647731791909102,1.0656852531170091,1.1952956217380515,5.285222809368388,11.24729976598436,-5.141211288677865,-5.717257371441978,0.254035,-0.17264199999999996,-0.828823,-0.28543300000000005,0.17982599999999999,-0.783651,0.5394680000000001,0.35246799999999995,0.04517199999999999,0.8174146037033155,0.04827999999999999,single,-0.783651
77,0.641667,jog,-0.9044876409887314,0.9676025917926573,0.22234221262299064,0.4055462220101456,2.290076146382586,-0.7123946570336556,0.021358291336694563,0.04103671706262964,0.12407007439404921,-1.3996880249580157,1.2211423086153168,-0.10475161987041248,-4.551593328804547,-4.189765900092113,5.266987609489753,-0.14430178778642108,2.332115794103693,2.2877218893740032,11.02131469023816,-9.73719499260167,-2.4751925768918137,0.26175100000000007,-0.18036399999999997,-0.829642,-0.28956000000000004,0.18193900000000002,-0.786377,0.5513110000000001,0.362303,0.043265,0.7793093409553246,0.06735000000000002,single,-0.786377
78,0.65,jog,-0.9443177727109195,1.0232809312372526,0.13824552982119728,-0.9585200692327891,-0.2622119682660931,-0.7475408686166726,0.030961238449522185,0.031681267250694936,0.1852874114964591,-1.3117724708988334,1.1477259090363587,-0.1597263890555614,-4.7798069989425205,6.681668000071414,-10.092005616439819,1.152399749529291,-1.122698885387575,7.346374307261447,10.550288498641775,-8.810320362289422,-6.597236191665511,0.26987800000000006,-0.188627,-0.82925,-0.29262199999999994,0.18297599999999997,-0.78886,0.5625,0.37160299999999996,0.04039000000000004,0.6824847954646883,0.09610000000000007,single,-0.78886
79,0.658333,jog,-1.0132005280211276,1.0166806672266893,0.28117124684987466,-1.1108596129190917,0.7765449459897376,-0.8122726412920683,0.010080403216125496,0.06252250090003582,0.20556822272891095,-1.1963278531141361,1.0654026161046535,-0.21168846753870368,-8.266261287676548,-0.7920633638021614,17.151772114326015,-2.505800460026027,3.7010960817642102,2.433794699682231,13.85390829049542,-9.879190319417498,-6.235698845930966,0.278405,-0.19657799999999992,-0.82988,-0.29414799999999997,0.18338200000000004,-0.792967,0.572553,0.37995999999999996,0.036912999999999974,0.6414962736761234,0.1308700000000001,single,-0.792967
80,0.666667,jog,-1.0373170146388226,1.0347972162227035,0.1509479241660633,-1.046493549502109,0.1881202689226818,-0.6556202465225764,0.01691864650829946,0.06371490280776868,0.27357811375089836,-1.0784737221022231,0.9581233501319845,-0.23266138708903067,-2.8937468943718345,2.1738119745637254,-15.625548678162989,0.8205235531766154,0.1430767827853189,8.160534079912033,14.14136441227647,-12.872482118150732,-2.5165490221174496,0.2871910000000002,-0.20467100000000005,-0.828858,-0.29449099999999995,0.182743,-0.796164,0.5816820000000001,0.38741400000000004,0.032694,0.5309856263663848,0.1730600000000001,single,-0.796164
81,0.675,jog,-1.0825633025320902,1.045361814472564,0.17580703228129646,-2.011705329458477,-0.31881319660133844,-0.7251436141482831,0.016680667226675702,0.06492259690387753,0.28669146765870457,-0.8931957278291067,0.8688347533901282,-0.2872914916596644,-5.429771738061608,1.267802502083345,2.983212302320058,-0.02855865614109652,0.14492908869660953,1.5736654155533611,22.234248682721187,-10.715060211431169,-6.555874783467358,0.29635100000000003,-0.21284099999999995,-0.827934,-0.292913,0.18127200000000004,-0.800023,0.589264,0.394113,0.027910999999999908,0.5092941991484428,0.22088999999999998,single,-0.800023
82,0.683333,jog,-1.1948877955118307,1.0210008400336192,0.26641065642625944,-0.3677194324707388,-0.4775426415531281,-0.6769326507618123,0.022200888035533835,0.031921276851072954,0.39649585983439717,-0.712588503540148,0.7891515660626529,-0.33781351254050446,-13.479478336702446,-2.9234338700282043,10.872869812188144,0.6624529951827893,-3.9603168190093454,13.177054143248963,21.673733864029803,-9.562364973896074,-6.062885021101708,0.3064930000000001,-0.22108300000000003,-0.82685,-0.288894,0.17934,-0.805058,0.5953870000000001,0.40042300000000003,0.021791999999999923,0.5,0.28207999999999994,flight,-0.805058
83,0.691667,jog,-1.1826253899687773,1.0134389248859959,0.16450683945284386,-0.985917081093724,-1.2630054607058627,-0.8814955535752511,-0.0008399328053863948,0.050515958723302314,0.44288456923445785,-0.5517158627309763,0.6594672426205854,-0.3890088792896549,1.4713709554899523,-0.9073572291364688,-12.227479838422703,-2.7646773267242684,2.231183330001106,5.566199832020677,19.303172643289,-15.56087394313253,-6.142952573692109,0.3163419999999999,-0.22910799999999998,-0.82453,-0.2836360000000001,0.17639000000000005,-0.809671,0.599978,0.405498,0.014858999999999956,0.5,0.35141,flight,-0.809671
84,0.7,jog,-1.1737669506780426,0.8131525261010519,0.10620424816993072,-2.3928563324816112,-2.534448343620724,0.31215290403675394,-0.024360974438972168,0.08100324012960367,0.43909756390256044,-0.33361334453378494,0.5474618984759453,-0.43129725189007956,1.0630552370976587,-24.035329267364183,-6.9965908175823435,-2.8226379015463805,3.658620113560738,-0.4544588181804204,26.173349117627904,-13.44117894451472,-5.0748077043591815,0.32592,-0.235209,-0.821756,-0.2766350000000001,0.17417600000000005,-0.81415,0.6025550000000001,0.40938500000000005,0.007606000000000002,0.5,0.42394000000000004,flight,-0.81415
85,0.708333,jog,-1.3602544101764127,1.0027601104044157,0.47701908076322264,-2.1760339870238368,0.6066291816896183,-0.9778178199891211,-0.03792151686067222,0.08616344653786072,0.4785791431657245,-0.10164406576263514,0.39013560542420916,-0.5070202808112303,-22.379390315416934,22.753820269214327,44.499559893590586,-1.6273301838113523,0.6192495389724028,4.737979030740894,27.837426949615846,-18.87991036262276,-9.087126955616275,0.3369390000000001,-0.24284700000000004,-0.821743,-0.266147,0.16907099999999997,-0.82235,0.6030860000000001,0.411918,0.0006070000000000242,0.49393,0.5,flight,-0.821743
86,0.716667,jog,-1.442164626829843,1.1253899688024904,-0.06539476841852815,2.6295557650473285,-2.0069374479207975,-0.36956721628719497,-0.06131509479243417,0.07511399088073083,0.5461963042956522,0.05843532517398746,0.14026877849772285,-0.5467962562994917,-9.828439723233695,14.71440585530043,-65.08445514539795,-2.807004791428098,-1.3258286125665715,8.113410262770248,19.20799027317271,-29.981620701522008,-4.772735239772149,0.34844699999999995,-0.25160000000000005,-0.816646,-0.253641,0.16086099999999998,-0.8263619999999999,0.602088,0.412461,0.009715999999999947,0.40284,0.5,flight,-0.816646
87,0.725,jog,-1.3260530421216976,0.9989199567982808,-0.018840753630140906,-1.801935319045368,-3.337942226528173,-0.22302043364629648,-0.08784351374054501,0.10044401776070855,0.5762630505220262,0.2718108724349086,0.025561022440900118,-0.5402616104644234,13.93394752287848,-15.177008520846124,5.586705242816233,-3.1835376152779418,3.039724814589938,3.60815387331984,25.606089914907365,-13.765481346072697,0.7841888677629067,0.358765,-0.25908700000000007,-0.811687,-0.24032599999999993,0.15275,-0.830707,0.5990909999999999,0.41183700000000006,0.019019999999999926,0.30979999999999996,0.5,flight,-0.811687
88,0.733333,jog,-1.368414736589464,1.061562462498498,0.28525141005639654,-2.479820900164869,-1.4133437416470624,-0.598066379637044,-0.07008280331212234,0.09552382095283998,0.6810272410896406,0.32269290771630027,-0.09504380175207147,-0.452898115924635,-5.083606680399175,7.51740138008124,36.49251934315807,2.1313705062309607,-0.5904472348336187,12.572205756343934,6.106088477306068,-14.473157829469708,10.48403870632282,0.36958400000000013,-0.26713700000000007,-0.808389,-0.22623399999999994,0.14311199999999996,-0.836858,0.5958180000000001,0.41024900000000003,0.028468999999999967,0.21531,0.5,flight,-0.808389
89,0.741667,jog,-1.3334533237341002,0.9954403647708204,0.14734821214303023,-1.7465821785249076,-1.2904071827671,-0.49290572371400937,-0.1861051115910834,0.16114710823134037,0.57007439404848,0.3602111831053608,-0.07919366450683918,-0.21382289416846761,4.1950339399285,-7.934017005960884,-16.547059984805266,-13.921563268413932,7.874164540256872,-13.313276582812723,4.5018329000552875,1.9018643202822634,28.686731672206477,0.379146,-0.27409000000000006,-0.804866,-0.21211899999999995,0.134156,-0.839868,0.5912649999999999,0.40824600000000005,0.03500199999999998,0.14997999999999995,0.5,flight,-0.804866
90,0.75,jog,-1.3886955478219103,1.0672026881075114,0.19164766590664392,0.35074407264994545,0.16237523085299535,-0.3773646594418087,-0.2868114724588842,0.2642505700228043,0.5287411496459828,0.2763710548421858,-0.08016320652826103,0.027601104044161776,-6.629332063819737,8.611823273333814,5.316147097517521,-12.085246714004608,12.372910331388873,-4.9601877358090745,-10.06121784029457,-0.11634969655848436,28.972038667062087,0.3883280000000001,-0.28078099999999995,-0.802057,-0.19824399999999998,0.12459500000000007,-0.8412350000000001,0.5865720000000001,0.405376,0.039178000000000046,0.10822000000000004,0.5181951738516826,single,-0.802057
91,0.758333,jog,-1.2887315492619582,1.0337213488539512,0.27577103084122184,-0.8380880221916039,0.3526836222179338,-0.013176945810981241,-0.2750510020401024,0.3864154566182632,0.6330253210128381,0.08004320172806557,-0.009600384015363514,-0.014880595223808784,11.996159673581143,-4.017921427284302,10.095207600453326,1.411312902769922,14.660372806367265,12.514601148068508,-23.560284785085738,8.467877416644331,-5.098007832469745,0.3967749999999999,-0.28617499999999996,-0.79908,-0.18683800000000006,0.11590100000000003,-0.843657,0.5836129999999999,0.402076,0.04457699999999998,0.054230000000000056,0.8633687685131872,single,-0.79908
92,0.766667,jog,-1.30069594432447,0.997960163186953,0.1099112071034357,0.0884408062754346,-0.31643228005054425,0.47696363129566316,-0.3039356851451777,0.5169186465082797,0.7005039596832289,-0.12131029517638467,0.09935205183585315,-0.0694744420446372,-1.4356125584967565,-4.290999000119793,-19.901586721596722,-3.4658847018329095,15.659130056397554,8.096788897335147,-24.160486789591,13.07324644243068,-6.550737559494687,0.40508200000000005,-0.290184,-0.794158,-0.17700899999999997,0.10841200000000001,-0.845152,0.582091,0.398596,0.050993999999999984,0.0,0.714159543251109,single,-0.794158
93,0.775,jog,-1.313332533301321,0.9881195247809894,0.18816752670106893,-0.6134699356968227,-0.14487659877010003,0.6229284560521199,-0.3805352214088589,0.6137045481819323,0.7519500780031179,-0.18900756030241048,0.1519260770430798,-0.1531261250450011,-1.5164513352755171,-1.1809238456694549,9.391133997075832,-9.192312044123472,11.614772791749939,6.173781149632638,-8.123996774994064,6.309135390282784,-10.038603504183794,0.41285499999999997,-0.29330399999999995,-0.78946,-0.16764,0.10144399999999998,-0.847996,0.580495,0.39474799999999993,0.05853599999999992,0.0,0.5220036003492563,single,-0.78946
94,0.783333,jog,-1.1804872194887885,1.0355214208568435,-0.0043201728069166365,0.33087337696024943,0.9761246994712174,0.3161185844564015,-0.48673946957879477,0.7470298811952456,0.7724708988359603,-0.13356534261370945,0.1135245409816406,-0.1299651986079456,15.942075340517667,5.688455067305236,-23.09944791887523,-12.745019581175665,15.999679948795693,2.46259700382127,6.653332255934422,-4.608368662119233,2.7794223493406593,0.4186359999999999,-0.295708,-0.782987,-0.15891600000000006,0.09376099999999998,-0.849043,0.577552,0.389469,0.066056,0.0,0.6363057029981065,single,-0.782987
95,0.791667,jog,-1.0881929445644258,0.9756419486441009,-0.12730981521477927,1.4541443783592294,0.7141529390677412,0.6352834777931532,-0.6675065994720353,0.93904487640988,0.7735781137508934,-0.06131509479240752,0.08375329973602431,-0.10139188864890714,11.074427036760499,-7.1849618685795695,-14.757576482824778,-21.69032036155977,23.03995622925761,0.13285516137905362,8.669336191660832,-3.5722631684204527,3.428522913251528,0.4221419999999999,-0.296013,-0.775479,-0.150358,0.08632800000000002,-0.848827,0.5724999999999999,0.38234100000000004,0.07334799999999997,0.0,0.7581640182211032,single,-0.775479
96,0.8,jog,-1.1863674546981904,0.9924396975878993,-0.021480859234374115,0.329417842828857,0.8680241737841358,1.0604218758093804,-0.8577943117724591,1.1232449297971914,0.8016320652826086,0.04536181447257745,0.09384375375015021,-0.07032281291251659,-11.781412472550599,2.0158105056760234,12.699982716957242,-22.83543889360651,22.104890602101356,3.3666088481597356,12.8017411814454,1.2109029178118147,3.728438225895886,0.42488000000000004,-0.294923,-0.76862,-0.14009399999999994,0.07884000000000002,-0.8492339999999999,0.564974,0.373763,0.08061399999999996,0.0,0.7904393329281724,single,-0.76862
97,0.808333,jog,-1.2155286211448502,0.9795991839673714,-0.07452298091923537,0.425065036431461,0.4033422460993777,1.5635928106290962,-1.208088323532958,1.3746549861994597,0.693147725909043,0.11832473298932575,0.03564142565702561,-0.02616104644185743,-3.4994799527973175,-1.5409232713942118,-6.365309214551991,-42.03696288977584,30.17041358481587,-13.018641470486799,8.755900458028197,-6.984558753525157,5.299623961437605,0.42494199999999993,-0.29163100000000003,-0.762223,-0.12897899999999995,0.07097399999999998,-0.848831,0.5539209999999999,0.362605,0.08660800000000002,0.0,0.7894751663448286,single,-0.762223
98,0.816667,jog,-1.190184785217175,0.9886009119270378,0.018118550515960053,-0.1506192865914057,2.119569697769475,1.1129852190090272,-1.361531077513788,1.610751139908794,0.6808255339572781,0.06647468202543066,-0.0007199424046083459,0.008879289656827107,3.0410170299586037,1.0801209454843164,11.116094484664593,-18.41165754509586,28.329272103351624,-1.4785447506317362,-6.221508394995763,-4.363015126185947,4.204503971524391,0.42351399999999995,-0.28644600000000003,-0.7566999999999999,-0.118506,0.06272899999999998,-0.848908,0.54202,0.349175,0.09220800000000007,0.0,0.8882184241446006,single,-0.7566999999999999
99,0.825,jog,-1.1992079683187473,0.9548781951278129,-0.09924396975879392,0.15563956895071507,0.8224780775677576,1.7596610916968027,-1.6644665786631676,1.8805952238089685,0.6553462138485608,-0.002640105604220172,-0.00972038881555244,0.0064802592103682935,-1.0828252852001001,-4.046887891422681,-14.084065795602429,-36.353714286497336,32.3825853714361,-3.0576407186748424,-8.29410627980937,-1.0800967731842284,-0.2878951693818355,0.4196369999999999,-0.27873200000000004,-0.750412,-0.10853499999999994,0.05469099999999999,-0.848027,0.5281719999999999,0.333423,0.09761500000000001,0.0,0.9800382396289169,single,-0.750412
100,0.833333,jog,-1.2476899075962975,0.9162366494659752,-0.125405016200643,1.1355479290365311,1.5599077351336577,1.535646700234385,-1.7591503660146306,1.9230769230769231,0.5071402856114199,-0.012240489619590312,0.010320412816509616,-0.0018000720028802425,-5.818065435923434,-4.637170966259161,-3.1394511510679206,-11.362508982534813,5.098007832467834,-17.785422805369056,-1.1520921655310332,2.4049923955432586,-0.9936794927695308,0.41537499999999994,-0.27034199999999997,-0.745141,-0.09824,0.04714199999999996,-0.846997,0.5136149999999999,0.31748399999999993,0.10185599999999995,0.0,0.9731474827351105,single,-0.745141
101,0.841667,jog,-1.2042236621070144,0.9233261339092811,-0.12359011279097283,0.3842426696372321,1.7823373317325344,1.4353759710878278,-1.8582913366930538,2.0469162467002406,0.36933045356371175,-0.017878569714417276,0.031197504199668345,-0.03599712023038066,5.215532216136645,0.8506700795903375,0.21777098748142135,-11.895964804226356,14.859530072392197,-16.535856977166677,-0.6765154901400193,2.5050505619340733,-4.1033175218982665,0.40992399999999984,-0.26097800000000004,-0.741033,-0.08835300000000001,0.03970699999999999,-0.846267,0.49827699999999986,0.30068500000000004,0.10523399999999994,0.0,0.9152008879075231,single,-0.741033
102,0.85,jog,-1.1928477139085745,0.9249969998800027,-0.044401776071041024,-0.11119180441252571,2.0109518546789515,1.6035596001333763,-1.9873994959798365,2.1782071282851545,0.29293171726869327,-0.027721108844351774,0.039961598463935585,-0.017040681627265634,1.3651683905484224,0.20051193696407665,9.502980525612928,-15.493598858368395,15.755536011630273,-9.168215084005661,-1.1811519416698173,1.0517333810473204,2.2748636269189006,0.4033030000000001,-0.250535,-0.738222,-0.07864399999999994,0.03233199999999997,-0.846039,0.481947,0.282867,0.10781699999999994,0.0,0.9141096620089986,single,-0.738222
103,0.858333,jog,-1.187327493099714,0.9272770910836375,-0.1946477859114371,-0.406586776690487,0.6304503900491937,1.5908163444258743,-2.0676827073082933,2.277091083643332,0.20724828993159716,0.003840153606134747,0.012480499219967906,-0.008520340813632704,0.6624529951830644,0.2736218893117492,-18.03024239054308,-9.63437073424415,11.866549304953423,-10.282422577354584,3.787502994178134,-3.297863823829061,1.0224817969078237,0.39596699999999996,-0.23928700000000003,-0.734873,-0.06871800000000006,0.02470899999999998,-0.844488,0.464685,0.263996,0.10961500000000002,0.0,0.974013580038007,single,-0.734873
104,0.866667,jog,-1.251379889608841,0.8759299256059533,-0.16294696424285793,0.7847811046887206,1.5767263959312692,1.3028026488090199,-2.3390928725701956,2.513678905687559,0.2594192464602843,0.007199424046083555,-0.036597072234221435,-0.01715862730981499,-7.685672727277112,-6.161166963965028,3.8037942966857887,-32.56661450226828,28.388267583900692,6.2600139823239065,0.4030802063773491,-5.888837467505354,-1.03651145862519,0.3869020000000001,-0.225638,-0.731353,-0.058228999999999975,0.017104000000000008,-0.843273,0.44513100000000005,0.242742,0.11192000000000002,0.0,0.9315733179504987,single,-0.731353
105,0.875,jog,-1.1804872194887728,0.9153966158646336,-0.2012480499220008,0.3929964576480731,0.903870002384758,1.497049754371748,-2.3220928837153365,2.510500420016796,0.14532581303252282,0.0244809792391673,-0.027241089643582895,-0.0012000480019204393,8.507460712836671,4.736192278732768,-4.596314134062487,2.0400802657937143,-0.3814335378330529,-13.69175968171859,2.0738695779531593,1.1227628213894758,1.9151061211921858,0.3773890000000001,-0.21234599999999998,-0.728465,-0.04818800000000001,0.009249000000000007,-0.841606,0.4255770000000001,0.221595,0.11314099999999994,0.0,0.9389254684675907,single,-0.728465
106,0.883333,jog,-1.188887555502215,0.9409576383055267,-0.2179287171486898,0.12093134617019365,-0.01957393488787487,1.4075782136895922,-2.3363734549382094,2.6090243609744292,0.12060482419296459,0.0337213488539511,-0.009960398415936565,0.0010800432017283122,-1.0080806448388466,3.0674453907227868,-2.0017601376081773,-1.713737096228584,11.823345848749895,-2.9666373262400247,1.1088887093224244,2.073765897953469,0.2736218893134215,0.3678269999999999,-0.19844599999999996,-0.725644,-0.038000000000000034,0.0013250000000000206,-0.839781,0.40582699999999994,0.19977099999999998,0.11413700000000004,0.0,0.9413696751185954,single,-0.725644
107,0.891667,jog,-1.0880729541636822,1.0724742020638411,0.25893928485721207,1.3342830173902205,5.303990144260915,-0.024541115224725095,-2.5829133669306525,2.879649628029773,0.16678665706743584,0.01751859851211667,0.009239260859130571,-0.005999520038397134,12.096784417870564,15.780725192982384,57.21958267409462,-29.58242284526573,32.472434251901305,5.541376634805797,-1.9441745070595784,2.3037748110231875,-0.8494796304446228,0.35536900000000005,-0.18338499999999996,-0.726412,-0.02878599999999998,-0.007535999999999987,-0.841989,0.384155,0.17584899999999998,0.11557700000000004,0.0,0.9655092816131432,single,-0.726412
108,0.9,jog,-1.1617664706588142,0.9249969998799904,-0.33601344053760973,-0.13806715303031028,-0.8314164926984042,1.4260413804807603,-2.620184807392274,2.9621984879394967,0.1057242289691608,0.0012000480019279335,0.008640345613826497,-0.006120244809791825,-8.843575722444701,-17.697972180949254,-71.3971829346957,-4.4727517654651745,9.90625943954436,-7.327784483172302,-1.9583043933983761,-0.07187270434466238,-0.01448755206944566,0.3432160000000001,-0.16640900000000003,-0.722731,-0.019094999999999973,-0.015171999999999963,-0.8392400000000001,0.36231100000000005,0.15123700000000007,0.11650900000000008,0.0,0.9822397850938079,single,-0.722731
109,0.908333,jog,-1.1653666146646002,0.9252370094803937,-0.07920316812673839,1.5715340616335427,1.5717978553019907,0.8594712611090746,-2.702148085923476,3.0308412336493804,0.07044281771270633,0.002400096003842576,0.009120364814588465,-0.008040321612865135,-0.43203456207680824,0.028802304140558063,30.81846542792196,-9.835986863218873,8.237458983545462,-4.233938708322908,0.14401152069058604,0.05760460827576769,-0.23041843310612353,0.33041,-0.14886300000000002,-0.721484,-0.009363999999999928,-0.02280600000000005,-0.8386469999999999,0.3397739999999999,0.12605699999999997,0.1171629999999999,0.0,0.9793448764213902,single,-0.721484
110,0.916667,jog,-1.1659467242620472,0.8929685625149858,-0.38540916726661484,-0.06434377069063939,-1.794114184757273,1.5021871015696309,-2.803815694744389,3.1364290856731185,0.008999280057597663,0.009839212862960744,0.015118790496761942,-0.006239500839932337,-0.06960758308698298,-3.871903883538232,-36.741780554340544,-12.199137127539233,12.669528680554032,-7.372634707836357,0.8926226132851105,0.7197535015806853,0.21608120625543373,0.31676000000000004,-0.130166,-0.718197,0.0004349999999999632,-0.030121999999999982,-0.835487,0.3163250000000001,0.10004400000000002,0.11729,0.0,0.9681880828331431,single,-0.718197
111,0.925,jog,-1.0894035761430447,0.9257170286811433,-0.22080883235328755,0.36626408634045954,0.01960047023075396,0.6796377299359695,-2.9540381615264453,3.255010200408007,-0.021720868834755037,0.002400096003842544,0.025921036841472827,0.007320292811712264,9.185545196088096,3.9299731388644323,19.752830302811304,-18.027417110531115,14.230302980305776,-3.6865653296954966,-0.8927297322834717,1.2963214142218695,1.6272403278104577,0.3012220000000001,-0.11075599999999997,-0.716538,0.009533000000000014,-0.03761999999999999,-0.833586,0.2916890000000001,0.07313599999999998,0.11704800000000004,0.0,0.9549306923045227,single,-0.716538
112,0.933333,jog,-1.0660026401056109,0.9343573742949821,-0.17316692667706532,0.6571998989957305,0.4546242914338531,0.8505200651776729,-2.9721588863554795,3.2378495139805863,-0.12816512660506366,0.00900036001440633,0.02148085923436774,-0.002760110404416464,2.8082246534782294,1.0368829489786322,5.717257371441577,-2.1745739624426292,-2.0593647458803437,-12.773821885312564,0.7920633638022136,-0.5328426265576778,-1.2096967738064106,0.2853380000000001,-0.091561,-0.716163,0.018491000000000035,-0.04522700000000002,-0.8321660000000001,0.26684700000000006,0.046333999999999986,0.11600300000000008,0.0,0.9609113541890496,single,-0.716163
113,0.941667,jog,-1.1076313894888312,0.9041276697864119,-0.20086393088553534,0.9048352148401834,-0.6723522101125399,0.9727247351534645,-3.202783777297811,3.4449244060474915,-0.18382529397648115,0.05075593952483177,0.06371490280777534,-0.01799856011519033,-4.995050321960649,-3.627274359079671,-3.323374635045573,-27.672773091232287,24.84699928808539,-6.678685789706871,5.010268719753435,5.06767981442372,-1.8284676878778199,0.2678769999999999,-0.070386,-0.716021,0.028144999999999976,-0.05223100000000003,-0.830642,0.23973199999999995,0.018154999999999977,0.11462099999999997,0.0,0.8609586152427915,single,-0.716021
114,0.95,jog,-1.0414016560662478,0.9495979839193659,-0.21468858754349524,-0.06943584131041555,-0.4489775598879386,1.104843647875754,-3.05016200648029,3.2842913716548967,-0.32089283571343263,0.01092043681748039,0.03396135845434247,0.014880595223808982,7.94788592614713,5.456655962193016,-1.6590251599616015,18.315345111907195,-19.276735196519414,-16.44876295895269,-4.780451542943927,-3.570568145137782,3.9456564669386305,0.25113799999999986,-0.050931000000000004,-0.716906,0.036914,-0.059861,-0.828729,0.21422399999999986,0.008929999999999993,0.111823,0.0,0.9355781713460292,single,-0.716906
115,0.958333,jog,-1.1642865714628656,1.0105604224168938,-0.034921396855879035,1.3747537684736486,0.7129516583161487,1.1099773776919442,-3.4624984999399717,3.492019680787215,-0.31033241329653116,0.009600384015356853,0.026041041641661624,0.00864034561382483,-14.746779718782829,7.315785251113364,21.572925799545835,-49.48235850950199,24.92839423164736,1.2673013820834547,-0.15841267276173418,-0.9504760365631602,-0.7488599075943988,0.23198700000000005,-0.03025300000000003,-0.719201,0.04669600000000007,-0.06806500000000004,-0.8283659999999999,0.18529099999999998,0.03781200000000001,0.10916499999999996,0.0,0.9515530417377411,single,-0.719201
116,0.966667,jog,-1.1251499880009477,0.9817614590832618,-0.16918646508279478,0.47255874725339736,-0.35313703815035763,1.4251991893063338,-3.3960883129349355,3.440124790016776,-0.43580513558914913,0.03035757139428195,0.05483561315095239,0.056635469162466597,4.696014334283376,-3.455599152103641,-16.110519345682114,7.968584953807979,-6.226888741353333,-15.055522233335374,2.4906632324123996,3.455072175340838,5.758954109508207,0.21306100000000006,-0.009764999999999968,-0.7214229999999999,0.05632599999999999,-0.07578999999999997,-0.826484,0.15673500000000007,0.066025,0.10506100000000007,0.0,0.8592075702609953,single,-0.7214229999999999
117,0.975,jog,-1.230769230769234,1.0175207008280442,-0.15192607704308184,0.8425793580932699,-0.904114604423344,1.7033584592659259,-3.5471018840754054,3.5138605544222092,-0.46117844713788797,0.02544101764070466,-0.011040441617669188,-0.012480499219968903,-12.674816124839461,4.291280660600351,2.0713294179422896,-18.12235343099379,8.848645674479053,-3.0449191826159936,-0.5900100508313136,-7.9054427899462585,-8.294247975811368,0.1937589999999999,0.011037000000000019,-0.724,0.06679399999999991,-0.08436100000000002,-0.825322,0.126965,0.09539800000000004,0.10132200000000002,0.0,0.9493130635258766,single,-0.724
118,0.983333,jog,-1.232449297971914,1.1180847233889333,0.06600264010561001,0.8907448221369586,0.15349719948691917,1.7176398113848983,-3.5028201128044865,3.550942037681493,-0.530781231249249,0.009360374414979259,-0.003000120004799849,-0.037201488059522794,-0.20161612896675676,12.06816543392399,26.152492157529213,5.31402511351479,4.449955989353617,-8.352668200091296,-1.9297543772621306,0.9648771886318618,-2.9666373262395043,0.17484,0.031310000000000004,-0.7289730000000001,0.07714199999999993,-0.09370300000000004,-0.8261820000000001,0.09769800000000006,0.12501300000000004,0.09720899999999999,0.0,0.9358697496610172,single,-0.7289730000000001
119,0.991667,jog,-1.282337413006967,1.031677465802741,0.07487401007918904,0.7910926253190347,-0.11391554803426318,1.8892557204431972,-3.5514758819294676,3.5326373890088956,-0.5718742500599976,0.010319174466046434,0.04043676505879933,0.019678425725942566,-5.9860949166130615,-10.36804146702577,1.06447923849041,-5.838225236978813,-2.1963821301413025,-4.930767795866186,0.11504680238387104,5.212009246892181,6.8250436507638215,0.15592899999999998,0.05215299999999998,-0.734363,0.08791499999999997,-0.101964,-0.826642,0.06801400000000002,0.15411699999999998,0.092279,0.0,0.923100755509912,single,-0.734363
120,1.0,jog,-1.2884915396615806,1.170646825873025,0.0907236289451549,0.482400513193719,-0.7422210165797191,1.7322200676650106,-3.823472938917544,3.5919836793471607,-0.5291011640465592,0.04908196327853006,-0.003120124804995307,0.04860194407776238,-0.7385247395432201,16.676990288045523,1.902030345129701,-32.64095247666808,7.12183971418035,5.132975640638216,4.651720726327069,-5.227035865089939,3.4709610406599896,0.13480499999999995,0.07233000000000003,-0.739528,0.09906099999999995,-0.11174499999999998,-0.826993,0.035744,0.18407500000000002,0.08746500000000001,0.0,0.8847596320461293,single,-0.739528
121,1.008333,jog,-1.513860554422196,1.263770550822046,0.1954878195127813,1.5319163196773289,-0.8486726775225542,2.5707187238210576,-3.8126725069003102,3.580343213728582,-0.5822632905316277,0.006720268810745889,0.01260050402016353,0.08124324972999042,-27.04536358581752,11.17529400564286,12.572205756345536,1.2961036862155026,-1.396911750699482,-6.379710366622952,-5.083606680401363,1.88655092105592,3.9171133628019126,0.115649,0.09163400000000002,-0.7460089999999999,0.11173199999999994,-0.12217099999999997,-0.8279449999999999,0.003917000000000059,0.213805,0.08193600000000001,0.0,0.8625186846923429,single,-0.7460089999999999
122,1.016667,jog,-1.276817854571626,1.2814974802015768,0.22522198224142106,0.6288960999143106,-1.2387796897268257,0.8338666503505757,-3.7138228941684455,3.5891528677705504,-0.5238780897528151,-0.025677945764331033,0.04943604511638647,0.052555795536356795,28.44284855418384,2.1270613606348285,3.56781410230856,11.861004647451885,1.0570739191226737,7.005663640366229,-3.887474751029119,4.419911338639627,-3.442219125705952,0.09533899999999995,0.11086599999999999,-0.7522519999999999,0.12215900000000002,-0.13243900000000003,-0.829384,0.026820000000000066,0.24330500000000002,0.07713200000000009,0.0,0.8723569310333099,single,-0.7522519999999999
123,1.025,jog,-1.3372134885395555,1.2830913236529553,0.24936997479899714,0.8866384930593318,-1.1885421490566694,0.941028634056874,-3.814352574102993,3.5461418456738585,-0.630985239409582,0.023880955238203654,-0.016080643225725274,0.10656426257050378,-7.247765986791073,0.1912688649200154,2.897875021910032,-12.064044153911984,-5.161529112767591,-12.853372093695883,5.947306012544718,-7.86231709373723,6.481275295109501,0.07469700000000001,0.129724,-0.759588,0.13350099999999998,-0.14326499999999998,-0.830574,0.05880399999999997,0.272989,0.070986,0.0,0.8160251438765082,single,-0.759588
124,1.033333,jog,-1.3205328213128311,1.3402136085443197,0.22596903876154267,0.5572868835076146,-2.0935419653056297,1.0376574287086062,-3.9507980319212086,3.57506300252004,-0.4692187687507414,-0.02820112804511954,0.011160446417857689,0.13332533301331748,2.001760137612391,6.854948384899004,-2.808224653480626,-16.374109902581676,3.4706776486476474,19.412752989180092,-6.250099997998594,3.269061519690686,3.2114569114140443,0.05277900000000002,0.148347,-0.765381,0.14427,-0.15433999999999998,-0.8313459999999999,0.09149099999999999,0.302687,0.06596499999999994,0.0,0.7721141635088653,single,-0.765381
125,1.041667,jog,-1.3819294456443747,1.38984881209506,0.3369330453563818,1.5083802722414663,-1.462926684615607,0.5869958778139827,-3.953683705303655,3.541276697864238,-0.5199184065274881,0.0011999040076872693,0.007559395248377843,0.19738420926326278,-7.3670055593406225,5.955747966251656,13.314615622131178,-0.3462531056451079,-4.054032236117429,-6.083469855621268,3.5278416190073636,-0.4320915730117488,7.686450233974864,0.031345999999999985,0.166277,-0.772522,0.15579700000000007,-0.16586,-0.832509,0.12445100000000009,0.332137,0.05998700000000001,0.0,0.6707790749670757,single,-0.772522
126,1.05,jog,-1.3840153606144021,1.3970958838353273,0.4605784231369184,1.2312827461799325,-1.3829884729204212,0.5620869550475954,-4.0036001440056905,3.583463338533478,-0.49105964238568667,-0.05376215048601898,0.011880475219010441,0.2464898595943795,-0.2503198091956531,0.8696833961679058,14.838038855218338,-5.990212252734284,5.062599384284129,3.463190224625097,-6.595710367659341,0.5185503384894423,5.8929137562841545,0.009516999999999998,0.184496,-0.780452,0.16688200000000009,-0.17740299999999998,-0.8342930000000001,0.1573650000000001,0.36189899999999997,0.05384100000000003,0.0,0.5790593687968715,single,-0.780452
127,1.058333,jog,-1.4921396855874305,1.4026161046441992,0.6770670826833178,-0.351892033131951,0.23250178432423382,0.09015472643249603,-4.003600144005797,3.513380535221441,-0.437297491899681,-0.03480139205568404,0.04776191047642063,0.3224528981159278,-12.975438014284094,0.6624529951844322,25.97967833270148,-1.2790280854916118e-11,-8.410272808356861,6.45171612696582,2.27538202692129,4.305944468668009,9.115929259756271,-0.01141100000000006,0.20208500000000001,-0.789738,0.17902600000000002,-0.18869299999999997,-0.837248,0.19043700000000008,0.39077799999999996,0.04750999999999994,0.024900000000000033,0.5,flight,-0.789738
128,1.066667,jog,-1.455243580513551,1.4757619390448657,0.5925125989920759,1.2499352177272052,-0.9860034879897308,0.21867934029049146,-4.014998800095957,3.465802735781111,-0.3632109431245475,-0.12227021838252752,0.10643148548115723,0.36009119270458134,4.427178434590728,8.776797984241183,-10.145726384838172,-1.3677293124741647,-5.708879222501746,8.889674679041628,-10.495419525659084,7.039785817702922,4.516234051914236,-0.032743999999999995,0.21867,-0.797703,0.19013500000000005,-0.200105,-0.8391850000000001,0.22287900000000005,0.418775,0.04148200000000002,0.08518000000000009,0.5,flight,-0.797703
129,1.075,jog,-1.4698187927517146,1.5109804392175814,0.590303612144492,1.1516276927569276,-1.1651630572025085,0.18810799552614774,-3.841353654146199,3.3888155526221357,-0.22068882755310334,-0.1851674066962782,0.04200168006720511,0.4334573382935354,-1.749095432396931,4.226389076288969,-0.26508902527107653,20.838251044012924,-9.238831532338432,17.103338002093537,-7.547964516230801,-7.731885925111331,8.804289642260256,-0.05250600000000005,0.234318,-0.8044610000000001,0.2008399999999999,-0.21234599999999998,-0.840492,0.25334599999999996,0.446664,0.036030999999999924,0.13969000000000004,0.5,flight,-0.8044610000000001
130,1.083333,jog,-1.509420376815057,1.5478219128764872,0.5879035161406337,0.9538047505004297,-0.5083306808526892,0.3093158427992803,-3.8078723148925233,3.2614904596183276,-0.148325933037319,-0.25993039721588423,0.09240369614784344,0.5109804392175595,-4.752380182808312,4.421153685216025,-0.2880230413846422,4.017921427298078,-15.279622345350521,8.683894697681877,-8.971917739062128,6.048483869031255,9.303144236652201,-0.07165899999999992,0.248598,-0.8105960000000001,0.211252,-0.22447399999999998,-0.841133,0.2829109999999999,0.473072,0.030536999999999925,0.19463000000000003,0.5,flight,-0.8105960000000001
131,1.091667,jog,-1.543436525078018,1.5776337892968888,0.6147108231341596,0.851082834733015,-0.08386440842403352,0.06214221290481016,-3.8328533717303412,3.249340052795837,0.0053995680345577425,-0.3293736501079973,0.1298296136309086,0.5345572354211765,-4.081611262654393,3.577138999328316,3.2166195096623897,-2.9974870215764824,-1.457932184124154,18.44558448186701,-8.332523745154113,4.490750837900874,2.8289892252960662,-0.09073900000000001,0.26253,-0.815674,0.22136999999999996,-0.23654000000000003,-0.841801,0.31210899999999997,0.49907,0.02612700000000001,0.23873,0.5,flight,-0.815674
132,1.1,jog,-1.5403816152645786,1.5637825513020231,0.7076683067322486,0.27588294286651804,-0.40141188056713867,0.03237731261123572,-3.6044641785670803,3.088683547341841,0.0235209408376333,-0.3849753990159525,0.19644785791431307,0.5687027481099145,0.36660384176638816,-1.6622150479857685,11.155344245540304,27.40779949157049,-19.279551836552685,2.1746517224379263,-6.672476768025231,7.99450909437217,4.097625427665595,-0.10793900000000006,0.275237,-0.821375,0.23099799999999993,-0.24793400000000002,-0.842959,0.338937,0.523171,0.021584000000000048,0.28415999999999997,0.5,flight,-0.821375
133,1.108333,jog,-1.5688227529101308,1.591623664946612,0.6485059402376245,0.24990563849454026,0.3242551786741592,0.3636421715753565,-3.397935917436726,2.8534741389655838,0.13128525141005734,-0.44497779911196056,0.1782071282851347,0.6255850234009412,-3.413073040387914,3.341067280041895,-7.099767970073752,24.784382710951178,-28.22625805547332,12.932234558073326,-7.200576034562414,-2.1889751145060035,6.8261460807665015,-0.12318100000000004,0.285752,-0.825685,0.240363,-0.259712,-0.8431500000000001,0.36354400000000003,0.545464,0.017465000000000064,0.3253499999999999,0.5,flight,-0.825685
134,1.116667,jog,-1.519318454523634,1.5981521478281628,0.7045836333093285,-0.36017450673665147,-0.7712726941189251,0.19221501919528944,-3.180465562754959,2.578473722102213,0.19162467002639658,-0.4274058075354017,0.3713702903767688,0.689584833213338,5.940040603131324,0.7833552773639051,6.728784865815158,26.094355013410784,-32.99741023078579,7.240151021878903,2.108470311562123,23.177725232977274,7.679362828461271,-0.137025,0.293922,-0.82996,0.249463,-0.269936,-0.843275,0.386488,0.563858,0.013314999999999966,0.3668499999999999,0.5,flight,-0.82996
135,1.125,jog,-1.559342373694956,1.6297851914076706,0.6236649465978705,-0.21325021389820242,0.060354134401434,0.33751525499777874,-2.927757110284438,2.3118924756990498,0.20856834273371,-0.5076203048121919,0.35137405496220003,0.7083883355334285,-4.803062423055617,3.79611707422394,-9.710630830608268,30.326227345556592,-31.991029209548255,2.0333220577599396,-9.62612471820364,-2.3996442355176915,2.2565105388324382,-0.14842800000000006,0.29960600000000004,-0.833419,0.258227,-0.280589,-0.842569,0.40665500000000004,0.580195,0.009149999999999991,0.4085000000000001,0.5,flight,-0.833419
136,1.133333,jog,-1.579983199327989,1.6581063242529848,0.5963038521540918,-0.635822571848107,-0.09476625721410051,0.24166446033329175,-2.6476659066362895,2.0654026161046604,0.21396855874235246,-0.5643825753030188,0.3661346453858219,0.7460698427937186,-2.476998155890197,3.3986718883132583,-3.2834626717603523,33.61228892933532,-29.579966349981,0.6480518431108256,-6.811744928696442,1.7713417045028217,4.521961749704838,-0.15732500000000005,0.303,-0.836605,0.26669,-0.291355,-0.841321,0.42401500000000003,0.594355,0.0047159999999999425,0.45284,0.5,flight,-0.836605
137,1.141667,jog,-1.6087113030957403,1.671346292296605,0.5235181185505127,-0.45076846035466156,0.6426151518249723,0.30399599015034906,-2.4101271898247947,1.8132949364050754,0.17362610991120625,-0.7585793136549078,0.48872090232780924,0.866930645548349,-3.4470966843953863,1.5886690717086696,-8.733589345281802,28.502365828112914,-30.250501523828053,-4.840706603209251,-23.30174446266949,14.709174099110438,14.502136159662765,-0.16400400000000004,0.304183,-0.8395210000000001,0.27377499999999994,-0.301211,-0.8384590000000001,0.437779,0.605394,0.0010620000000000074,0.5,0.48938000000000004,flight,-0.8384590000000001
138,1.15,jog,-1.630505220208825,1.7064682587303643,0.44545781831272907,-0.3399642736977108,0.7498077219173556,0.19795401185375455,-2.1125645025801236,1.550582023280944,0.0843633745349816,-0.7626305052202157,0.48049921996880407,0.8832353294131853,-2.6153746685569375,4.214804564233739,-9.367610732963437,35.70895082739395,-31.52681064732196,-10.711956723415993,-0.4861624343343217,-0.9866413487345784,1.9566403293935497,-0.16802100000000003,0.302884,-0.84253,0.28100699999999995,-0.311427,-0.834811,0.449028,0.6143109999999999,0.007719000000000031,0.5,0.42280999999999996,flight,-0.834811
139,1.158333,jog,-1.6012240489619296,1.6589463578542847,0.4389775591023624,-0.9774300815623523,-0.17793645301952596,0.01206292692388475,-1.828993159726351,1.3318132725308809,-0.021960878435137332,-0.7999519980799031,0.5059402376094952,0.965918636745453,3.5138811048715866,-5.702856219378234,-0.7776622117324545,34.0299223393457,-26.25330022201599,-12.75942073324338,-4.478758293494154,3.0530442386524337,9.922393775622975,-0.169919,0.30015800000000004,-0.846371,0.287684,-0.32103499999999996,-0.83042,0.457603,0.621193,0.015950999999999937,0.5,0.34048999999999996,flight,-0.83042
140,1.166667,jog,-1.6529877609791543,1.7192224622030565,0.261099112071034,0.18314215896247105,1.3627578035860446,0.20928977650028513,-1.5766738660907476,1.118070554355672,-0.1250299976001945,-0.9042476601872007,0.6147108231341596,1.1029517638589112,-6.211148550183072,7.232553917539356,-21.343706147268037,30.27589316481979,-25.647074415072357,-12.367304915413863,-12.514478294612378,13.05142614886806,16.44265984082804,-0.16928300000000002,0.295148,-0.8495889999999999,0.293924,-0.33024,-0.823404,0.46320700000000004,0.625388,0.026184999999999903,0.5,0.23815000000000003,flight,-0.823404
141,1.175,jog,-1.5945037801511774,1.63050522020878,0.24852994119764896,-0.9270955043995815,-0.4380112091237366,0.06734787265216706,-1.345973838953535,0.9423976959078196,-0.24420976839073077,-1.1494059762390265,0.8126725069002618,1.1981279251169845,7.018358433694453,-10.646494899108964,-1.5083608392397458,27.685110660891464,-21.081586277192994,-14.302144580647328,-29.42017473320791,23.756352306024095,11.421596214817185,-0.16721200000000003,0.289414,-0.853695,0.29763300000000004,-0.337055,-0.815491,0.46484500000000006,0.6264689999999999,0.038204000000000016,0.5,0.11796000000000001,flight,-0.815491
142,1.183333,jog,-1.620424816992693,1.6457458298332082,0.14628585143405512,-0.14254321614709312,0.5044693242544841,0.16977620522160786,-1.129605184207379,0.8059522380895309,-0.3705748229929223,-1.2103684147366052,0.8767550702028136,1.1981279251170147,-3.110648846935763,1.8289463127839112,-12.269781562893888,25.965277180626163,-16.374109902590906,-15.164413128788276,-7.31578525111955,7.690215204914483,3.6239129088928997e-12,-0.16312200000000004,0.282416,-0.8580019999999999,0.30105,-0.343463,-0.806726,0.46417200000000003,0.6258790000000001,0.05127599999999988,0.5,0.0,flight,-0.806726
143,1.191667,jog,-1.6183105351571783,1.5928725701943722,0.026517878569717428,-0.04985796020772244,0.6031215193083097,0.17468745601464955,-0.9664026877849672,0.6664266858651261,-0.47564194864410597,-1.3005759539236814,0.9406047516198681,1.0847132229421554,0.253693524779774,-6.344283613971146,-14.37100706315536,19.582732952053117,-16.741726928774142,-12.607046514420787,-10.824038779346719,7.66134886213751,-13.608675566937654,-0.157689,0.274695,-0.862187,0.30369799999999997,-0.34889899999999996,-0.797907,0.461387,0.623594,0.06428,0.5,0.0,flight,-0.797907
144,1.2,jog,-1.6167046681867403,1.6131045241809818,-0.007800312012478379,0.12751442574763336,0.6278426320229623,0.25488543595677843,-0.8168726749070047,0.568942757710313,-0.5925837033481391,-1.52706108244331,1.047521900876043,1.0320412816512785,0.1927117449223543,2.4279315956570002,-4.118347603767685,17.944319318128393,-11.698539320150486,-14.033571907360404,-27.17930259445945,12.83057113358645,-6.320885790336903,-0.15102400000000002,0.265994,-0.86706,0.30444499999999997,-0.353612,-0.789242,0.455469,0.619606,0.07781800000000005,0.5,0.0,flight,-0.789242
145,1.208333,jog,-1.6153846153845872,1.6039841593663464,-0.11964478579143265,0.4761545970607331,0.7356662260034044,0.22685833968901456,-0.644185767430684,0.4720988839553491,-0.6810272410896316,-1.6613464538581213,1.1201248049921813,1.0913236529460977,0.1584126727652777,-1.09448755725852,-13.421873728423414,20.723257827471215,-11.621729719784256,-10.613649074941911,-16.114889165343694,8.712697001816508,7.114169122143061,-0.142931,0.256562,-0.871738,0.304062,-0.35764399999999996,-0.779151,0.446993,0.614206,0.09258699999999997,0.5,0.0,flight,-0.779151
146,1.216667,jog,-1.6009119270458692,1.5825533957283717,-0.24034077273818275,0.7699288449497612,0.8022853068109556,0.18531433327383048,-0.43688504919607324,0.2904967602591856,-0.7798176145908481,-1.8743700503960035,1.1565874730021761,1.0424766018718703,1.7365836739522846,-2.571485917683597,-14.482359844822701,24.87409626045293,-21.79051160261183,-11.853896508425525,-25.56078672160862,4.375170147587661,-5.861177234728618,-0.13323,0.245794,-0.8762340000000001,0.301783,-0.361194,-0.76846,0.435013,0.6069880000000001,0.10777400000000004,0.5,0.0,flight,-0.76846
147,1.225,jog,-1.5775831033241043,1.5196207848313668,-0.27397095883835293,0.5049968724483683,0.977351878295957,0.13866786913455617,-0.3507740309612334,0.16968678747149238,-0.8637945517820557,-1.9492379695187476,1.2893315732629118,1.068282731309233,2.799570829444906,-7.552215396256314,-4.035783763370886,10.333735537602106,-14.497776645588754,-10.077635568367468,-8.984509675116145,15.929929228457143,3.0968594068597324,-0.123007,0.23454499999999998,-0.881149,0.298686,-0.363113,-0.757275,0.421693,0.597658,0.12387399999999993,0.5,0.0,flight,-0.757275
148,1.233333,jog,-1.5623424936997625,1.526461058442351,-0.4081363254530203,0.9607661008357479,0.9472245104430793,0.2798174318044515,-0.15888635545421864,-0.046201848073919624,-0.8035521420856908,-2.0357614304572342,1.3507740309612495,0.9911196447858025,1.8289463127735457,0.8208656679448378,-16.100488013280764,23.02744215852832,-25.90767257235257,7.229378338697396,-10.383230641844163,7.373389859394964,-9.259940780442951,-0.111312,0.22144000000000003,-0.884444,0.29474100000000003,-0.364577,-0.745615,0.406053,0.586017,0.13882899999999998,0.5,0.0,flight,-0.745615
149,1.241667,jog,-1.47240220782336,1.4919606431485368,-0.45032397408207075,0.8788766094416093,0.9723081973795428,-0.007874958934648466,0.023638108951284046,-0.1005519558435324,-0.39176865850731607,-2.1805855531557303,1.3563714902807649,0.921046316294688,10.791970947492413,-4.1397186577650515,-5.062112866456698,21.90118363396944,-6.521491213056438,49.41006522418666,-17.37750452345752,0.6716413870308786,-8.408126768792169,-0.09884400000000002,0.20816800000000002,-0.883956,0.288839,-0.365707,-0.734186,0.387683,0.573875,0.14976999999999996,0.5,0.0,flight,-0.734186
150,1.25,jog,-1.4806192247690062,1.4342973718948895,-0.5743429737189488,1.1557284198645015,1.1805460846289202,-0.07306380257407026,-0.049201968078722846,0.054722188887557435,-0.18264730589223765,-2.351254050162038,1.6359054362174676,0.9335173406936372,-0.9860814767366151,-6.919869345211553,-14.882875271436362,-8.741158889956505,18.63364271343949,25.095566136455098,-20.481038882312404,33.5454153290178,1.4965827911855656,-0.086916,0.196672,-0.880692,0.28158399999999995,-0.364027,-0.7216210000000001,0.36849999999999994,0.5606990000000001,0.15907099999999996,0.6718088718734251,0.0,single,-0.7216210000000001
151,1.258333,jog,-1.428057122284907,1.3088923556942398,-0.6073442937717676,0.855903044899095,1.3322171638867066,-0.22490114536675399,-0.19908796351854516,0.1911676467058713,-0.2337693507740329,-2.4540981639265755,1.8826353054122313,0.8408736349454038,6.307704606276213,-15.04920391223459,-3.9603168190110467,-17.987038934336216,16.374109902593915,-6.134890781446744,-12.341787323237543,29.60876865411808,-11.117689397364009,-0.076675,0.18735800000000002,-0.877579,0.273034,-0.359246,-0.709553,0.349709,0.5466040000000001,0.168026,0.5,0.0,flight,-0.709553
152,1.266667,jog,-1.392968562514986,1.357451403887679,-0.6369090472762106,1.6797674094339583,1.2702615030917754,-0.129570576488827,-0.31269498440124516,0.24586033117350034,-0.31557475401967605,-2.519918406527451,1.9871610271178177,0.7704583633309289,4.210290349162566,5.826619653640376,-3.547486621603403,-13.631751965766634,6.562597128345167,-9.815863120427467,-7.897797288321919,12.54208323801123,-8.449156661204029,-0.06767200000000001,0.17809399999999997,-0.8749009999999999,0.26364200000000004,-0.353998,-0.697824,0.33131400000000005,0.532092,0.17707699999999993,0.5,0.0,flight,-0.697824
153,1.275,jog,-1.3620544821793028,1.316932677307104,-0.6378255130205217,1.9187436182277362,1.1065746505747667,-0.2811106468363741,-0.32269290771631126,0.04920196807872618,-0.2676107044281799,-2.598703948157961,2.092883715348631,0.6810272410896481,3.7098380338033583,-4.862441687336549,-0.10998028852887964,-1.199798789759534,-23.599947569275887,5.755916187627094,-9.454643181388555,12.687230076900791,-10.732163955512014,-0.05901099999999998,0.16753,-0.871816,0.253337,-0.347532,-0.6868340000000001,0.31234799999999996,0.515062,0.18498199999999998,0.5,0.0,flight,-0.6868340000000001
154,1.283333,jog,-1.3114124564982361,1.2641305652225854,-0.6439457578302997,2.0897143701747707,0.8835952296385579,-0.4052500842387926,-0.25753030121204173,-0.006000240009599618,-0.17232689307572,-2.6944677787110947,2.279011160446379,0.5406216248649862,6.077286173174823,-6.336506910418534,-0.7344587555235704,7.819825573535148,-6.624529951797051,11.434514742884705,-11.492119351149881,22.33618685920373,-16.849347920875964,-0.05022899999999997,0.15694600000000003,-0.867886,0.24181200000000003,-0.339075,-0.676963,0.292041,0.49602100000000005,0.19092300000000006,0.5,0.0,flight,-0.676963
155,1.291667,jog,-1.3048956083513528,1.306455483561341,-0.639788816894661,2.5879065050763206,0.7929240465510419,-0.39449091894257166,-0.1351091912647033,0.009839212862967668,-0.037077033837293334,-2.815214782817426,2.337053035757183,0.4446844252459872,0.7819592208883468,5.078583913937643,0.4987930088359437,14.689358045037288,1.9005822981242606,16.2286848138264,-14.488481414246907,6.964467879866231,-11.51154303083763,-0.040480000000000016,0.14614,-0.862863,0.229225,-0.330486,-0.6679250000000001,0.26970500000000003,0.476626,0.19493799999999994,0.7659178081662058,0.0,single,-0.6679250000000001
156,1.3,jog,-1.3058922356894052,1.2196087843513534,-0.629185167406685,2.3083255752113185,0.6736857890697792,-0.5171014786393099,-0.07884315372614657,-0.061322452898112896,-0.05424216968678664,-2.8640345613824048,2.4473778951157614,0.29857194287771205,-0.11960006456886765,-10.422020786029751,1.2724888381106338,6.752194592410386,-8.539741480988758,-2.059898697887076,-5.85860777210822,13.239512703537317,-17.5341992521628,-0.030255000000000004,0.135466,-0.8580720000000001,0.21624100000000002,-0.320255,-0.6601940000000001,0.24649600000000002,0.45572100000000004,0.197878,0.8105644415400186,0.0,single,-0.6601940000000001
157,1.308333,jog,-1.323292931717282,1.1785671426857178,-0.6399855994239867,1.8051114980518255,0.37084710835587087,-0.7775001096050024,-0.08124324972999125,-0.08064322572903061,-0.043081723268930935,-2.940357614304602,2.5107404296172104,0.18372734909396599,-2.0881670500272302,-4.925194007636625,-1.29610368622367,-0.28802304138301943,-2.3185854831294725,1.339307142428394,-9.159132715972389,7.6038082925056525,-13.781902530150859,-0.019905000000000006,0.124973,-0.853098,0.202766,-0.309154,-0.65333,0.222671,0.434127,0.19976800000000006,0.7961493577634333,0.0,single,-0.65333
158,1.316667,jog,-1.3102951763858808,1.2101031917446525,-0.5635949124069973,1.3756395575427727,0.0849889531411285,-0.7939135275520091,-0.0659947204223651,-0.03515718742500426,-0.010679145668346306,-2.9798416126709664,2.6087113030957303,0.050395968322534256,1.5596058712984195,3.7840231652189176,9.166149150106646,1.8296771427437055,5.457887965445885,3.887998272208349,-4.7377007879006605,11.755564372272511,-15.998485813706589,-0.009534999999999988,0.114595,-0.8484900000000001,0.188852,-0.29749800000000004,-0.648213,0.19838699999999998,0.41209300000000004,0.20027700000000004,0.8741101109051956,0.0,single,-0.648213
159,1.325,jog,-1.3517340693627864,1.265810632425309,-0.4852994119764892,1.1759166759190214,-0.6095406995690507,-1.0090650532535288,-0.0476419056762285,-0.008880355214210869,-0.02796111844473853,-3.0454818192727937,2.6600264010560672,-0.09420376815072784,-4.972866071871595,6.685160288090348,9.395835885096467,2.202425866571074,3.153345999135201,-2.073919689954684,-7.877139877814466,6.158058077563593,-17.352662483290942,0.0013319999999999999,0.10397299999999998,-0.844679,0.17473800000000003,-0.28588,-0.644954,0.17340600000000003,0.389853,0.19972499999999993,0.9067495005989853,0.0,single,-0.644954
160,1.333333,jog,-1.350414016560637,1.2398895955837992,-0.3751350054002049,-0.368667589957871,-0.7805590135579945,-0.9362773257448811,-0.019560782431296487,-0.007920316812673628,-0.022080883235328627,-3.1048841953677644,2.7383895355813745,-0.24324972998919545,0.1584126727648247,-3.1106488469349873,13.220257599457861,3.36986958417515,0.115209216553129,0.7056564513872315,-7.128570274207325,9.403952301128756,-17.886230869850593,0.012421999999999989,0.09357499999999999,-0.8417370000000001,0.16011799999999998,-0.273393,-0.6438550000000001,0.147696,0.36696799999999996,0.197882,0.9490937399562835,0.0,single,-0.6438550000000001
161,1.341667,jog,-1.4000479961603352,1.2218622510199413,-0.3170146388289037,0.02723974126997026,-0.09663431053474722,-0.5062243904576089,-0.01715862730981605,0.0031197504199695822,-0.03767698584113364,-3.1395488360931716,2.770818334533291,-0.38828893688505856,-5.955601103875571,-2.1631082989990698,6.9738860776700635,0.2882355557331992,1.3247020917498704,-1.8713826020884698,-4.159424133118294,3.8911445826634443,-17.403312562498904,0.023946999999999996,0.08341800000000002,-0.839409,0.145621,-0.260484,-0.644449,0.121674,0.343902,0.1949599999999999,0.9308040906011327,0.0,single,-0.644449
162,1.35,jog,-1.388335533421312,1.2856114244569559,-0.1974078963158501,-0.30346919091533386,-0.42627723587580707,-1.1115382994635252,-0.040921636865471525,-0.0078003120124781715,-0.02580103204128119,-3.207488299531922,2.806432257290242,-0.536301452058073,1.4055517507527708,7.650206820714445,14.353383236895656,-2.8516752136871544,-1.310459910290119,1.4251714628407826,-8.153061735119318,4.273841684501421,-17.762212309253794,0.03517500000000001,0.07264000000000004,-0.837979,0.13046200000000002,-0.247811,-0.647273,0.09528700000000001,0.32045100000000004,0.19070600000000004,0.9183313182963433,0.0,single,-0.647273
163,1.358333,jog,-1.3528141125645157,1.2847713908556484,-0.26593063722549093,-0.6821551294181972,0.4064536688045477,-0.9957515072934835,-0.013200528021120844,-0.008040321612869298,-0.008040321612864302,-3.2529701188047877,2.8933157326293317,-0.673826953078127,4.26274101245611,-0.10080806447947603,-8.223057831470234,3.326666127967231,-0.028802304139101044,2.131370506230295,-5.4580366342092965,10.42643409805478,-16.50372027121748,0.04633800000000002,0.06186699999999998,-0.83583,0.11462799999999998,-0.234407,-0.650672,0.06828999999999996,0.296274,0.18515799999999993,0.9709623097742366,0.0,single,-0.650672
164,1.366667,jog,-1.4055675545956219,1.2056635469162376,-0.0002399808015427761,-0.514947003543242,1.5676443033325536,-0.30834343493745525,-0.036237101031920106,-0.017038636909044204,0.009359251259898506,-3.423086153107725,3.0248380129589405,-0.7413006959443208,-6.329906651200601,-9.492181898177375,31.88032834460597,-2.7641676278856595,-1.0797114586242904,2.087781722193746,-20.41229113306165,15.7814111266628,-8.096201447827367,0.057749999999999996,0.051677,-0.83575,0.09781399999999998,-0.219246,-0.656848,0.04006399999999999,0.270923,0.178902,0.9314629414302472,0.0,single,-0.656848
165,1.375,jog,-1.4060962438497642,1.1299651986079555,-0.0808832353294082,-0.8750388472694165,1.1868701195143465,-0.3851470075474349,-0.028921156846273062,-0.014040561622469076,0.024960998439937807,-3.3954158166326946,2.993519740789659,-0.9053162126485136,-0.06344524830700758,-9.084165163600472,-9.677577646449798,0.877948420214462,0.35978342572604766,1.8722845529868526,3.320573199931645,-3.7583429940335775,-19.682649310475732,0.06922599999999998,0.04214399999999996,-0.8348679999999999,0.08123699999999998,-0.203717,-0.663718,0.012010999999999994,0.24586099999999997,0.1711499999999999,0.9321639614151302,0.0,single,-0.663718
166,1.383333,jog,-1.3992559702388228,1.1608064322572993,0.005160206408258207,-0.6879392640145291,0.34161231559424465,-0.6133689950526836,-0.022200888035520512,-0.017880715228603874,0.02184087363494579,-3.481939277571133,3.033841353654173,-1.0033601344053862,0.8208656679396951,3.7010960817645566,10.325626033561406,0.8064645158709483,-0.46083686621082837,-0.37442995379719723,-10.383230641838354,4.838787095225516,-11.765741240474439,0.080701,0.03232200000000002,-0.834729,0.063882,-0.18810900000000003,-0.672122,0.016819,0.22043100000000004,0.16260700000000006,0.9401477938819802,0.0,single,-0.672122
167,1.391667,jog,-1.429325653947674,1.1358291336692947,0.16150707943363907,-0.4869361550313465,0.031982752915932576,-0.6832944319103803,-0.028557715382771076,-0.012479001679871335,0.023278137748979872,-3.569234461243073,3.1009119270458134,-1.057835373170137,-3.6080733991901828,-2.9970360676751118,18.76012395312931,-0.7627582610091811,0.6481537735460161,0.17245789705232425,-10.474584073906808,8.047824980998328,-6.536505731311554,0.09237499999999998,0.022751999999999994,-0.835881,0.046048000000000006,-0.171732,-0.682284,0.04632699999999998,0.194484,0.15359699999999998,0.9351681600885355,0.0,single,-0.682284
168,1.4,jog,-1.4834993399736123,1.2494899795991992,0.16248649945998916,-0.5510246651406919,0.033282429670081125,-1.1381894515478483,-0.0468018720748836,-0.0028801152046044293,0.020520820832833207,-3.6259450378015474,3.0168006720269096,-1.1538461538461626,-6.501102367207344,13.639847105472876,0.11753510456619541,-2.1893863785086634,1.1519124535301803,-0.33089126558822635,-6.805541408673356,-10.093754352442648,-11.521754551305222,0.10434699999999998,0.012315999999999994,-0.837064,0.028194999999999984,-0.157005,-0.693253,0.076152,0.169321,0.14381100000000002,0.9146931294131005,0.0,single,-0.693253
169,1.408333,jog,-1.4855394215768372,1.2020880835233196,0.21000840033599996,-0.6060864122092158,0.07937358608444899,-0.6292716195376299,-0.04512180487219259,-0.011400456018241939,0.05580223208928261,-3.6722668906755613,3.3206528261129864,-1.1719668786751294,-0.24481958517038882,-5.688455067308135,5.702856219369971,0.2016161289680764,-1.0224817969083595,4.233938708322187,-5.558844698669519,36.463717039010135,-2.1745739624344704,0.11635,0.0022039999999999837,-0.838349,0.009972999999999996,-0.139351,-0.704769,0.106377,0.141555,0.13358000000000003,0.8788958577356036,0.0,single,-0.704769
170,1.416667,jog,-1.531077513798926,1.1965442764579037,0.315574754019687,-0.1607010196208296,-0.6073850913894049,-0.6410100820606056,-0.02291816654667631,-0.03143748500119864,0.044396448284138385,-3.757619390448835,3.173386129109731,-1.1694264458843486,-5.464133935935901,-0.6652036315593967,12.666949086115794,2.66422346118511,-2.4042511378638207,-1.368584569851745,-10.241480654340698,-17.67058999319151,0.3048275486898013,0.128919,-0.008029999999999982,-0.8406089999999999,-0.008582999999999993,-0.12287599999999999,-0.7171449999999999,0.137502,0.114846,0.12346400000000002,0.9016157978847446,0.0,single,-0.7171449999999999
171,1.425,jog,-1.6325453018120428,1.221528861154424,0.3148925957038178,-0.15424350841852227,-1.1240196373569333,-0.9454400168082594,-0.10440417616704602,-0.005280211208446865,0.09660386415456451,-3.7439097563901904,3.219728789151509,-1.2523700948037704,-12.176621626438852,2.998270094386148,-0.08186227239519933,-9.778712302936311,3.138998415066761,6.265140510071428,1.6452218959131681,5.561341658679584,-9.953636015771066,0.14165299999999997,-0.018252999999999964,-0.842428,-0.026177000000000006,-0.10622499999999999,-0.730205,0.16782999999999998,0.08797200000000002,0.11222299999999996,0.7627681677655159,0.0,single,-0.730205
172,1.433333,jog,-1.6123844953798303,1.1898475939037678,0.48469938797552525,-0.04247111229884632,0.7263866638859032,-0.2878491729116848,-0.07884315372614868,0.0021600864034516565,0.1948877955118223,-3.9834393375735395,3.3847353894156087,-1.0820832833313427,2.4193935476074286,-3.801904146244619,20.377630177812197,3.067445390723337,0.8928714282849621,11.794543544612829,-28.744699529983354,19.801584095055954,20.435234786082948,0.154432,-0.02815000000000001,-0.844843,-0.045935000000000004,-0.08793499999999999,-0.743261,0.200367,0.05978499999999998,0.10158200000000006,0.6495948309368879,0.0,single,-0.743261
173,1.441667,jog,-1.609791216702652,1.2387808975281882,0.4364050875929894,-0.6432682649331447,-0.18710798250579827,-0.5081639285084503,-0.052315814734819846,-0.02639788816894604,0.13246940244780325,-3.945164386849022,3.405207583393301,-1.1190304775617865,0.31116854777757025,5.871526712793378,-5.794852457707641,3.1830260368764858,-3.4266828140625725,-7.489607999042306,4.592626676807944,2.4564667599822707,-4.4333086429617845,0.167412,-0.038694000000000006,-0.8473759999999999,-0.065398,-0.06988,-0.756224,0.23281000000000002,0.03118599999999999,0.0911519999999999,0.7585809570015342,0.0,single,-0.756224
174,1.45,jog,-1.69962798511942,1.1826473058922469,0.7244689787591654,-1.658799654976084,1.364124467700725,-0.050164856490782,-0.09252370094804137,0.005760230409215521,0.2094083763350549,-3.994599783991396,3.347533901356085,-1.0765630625225115,-10.780843443750012,-6.736300448330955,34.56904970192951,-4.825139351160673,3.8591285945232032,9.233046188317816,-5.932484956483193,-6.92111868921354,5.096293656459302,0.180804,-0.048501000000000016,-0.8516680000000001,-0.084522,-0.05184,-0.771232,0.265326,0.003338999999999981,0.08043600000000006,0.6183162901520938,0.0,single,-0.771232
175,1.458333,jog,-1.6902676107043983,1.2584903396135654,0.5497419896795711,-0.905970443984078,-0.2869744839498495,-0.2472955806330975,-0.1068042721708852,0.04296171846874099,0.2836913476539018,-4.1024840993639025,3.445697827913055,-1.0349213968558568,1.1232898613970388,9.10152810768237,-20.968077412647453,-1.7137370962250789,4.464357141428636,8.914313130786702,-12.946635710128977,11.780142392531873,4.9971997679891995,0.19399899999999998,-0.058630000000000015,-0.853885,-0.104623,-0.03361400000000003,-0.7844369999999999,0.298622,0.025015999999999983,0.06944800000000007,0.5,0.0,flight,-0.7844369999999999
176,1.466667,jog,-1.730501559875243,1.2038636909047455,0.6898248140148924,-0.5075321312699994,0.41260202206016416,0.10283285882685797,-0.11255099592032784,0.06515478761699377,0.3494120470362435,-4.050275977921844,3.5165586753060456,-0.9312455003599894,-4.827687685486599,-6.55467347118081,16.808594232700255,-0.6895516857982663,2.662955261369474,7.8858530576365435,6.264473415173918,8.502621477440837,12.440112370514683,0.207483,-0.06811999999999996,-0.856722,-0.12395600000000001,-0.014339999999999964,-0.797947,0.331439,0.053779999999999994,0.05877500000000002,0.5,0.0,flight,-0.797947
177,1.475,jog,-1.7137885515420317,1.2133685347413727,0.6719068762750418,-1.0666888949794624,1.097051875447188,-0.2022510646263293,-0.11784471378854743,0.09828393135724761,0.4111364454578109,-4.1840873634944655,3.4017760710427836,-0.9402376095043631,2.0056412256343354,1.1406268854706625,-2.1502385383235696,-0.6352715550485408,3.975656275081395,7.407224099551941,-16.058008589057863,-13.774463490130808,-1.0790962611752661,0.220782,-0.07741200000000004,-0.858895,-0.144541,0.0038960000000000106,-0.811381,0.365323,0.08130800000000005,0.047513999999999945,0.5,0.024859999999999993,flight,-0.811381
178,1.483333,jog,-1.7664706588263692,1.2504500180007296,0.6655466218648868,-0.4235128851781393,-0.11143263234997705,-0.10541260040367097,-0.1377655106204273,0.13728549141966212,0.49369974798992405,-4.185527421096881,3.4046561862474785,-0.813752550102011,-6.3221057583508955,4.449955989362443,-0.7632610596609904,-2.390591243475346,4.680374422466683,9.90799262355861,-0.17281382484289537,0.3456276496693766,15.178814280853626,0.234354,-0.08668799999999999,-0.8603270000000001,-0.16469899999999998,0.021847000000000005,-0.8237080000000001,0.399053,0.10853499999999999,0.03661899999999996,0.5,0.13380999999999998,flight,-0.8237080000000001
179,1.491667,jog,-1.8315334773218002,1.3390928725701845,0.5184785217182476,-0.716023047909576,-2.606396989362023,-0.4935093308457019,-0.16270698344132298,0.17986561075113525,0.5421166306695424,-4.159947204223631,3.3537317014638544,-0.6937844972402166,-7.806913666358344,10.636291645002903,-17.646760276774426,-2.9927373195218965,5.10920558333007,5.809561156661625,3.0693804743521036,-6.110449338087799,14.395014742235833,0.248262,-0.09634900000000002,-0.86013,-0.184104,0.03863699999999998,-0.833811,0.43236600000000003,0.134986,0.02631899999999998,0.5,0.23681000000000008,flight,-0.833811
180,1.5,jog,-1.8120724828993329,1.2432497299892087,0.7951518060722527,-0.5705001339877015,0.6728162817113172,-0.20478412972476692,-0.2774510980439253,0.2074882995319875,0.5508220328813199,-4.334693387735547,3.3393735749430338,-0.38101524060962755,2.335412747205985,-11.50163717520421,33.20212220736921,-13.76984454609425,3.3148552479122166,1.0446900530154317,-20.970380836663654,-1.7230441042626559,37.53381214815696,0.26105,-0.10497999999999996,-0.862166,-0.20512499999999997,0.05610400000000004,-0.843612,0.466175,0.161084,0.01855399999999996,0.5,0.31445999999999996,flight,-0.843612
181,1.508333,jog,-1.6648265930637383,1.0896435857434437,1.13716548661948,-2.8257955724438735,3.7412012739540694,0.6357657424820439,-0.29029161166446976,0.2650906036241427,0.6242649705988295,-4.217568702748153,3.2502100084003653,-0.2666506660266437,17.670213588815066,-18.43347464847791,41.04328339700354,-1.5409232713962036,6.912552993178417,8.813505066303877,14.05552441946423,-10.700055987359805,13.72429792187506,0.27250399999999997,-0.11185100000000003,-0.86644,-0.22639700000000001,0.07410800000000001,-0.85531,0.49890100000000004,0.18595900000000004,0.011129999999999973,0.5,0.3887,flight,-0.85531
182,1.516667,jog,-1.8526517878569568,1.2970962323014044,0.5565154787616985,-0.5572405792976262,-2.081383516322927,-0.3414768259553254,-0.3539716822654137,0.29961603071754356,0.6498680105591508,-4.121670266378657,3.1341492680585286,-0.06227501799855864,-22.537220397554254,24.892326200859024,-69.67242714876136,-7.640997192337827,4.1427198336213795,3.072119025716477,11.506891812994409,-13.926174747040545,24.523115914096895,0.284994,-0.12016399999999999,-0.865662,-0.245307,0.089418,-0.8604670000000001,0.530301,0.209582,0.00519499999999995,0.5,0.44804999999999995,flight,-0.8604670000000001
183,1.525,jog,-1.8829953198128093,1.3242529701188188,0.5753030121204858,-0.7671165994608287,-1.293903813740956,-0.34453169977761394,-0.41365654626185494,0.3276131045241852,0.7022680907236349,-4.077163086523496,2.9267970718829015,0.2128885155406233,-3.641369489481911,3.2589388956455903,2.254594186821976,-7.16247017838015,3.3597832481269507,6.288261150184165,5.341075225628428,-24.883258871430332,33.020944862496634,0.297238,-0.128469,-0.864604,-0.263591,0.10277199999999997,-0.863487,0.560829,0.23124099999999997,0.0011170000000000346,0.5,0.48882999999999993,flight,-0.863487
184,1.533333,jog,-1.9585983439337233,1.2674906996279582,0.6024240969638709,0.871008228115248,0.32678980223764886,-0.5167597833621734,-0.4534981399255896,0.3168126725068918,0.6942277691107538,-3.739229569182701,2.736469458778305,0.2709708388335481,-9.072725803541665,-6.811744928700298,3.254660367620853,-4.781182486947556,-1.2961036862226294,-0.9648771886332667,40.55364422666372,-22.840227181638426,6.970157601454914,0.30978,-0.13639099999999998,-0.863839,-0.278429,0.11501300000000003,-0.866249,0.588209,0.251404,0.0024100000000000232,0.4758999999999999,0.5,flight,-0.863839
185,1.541667,jog,-1.7910967122630526,1.2616990640748975,0.6252699784017356,-2.526429994459055,-1.7458011854646938,0.49908575534600214,-0.5241180705543669,0.3425725941924707,0.7866570674346193,-3.440244780417632,2.540916726661912,0.38060955123590934,20.0985879134478,-0.6949406711136112,2.741286469626246,-8.473713778351163,3.0909433268033815,11.090628548580183,35.87530462743874,-23.464450697911776,13.15559304084033,0.320339,-0.14405099999999998,-0.862494,-0.292173,0.125674,-0.868288,0.612512,0.269725,0.005793999999999966,0.44206000000000006,0.5,flight,-0.862494
186,1.55,jog,-1.9197167886715145,1.325813032521278,0.3417736709468273,-0.08784471855455532,-0.9716016861389697,-0.011669442306228127,-0.5834633385335284,0.3669746789871537,0.8527541101643918,-3.165966638665493,2.2484099363974135,0.40765630625224264,-15.435026570077968,7.6939839729244435,-34.02091773129765,-7.1217170261803036,2.928367310054308,7.931962406068813,32.91469359800004,-35.10221892049604,3.2457404315772025,0.33147400000000005,-0.15204099999999998,-0.858236,-0.302558,0.13336199999999998,-0.8677389999999999,0.634032,0.28540299999999996,0.009502999999999928,0.40497000000000005,0.5,flight,-0.858236
187,1.558333,jog,-1.8844353774151132,1.2338893555742358,0.4278171126845161,-0.839111425077982,-0.9736355612283075,0.4973382504216764,-0.6174246969878865,0.41713668546742,0.8485539421576933,-2.909756390255639,1.9674786991479898,0.41245649825993363,4.233938708316524,-11.03128248494456,10.325626033564093,-4.075526035564432,6.019681564894608,-0.5040403224167255,30.746459667569447,-33.71309699381091,0.5760460827662354,0.342032,-0.15884700000000002,-0.85473,-0.311102,0.13947500000000002,-0.867867,0.653134,0.29832200000000003,0.013137000000000065,0.36863,0.5,flight,-0.85473
188,1.566667,jog,-1.9007679385648997,1.2068634509239182,0.29037676985840644,0.12181958649925914,-0.7912098890660748,0.4386840258597847,-0.7597792176625817,0.4296856251499848,0.9542836573074084,-2.5239980801535715,1.764698824094062,0.3239740820734326,-1.959750557929722,-3.242849130107681,-16.491521817387643,-17.081175986884347,1.505752301723629,12.6865508938942,46.28729422870946,-24.33163847539312,-10.617040579133715,0.351541,-0.16532400000000003,-0.849197,-0.316296,0.14412400000000003,-0.867587,0.667837,0.30944800000000006,0.018390000000000017,0.3161000000000001,0.5,flight,-0.849197
189,1.575,jog,-1.8775951038041685,1.2074882995319942,0.24876995079803318,0.33646467583458173,-0.5151775040235723,0.476340194906627,-0.8346333853354198,0.5103804152166141,1.0722428897155982,-2.169686787471517,1.5982239289571658,0.20172806912276534,2.7808514053439803,0.07498483236241393,-4.993018007965154,-8.982859435118051,9.683762158481947,14.155674115947548,42.519055884082306,-19.97778652788884,-14.670108358414542,0.360232,-0.17113300000000004,-0.842335,-0.31873000000000007,0.14737999999999996,-0.867979,0.6789620000000001,0.318513,0.025644,0.24356,0.5,flight,-0.842335
190,1.583333,jog,-1.8147125885035114,1.198127925116983,0.17208688347534157,0.20533847581658088,-0.13590799752474467,0.6997268206156356,-0.887675507020267,0.6485059402376006,1.0522020880835063,-1.8503540141605292,1.3996159846393585,0.04992199687987429,7.546203684226094,-1.1232898613957865,-9.20233617216972,-6.365309214550138,16.57572603155934,-2.4049923955468047,38.32146565594408,-23.83390667440343,-18.217457367441305,0.367957,-0.175713,-0.835001,-0.31902699999999995,0.14905899999999994,-0.868997,0.686984,0.32477199999999995,0.033996000000000026,0.1600399999999999,0.5,flight,-0.835001
191,1.591667,jog,-1.758699304055706,1.2104631629469855,0.07475401967841865,-0.14583596614274302,0.6026962738565873,0.8476285032186853,-0.8695704343652677,0.6262299016078802,0.9818814494840594,-1.5451163906887775,1.2357811375090297,-0.11819054475642171,6.721056449220838,1.4801101307898727,-11.679009334884181,2.17243492380605,-2.672910802702281,-8.437801607805167,36.625584769829324,-19.658608966922476,-20.171891245056297,0.375367,-0.18058200000000002,-0.827441,-0.31724700000000006,0.14927,-0.870605,0.6926140000000001,0.32985200000000003,0.04316399999999998,0.06835999999999992,0.5,flight,-0.827441
192,1.6,jog,-1.814352574102935,1.1581663266530418,0.0423616944677837,-0.500908621436241,-0.9537980096467259,0.603361911258458,-1.0198007920316607,0.7184687387495399,1.0426017040681446,-1.283811352454074,1.0830433217328443,-0.29905196207847723,-6.678659552049442,-6.2758713901287475,-3.8872345146567118,-18.02836405452903,11.069103221127815,7.286722018970848,31.357858902519975,-18.329271063984486,-21.70423824817621,0.381988,-0.18424599999999997,-0.819106,-0.312826,0.148644,-0.8734500000000001,0.694814,0.33288999999999996,0.05434400000000006,0.0,0.5,flight,-0.819106
