frame_id,timestamp,gait_type,root_linear_velocity_x,root_linear_velocity_y,root_linear_velocity_z,root_angular_velocity_x,root_angular_velocity_y,root_angular_velocity_z,left_linear_velocity_x,left_linear_velocity_y,left_linear_velocity_z,right_linear_velocity_x,right_linear_velocity_y,right_linear_velocity_z,root_acceleration_x,root_acceleration_y,root_acceleration_z,left_acceleration_x,left_acceleration_y,left_acceleration_z,right_acceleration_x,right_acceleration_y,right_acceleration_z,left_pos_rel_x,left_pos_rel_y,left_pos_rel_z,right_pos_rel_x,right_pos_rel_y,right_pos_rel_z,step_length,step_width,step_height,left_contact_prob,right_contact_prob,support_type,max_foot_height
1,0.008333,stand,0.009000360014406246,-0.07740309612384576,-0.014280571222859865,-0.01227026049098873,-0.07005625115322314,-0.031994151005581034,0.003600144005757169,0.003600144005757169,0.006360254410176106,0.0003600144005730523,0.003720148805965951,-0.0013200528021125718,0.0,0.0,0.0,0.0,0.0,0.0,0.0,0.0,0.0,-0.07791300000000012,-0.05933300000000008,-0.9079699999999999,0.06296899999999983,0.20536200000000004,-0.903786,0.14088199999999995,0.2646950000000001,0.0041839999999999655,0.9864215336033542,0.9515536779211301,double,-0.903786
2,0.016667,stand,0.008279337652972727,-0.09275257979361934,-0.017038636909044332,-0.07320603069991856,0.0517061005214197,-0.061050468802549544,0.006479481641468501,0.0032397408207342506,0.006239500839933216,0.00023998080154277791,0.004439644828394853,0.0007199424046075187,-0.08651576211105333,-1.8417906971170601,-0.3309414070295737,0.3454928768552114,-0.04324492260894149,-0.014489269287603756,-0.014402879653260663,0.08633261608218167,0.2447798424190173,-0.077928,-0.05853300000000006,-0.907776,0.06290200000000001,0.2061719999999999,-0.9036379999999999,0.14083,0.26470499999999997,0.004138000000000086,0.9840651522983268,0.9511132707867181,double,-0.9036379999999999
3,0.025,jog,0.00012000480018213529,-0.09204368174726535,-0.01848073922956768,0.06204907763340522,0.03523363984726666,0.01839805847840676,0.0031201248050019815,0.0020400816032695016,0.0042001680067203055,-0.0009600384015370216,0.005640225609039994,0.0,-0.979159108699219,0.08507116840921511,-0.173059200830835,-0.4031389459338197,-0.1439648646903575,-0.24472972917471625,-0.14400806469216362,0.14407545669568475,-0.08639654441467882,-0.07790299999999983,-0.05774900000000005,-0.907587,0.06289300000000009,0.206986,-0.903484,0.14079599999999992,0.26473500000000005,0.004103000000000079,0.9906401384400871,0.9494344206239509,double,-0.903484
4,0.033333,jog,-0.0006000240009373228,-0.10020400816033002,-0.01692067682706669,0.14643416184590682,0.13057252017097565,0.08691015404295137,0.0020400816032561785,0.0,0.0034801392055675397,0.0,0.00516020640825816,-0.0010800432017274838,-0.0864069124108314,-0.9792783407013891,0.18721497689919497,-0.12961036862424133,-0.24481958517574723,-0.0864069124148285,0.11520921655310472,-0.057604608278151184,-0.12961036862204295,-0.07788100000000009,-0.05691400000000002,-0.907417,0.0628979999999999,0.20786400000000005,-0.903352,0.140779,0.26477800000000007,0.004064999999999985,0.9932766365398806,0.9505632954772207,double,-0.903352
5,0.041667,jog,-0.012838972882178935,-0.09347252219822103,-0.015118790496768716,0.1883900305682775,0.006954932790588797,0.09975841162436791,0.0011999040076872464,-0.002039836813060326,0.002999760019198966,-0.0005999520038436232,0.004679625629937631,-0.0020398368130553303,-1.468556381238494,0.8077136983572112,0.21620906291072375,-0.10081324640855917,-0.24476083670030305,-0.057640891092941404,-0.07198848138272415,-0.05766508019204812,-0.11516602007773534,-0.07776399999999994,-0.05615200000000009,-0.907266,0.06299999999999994,0.20868199999999992,-0.903243,0.1407639999999999,0.264834,0.004022999999999999,0.9936318361218645,0.9512033053393485,double,-0.903243
6,0.05,jog,0.007560302412087391,-0.10020400816033002,-0.0037201488059526275,0.3285239049233847,0.218764141326697,0.010906133705231854,0.0014400576022922092,-0.0004800192007685108,0.003240129605184117,-0.009000360014406246,-0.009000360014406246,0.009240369614784673,2.448010955750189,-0.807810627878195,1.3678917185666735,0.028819584135960977,0.18718560089905378,0.02884550413838364,-1.0080892848389085,-1.6416639438790204,1.3536789184975404,-0.07781499999999997,-0.055321000000000065,-0.907208,0.06286199999999997,0.2094419999999999,-0.903135,0.14067699999999994,0.26476299999999997,0.004072999999999993,0.994036540855292,0.9330552145517246,double,-0.903135
7,0.058333,jog,0.006240249610003963,-0.10704428177127132,-0.018720748829945275,0.19489608370355435,0.06915132800156394,-0.04897597469286095,0.0018000720028919079,0.0016800672026964494,0.0012000480019196116,0.009240369614797163,0.016680667226702417,-0.009720388815552351,-0.1584126727569216,-0.8208656679396725,-1.8001440086394633,0.04320345621021225,0.259220737245285,-0.24481958517514762,2.1889751145089895,3.0818465427947515,-2.2753820269215197,-0.07785200000000003,-0.05441499999999999,-0.907042,0.06288699999999992,0.21047300000000002,-0.9030600000000001,0.14073899999999995,0.264888,0.00398199999999993,0.9954347325050737,0.9245072961312166,double,-0.9030600000000001
8,0.066667,jog,0.010199184065261664,-0.12467002639788961,-0.018478521718274354,0.06054339716893895,0.13569156689202955,0.04506459568262645,0.004079673626094008,-0.0034797216222770284,0.0015598752099839285,-0.008399328053757437,-0.0074394048476129696,0.007079433645307961,0.475034131900372,-2.114920161581269,0.029064928206253914,0.27353031235926323,-0.6191251289864983,0.0431758109028458,-2.116594392675138,-2.894177114748666,2.0158174299088447,-0.07790300000000006,-0.053405000000000036,-0.906875,0.06273200000000001,0.21145000000000003,-0.902847,0.14063500000000007,0.26485500000000006,0.0040280000000000316,0.9906926835627509,0.9376084245385388,double,-0.902847
9,0.075,jog,0.0024000960038292325,-0.13068522740909727,-0.03264130565221879,0.10584016621810362,0.1136294425353658,0.0040233442025344925,0.008880355214224119,-0.0025201008040246914,-0.0124804992199688,0.0002400096003909172,0.005520220808831217,0.0003600144005763834,-0.9359280044920721,-0.7218529954647381,-1.6996020561555796,0.5761048347690045,0.11515910455446271,-1.6849123280874523,1.0367619889773625,1.5552172874648023,-0.8063625638703448,-0.07784899999999983,-0.05233699999999997,-0.906707,0.06271400000000016,0.21258500000000002,-0.902572,0.140563,0.264922,0.004135,0.97412774557922,0.9494214132604843,double,-0.902572
10,0.083333,jog,0.002760110404428927,-0.14724588983559067,-0.01476059042361504,0.11626978323411033,0.36476471310037345,0.045908552457195696,0.002040081603256177,0.009120364814588375,0.0028801152046077313,-0.0013200528021100728,0.0062402496099773115,0.004200168006720302,0.04320345621021172,-1.9873589855386278,2.14577165829878,-0.8208656679428701,1.3969117507035949,1.843347464847776,-0.18721497689919459,0.08640691241402788,0.46083686621191833,-0.07785500000000001,-0.051034000000000024,-0.90656,0.06268000000000007,0.21386399999999994,-0.902414,0.14053500000000008,0.26489799999999997,0.004145999999999983,0.9837008818497801,0.9458115688014044,double,-0.902414
11,0.091667,jog,0.0034797216222770314,-0.13882889368850065,-0.05651547876169901,-0.0320634469606376,-0.07308231854266638,0.02279891332668292,0.0014398848092033823,0.013798896088310093,0.014878809695224286,-0.00011999040078471066,0.008039356851456599,0.005039596832253468,0.08634643842669845,1.0099587409515265,-5.010185785707223,-0.07201785385802675,0.5613788425392034,1.4397281606211378,0.143995968481565,0.21587559892960026,0.10072340119188462,-0.07787200000000016,-0.049762000000000084,-0.905965,0.06264999999999987,0.21508799999999995,-0.9019010000000001,0.14052200000000004,0.26485000000000003,0.0040639999999999565,0.9660940115308005,0.9435448180787325,double,-0.9019010000000001
12,0.1,jog,0.007560302412087385,-0.14280571222849195,-0.04296171846874837,0.000367325816735653,-0.1250269754592843,-0.017433054537904887,0.008880355214224103,0.005520220808831208,0.010080403216128726,-0.00048001920075518715,0.011400456018235467,0.007680307212287839,0.48968928234853587,-0.4772373142915266,1.6265162958059078,0.8928921642890574,-0.9934807727683761,-0.5758318107638972,-0.0432051842038253,0.4033480339348212,0.3168979215209851,-0.07786099999999996,-0.04852600000000007,-0.905523,0.06258300000000006,0.21637299999999993,-0.9014789999999999,0.140444,0.264899,0.0040440000000000476,0.975793247297225,0.9366357324888659,double,-0.9014789999999999
13,0.108333,jog,0.015480619224774493,-0.14232569302772366,-0.04548181927275981,-0.09136215953518424,0.008282393631050065,-0.02047367914499525,0.0052802112084403,0.012480499219967967,0.02256090243609754,-0.002760110404428932,0.011160446417871216,0.008040321612865067,0.9504760365639164,0.0576046082765258,-0.30242419344911076,-0.43203456207653984,0.835266820009212,1.4977198151888667,-0.27362188931642223,-0.028802304135875548,0.043203456207515714,-0.07794600000000007,-0.047236000000000056,-0.9049560000000001,0.0624309999999999,0.21765200000000007,-0.9010330000000001,0.14037699999999997,0.2648880000000001,0.00392300000000001,0.9561366449478081,0.9373878756947679,double,-0.9010330000000001
14,0.116667,jog,0.020518358531308022,-0.15358771298296828,-0.06479481641468496,0.0072761003605341,-0.13308230626756967,0.04763873308312488,-0.00035997120230084497,0.0058795296376381945,0.01931845452363826,-0.0038396928245778704,0.010919126469863346,0.008519318454522992,0.6044803583553544,-1.351334287886322,-2.3173742670896487,-0.6767677478691072,-0.7920529856407206,-0.3890626244851545,-0.12953952725569204,-0.028956077274762435,0.05747502299711112,-0.07811999999999997,-0.04590699999999992,-0.904255,0.06222799999999995,0.21902299999999997,-0.9004220000000001,0.14034799999999992,0.2649299999999999,0.0038329999999999753,0.9663390626488775,0.9377169585101297,double,-0.9004220000000001
15,0.125,jog,0.015360614424592358,-0.17604704188167494,-0.05232209288372775,0.18966344622162834,-0.21784090292693395,0.02272672352208521,-0.006720268810759157,0.010920436817466975,0.015840633625345046,-0.007680307212269533,0.012480499219981291,0.009480379215168935,-0.618954050967919,-2.6952272769358796,1.4967866951826734,-0.7632662436647446,0.6049330589018102,-0.4173552020032661,-0.4608921622094882,0.18737222490314973,0.11533190455369546,-0.07830400000000015,-0.04434899999999997,-0.9036869999999999,0.06203599999999998,0.22059400000000007,-0.8999069999999999,0.14034000000000013,0.26494300000000004,0.0037800000000000056,0.9660333649482662,0.933110694513934,double,-0.8999069999999999
16,0.133333,jog,0.01764070562821278,-0.19572782911315692,-0.029281171246839162,0.10180794874548565,0.10397528353904678,0.06051702392602743,-0.014040561622455613,0.004200168006721135,0.0141605664226569,-0.009240369614797156,0.016560662426493622,0.010080403216128726,0.27362188931002285,-2.361788939335409,2.7650211972745193,-0.8784702762146226,-0.8064645158701349,-0.20161612896773606,-0.18721497690239072,0.48963917034829324,0.07200576034558864,-0.07856799999999997,-0.042683000000000026,-0.903325,0.06181199999999998,0.22236299999999998,-0.899579,0.14037999999999995,0.265046,0.003746000000000027,0.9660351315748686,0.9267452727493248,double,-0.899579
17,0.141667,jog,0.03575713942886156,-0.17230621550275932,-0.04463642908567793,0.23717435093632724,-0.09726192979077791,0.026900414710929237,-0.009119270458359151,0.005039596832251811,0.013558915286777329,-0.011639068874491718,0.016438684905214072,0.009959203263738893,2.17379815222568,2.8103688037434194,-1.8424835419772982,0.5905076990756507,0.1007234011915861,-0.0721923609166754,-0.28782088549250867,-0.014636131663012943,-0.014542830860311119,-0.07894200000000007,-0.04120500000000005,-0.90284,0.06141699999999983,0.22393600000000002,-0.899124,0.1403589999999999,0.26514100000000007,0.0037159999999999416,0.9715003502127586,0.9253906261984358,double,-0.899124
18,0.15,jog,0.04488179527179577,-0.16980679227169734,-0.03516140645625675,0.03792250590137772,-0.11229213321164648,0.0732702024648523,-0.008160326413051353,0.014400576023041988,0.019320772830912557,-0.011640465618626384,0.014760590423601717,0.009120364814592538,1.0950025012521545,0.2999427854388544,1.1370481974584392,0.11507788855247787,1.1233624373923161,0.6914505633187596,-0.0001676160007999609,-0.20137939296920127,-0.10066464048318187,-0.0793839999999999,-0.03966999999999998,-0.902386,0.060945999999999945,0.22547399999999995,-0.898755,0.14032999999999984,0.26514399999999994,0.003631000000000051,0.9575978322178019,0.9288667748389174,double,-0.898755
19,0.158333,jog,0.02808112324493787,-0.19488779551181537,-0.037681507260294754,0.250449499843175,-0.08848577141021834,0.055345815841105726,-0.004200168006721135,0.013440537621504968,0.030841233649345982,-0.012360494419772489,0.010080403216125395,0.011040441617664914,-2.016161289674533,-3.0098407824454587,-0.3024241934522987,0.47523801828035694,-0.11520921655310448,1.3825105986359552,-0.08640691241402913,-0.5616449306943859,0.23041843310600912,-0.07965299999999997,-0.03793400000000002,-0.901815,0.06060899999999991,0.22718199999999988,-0.898349,0.1402619999999999,0.2651159999999999,0.00346600000000008,0.943493580604272,0.9330097723822338,double,-0.898349
20,0.166667,jog,0.04319654427644776,-0.18226541876650426,-0.03827693784496735,0.19397025749779137,-0.11979788562084576,0.07801567832257751,-0.00863930885530021,0.014398848092153693,0.012958963282937823,-0.007679385649155741,0.005879529637651516,0.011759059275258072,1.8137054273469968,1.5145640443137864,-0.0714459544843527,-0.5326542894863295,0.11498805743325226,-2.1457007879059447,0.5616881174246152,-0.5040645042565245,0.08622722073352022,-0.08008499999999996,-0.036294999999999966,-0.901388,0.06018499999999993,0.22875000000000012,-0.8979320000000001,0.1402699999999999,0.2650450000000001,0.0034559999999999036,0.9646486204399822,0.9400640868939595,double,-0.8979320000000001
21,0.175,jog,0.04020160806431958,-0.18000720028800546,-0.017400696027848567,0.04719237731166026,-0.0628221617854476,0.16203978731276947,-0.006360254410186114,0.016320652826116083,0.014880595223808883,-0.003600144005757178,-0.0006000240009639708,0.013440537621504179,-0.3594067217242514,0.27099705730214907,2.505249228023381,0.2734974733126246,0.23062579310721168,0.23060505710681203,0.48952857835096275,-0.7775775397354497,0.20178547296845203,-0.08047300000000002,-0.034658999999999995,-0.901119,0.059819999999999984,0.23024500000000003,-0.897675,0.140293,0.26490400000000003,0.0034440000000000026,0.9616938988378647,0.9423478673236153,double,-0.897675
22,0.183333,jog,0.05916236649466894,-0.199567982719305,-0.04764190567622469,0.38804219941992235,-0.3255457779969971,-0.16599118313850544,-0.006720268810732499,0.02316092643705731,0.016800672026881208,-0.0024000960038292286,-0.0062402496099773115,0.015840633625345022,2.2753820269229985,-2.3473877872674347,-3.629090321417989,-0.043203456203814286,0.820865667939664,0.2304184331060031,0.1440115206921815,-0.6768541472474903,0.28802304138255624,-0.08102199999999993,-0.03280300000000003,-0.900582,0.059307,0.23185600000000006,-0.897146,0.14032899999999993,0.2646590000000001,0.0034359999999999946,0.9510143698262747,0.9369836622447809,double,-0.897146
23,0.191667,jog,0.06767458603311836,-0.18370530357572099,-0.034797216222703646,0.18702876834198345,-0.0852874313798641,0.010982029849190547,-0.017398608111358484,0.0250779937605009,0.014638828893688144,0.0004799616030589122,-0.013798896088323392,0.017398608111351823,1.0213846338432226,1.9033692276918657,1.5412394352677026,-1.2812982122181393,0.2300296764391158,-0.2594004239492515,0.3455792664852578,-0.9069650201999128,0.18694198296217895,-0.081731,-0.031062999999999952,-0.9001699999999999,0.05874699999999988,0.23327200000000003,-0.8967109999999999,0.14047799999999988,0.264335,0.00345899999999999,0.9435811141095508,0.92839080600669,double,-0.8967109999999999
24,0.2,jog,0.0602424096963881,-0.20904836193447976,-0.02316092643705731,0.15030243054773104,0.07696216746681042,0.008961495593194013,-0.005520220808831208,0.02988119524780313,0.035041401656066284,0.0019200768030740415,-0.022920916836679718,0.022560902436096673,-0.8918968362810825,-3.0412886545972344,1.3964106307027875,1.4254634948430658,0.5764072347656577,2.448406667752085,0.17282073683128862,-1.0946862772538484,0.6195000989733405,-0.08227899999999999,-0.029071999999999987,-0.899685,0.058260999999999896,0.234823,-0.89633,0.1405399999999999,0.263895,0.003354999999999997,0.9226972313052014,0.912752042189288,double,-0.89633
25,0.208333,jog,0.0625225009000354,-0.19608784351373063,-0.025921036841473,0.20558076322718713,0.019315339899506425,0.07247369285641564,-0.006600264010577032,0.01944077763110475,0.015240609624385266,0.017520700828030703,-0.043801752070076756,0.03168126725069015,0.2736218893132498,1.5553244234668386,-0.3312264975897874,-0.1296103686242442,-1.2529002300130092,-2.376190091405384,1.8721497689855635,-2.5058004600260517,1.0944875572535098,-0.08285500000000012,-0.027276000000000078,-0.899342,0.05788599999999988,0.23609199999999997,-0.8958499999999999,0.140741,0.26336800000000005,0.0034920000000000506,0.9573846825388164,0.8703688728741226,double,-0.8958499999999999
26,0.216667,jog,0.061075113990865154,-0.20890328773699327,-0.028557715382764606,0.18103439873410457,0.29578488304516787,0.168181407523611,-0.014758819294441216,0.011159107271419444,-0.00635949124070127,0.01067914566834721,-0.04799616030717009,0.029757619390449356,-0.17367253529760576,-1.5377302883684458,-0.3163761148658031,-0.9789483181982452,-0.993720945486597,-2.5918047594296274,-0.8209209454863795,-0.5032887253531714,-0.23081927768667992,-0.08348699999999987,-0.025441999999999965,-0.899157,0.05746600000000002,0.23743300000000012,-0.895364,0.14095299999999988,0.2628750000000001,0.0037929999999999353,0.9673915675995384,0.8662810034702402,double,-0.895364
27,0.225,jog,0.055922236889484826,-0.21720868834753113,-0.035281411256452205,0.15923556485005533,0.29363699372034063,0.16382700770376998,-0.0022800912036470937,0.008520340813637728,-0.010560422416896403,0.012600504020163404,-0.06072242889716993,0.03240129605184198,-0.6183699869651175,-0.9966879407821737,-0.8068757798737062,1.4975072711861408,-0.31666464151946644,-0.5041319064196723,0.23057222510694736,-1.5272133193327528,0.3172538895226953,-0.08397199999999994,-0.023560999999999943,-0.898951,0.05710499999999996,0.23873699999999998,-0.8948,0.1410769999999999,0.2622979999999999,0.004150999999999905,0.9770678812639482,0.8418729860591478,double,-0.8948
28,0.233333,jog,0.05748229929198582,-0.19848793951757254,-0.05496219848793448,0.11290054496515063,0.28565708099255366,0.17922392064982268,-0.012000480019199436,-0.004920196807880562,0.007560302412096544,0.02520100804032681,-0.050882035281408805,0.031681267250690044,0.18721497689919483,2.2465797227839395,-2.3617889393354443,-1.166493317598984,-1.6129290317434632,2.1745739624376497,1.5121209672582976,1.180894469670121,-0.0864069124147286,-0.08455100000000004,-0.02194800000000008,-0.8984300000000001,0.05683599999999989,0.23996699999999993,-0.894078,0.14138699999999993,0.261915,0.0043520000000000225,0.9749790071538897,0.8481110953881655,double,-0.894078
29,0.241667,jog,0.06791456683463472,-0.19834413246940477,-0.04019678425726974,0.05906666886702901,0.17734036274181814,0.20402082117797862,-0.004079673626120662,0.0043196544276501185,0.004319654427645956,0.014998800095984043,-0.09023278137747368,0.08267338612910928,1.2517719633608022,0.017255465342905143,1.7717079710420898,0.9504207335107742,1.1086934527874612,-0.3888466504020393,-1.224167019959538,-4.721711794584229,6.118564780227905,-0.08515099999999998,-0.020259000000000027,-0.8980589999999999,0.05639499999999997,0.24086800000000008,-0.8930539999999999,0.14154599999999995,0.2611270000000001,0.005005000000000037,0.9877567971642014,0.7444573155297315,double,-0.8930539999999999
30,0.25,jog,0.07332293291733334,-0.19740789631585337,-0.0625225009000352,-0.05325009898555722,0.23785614156583548,0.13815838564600103,-0.009480379215161426,0.0026401056042201455,0.0012000480019196105,0.007320292811723114,-0.1956078243129748,0.11964478579143213,0.6490298911194791,0.11235283253946958,-2.6791931648584466,-0.6481105951086954,-0.20155392096843533,-0.374367745796993,-0.9214577324206076,-12.645510972699032,4.43674542929591,-0.08584100000000006,-0.018592000000000053,-0.897528,0.05584499999999992,0.24088300000000007,-0.891536,0.14168599999999998,0.2594750000000001,0.005991999999999997,0.9834766274232519,0.5577229737565561,double,-0.891536
31,0.258333,jog,0.08892355694226359,-0.18324732989320291,-0.056762270490813255,-0.01357959543634168,0.31018359905951987,0.21861963738667795,-0.010320412816516345,0.0006000240009639708,0.0010800432017283193,0.0030001200047932073,-0.19488779551182933,0.12684507380295187,1.8721497689823934,1.6993359441558251,0.6912552993186072,-0.10080806448516999,-0.24481958517414854,-0.014401152069037743,-0.5184414744905698,0.0864069124139528,0.8640691241473372,-0.08666799999999997,-0.017059999999999964,-0.897046,0.055128999999999984,0.24078600000000006,-0.890006,0.14179699999999995,0.257846,0.007040000000000046,0.982676489736757,0.5420151479726592,double,-0.890006
32,0.266667,jog,0.13138948884090076,-0.1762658987280947,0.020278377729778564,-0.7188283738435903,0.9086145517268883,0.37594390480825635,-0.012239020878335302,-0.0017998560115175463,0.00011999040076805845,0.002879769618433403,-0.25473962083034496,0.1969042476601874,5.095504187501456,0.8377047234351102,9.244138255410576,-0.23021455025425425,-0.28796256449262236,-0.11519712034560355,-0.014440891091889159,-7.1816445066613355,8.406428348600368,-0.08786500000000008,-0.015606000000000009,-0.897214,0.05405799999999994,0.2401319999999999,-0.8885339999999999,0.14192300000000002,0.2557379999999999,0.008680000000000021,0.9793812712282417,0.4132,single,-0.8885339999999999
33,0.275,jog,0.09984399375974325,-0.20160806432257383,-0.0886835473418854,0.6485077112308596,-0.06563446391553654,0.04188181354446858,-0.01140045601823543,-0.003960158406330205,-0.0034801392055683576,-0.019320772830895838,-0.2724108964358556,0.1857674306972272,-3.785610834172253,-3.041181518598227,-13.075954046761492,0.10063180848432353,-0.2592466572438077,-0.43203283407373105,-2.664171660785929,-2.1206378981771934,-1.3364714944149956,-0.08879199999999998,-0.013958999999999944,-0.8965040000000001,0.05306500000000014,0.23954199999999992,-0.886247,0.14185700000000012,0.25350099999999987,0.010257000000000072,0.9790659354614779,0.39742999999999995,single,-0.886247
34,0.283333,jog,0.13920556822273525,-0.17328693147725963,-0.0556822272890941,-0.04620897172482145,0.45419840925377003,0.22463916854340854,-0.00924036961477054,-0.003840153606148096,-0.005400216008639931,0.002640105604220154,-0.2210488419536666,0.1712468498739951,4.723577878674199,3.398671888313246,3.9603168190077263,0.2592207372452773,0.014401152067935819,-0.23041843310591362,2.635410828647071,6.163693085586115,-1.7425394003638708,-0.09002899999999991,-0.012546999999999975,-0.896085,0.051927000000000056,0.23914400000000002,-0.884356,0.14195599999999997,0.251691,0.01172899999999999,0.9810487802154264,0.4166537197838026,single,-0.884356
35,0.291667,jog,0.1539476841852558,-0.19042476601871894,-0.07427405807535824,0.19912832742790892,0.03598019468044279,-0.006163202428941426,-0.010559155267589144,0.00011999040077138885,-0.011039116870650553,-0.006479481641468495,-0.2808975281977351,0.18466522678185712,1.7689124025102652,-2.0563756349243216,-2.2308412270535305,-0.15824161900871164,0.4751792664890186,-0.6766139743233281,-1.094262928448361,-7.181267847860384,1.6100764228296143,-0.09139999999999993,-0.010958999999999941,-0.895558,0.050590000000000135,0.2383900000000001,-0.882198,0.14199000000000006,0.24934900000000004,0.013359999999999927,0.974539122661467,0.36640000000000006,single,-0.882198
36,0.3,jog,0.1452058082323483,-0.1840873634945445,-0.05700228009120417,0.24347372526747477,-0.16098107172947418,-0.03524805391122584,-0.013800552022091388,0.004680187207476338,-0.01404056162246482,0.017520700828030703,-0.3396135845433958,0.25861034441377767,-1.0490670770319854,0.7605187236498814,2.072696265949131,-0.38898316986706494,0.5472455066248603,-0.360187777728822,2.880137101823984,-7.046208609823692,8.873769066593152,-0.09272500000000017,-0.009386000000000005,-0.8952,0.04952599999999996,0.23709400000000003,-0.879568,0.14225100000000013,0.24648000000000003,0.01563199999999998,0.9662732895547119,0.34368,single,-0.879568
37,0.308333,jog,0.21924876995077325,-0.1821672866914559,-0.025561022440899778,0.19813121221533703,-0.6005011239327055,-0.3257621753230773,-0.013320532821309464,0.004200168006721121,-0.013440537621504923,0.02664106564261893,-0.3756150246009917,0.2522500900035982,8.885510826644023,0.23041843310795396,3.773101842110196,0.057604608278161766,-0.05760460827495681,0.07200576034560109,1.0944875572528727,-4.3203456207363224,-0.763261059663918,-0.09466299999999994,-0.00783300000000009,-0.895099,0.0479210000000001,0.23548199999999986,-0.877253,0.14258400000000004,0.24331499999999995,0.01784600000000003,0.967693909351187,0.32154000000000005,single,-0.877253
38,0.316667,jog,0.1937844972402392,-0.3258939284857292,-0.035157187425004725,0.7696129637655481,-0.47843208040258056,-0.4036956768469942,-0.01535877129828494,0.0026397888169039643,-0.014398848092152956,0.09371250299975104,-0.45164386849050875,0.312694984401251,-3.05546828780108,-17.2458173499249,-1.151447682278018,-0.24456905171292148,-0.18723052433611295,-0.11498805743316998,8.047928648564014,-9.122731448226236,7.252807103150122,-0.09640599999999999,-0.005094999999999961,-0.894926,0.04708699999999988,0.23443400000000003,-0.874354,0.14349299999999987,0.239529,0.020572000000000035,0.9646373090841425,0.29427999999999993,single,-0.874354
39,0.325,jog,0.17352694107764938,-0.2486499459978344,0.06012240489619244,0.10471361351780427,0.7773541043071545,0.08509350984096983,-0.011640465618626345,0.0006000240009506435,-0.010560422416896368,0.08016320652827436,-0.47221888875555085,0.3034921396855849,-2.431003979669954,9.269648684494713,11.434008438881166,0.44621453014023515,-0.24478156917716457,0.4606295062110371,-1.6259806158018268,-2.4691011958528755,-1.1043855413015757,-0.09794900000000006,-0.003018000000000076,-0.895515,0.046308999999999934,0.23257099999999997,-0.8723259999999999,0.144258,0.23558900000000005,0.023189000000000015,0.9737859775521114,0.26811000000000007,single,-0.8723259999999999
40,0.333333,jog,0.22524900996038777,-0.26005040201608487,-0.04524180967238229,0.4202385168269846,-0.8938154459959328,0.13339624289297056,-0.012720508820345583,-0.0008400336013415652,-0.012000480019201142,0.1066842673706852,-0.5589823592943792,0.3205328213128541,6.206896541790294,-1.3681094465679213,-12.644211516689666,-0.1296103686210537,-0.1728138248280586,-0.17281382482956645,3.1826546072736006,-10.41203294597727,2.0449635938160595,-0.09993199999999991,-0.0008580000000000254,-0.895238,0.045320999999999945,0.23007999999999995,-0.869278,0.14525299999999985,0.23093799999999998,0.025959999999999983,0.9708200734050539,0.2404,single,-0.869278
41,0.341667,jog,0.17818574514038363,-0.2467002639788884,0.00683945284376934,0.9642530020405266,-0.7877347962142287,0.0797631930390779,-0.01091912646988999,-0.0033597312215056367,-0.007679385649148248,0.13870890328775567,-0.6049916006719446,0.30909527237820883,-5.647140007199916,1.6018884133905047,6.249251561813245,0.2161485901674577,-0.3023395272575077,0.5184898452187293,3.842648898136602,-5.520667311922883,-1.3723960804709934,-0.10150799999999993,0.0011700000000000044,-0.895359,0.04499200000000014,0.22709400000000002,-0.866759,0.14650000000000007,0.225924,0.02860000000000007,0.977057555062568,0.21400000000000002,single,-0.866759
42,0.35,jog,0.1850474018960682,-0.20820832833312558,-0.016680667226689136,0.31013491319542247,0.3873242921193093,0.24491744185299066,-0.009480379215161457,-0.003960158406330232,-0.00396015840633606,0.18684747389893344,-0.6437057482299218,0.36157446297852025,0.8234317479520679,4.619217046173396,-2.8225273095474064,0.17265657683049754,-0.07205414434472537,0.44632512214234926,5.776859547723255,-4.645883542298967,6.297754782228675,-0.1031289999999998,0.0028719999999999857,-0.895253,0.04500700000000002,0.22346500000000002,-0.863607,0.14813599999999982,0.22059300000000004,0.03164599999999995,0.9816482441598625,0.18354000000000004,single,-0.863607
43,0.358333,jog,0.2679707188287702,-0.2181687267490674,-0.14316572662906452,-0.3054975947727393,0.5790764409284715,-0.13233155523561702,-0.009360374414979259,-0.005160206408258139,-0.0032401296051841034,0.1555262210488636,-0.6414256570262703,0.2728909156366241,9.951196079767392,-1.1952956217378827,-15.178814280856214,0.014401152067946444,-0.14401152069217593,0.08640691241473107,-3.7587006900359667,0.27362188931374765,-10.642451379082656,-0.10543999999999998,0.004646999999999957,-0.894087,0.044070000000000054,0.21993800000000008,-0.86014,0.14951000000000003,0.21529100000000012,0.03394699999999995,0.9813852821653568,0.16053000000000006,single,-0.86014
44,0.366667,jog,0.24094072474202158,-0.20038396928246444,0.0824334053275729,0.9427368348704083,1.2206890589464205,0.021756774815059145,-0.011279097672190834,-0.007559395248384352,-0.00011999040076805845,0.3413726901847833,-0.8287736981041771,0.360691144708424,-3.2433398232239754,2.1340001759782754,27.069730256375955,-0.2302283725955812,-0.28787963044470977,0.37438675358963786,22.299792312925305,-22.479966532026232,10.535184673842071,-0.10754200000000003,0.006253999999999982,-0.894775,0.04490700000000003,0.21470099999999992,-0.857821,0.15244900000000006,0.20844699999999994,0.03695400000000004,0.9773690907952326,0.13045999999999996,single,-0.857821
45,0.375,jog,0.23208928357132905,-0.2608904356174265,-0.019920796831873262,0.9063543387754626,-0.2873884121821481,0.010305427829354306,-0.013320532821309553,-0.008520340813624433,-0.0014400576023038704,0.3528141125644966,-0.8417136685467264,0.26653066122644814,-1.0622154291002703,-7.261066402851577,-12.282995578956728,-0.24498201717493384,-0.11531808055203206,-0.15841440076032826,1.3730256065898625,-1.5528585674486108,-11.299710006237381,-0.10958699999999988,0.008357000000000059,-0.894621,0.04591300000000009,0.20986100000000008,-0.855434,0.15549999999999997,0.20150400000000002,0.03918699999999997,0.9735368931801139,0.10813000000000011,single,-0.855434
46,0.383333,jog,0.3044521780871256,-0.2553702148085819,-0.03240129605184125,0.3224813304439021,0.0428589193698333,-0.20459498288085648,-0.013560542421700471,-0.00648025921036825,-0.000360014400576384,0.38761550462019373,-0.8934357374295169,0.24636985479419396,8.683894697683515,0.662452995181157,-1.4977198151887698,-0.02880230413907587,0.2448195851741495,0.1296103686220436,4.176334100047671,-6.206896541796549,-2.419393547612412,-0.11223699999999992,0.010430999999999968,-0.894354,0.04660600000000015,0.20454399999999984,-0.853111,0.15884300000000007,0.19411299999999987,0.04124300000000003,0.97494385856095,0.08756999999999993,single,-0.853111
47,0.391667,jog,0.31005519558436995,-0.2531797456203569,0.002519798416132558,0.6007281429010906,0.23691781396281245,-0.16824316792830699,-0.022798176145924446,-0.01235901127910669,0.00383969282457454,0.4559635229181425,-0.9659227261818913,0.18202543796496148,0.6723083150041204,0.26283527576494087,4.190196120467215,-1.1084273727170586,-0.7053938167432727,0.5039245530538661,8.201106107265264,-8.69774283085846,-7.7207123625188885,-0.1150110000000002,0.012437999999999949,-0.894343,0.04782199999999981,0.198604,-0.851615,0.162833,0.18616600000000005,0.04272799999999999,0.956307728996335,0.07272000000000006,single,-0.851615
48,0.4,jog,0.3516140645625663,-0.271210848433941,-0.022680907236288725,0.43163545729444486,0.14809952766536988,-0.34974231395363126,-0.03564142565702514,-0.01728069122763967,0.003000120004799849,0.6165846633865433,-1.0637225489019495,0.23052922116884653,4.987263767934256,-2.1638188903856994,-3.024205646516402,-1.5412515913957328,-0.5906252188327081,-0.10075276848370185,19.275307868522752,-11.736448184334304,5.820686811938658,-0.11823800000000007,0.014554000000000067,-0.8941290000000001,0.05003000000000002,0.19200000000000006,-0.8495050000000001,0.16826800000000008,0.177446,0.044624,0.9337946328079254,0.053759999999999974,single,-0.8495050000000001
49,0.408333,jog,0.364454578183123,-0.2816512660506413,-0.016200648025920625,0.5827198087313369,0.006710754835454257,-0.3593994918891724,-0.018120724828994673,-0.0213608544341788,-0.0013200528021117424,0.6158646345853747,-1.0534021360854537,0.13788551542061683,1.5409232713976655,-1.2529002300132375,0.7776622117326433,2.102568202091745,-0.48963917035151094,-0.5184414744883719,-0.0864069124167307,1.2384990779426122,-11.117689397363485,-0.12142600000000003,0.016723000000000043,-0.894005,0.05212499999999998,0.18556899999999998,-0.848221,0.173551,0.16884599999999994,0.04578400000000005,0.9532622770164696,0.04216000000000003,single,-0.848221
50,0.416667,jog,0.36021118310537176,-0.3058555315574779,-0.01295896328293699,0.5331536072911939,-0.07796113173365507,-0.42491412157167147,-0.029517638588909073,-0.02759779217663346,-0.008879289656827999,0.6750659947204374,-1.0932325413966848,0.10019198464122889,-0.5091666759960678,-2.904279518458916,0.38897105147391786,-1.3675202495697611,-0.7483726592818162,-0.9070358596971742,7.10359492861323,-4.779266296044038,-4.522861864577383,-0.12467400000000017,0.019042000000000003,-0.8939710000000001,0.05474899999999994,0.17900700000000003,-0.847278,0.1794230000000001,0.15996500000000002,0.046693000000000096,0.9310440779736803,0.03306999999999999,single,-0.847278
51,0.425,jog,0.40141605664225843,-0.285131405256203,-0.04668186727470115,0.39094360759942115,0.10577912666682965,-0.510023766936639,-0.014880595223810548,-0.01632065282610276,-0.007560302412096569,0.783871354854194,-1.1748469938797539,0.024000960038400618,4.944782615731043,2.4869946359384323,-4.0469103554259265,1.7565154644304046,1.3533108544978674,0.1582848007598023,13.057165502670935,-9.794126063010836,-9.143288683886771,-0.12814300000000012,0.021282000000000023,-0.8936449999999999,0.05793599999999999,0.171593,-0.8466889999999999,0.1860790000000001,0.15031099999999997,0.046956,0.9610929171169944,0.030440000000000023,single,-0.8466889999999999
52,0.433333,jog,0.6114244569782852,-0.2174486979479213,-0.07500300012000288,-1.620612225166286,2.1516127518041026,-0.7492572431953193,-0.0141605664226377,-0.01788071522861696,-0.01164046561862468,0.8552742109684212,-1.191767670706826,0.01212048481939319,25.202016120967944,8.122249766984451,-3.3986718883117257,0.08640691241723807,-0.18721497690077926,-0.4896391703501853,8.568685481126467,-2.030562441746327,-1.4257140548430791,-0.13335600000000003,0.022944999999999993,-0.8931169999999999,0.0599679999999998,0.163474,-0.845963,0.19332399999999983,0.14052900000000002,0.04715399999999992,0.9573208983512744,0.028459999999999985,single,-0.845963
53,0.441667,jog,0.3875689944804251,-0.31389488840892327,-0.003959683225335964,0.7919251401342198,0.25560690710320655,-0.45146732669701906,-0.012359011279093451,-0.017638588912888057,-0.010199184065274213,0.9179265658747541,-1.2097432205423677,-0.014518838492920183,-26.86050665921063,-11.572617045956626,8.524516066074792,0.2161693236794168,0.029052833660775733,0.17293995120596053,7.517681174266052,-2.1568934287907027,-3.1964630804311884,-0.13668899999999984,0.025413999999999937,-0.893169,0.06438800000000011,0.15600799999999992,-0.846051,0.20107699999999995,0.130594,0.04711799999999999,0.9602826537254969,0.028820000000000012,single,-0.846051
54,0.45,jog,0.4106564262570529,-0.30361214448578205,-0.08832353294131236,0.16432524903882728,-0.16548219726576385,-0.5215572589582625,-0.01320052802112733,-0.021360854434178657,-0.012480499219968738,0.98307932317292,-1.2403696147845742,-0.07884315372614929,2.7706026373008177,1.2339786299221374,-10.124066928594269,-0.10098604848600454,-0.44668973014407587,-0.2737687693141145,7.818643621524742,-3.6753143216376274,-7.7192265970513425,-0.14022099999999993,0.027765999999999957,-0.892537,0.06915800000000005,0.14820200000000006,-0.8459720000000001,0.20937899999999998,0.1204360000000001,0.04656499999999997,0.9532648448115941,0.03435000000000005,single,-0.8459720000000001
55,0.458333,jog,0.4329773190927715,-0.2703708148325879,-0.11556462258490934,-0.07561933898458457,-0.37665099842016647,-0.44360397526931006,-0.01440057602305536,-0.020760830433214826,-0.015240609624385266,1.0660026401056037,-1.2709708388335585,-0.08376335053402206,2.6786142848576313,3.989119123148234,-3.2690615196924333,-0.14401152069219156,0.07200576034607371,-0.33122649758988776,9.951196079765264,-3.672293777629237,-0.5904472348341273,-0.1439490000000001,0.029845999999999928,-0.891701,0.07443299999999997,0.139864,-0.845707,0.21838200000000008,0.11001800000000006,0.04599399999999998,0.9508216157523506,0.040060000000000096,single,-0.845707
56,0.466667,jog,0.42440604751618644,-0.3368130549556037,-0.04703623710103895,0.671047970055289,0.15518011425827696,-0.011952855932101037,-0.008639308855273566,-0.00839932805375743,-0.019678425725941605,1.1463882889368915,-1.3090952723782054,-0.08939284857211362,-1.0284703115652796,-7.972431020280267,8.222748438189383,0.6912967563933031,1.4832616246049177,-0.5324953325601554,9.645506219256978,-4.574566060072818,-0.6754857257129289,-0.14755799999999986,0.03258299999999992,-0.891473,0.08045000000000013,0.13176100000000002,-0.8460599999999999,0.228008,0.0991780000000001,0.04541300000000004,0.9615427073704246,0.04587000000000008,single,-0.8460599999999999
57,0.475,jog,0.3484939397575933,-0.3858154326173151,-0.06864274570981728,1.6380981018218213,-1.1288822736416777,-0.31001511982576263,-0.008040321612869245,-0.01176047041880856,-0.014760590423617588,1.195127805112187,-1.313332533301343,-0.10200408016320721,-9.109817323724148,-5.880520540226991,-2.592884748443344,0.0718813443422924,-0.4033532179348539,0.5901638428325968,5.848975900071475,-0.5084916504425294,-1.5134083272643253,-0.1505289999999999,0.035700000000000065,-0.891024,0.08750499999999994,0.12403200000000003,-0.846338,0.23803399999999986,0.08833199999999997,0.044686000000000003,0.9658097453064378,0.053140000000000076,single,-0.846338
58,0.483333,jog,0.4275771030841195,-0.3367334693387692,-0.026521060842436793,0.549193314403378,0.4318496343644236,0.01807123489404078,-0.012720508820345498,0.009120364814588344,-0.036121444857793644,1.2844113764550684,-1.4125765030601136,-0.20280811232449178,9.490359213551647,5.890071196273336,5.054804376260687,-0.5616449306943759,2.505800460026019,-2.563405068303848,10.714457139431307,-11.909752761162867,-12.09696773806362,-0.15419799999999984,0.038582000000000005,-0.891104,0.09464500000000009,0.11506700000000003,-0.847807,0.24884299999999993,0.07648500000000003,0.04329700000000003,0.9343885346737177,0.06703000000000009,single,-0.847807
59,0.491667,jog,0.48500119990401935,-0.3083753299735972,-0.007559395248384352,0.7207328260394577,1.5397475229301711,-0.016842632395221255,-0.005039596832265116,-0.01739860811134516,-0.004199664026877882,1.3207343412526973,-1.3611711063114962,-0.18022558195344396,6.890340391156683,3.402704507460041,2.275217853857982,0.9216357077130279,-3.1820221893368705,3.8303072751278777,4.358407103147208,6.168154157501487,2.7096868695761698,-0.15828200000000003,0.041007000000000016,-0.891076,0.10160999999999998,0.10629299999999997,-0.849246,0.259892,0.06528599999999996,0.041830000000000034,0.9690095768205638,0.0817000000000001,single,-0.849246
60,0.5,jog,0.41365654626184883,-0.3411736469458835,-0.19212768510740041,0.48253225800429667,-0.022001348298654612,-0.34057337729727477,-0.004680187207476338,0.01632065282610276,0.00396015840633606,1.385935437417504,-1.3715348613944618,-0.10212408496339767,-8.561700905096687,-3.935955474893362,-22.149080746311835,0.04313088020986183,4.046473171420618,0.9792178607001035,7.824444517557517,-1.243700357970195,9.372554540987217,-0.1617679999999999,0.04398599999999997,-0.8894420000000001,0.10971200000000003,0.09770699999999999,-0.848496,0.27147999999999994,0.05372100000000002,0.04094600000000004,0.9709430293517833,0.09054000000000001,single,-0.848496
61,0.508333,jog,0.4290171606864117,-0.3024120964838541,-0.24648985959438277,-0.2518702758197101,-0.8972540525374587,-0.6298084683247857,0.002880115204584406,-0.005160206408244815,-0.015240609624385166,1.426497059882387,-1.3662546501859991,-0.1390855634225372,1.8433474648461317,4.651572118328241,-6.523721887313348,0.9072725803504996,-2.5778062203705128,-2.30418433105978,4.867589399361919,0.6336506910431595,-4.435554837290216,-0.165319,0.04646300000000003,-0.887515,0.11802400000000013,0.08884199999999998,-0.847601,0.2833430000000001,0.042378999999999944,0.039914000000000005,0.9727562965740364,0.10086000000000006,single,-0.847601
62,0.516667,jog,0.5413966882649505,-0.27141828653707695,-0.277657787377016,-0.7179846192160433,-0.031644362729956424,-0.44460101172267436,-0.0004799616030589154,-0.021118310535165108,-0.011999040076793435,1.4833213342932632,-1.374850011999044,-0.13642908567314682,13.484464552260546,3.718959676839131,-3.7398521457443517,-0.40317696276018006,-1.9148193096856714,0.3889572291326792,6.818367459908393,-1.0313609086927091,0.3187518297804642,-0.16983499999999996,0.04854899999999995,-0.885301,0.12587400000000004,0.079646,-0.846424,0.295709,0.03109700000000004,0.03887700000000005,0.9595102768263432,0.11123000000000005,single,-0.846424
63,0.525,jog,0.5559822392895823,-0.3279731189247539,-0.2056882275290995,-0.3393017881174495,0.2981837126775059,-0.15145724984652362,-0.01800072002881242,-0.0152406096243835,-0.008760350414016958,1.5263410536421302,-1.3734549381975267,-0.13236529461178306,1.7503361364012746,-6.786851360575628,8.636692649455926,-2.1025751140949756,0.7053523233867255,0.3886583058654103,5.162572824777016,0.1674155528041967,0.48767443434102264,-0.17461800000000016,0.05115499999999995,-0.88366,0.13395999999999986,0.07093399999999994,-0.8458129999999999,0.308578,0.01977899999999999,0.037847000000000075,0.9580659962078338,0.12152999999999997,single,-0.8458129999999999
64,0.533333,jog,0.5711028441137647,-0.3487339493579865,-0.1856474258970334,-0.43220385404579015,0.37511452895611247,0.006010750979262793,0.007200288011541051,-0.015480619224774622,-0.037921516860674395,1.5517820712828685,-1.3828153126125111,-0.13836553462138626,1.8145451607083227,-2.4913993079602563,2.4049923955437746,3.024241934519825,-0.02880230413910042,-3.499479952797036,3.053044238658164,-1.1232898613925921,-0.7200576034565285,-0.17931699999999995,0.05393199999999998,-0.882429,0.14213199999999993,0.06231700000000007,-0.845419,0.3214489999999999,0.008385000000000087,0.03700999999999999,0.9306871993535022,0.12990000000000002,single,-0.845419
65,0.541667,jog,0.5874730021598241,-0.3474922006239486,-0.20710343172546103,-0.3156878508801659,0.47737177876703446,0.20685705945048521,0.010799136069105207,-0.011999040076792443,-0.018958483321333958,1.587473002159824,-1.366210703143739,-0.13438924886008968,1.9642618245811534,0.14899792825029026,-2.5745147382322378,0.431827220730037,0.4177560772716765,2.275381994161302,4.282569099706653,1.9923937447530662,0.4771161220658204,-0.18412300000000004,0.056728,-0.880861,0.150466,0.05382700000000007,-0.844813,0.334589,0.0029009999999999314,0.03604799999999997,0.9584995852614828,0.13951999999999998,single,-0.844813
66,0.55,jog,0.6109444377775034,-0.3914556582263259,-0.2586103444137776,-0.23878422938005694,1.117804332220994,0.03760726394249891,0.004920196807867223,-0.014280571222846481,-0.01764070562822521,1.5885035401415921,-1.3591743669746803,-0.12000480019200728,2.8166849415191626,-5.275825945323066,-6.181076765668592,-0.7055009313858106,-0.27379468931405604,0.1581396487589993,0.12366950459235629,0.8443941160516745,1.7262028882854126,-0.18917300000000004,0.05987100000000001,-0.878853,0.15861199999999998,0.045763,-0.843658,0.347785,0.01410800000000001,0.035194999999999976,0.9612939300575394,0.14804999999999996,single,-0.843658
67,0.558333,jog,0.5467418696747925,-0.4064562582503239,-0.1972878915156599,0.22216719038045335,0.24865195779120733,-0.06826858080387588,0.008040321612869298,-0.01764070562822628,-0.008760350414017074,1.64994599783993,-1.347293891755681,-0.08736349453978316,-7.704616356979653,-1.8001440086401221,7.358988707322486,0.37442995379840444,-0.4032322579358969,1.0656852531151109,7.37338985939499,1.4257140548421319,3.917113362801442,-0.193662,0.06311099999999992,-0.877282,0.16780499999999998,0.03792299999999993,-0.842742,0.361467,0.025187999999999988,0.034540000000000015,0.9645432577295283,0.15460000000000002,single,-0.842742
68,0.566667,jog,0.5909527237821011,-0.37365010799136517,-0.22654187664986639,0.09272080863119164,0.8833306049178696,0.10475369629821506,-0.009959203263745454,-0.003839692824564523,0.0686345092392607,1.6952243820494133,-1.2644588432925192,-0.04211663066954661,5.304878102628772,3.9364231172256385,-3.5101974003127268,-2.1597702035774677,1.655989057314813,9.286640227175088,5.432971467420558,9.93941066272631,5.429189329282003,-0.19867000000000012,0.06619300000000006,-0.874822,0.17700799999999983,0.030499000000000054,-0.841205,0.37567799999999996,0.035694000000000004,0.03361700000000001,0.8842341344068678,0.1638300000000001,single,-0.841205
69,0.575,jog,0.5899435977439056,-0.37729509180367987,-0.2042481699267967,0.4976716445691705,3.141373362392491,0.7139034877279125,0.014880595223810647,-0.02412096483859457,0.006120244809792739,1.7483499339973825,-1.3688947557902509,0.03864154566182717,-0.12109996858220123,-0.4374155540999327,2.6753518208412204,2.980895054308932,-2.433849995683455,-7.502011812008704,6.375321246606226,-12.532810812160399,9.691368814517523,-0.20346200000000003,0.06913600000000009,-0.873069,0.18666099999999997,0.022236000000000034,-0.8391810000000001,0.390123,0.04690000000000005,0.03388799999999992,0.9516749876274256,0.1611200000000001,single,-0.8391810000000001
70,0.583333,jog,0.5905436217448617,-0.47545901836072163,-0.08964358574343574,0.12430727797561336,-0.2044320927287705,-0.12667996395567843,0.01104044161766238,-0.020880835233410146,0.009000360014400379,1.6919476779071192,-1.3042121684867327,0.03000120004800182,0.07200576034515227,-11.780142392540663,13.753100226012299,-0.4608368662124387,0.388831105866364,0.3456276496589017,-6.768541472490465,7.7622209652607586,-1.0368829489769966,-0.208291,0.07292399999999999,-0.872247,0.1958390000000001,0.015329999999999955,-0.838184,0.4041300000000001,0.057594000000000034,0.034062999999999954,0.9578723134207624,0.15937000000000007,single,-0.838184
71,0.591667,jog,0.6033117350611944,-0.399568034557239,-0.1580273578113754,-0.6843565613708892,0.9342059857808627,0.6582836844207118,0.013438924886022456,-0.017158627309815593,0.014278857691384705,1.69954403647705,-1.3039356851451736,0.0592752579793622,1.5320510338771964,9.106189561252947,-8.205396216455378,0.28779496860571857,0.44662922049370346,0.6333690517139772,0.9114901091829537,0.03317534695934266,3.5126059432877557,-0.21320699999999992,0.07611100000000004,-0.870811,0.2049749999999999,0.00779300000000005,-0.8363729999999999,0.41818199999999983,0.06831799999999999,0.03443800000000008,0.9565735305302003,0.15561999999999998,single,-0.8363729999999999
72,0.6,jog,0.6719068762750463,-0.6000240009600444,-0.02724108964358326,4.200385940155871,2.3884848133126764,-0.9970849303006181,0.012720508820345667,-0.0019200768030740608,0.058922356894276114,1.696627865114645,-1.2986919476779188,0.0016800672026881377,8.231746215510924,-24.055678195464687,15.694979979334372,-0.08621337641627223,1.8286992087773517,5.357434201715087,-0.34995456167107886,0.6292736670172511,-6.911699361175398,-0.2186999999999999,0.08109500000000003,-0.870093,0.2135140000000002,0.001971000000000056,-0.836132,0.4322140000000001,0.07912399999999997,0.03396100000000002,0.8994826966035387,0.16038999999999998,single,-0.836132
73,0.608333,jog,0.5070202808112477,-0.31297251890074795,-0.5789031561262353,-1.545579335715066,3.007988100084445,1.1793782192445479,-0.000240009600390916,0.01992079683187313,-0.008760350414016958,1.743669746789856,-1.3021720868834765,0.050282011280449665,-19.787182942973466,34.4475557493454,-66.20209606176044,-1.5553244234653218,2.6210096765807154,-8.122249766985814,5.645251611089761,-0.41763341000331944,5.832466587994879,-0.2229270000000001,0.08386899999999997,-0.8653420000000001,0.223819,-0.006272000000000055,-0.8308890000000001,0.4467460000000001,0.09014100000000003,0.034452999999999956,0.9637278998248648,0.15547000000000005,single,-0.8308890000000001
74,0.616667,jog,0.561315094792415,-0.44864410847133057,-0.21286297096233062,-0.4726910261712713,-0.39175528032372037,0.13119320559362976,-0.010199184065261723,0.005279577633781285,0.009959203263738926,1.7233021358291418,-1.264338852891778,0.04715622750180066,6.514856489220977,-16.279288405397576,43.921308514987615,-1.195005335357675,-1.7568057593102866,2.24616674799088,-2.443917801861577,4.539624909011121,-0.3750640483140178,-0.22768999999999995,0.08765199999999995,-0.8634850000000001,0.23350300000000002,-0.013070000000000026,-0.828722,0.46119299999999996,0.10072199999999998,0.0347630000000001,0.9746643079367444,0.15237,single,-0.828722
75,0.625,jog,0.5259810392415706,-0.4690987639505622,-0.254890195607825,0.1668178677412163,0.37934257292637785,0.05724774426571422,0.0,0.022800912036484183,-0.03216128645145761,1.682347293891749,-1.3316932677307065,0.057482299291970636,-4.240256276352371,-2.454656843781538,-5.043468696207153,1.2239510458732366,2.102644234093703,-5.054660952261654,-4.914777623592065,-8.082853094795173,1.23917818194767,-0.23207299999999997,0.09175100000000003,-0.861629,0.243139,-0.020257999999999998,-0.826119,0.47521199999999997,0.11200900000000003,0.03550999999999993,0.9342937949846228,0.14490000000000008,single,-0.826119
76,0.633333,jog,0.6161046441857615,-0.38341533661345667,-0.3596543861754488,-0.006783150812526719,1.748156744237864,0.5476736745595965,-0.09132365294611887,0.023040921636875097,0.006240249609983953,1.677547101884064,-1.2511700468018592,0.10020400816032628,10.815265203911022,10.282422577355717,-12.57220575634506,-10.959276724603203,0.028802304139075054,4.608368662119454,-0.5760460827655083,9.663173038383176,5.12681013660812,-0.23796799999999996,0.09513800000000006,-0.85858,0.251984,-0.027488999999999986,-0.822287,0.48995199999999994,0.12262700000000004,0.03629300000000002,0.8426801350000694,0.13707000000000003,single,-0.822287
77,0.641667,jog,0.7102231821454333,-0.3996880249580024,-0.13798896088312826,-1.0229038926781402,-1.8406719541969363,1.0406609665334254,-0.021718262538995413,0.0035997120230351165,0.031437485001200714,1.6677465802736002,-1.2258219342452676,0.07631389488840909,11.293321089473528,-1.952566396033813,26.59772321722124,8.35197869055962,-2.332758532978173,3.0234263728362016,-1.1759685157743938,3.0415301843762506,-2.866584265888808,-0.24406799999999995,0.098499,-0.8571679999999999,0.2599640000000001,-0.034374000000000016,-0.8205009999999999,0.504032,0.13287300000000002,0.036667000000000005,0.9360348116037969,0.13333000000000012,single,-0.8205009999999999
78,0.65,jog,0.6588263530541189,-0.46345853834153555,-0.23052922116883987,-0.6898898022915958,-0.8758307852767059,0.700560839788931,-0.005640225609039971,0.009960398415929904,0.06648265930637184,1.6459858394335511,-1.218408736349445,0.049561982479300236,-6.167866205605937,-7.652767716732619,-11.105275445303159,1.9294416092590154,0.7633128996633578,4.205589140186126,-2.611393356540141,0.889619332272015,-3.2103579034091854,-0.24960500000000008,0.10244399999999998,-0.854693,0.26818999999999993,-0.04066499999999995,-0.818167,0.517795,0.14310899999999993,0.03652600000000006,0.8875652575692109,0.13473999999999997,single,-0.818167
79,0.658333,jog,0.6720268810752551,-0.46621864874595736,-0.23700948037922454,0.031915546459069126,0.17167789475059841,0.4562597903156166,-0.05976239049560686,0.014520580823237591,0.0494419776791071,1.63002520100807,-1.1671666866674788,0.07104284171366863,1.5841267276054685,-0.331226497590524,-0.7776622117346369,-6.494919583171413,0.5472437786280726,-2.0449635938155404,-1.9153532251867595,6.14929193351333,2.5778062203730463,-0.255703,0.10645000000000004,-0.852306,0.276173,-0.046505999999999936,-0.8156,0.531876,0.15295599999999998,0.036706000000000016,0.8684821543370665,0.13294,single,-0.8156
80,0.666667,jog,0.6243100551955612,-0.4890808735301101,-0.2011039116870648,0.2894590544993316,0.3288626685925732,0.22733541200503107,-0.028677705783549126,-0.007079433645312071,0.055195584353251566,1.6082313414926748,-1.1437485001199799,0.05987520998320082,-5.725561060678376,-2.743247514297163,4.308323577172962,3.729863776344792,-2.5917943926745255,0.690377570691675,-2.615053937532408,2.809957589092724,-1.3400086069675703,-0.26114499999999996,0.11046699999999998,-0.85017,0.2843730000000002,-0.05196199999999995,-0.813425,0.5455180000000002,0.16242899999999993,0.03674500000000003,0.8956623839824256,0.13255,single,-0.813425
81,0.675,jog,0.6968678747149998,-0.5160206408256274,-0.2911316452658008,0.0027979737791388832,-0.4362982121539014,-0.0787551123069213,-0.016440657626284785,-0.015360614424578957,0.057602304092163596,1.5765030601223928,-1.1353654146165861,0.03948157926316988,8.70728663379795,-3.232901391517721,-10.803760179855473,1.4685045190524768,-0.993781444769813,0.2888179213862979,-3.807546066276468,1.0060105008272762,-2.4473335797468927,-0.2670889999999999,0.11463899999999994,-0.847264,0.29170300000000005,-0.057123000000000035,-0.81067,0.558792,0.17176199999999997,0.036594000000000015,0.8969322076466795,0.13406000000000007,single,-0.81067
82,0.683333,jog,0.8576743069722884,-0.5123004920196949,-0.2112084483379335,-0.19456986988723915,0.8799741279451054,-0.14864124165648882,0.037081483259317836,-0.02700108004319234,0.07200288011520567,1.513980559222378,-1.028081123244938,0.12564502580103395,19.29754377262572,0.4464357141404723,9.591167278035286,6.4229138228252864,-1.3969117507036468,1.7281382482949965,-7.503000228010961,12.874629949795878,10.34002718563121,-0.27392700000000003,0.1186830000000001,-0.844904,0.297172,-0.06142099999999995,-0.807863,0.571099,0.18010400000000004,0.03704099999999999,0.8577120537910046,0.12959000000000004,single,-0.807863
83,0.691667,jog,0.8065754739620642,-0.5352771778257623,-0.17362610991121624,0.46915647412773287,0.5831494895169257,-0.42952981127091916,-0.04583633309336472,-0.07487401007920137,0.14902807775377858,1.4866810655147489,-1.2123830093592423,0.035157187425005926,-6.131369451670726,-2.7569817381890225,4.509519849618068,-9.949342014960633,-5.744292060956164,9.242284333881967,-3.2756771907402182,-22.114457177142164,-10.857671991363972,-0.28103100000000003,0.12251999999999996,-0.8422149999999999,0.3028400000000001,-0.06706400000000001,-0.8061229999999999,0.5838710000000001,0.18958399999999997,0.03609200000000001,0.7117271027896748,0.13908000000000004,single,-0.8061229999999999
84,0.7,jog,1.0218408736349607,-0.45637825513020946,-0.34009360374415326,-0.001968548066665046,1.690109731850501,-0.5843342281477684,-0.0045601824072942325,-0.05436217448697106,0.12252490099604026,1.4371774870994956,-1.0460818432737375,0.049201968078722846,25.832881275998854,9.46824945344457,-19.97689833588606,4.953336215777135,2.4615187318169327,-3.1805084312658782,-5.940667036511914,19.95693820778906,1.6854410960898896,-0.28958400000000006,0.12587000000000004,-0.83836,0.30630100000000005,-0.07197799999999999,-0.8028789999999999,0.5958850000000001,0.19784800000000002,0.035481000000000096,0.7764653106548415,0.14519000000000004,single,-0.8028789999999999
85,0.708333,jog,1.1017640705628307,-0.5831033241329698,-0.6803072122884796,-2.7635703225532318,1.930363998667201,-1.6323682290654877,0.0037201488059659354,-0.07608304332173536,0.16776671066842644,1.382575303012115,-1.0228009120364843,0.01848073922956927,9.591167278035478,-15.20761658499458,-40.827266115963624,0.9936794927709269,-2.606608524512686,5.429234330059521,-6.55252419145329,2.7938235014104382,-3.6866949296956015,-0.29873400000000006,0.13009500000000007,-0.8312930000000001,0.30864099999999994,-0.07564199999999999,-0.797056,0.607375,0.20573700000000006,0.03423700000000007,0.692916324302592,0.15763000000000005,single,-0.797056
86,0.716667,jog,1.055315574753998,-0.7461003119750298,-0.9710823134149215,-4.177673853999814,3.81533779479391,-1.9645821801788594,0.02435805135588573,-0.09623230141588232,0.1869450443964465,1.3364530837532873,-1.0743940484761159,-0.17278617710582983,-5.573373627169708,-19.558073895135436,-34.89022091749936,2.476350197974518,-2.417717553893305,2.301215950086382,-5.534223573173435,-6.190681118266283,-22.95019394473214,-0.307326,0.13551100000000005,-0.821642,0.31098400000000004,-0.07837800000000006,-0.790403,0.61831,0.2138890000000001,0.031239000000000017,0.6472236303027301,0.18761,single,-0.790403
87,0.725,jog,0.9737189487579537,-0.544941797671914,-0.0819632785311407,0.43673958436336235,0.7519937596999214,-0.9197554812336288,0.03228129125165933,-0.08784351374055833,0.19788791551662302,1.237729509180384,-1.0129605184207366,-0.08388335533421476,-9.791986798997357,24.139987315866755,106.6985521281398,0.9508268205656633,1.0066947888304407,1.3131970623036875,-11.847302840862147,7.372318499385549,10.668765363208434,-0.31517099999999987,0.13932,-0.81931,0.31318400000000013,-0.08227799999999996,-0.790419,0.628355,0.22159799999999996,0.028891,0.6351629291394573,0.2110900000000001,single,-0.790419
88,0.733333,jog,1.0057602304092088,-0.520100804032153,-0.07776311052441848,0.39757679900514153,0.8439628547755728,-1.0084212432340138,0.06324252970118109,-0.10260410416415884,0.18600744029761063,1.1272050882035216,-1.0152406096243836,-0.18120724828993054,3.845107602454692,2.98103847831044,0.5040403224195615,3.7154972338319494,-1.7713417045002333,-1.4257140548436749,-13.26346105566565,-0.2736218893132014,-11.679334328058967,-0.3230249999999999,0.142799,-0.8171120000000001,0.31419600000000014,-0.08640400000000004,-0.791281,0.637221,0.22920300000000005,0.02583100000000005,0.6305936158269763,0.24169000000000002,single,-0.791281
89,0.741667,jog,1.0574754019678705,-0.5149988000960041,-0.05879529637628909,0.4594947534013296,0.5298775723200629,-1.2692668841253436,0.08339332853373124,-0.11243100551956828,0.2078233741300713,0.937365010799133,-0.7129829613630954,-0.07727381809455189,6.205324161106548,0.6121914970181103,2.2759556213258336,2.417902427711815,-1.1791338319425837,2.6177026436838,-22.778986969569193,36.268016350046786,12.471013942330123,-0.33114299999999997,0.146154,-0.81489,0.3131949999999999,-0.08805399999999997,-0.791435,0.6443379999999999,0.23420799999999997,0.023455000000000004,0.5823819758277121,0.26544999999999996,single,-0.791435
90,0.75,jog,1.0794431777270883,-0.5895835833433247,-0.018840753630153976,0.3332573213144978,-0.018947079413305857,-1.352284386835322,0.12864514580582712,-0.09972398895956111,0.2793711748469923,0.7817112684507371,-0.6619464778591074,-0.20676827073082865,2.6362385406477538,-8.950532010958879,4.794736919012953,5.430435290063085,1.5249029833201866,8.586079529211654,-18.679196249657416,6.124623005398742,-15.539955914589731,-0.33906599999999987,0.15023599999999993,-0.8124049999999999,0.31071400000000005,-0.08865699999999999,-0.793001,0.6497799999999999,0.2388929999999999,0.019403999999999977,0.5,0.30595999999999995,flight,-0.793001
91,0.758333,jog,1.1213248529941173,-0.5127805112204432,-0.021840873634947165,0.12120202475503597,0.8149642274169063,-1.0541838358081619,0.1316452658106203,-0.1436457458298197,0.22992919716788587,0.6013440537621465,-0.5403816152646125,-0.3096123844953784,5.026002072126346,9.216737324238713,-0.3600288017272502,0.3600288017272502,-5.270821657297301,-5.933274652478847,-21.64493155989318,14.588367046021174,-12.34178732323885,-0.347313,0.153312,-0.810307,0.306381,-0.08888700000000005,-0.795399,0.653694,0.24219900000000005,0.014908000000000032,0.5,0.35091999999999995,flight,-0.795399
92,0.766667,jog,1.1439884809215513,-0.5488360931125634,0.09755219582434226,0.9919485021075425,-0.1992851765042507,-1.2927032341548186,0.09839212862971533,-0.15370770338374068,0.37976961843052787,0.4202063834893239,-0.42500599952004625,-0.40616750659947426,2.719417797868257,-4.326323721156758,14.326022253334544,-3.9900572571280493,-1.2073383194049714,17.979412198541258,-21.734781650206823,13.843966372038263,-11.585687797467768,-0.3560270000000001,0.156605,-0.807955,0.30034899999999987,-0.08785500000000002,-0.799597,0.656376,0.24446,0.008357999999999977,0.5,0.41641999999999996,flight,-0.799597
93,0.775,jog,1.2996519860794251,-0.6410656426256973,0.7458298331933211,2.923966681816281,-5.255034871262223,-2.7502513149727483,0.1519260770430798,-0.18384735389415233,0.3205328213128503,0.23124924996999927,-0.2950918036721443,-0.5160206408256324,18.68036783365813,-11.067988661122465,77.79642834141079,6.424330782835024,-3.616902737358877,-7.10870000212136,-22.67576305284097,15.590327114832759,-13.18290342327585,-0.365591,0.16041499999999997,-0.811499,0.291446,-0.08497200000000005,-0.8101119999999999,0.657037,0.24538700000000002,0.001387000000000027,0.5,0.48613,flight,-0.8101119999999999
94,0.783333,jog,1.2493699747989973,-0.5773430937237554,0.3487339493579732,1.3624019426076668,-0.4759726277193841,-0.7738121104394483,0.19620784831394072,-0.1758070322812855,0.3775351014040608,0.02040081603264191,-0.18180727229088525,-0.6063842553702189,-6.034082716960077,7.6470117487030524,-47.65341219673005,5.314025113507899,0.9648771886315737,6.840547232834636,-25.302824185450532,13.594687553253344,-10.844067508050804,-0.3743669999999999,0.16376100000000005,-0.811259,0.28120500000000004,-0.08167599999999997,-0.818071,0.6555719999999999,0.24543700000000002,0.00681200000000004,0.43188000000000004,0.5,flight,-0.811259
95,0.791667,jog,1.2550995920326442,-0.5428365730741467,0.10043196544277433,0.7492377826525833,-0.6078746356379566,-0.9831631465554825,0.25749940004799193,-0.1813054955603586,0.38840892728581294,-0.20710343172546103,0.011279097672177437,-0.701583873290132,0.6874990681121804,4.140451241853662,-29.79385456145872,7.354397856257588,-0.6597628124637707,1.3047547254322098,-27.298325864902953,23.16851091469417,-11.42304030716492,-0.38268100000000005,0.16677399999999998,-0.808859,0.2690189999999999,-0.07705800000000007,-0.824755,0.6517,0.24383200000000005,0.01589600000000002,0.34104000000000007,0.5,flight,-0.808859
96,0.8,jog,1.2806912276491025,-0.5395415816632709,0.13932557302291645,0.45872431273503006,-0.17201335460008188,-0.6125465522498474,0.29485179407175344,-0.18756750270010494,0.3741749669986795,-0.36049441977679036,-0.11724468978759169,-0.6271450858034296,3.0711191187397295,0.39541478589652385,4.667419606401292,4.482466581514623,-0.7514709156061818,-1.708143560198411,-18.40765487235434,-15.42347143402959,8.933011818877006,-0.39089600000000013,0.16970700000000005,-0.806902,0.2553429999999999,-0.07353900000000002,-0.831142,0.646239,0.24324600000000007,0.02424000000000004,0.25759999999999994,0.5,flight,-0.806902
97,0.808333,jog,1.3378135125405062,-0.44545781831272907,-0.028561142445693345,-0.8501283066697763,1.6584961268192124,0.2971202019592032,0.29953198127926034,-0.189007560302413,0.4837393495739865,-0.3410536421456903,-0.14808592343693372,-0.46453858154326594,6.854948384903903,11.290503222194014,-20.14721174470315,0.5616449306980614,-0.17281382482996188,13.148251839110523,2.332986635197439,-3.7010960817643483,19.51356105366197,-0.399548,0.171844,-0.802633,0.24135299999999993,-0.07106100000000004,-0.834775,0.6409009999999999,0.24290500000000004,0.032142000000000004,0.17858000000000007,0.5,flight,-0.802633
98,0.816667,jog,1.3092152627789548,-0.6197504199664083,0.32373410127189317,1.1026941980859435,-1.1641294529413615,-1.0124395350373532,0.3950083993280595,-0.22534197264219247,0.528437724981998,-0.2050635949124007,-0.204343652507799,-0.09491240700743868,-3.431515450150123,-20.913439123311488,42.27204748231148,11.456253665562564,-4.359780698317637,5.363375978883032,16.317500267973188,-6.750387457507183,44.351592816873584,-0.40716699999999983,0.17513100000000004,-0.8009270000000001,0.22873300000000008,-0.06759899999999996,-0.838264,0.6358999999999999,0.24273,0.037336999999999954,0.12663000000000002,0.5,flight,-0.8009270000000001
99,0.825,jog,1.3405736229449352,-0.520820832833306,0.03900156006240522,-0.37921331292835864,0.6158346817931726,-0.24922197604898907,0.4708988359534204,-0.27757110284411746,0.5367814712588558,0.061442457698303324,-0.24468978759150747,0.09252370094803887,3.7631537460675215,11.872025336985864,-34.16927171600751,9.107216683710744,-6.2677463340844195,1.0012896048071307,31.982005593508518,-4.841729879240229,22.49323268396487,-0.41441400000000006,0.17715799999999993,-0.796779,0.218074,-0.06529800000000008,-0.8378180000000001,0.632488,0.242456,0.04103900000000005,0.08960999999999997,0.552138094830601,single,-0.796779
100,0.833333,jog,1.645505820232796,-0.6858274330973241,0.17328693147725846,0.877002830544169,-1.7323320171337004,-3.624866322512703,0.5767430697227971,-0.3328933157326211,0.47209888395535543,0.06504260170407299,-0.3549741989679592,-0.01836073442937714,36.593327407639435,-19.801584095045882,16.114889165348938,12.701816124970147,-6.6389311038645635,-7.76222096525862,0.43203456207484064,-13.23465875152421,-13.306664511870341,-0.4233199999999999,0.180099,-0.794289,0.20490400000000009,-0.06254100000000007,-0.839415,0.628224,0.24264000000000008,0.045126,0.048740000000000006,0.5,flight,-0.794289
101,0.841667,jog,1.3076553875689934,-0.5403167746580274,0.08399328053754711,0.2298127122114337,1.4954261313856383,0.22068659792819212,0.7393808495320319,-0.3036957043436575,0.5065994720422332,0.1649868010559161,-0.24634029277657257,-0.12263018958483253,-40.5388088149508,17.459882222137697,-10.714380962288297,19.51497237931768,3.5034330920282426,4.139739391274,11.992344534658308,13.035025940891021,-12.511333711957594,-0.428056,0.18207099999999998,-0.790767,0.19538100000000003,-0.060091000000000006,-0.841137,0.623437,0.242162,0.050370000000000026,0.0,0.5,flight,-0.790767
102,0.85,jog,1.247689907596314,-0.5979839193567749,0.09036361454458305,0.6012497186754167,1.1736585662167764,0.04136205983576229,0.8303132125284964,-0.35605424216968307,0.757350294011767,0.14604584183367753,-0.11628465138605622,-0.18576743069722967,-7.196145442539298,-6.920334177216846,0.7644706596707074,10.912320052377943,-6.283275870157931,30.09130228843587,-2.273006026909725,15.607301258912461,-7.576772004367902,-0.4315340000000001,0.184087,-0.7852089999999999,0.18620100000000006,-0.056077000000000043,-0.843438,0.6177350000000001,0.24016400000000004,0.058229000000000086,0.0,0.5610585765075309,single,-0.7852089999999999
103,0.858333,jog,1.267130685227402,-0.6063842553702224,0.026761070442814387,-0.4387820790151074,-0.3472029649243568,0.07369796847559251,1.1399255970238937,-0.3586943477739118,0.6882275291011617,0.08556342253689676,-0.01392055682227343,-0.1563662546501852,2.332986635195969,-1.0080806448394994,-7.632610596636073,37.154972338341054,-0.3168253455212667,-8.295063591816277,-7.258180642839375,12.284182714962482,3.5282822569356003,-0.4325939999999999,0.18615100000000007,-0.779697,0.17635500000000004,-0.05113999999999996,-0.8449639999999999,0.608949,0.23729100000000003,0.06526699999999996,0.0,0.7020193575834337,single,-0.779697
104,0.866667,jog,1.339572834173268,-0.6307895368370514,0.055675545956326206,-0.09691155117242581,-0.7272133051766126,-0.16158751928462672,1.2308615310775062,-0.673266138708911,0.9944804415646793,-0.015238780897526873,0.05987520998320495,-0.12790976721862293,8.692362484505207,-2.928399504059168,3.469459504861049,10.911439171299852,-37.74559526457896,36.74740970284609,-12.095296788387834,8.854783633966738,3.414505331360982,-0.4335,0.185797,-0.771873,0.1650640000000001,-0.04538399999999998,-0.846494,0.5985640000000001,0.23118099999999997,0.07462099999999994,0.0,0.763250192046904,single,-0.771873
105,0.875,jog,1.3088923556942222,-0.5763830553222107,-0.15624624984998306,-0.21815903759730598,1.3301348864326985,0.6645463921691244,1.5396615864634664,-0.8328333133325234,0.5880235209408353,-0.09168366734669191,-0.015360614424578957,-0.06912276491059614,-3.6818046896730627,6.529038943338594,-25.431632762067487,37.057488945872905,-19.14882690790972,-48.77678154612292,-9.173753324032726,-9.028660075337044,7.05472246586182,-0.4315769999999999,0.18366000000000005,-0.7656710000000001,0.1533930000000001,-0.040708999999999995,-0.8457680000000001,0.58497,0.22436900000000004,0.08009699999999997,0.0,0.8069268995480599,single,-0.7656710000000001
106,0.883333,jog,1.1996879875195,-0.7427097083883324,-0.03204128165126798,0.010266754861637846,0.4511930182720243,0.3796995557101331,1.198967958718327,-1.3896555862234472,0.6395055802232079,-0.08208328333133506,-0.04596183847354141,-0.05940237609504384,-13.105048382901943,-19.959996767805233,14.905192391541409,-40.884870724245516,-66.8213456007346,6.178094237654192,1.1520921655294376,-3.6722937776265843,1.1664933175989753,-0.43158300000000005,0.178269,-0.7600750000000001,0.14271200000000006,-0.03490300000000002,-0.8459960000000001,0.5742950000000001,0.21317200000000003,0.08592100000000003,0.0,0.8145665866434861,single,-0.7600750000000001
107,0.891667,jog,1.3520518358531461,-0.6730261579073683,0.2783777297816177,1.9537698620444288,-2.1448242597556555,0.322423027802522,1.9036477081833583,-1.3695704343652628,0.5859131269498472,0.04187664986800272,-0.10895128389729122,-0.0459563234941209,18.282199224099724,8.361357149143807,37.247301587819464,84.55480555136012,2.4100254209484633,-6.430579946407609,14.874002063755519,-7.558128800545978,1.613397240331536,-0.4269860000000001,0.17246399999999995,-0.757512,0.13179299999999994,-0.030202000000000062,-0.848699,0.558779,0.202666,0.09118700000000002,0.0,0.7909278451498162,single,-0.757512
108,0.9,jog,1.258490339613569,-0.5801032041281633,-0.0872434897395932,0.17160465694808816,-0.07632689739717,1.5681158375823276,2.2085683427337104,-1.3552142085683367,0.4071762870514779,0.07860314412577336,-0.04464178567141802,-0.011880475219008101,-11.227828661895694,11.151200501524615,-43.8763013946009,36.591939823635045,1.7228160082714534,-21.449278758954584,4.407355605156665,7.717448485044153,4.089265363628064,-0.4190689999999999,0.16600499999999996,-0.7533920000000001,0.1219610000000001,-0.025739999999999985,-0.848071,0.54103,0.19174499999999994,0.09467899999999996,0.0,0.84804524626445,single,-0.7533920000000001
109,0.908333,jog,1.2755310212408613,-0.5934237369494807,-0.17484699387976177,-0.9356809091348322,-1.1050318563693455,1.319581593287297,2.4851794071763202,-1.613944557782318,0.18984759390375788,0.06648265930636607,-0.016920676827080167,-0.019920796831873394,2.044963593818851,-1.5985278796732894,-10.512841010460743,33.19465551933426,-31.04888386103247,-26.08048639718253,-1.4545163589832477,3.3266661279656917,-0.9648771886313893,-0.4089889999999998,0.157501,-0.7503529999999999,0.11188600000000004,-0.020936000000000066,-0.84678,0.5208749999999999,0.17843700000000007,0.09642700000000004,0.0,0.8809401243170571,single,-0.7503529999999999
110,0.916667,jog,1.32289416846652,-0.5345572354211606,-0.31617470602350883,-1.4255648912892387,1.1999414155386874,2.0096631833949594,2.6402687784976897,-1.6621070314374826,0.11663066954643547,0.07187425005999659,0.006719462443011228,-0.042956563474922174,5.683123017237636,7.063415110189539,-16.95796881974394,18.60923581969862,-5.7790345158584495,-8.785328096630892,0.6469391353048332,2.8365897852281274,-2.764070871496113,-0.39801,0.1481039999999999,-0.746746,0.10146,-0.016425000000000023,-0.844503,0.49946999999999997,0.16452899999999993,0.09775699999999998,0.0,0.8599967724302104,single,-0.746746
111,0.925,jog,1.332773310932439,-0.6791071642865782,0.03564142565702514,-0.046746073598813234,-2.231567087004012,0.7668210329813082,2.813032521300846,-1.596423856954266,-0.08220328813152386,0.020640825633032555,-0.02340093603744815,-0.027841113644545196,1.18554451769096,-17.34668533126329,42.21962458664737,20.732478435516065,7.882296229835164,-23.86102936252952,-6.148256861510118,-3.6145924013511643,1.8139265367066981,-0.385675,0.14046000000000003,-0.747728,0.090526,-0.010960999999999999,-0.845032,0.476201,0.15142100000000003,0.09730400000000006,0.0,0.9303027360012032,single,-0.747728
112,0.933333,jog,1.393015720628832,-0.665426617064678,-0.19284771390856112,-0.5970021424515457,-0.447800197004973,0.7437314399924472,2.7261490459618485,-1.6555862234489567,-0.17964718588743694,-0.007920316812673838,-0.03468138725548858,-0.0020400816032645243,7.229378338700793,1.6417313358814818,-27.419793539612186,-10.426434098043694,-7.099767970081759,-11.693735480128883,-3.4274741924524967,-1.3537082944966443,3.0962476948615034,-0.37456600000000007,0.1322089999999999,-0.747618,0.07885200000000003,-0.005705000000000071,-0.843442,0.4534180000000001,0.13791399999999998,0.09582400000000002,0.0,0.9406121043635277,single,-0.747618
113,0.941667,jog,1.4695224382049334,-0.6388288936885128,-0.18382529397647782,-0.8084280067048868,-0.7506396678012219,0.7766563239853753,2.4898008159347116,-1.9936405087592763,-0.20698344132469296,-0.03587712982961926,0.003839692824577845,0.022318214542836244,9.180071703395825,3.1914714874208028,1.0826037835473044,-28.359518841748873,-40.563269175703994,-3.2800882454110636,-3.3545491980975775,4.62215983682099,2.922761716594742,-0.366063,0.12091800000000008,-0.747811,0.06630599999999998,-0.0003489999999999327,-0.841724,0.432369,0.12126700000000001,0.09391300000000002,0.0,0.9292890393106765,single,-0.747811
114,0.95,jog,1.360134405376222,-0.6248649945997851,-0.25861034441378106,-0.5545360681244641,-0.21199170522969665,1.3723666157870424,3.2648505940237986,-1.61838473538943,-0.15984639385575566,-0.010320412816516415,-0.03360134405376942,-0.0072002880115202336,-13.127089023006402,1.675734920044147,-8.974565035077875,93.00969375844163,45.03249410414613,5.656671963151053,3.0669287187211185,-4.493104149567695,-3.54236200100285,-0.3501909999999999,0.11263900000000004,-0.746988,0.05488599999999999,0.004577999999999971,-0.839629,0.4050769999999999,0.10806100000000007,0.09264099999999997,0.0,0.9401992802353809,single,-0.746988
115,0.958333,jog,1.3165726629065184,-0.5677427097083908,-0.20280811232448845,-0.3534448635294909,-0.2716235557883723,1.809203352085287,3.10116404656184,-1.5921036841473626,-0.04824192967718517,-0.017880715228603638,-0.01176047041880848,-0.018240729629185014,-5.227618201092463,6.854948384902679,6.696535712143571,-19.643171422291847,3.1538523031402095,13.393071424285374,-0.9072725803536772,2.6210096765823647,-1.3249059903593825,-0.33532000000000006,0.10410300000000006,-0.7457,0.04376599999999997,0.00921100000000008,-0.838091,0.37908600000000003,0.09489199999999998,0.092391,0.0,0.9531327863070356,single,-0.7457
116,0.966667,jog,1.3747300215982543,-0.6184305255579496,-0.2012239020878362,-0.23922275102707155,-0.5900254351126107,1.5213985081102825,3.1850251979841517,-2.493160547156204,0.1822654187664964,-0.02087832973362205,-0.020398368130549818,-0.012119030477562166,6.97832477702609,-6.082051337839987,0.19009002119657353,10.062533168023894,-108.11817410713157,27.658669119712002,-0.35968496580494225,-1.0364648082242947,0.7345451345839694,-0.3202329999999999,0.08847900000000009,-0.7425039999999999,0.032135000000000025,0.014195000000000069,-0.836515,0.3523679999999999,0.07428400000000002,0.09401100000000007,0.0,0.947325185899939,single,-0.7425039999999999
117,0.975,jog,1.414976599063975,-0.666986679467179,-0.19656786271450044,-0.1057415114445307,-0.5080335884207174,1.0710501661863714,3.18000720028802,-1.0268810752430235,-0.7399495979839267,-0.020160806432250992,-0.0313212528501223,-0.0016800672026881377,4.829782487186027,-5.8269715479695,0.5587470746832827,-0.6021838108882256,175.96057505258537,-110.67022881920455,0.08610624041414429,-1.3107985982926416,1.2527257020129754,-0.30552500000000005,0.08548,-0.747032,0.020176000000000083,0.019491999999999954,-0.834891,0.32570100000000013,0.06598800000000005,0.08785900000000002,0.0,0.9378554189833289,single,-0.747032
118,0.983333,jog,1.5298211928477186,-0.6849873994959825,-0.1712468498740023,-0.23506214498545996,-0.8890108230135795,0.7500135950419998,2.723988959558374,-2.247209888395529,-0.408256330253207,-0.029521180847243304,-0.05928237129485088,-0.009480379215168056,13.781902530150363,-2.160172810368824,3.038643086583228,-54.72437786267183,-146.44531539091568,39.80478431905895,-1.1232898613935285,-3.3554684321046997,-0.936074884492966,-0.2955740000000001,0.07246200000000003,-0.749007,0.007181999999999911,0.024706000000000006,-0.833543,0.302756,0.04775600000000002,0.08453600000000006,0.0,0.8884979166236044,single,-0.749007
119,0.991667,jog,1.4576433885289184,-0.661627069834406,-0.19534437245020064,-0.15515651157161053,-0.5184789292398603,1.0914217672863964,1.1121910247180256,-2.711183105351591,-0.30129589632829706,-0.02495800335972968,-0.04595632349411007,-0.0007199424046075229,-8.660643666762729,2.8030153181637463,-2.891471391432504,-193.40028015843023,-55.67233224814793,12.83422533296263,0.5475374955019979,1.598997816263605,1.0511683238013658,-0.2984530000000001,0.0553809999999999,-0.7498900000000001,-0.005174000000000012,0.029837000000000002,-0.831921,0.29327900000000007,0.0255439999999999,0.08203099999999997,0.0,0.9128315182173447,single,-0.7498900000000001
120,1.0,jog,1.4836193447737862,-0.7089883595343813,-0.18936757470299684,-0.06500195434822707,-0.530057500413548,1.0413180368654607,3.975639025561028,-6.116764670586797,1.9211568462738424,-0.01908076323053157,-0.04248169926797972,-0.01800072002880159,3.117239438961683,-5.683582107281307,0.7172444194412312,343.62750520136694,-408.6861352736339,266.7049973121481,0.7052970273848655,0.4169715859990806,-2.0737762659539176,-0.2776869999999999,0.010317999999999938,-0.7323029999999999,-0.017696000000000045,0.03539099999999995,-0.8304929999999999,0.25999099999999986,0.025073000000000012,0.09819,0.0,0.9167868162870882,single,-0.7323029999999999
121,1.008333,jog,1.4533781351254162,-0.7154686187447591,-0.17232689307572374,-0.020409731350807026,-0.6216853533321572,1.1814712340594313,4.692667706708288,-3.1659666386655707,0.22620904836193628,-0.0045601824072942325,-0.022200888035520512,-0.007920316812672173,-3.629090321417285,-0.7776622117338076,2.044963593816543,86.04688361301645,354.10992822767946,-203.40187182430356,1.742539400364511,2.4337946996831143,1.2096967738064934,-0.2506940000000001,-0.010102,-0.728982,-0.02984500000000001,0.04116799999999998,-0.8291229999999999,0.22084900000000007,0.05126999999999998,0.10014099999999992,0.0,0.9599859013885726,single,-0.728982
122,1.016667,jog,1.5061195104391543,-0.7185025197984098,-0.11867050635947914,-0.6636394289637644,-0.888342583968709,1.5260382298122173,4.033837293016545,-2.571994240460741,0.1925845932325427,-0.022918166546669037,-0.04043676505879879,-0.0015598752099830842,6.328458760947638,-0.3640390033178225,6.438251345841636,-79.05332537697831,71.27098610569054,-4.034611846579472,-2.2027818741750256,-2.1881301923779866,0.7631919369677274,-0.22962799999999994,-0.02554899999999999,-0.726388,-0.04258799999999996,0.046818999999999944,-0.8281470000000001,0.18703999999999998,0.07236799999999993,0.10175900000000004,0.0,0.922490008942358,single,-0.726388
123,1.025,jog,1.461898475939054,-0.7315492619704843,-0.14928597143886166,0.0036320365786069323,-0.5675380978976368,1.1762787721482546,3.71870874834997,-2.3300132005280476,-0.30373214928597486,-0.03288131525260998,-0.036361454458171724,-0.03660146405856264,-5.306736409468448,-1.565671687516451,-3.6740027696367217,-37.8169380375109,29.038886347377392,-59.56039151788337,-1.195625669739714,0.4890568343486265,-4.205158868184313,-0.21082199999999995,-0.03886900000000004,-0.7276750000000001,-0.05504399999999998,0.05261199999999999,-0.827208,0.15577799999999997,0.09148100000000003,0.09953299999999998,0.0,0.8980331830353419,single,-0.7276750000000001
124,1.033333,jog,1.533061322452869,-0.7337093483739231,-0.06144245769831501,-0.4319563634446926,-0.6351524109726503,1.3926783965350995,3.903996159846326,-2.269050762030439,-0.37129485179406685,-0.03036121444858446,-0.05220208808351801,-0.015360614424577087,8.539883176984729,-0.2592207372421397,10.541643314597998,22.235378794714155,7.315785251122926,-8.107848614915493,0.30242419345079563,-1.9009520731244463,2.5490039162348714,-0.19106499999999993,-0.051663000000000014,-0.7302569999999999,-0.06807200000000002,0.05829100000000004,-0.826824,0.12299299999999991,0.10995400000000005,0.09656700000000007,0.0,0.8961463393549896,single,-0.7302569999999999
125,1.041667,jog,1.5115190784737471,-0.7259419246460421,-0.048116150707942444,-0.6395197697759174,-0.46129537888045824,1.585074413622923,4.004079673626174,-2.3842092632589846,-0.3773698104151717,-0.019438444924405874,-0.01427885769139591,-0.01811855051595887,-2.5848624884956055,0.9320162860428511,1.5990289165314158,12.00906092870771,-13.817914714248575,-0.7289367195950287,1.310627492702039,4.550423613165686,-0.3309258568972685,-0.170292,-0.06548300000000001,-0.733001,-0.08083099999999999,0.06422199999999995,-0.8265739999999999,0.08946100000000001,0.12970499999999996,0.0935729999999999,0.0,0.949722415231657,single,-0.733001
126,1.05,jog,1.6011040441617477,-0.7697107884315275,0.03360134405376852,-0.43638159077187416,-0.3363349989784322,1.286518035859316,4.022080883235258,-2.2275291011640035,-0.4695787831513178,0.0028801152046110143,-0.013440537621504744,0.019920796831872863,10.750625907596183,-5.2524737532082835,9.806491631070388,2.1602315623525126,18.80237154625926,-11.065519349111302,2.678334348855934,0.1006024324842375,4.564904277910845,-0.15011800000000008,-0.07763099999999995,-0.737194,-0.09414900000000004,0.07052399999999998,-0.826688,0.055969000000000046,0.14815499999999993,0.08949399999999996,0.0,0.9596618025810498,single,-0.737194
127,1.058333,jog,1.5790231609264518,-0.8133925357014296,0.056882275291009095,-0.7582532784081214,0.01837634463107231,1.4080154882109879,4.057362294491818,-2.1723268930757436,-0.49381975279011703,0.02628105124204623,-0.07824312972518803,0.03696147845913903,-2.6498119807147598,-5.242019353162419,2.7938235014089505,4.2339387083355495,6.624529951789324,-2.909032717964654,2.8082246534783906,-7.776622117326759,2.0449635938157114,-0.12946600000000008,-0.088955,-0.741783,-0.10708800000000007,0.07664999999999994,-0.826854,0.02237800000000001,0.16560499999999995,0.08507100000000001,0.0,0.8492718424386226,single,-0.741783
128,1.066667,jog,1.6651067914566609,-0.7826973842092574,0.2284617230621553,-2.2443540620353306,0.20104004919264423,2.007431080497268,4.086633069354424,-2.167506599472029,-0.5023998080153561,-0.020038396928248974,-0.01775857931364589,0.007559395248379306,10.329209326878859,3.6831235291782978,20.58788670160126,3.5122120065522204,0.5783889613288558,-1.0295242650874747,-5.557889149303438,7.25756544414947,-3.5279677478713105,-0.10928499999999997,-0.10049600000000003,-0.747874,-0.12113200000000002,0.08302500000000002,-0.8286950000000001,0.011847000000000052,0.18352100000000005,0.08082100000000003,0.0,0.9536304414029608,single,-0.747874
129,1.075,jog,1.737669506780293,-0.8865954638185616,0.20220808832352719,-1.0213179696688361,0.06086954558431005,1.035514833725299,4.166086643465773,-2.1743669746790064,-0.5294611784471427,-0.05496219848793503,0.003840153606134798,-0.0043201728069116405,8.707874153802086,-12.468268283847971,-3.1505621911230457,9.534810285773359,-0.8232779559555549,-3.247494351588483,-4.1910238281154895,2.591951628438844,-1.4256051908425602,-0.08904900000000004,-0.11122700000000002,-0.753971,-0.13607000000000002,0.09044499999999994,-0.8304159999999999,0.04702099999999998,0.20167199999999996,0.07644499999999999,0.0,0.9078911583531706,single,-0.753971
130,1.083333,jog,1.816752670106774,-0.8827553102123965,0.3238929557182239,-1.547317074663487,-0.07171823619942534,0.7214563272450034,4.211088443537665,-2.1135245409816044,-0.4806192247689817,-0.015600624024956343,-0.00348013920556165,0.051482059282370256,9.490359213546098,0.4608368662144496,14.602768198091274,5.400432025908025,7.301384099052081,5.861268892134898,4.723577878672507,-0.8784702762146069,6.696535712142196,-0.06909700000000008,-0.12148300000000001,-0.760675,-0.151339,0.09777200000000003,-0.8326859999999999,0.08224199999999993,0.21925500000000003,0.07201099999999994,0.0,0.9101561034841911,single,-0.760675
131,1.091667,jog,1.8273338132949637,-0.9178065754739816,0.25125989920807296,-0.008222261917240351,1.4089916521075845,-0.3622150118338174,4.244060475162069,-2.1076313894888807,-0.47852171826254875,-0.014638828893696762,-0.0032397408207343126,0.07679385649148235,1.2696356117338496,-4.205815366160997,-8.715269559653507,3.9563272887454004,0.7071216093980967,0.2516806463202565,0.1154061832564914,0.02884549853939787,3.0371726912782067,-0.048956,-0.131399,-0.766757,-0.16669,0.10539400000000004,-0.83414,0.117734,0.23679300000000003,0.06738299999999997,0.0,0.8695937157828268,single,-0.766757
132,1.1,jog,1.921036841473628,-0.9049561982479098,0.48109924396975523,-2.6156032365016126,-0.2878799475467713,0.6474668768905764,4.324492979719121,-2.0392415696627486,-0.4969398775950941,-0.007560302412087259,-0.0002400096003909128,0.12120484819392528,11.244813173966488,1.5421069514066381,27.581824644387165,9.652286638311628,8.207106663402248,-2.2102675306066297,0.8494571560793687,0.35998214572703074,5.329532185580482,-0.028927999999999954,-0.140851,-0.774907,-0.18276099999999995,0.11293299999999995,-0.8371390000000001,0.153833,0.25378399999999995,0.062232000000000065,0.0,0.7975989198886764,single,-0.774907
133,1.108333,jog,1.8910356414256804,-0.9005160206408351,0.3766950678027159,-1.1776303261975456,0.7287174535330125,0.2988472322987868,4.2934117364694915,-2.0248409936397676,-0.4783391335653474,0.0010800432017191667,-0.0004800192007685152,0.14520580823233095,-3.600288017274449,0.5328426265540327,-12.529002300136842,-3.729898385891032,1.7281382482876744,2.232178570712454,1.0368829489747398,-0.028802304137478047,2.8802304138252595,-0.008909000000000056,-0.15022000000000002,-0.7820320000000001,-0.19851000000000008,0.12043299999999996,-0.839068,0.18960100000000002,0.270653,0.057035999999999976,0.0,0.7579823028959616,single,-0.7820320000000001
134,1.116667,jog,1.8767698584113146,-0.8863690904727527,0.3862491000719879,1.4952622679368803,2.541980853012009,-0.5170614457303767,4.358171346292269,-2.010199184065258,-0.42440604751619526,0.03407727381810173,0.04019678425726934,0.22594192464602608,-1.7117570211621855,1.6974958205042394,1.1463921609397607,7.770531536210358,1.7568765988132018,6.471452609689433,3.9593509258918065,4.880825948888594,9.687558964926147,0.011770999999999976,-0.15958600000000003,-0.788788,-0.21386700000000003,0.12815500000000002,-0.840404,0.225638,0.287741,0.051615999999999995,0.0,0.6133232926294676,single,-0.788788
135,1.125,jog,2.170646825873054,-0.8849153966158784,0.5336613464538604,-1.9489929119966853,-0.8559652317396537,0.08506903610274384,4.418456738269564,-1.9261970478819308,-0.49669986799472476,0.08352334093364171,0.015840633625334354,0.29173166926677363,35.2666467612795,0.17445024083455427,17.690177172911778,7.23453641873216,10.080659568382117,-8.675605481642885,5.933765404481031,-2.922854990031826,7.895085157896093,0.030501999999999918,-0.16826299999999997,-0.797374,-0.231259,0.13566099999999998,-0.84242,0.2617609999999999,0.30392399999999997,0.04504599999999992,0.049540000000000084,0.5,flight,-0.797374
136,1.133333,jog,1.92427697107885,-0.9942397695907912,0.5247809912396496,-0.10940365595038665,1.5920691692048157,-0.6712288018303306,4.388455538221578,-1.930157206288271,-0.42049681987279797,0.13116524660985354,0.04008160326413771,0.4190567622704949,-29.565565197912658,-13.119449534971057,-1.065685253115433,-3.6002880172790053,-0.4752380182815633,9.144731563893854,5.71725737144033,2.909032717965148,15.279622345340503,0.05103600000000008,-0.176062,-0.8052509999999999,-0.246201,0.14428000000000002,-0.843301,0.2972370000000001,0.320342,0.03805000000000003,0.1195,0.5,flight,-0.8052509999999999
137,1.141667,jog,1.9511639068874438,-0.9763618910487093,0.5399568034557266,0.04641713440329306,1.2784881287799794,-0.4588479086181332,4.400527957763344,-1.8906887449003926,-0.39224862011038913,0.20686345092393157,-0.018118550515960053,0.4552435805135553,3.226174203094971,2.145173811144919,1.8209517897860432,1.4485744590551406,4.735836499625402,3.389512810464197,9.08305787305945,-6.983459776829533,4.342070823501336,0.07144899999999998,-0.18368199999999998,-0.8130200000000001,-0.260738,0.152266,-0.8440070000000001,0.332187,0.335948,0.030986999999999987,0.19013000000000008,0.5,flight,-0.8130200000000001
138,1.15,jog,1.9792391695667984,-1.0841233649346056,0.6498259930397212,-2.010089199673784,0.6169445823714665,-0.07372041807114667,4.380295211808513,-1.8744749789991766,-0.36601464058562644,0.27445097803912877,-0.05712228489140001,0.48913956558262733,3.3691662881741054,-12.931894142073357,13.184830143285206,-2.4280266356450935,1.9457297373354356,3.1482034711103966,8.110827686931215,-4.680635350466856,4.067680915525304,0.09145700000000001,-0.190268,-0.821485,-0.27494399999999997,0.16082399999999997,-0.8453459999999999,0.366401,0.35109199999999996,0.02386099999999991,0.26139,0.5,flight,-0.821485
139,1.158333,jog,1.9949597983918974,-1.0007200288011329,0.660746429857184,-0.032062315371900824,0.7301191569232789,-0.5235712644314515,4.39085563422529,-1.8354734189367257,-0.2941317652706051,0.3286931477258956,-0.07728309132364894,0.5445817832713222,1.886550921048696,10.008800688044074,1.3105048382890443,1.2673013820685024,4.680374422470928,8.626290089405988,6.509320735241314,-2.4193935476117336,6.653332255933508,0.11142200000000002,-0.197224,-0.829442,-0.288829,0.16851899999999997,-0.846314,0.400251,0.365743,0.016871999999999998,0.33128,0.5,flight,-0.829442
140,1.166667,jog,2.038276937845008,-1.0507559395248598,0.6337892968562646,0.28926599163797784,0.7735222189315809,-0.3320407500462311,4.354571634269337,-1.780417566594705,-0.255819534437251,0.39176865850732234,-0.09071274298056074,0.5901127909767321,5.197640923099531,-6.003828980528903,-3.2345971923350025,-4.353731696178828,6.6061737871396256,4.59709993200802,7.568455817305971,-1.6114292844866882,5.463283861940331,0.130726,-0.20330499999999999,-0.836856,-0.302551,0.17652,-0.846678,0.433277,0.37982499999999997,0.009821999999999997,0.40178,0.5,flight,-0.836856
141,1.175,jog,2.0696027841113263,-1.068402736109425,0.6327853114124421,0.09101361625882025,0.40336724185310235,-0.29179659903401123,4.325213008520267,-1.7571102844113475,-0.17064682587303107,0.43333733349333586,-0.0955238209528387,0.6606264250569902,3.759251922034997,-2.1177002981597193,-0.12048307258160347,-3.5231760169289754,2.7969857414325126,10.221133873061133,4.988440535942973,-0.5773524507713763,8.461974568613572,0.14952200000000004,-0.209044,-0.8435509999999999,-0.31618599999999997,0.18462699999999999,-0.8464459999999999,0.465708,0.393671,0.002894999999999981,0.4710499999999999,0.5,flight,-0.8435509999999999
142,1.183333,jog,2.097923916956697,-1.102364094563796,0.5163806552262206,0.12822389165668005,-0.6005946184738445,-0.23804302586799606,4.182527301092085,-1.762030481219265,-0.0801632065282621,0.466458658346335,-0.07356294251769833,0.6851074042961788,3.3986718883200533,-4.075526035565978,-13.969117507046994,-17.122969810174403,-0.5904472348395055,10.85846866011878,3.9747179710787743,2.6354108286500146,2.9378350221035396,0.16689300000000007,-0.21454099999999998,-0.848522,-0.329781,0.19320000000000004,-0.84504,0.49667400000000006,0.407741,0.003481999999999985,0.5,0.46518000000000004,flight,-0.84504
143,1.191667,jog,2.1051115910726987,-1.0854331653467637,0.6295896328293691,0.4773943758200973,0.4485078925284449,-0.4173431338257852,4.081113510919094,-1.5902327813774761,0.036957043436525124,0.471682265418765,-0.1353491720662358,0.7295416366690611,0.8624518977683808,2.031548982125293,13.583990593130268,-12.16868132625273,20.614074855026114,14.053305731315856,0.6267827060751122,-7.413754445468803,5.331681350237822,0.18336100000000005,-0.21874799999999997,-0.853461,-0.343394,0.20111800000000002,-0.844207,0.5267550000000001,0.41986599999999996,0.009253999999999984,0.5,0.40746000000000004,flight,-0.844207
144,1.2,jog,2.1263650546022084,-1.0945637825513108,0.5702628105124231,1.277079245379042,1.305786929914292,-0.5363830131784384,3.9512780511220824,-1.4603384135365547,0.1411256450258019,0.49345973838954066,-0.1341653666146601,0.6857074282971378,2.550517644246949,-1.0957178932613936,-7.119503458171908,-15.580878410777954,15.58794765881707,12.50073222000213,2.613401292544803,0.14206233668255303,-5.2603154172475355,0.19856800000000002,-0.221796,-0.857037,-0.357001,0.20912100000000006,-0.843245,0.555569,0.43091700000000005,0.013792000000000026,0.5,0.36208,flight,-0.843245
145,1.208333,jog,2.123844953798114,-1.1076443057722067,0.43789751590063,0.4839176006249211,-0.12138306923815254,-0.35120999268166814,3.745709828393069,-1.3634945397815688,0.23232929317172366,0.5125405016200588,-0.11640465618624858,0.7889115564622443,-0.302424193459071,-1.5697255755305046,-15.88447073224419,-24.669173494420956,11.6217297197869,10.94487557253332,2.289783178989299,2.131370506229595,12.38499077944374,0.21208300000000002,-0.22392800000000002,-0.85875,-0.370428,0.217381,-0.84032,0.582511,0.441309,0.018430000000000057,0.5,0.3157000000000001,flight,-0.84032
146,1.216667,jog,2.1438684905208016,-1.1023518118550726,0.4215262778977748,0.8213975151600615,0.21001114082898684,-0.5208466601348288,3.556155507559466,-1.2231821454283884,0.25689944804416015,0.5117590592752633,-0.09587233021358403,0.8899688024958181,2.402632196146884,0.6350484661788165,-1.9643914090299355,-22.744698924118865,16.836140431147467,2.9481827300740293,-0.09376558012905038,2.4636820221580202,12.12589945207292,0.22385300000000002,-0.22493500000000002,-0.860122,-0.38403000000000004,0.225769,-0.836416,0.6078830000000001,0.450704,0.023706000000000005,0.5,0.26293999999999995,flight,-0.836416
147,1.225,jog,2.116764670586788,-1.0740429617184515,0.3122524900995977,0.1655330288259223,-0.311444606952993,-0.449447640626177,3.329773190927575,-1.109444377775092,0.22704908196327514,0.6126245049801916,-0.07992319692788237,1.0438017520700642,-3.252588495621382,3.397197904310645,-13.113379070943859,-27.16696467441342,13.649078081518597,-3.5821872171948264,12.104337658097506,1.9139725531862932,18.46069237660427,0.23396099999999997,-0.22523,-0.860832,-0.396564,0.23405299999999996,-0.83032,0.630525,0.459283,0.030512000000000095,0.5,0.19488000000000005,flight,-0.83032
148,1.233333,jog,2.163206528261149,-1.1117244689787686,0.30157206288251653,0.8476305499588384,0.29424406764104355,-0.5607345390403994,2.9931597263890852,-1.0008400336013532,0.13092523700948094,0.5413416536661567,-0.14268570742829792,1.0810032401296152,5.5732458507573535,-4.521961749708089,-1.2817025341511192,-40.39523155388129,13.033042622553673,-11.535322807367704,-8.554284329057428,-7.531802532151221,4.464357141431822,0.240877,-0.224306,-0.862254,-0.41007899999999997,0.24212799999999995,-0.823825,0.650956,0.46643399999999996,0.038428999999999935,0.5,0.11570999999999998,flight,-0.823825
149,1.241667,jog,2.1265898728101575,-1.0755939524837963,0.19534437245021136,0.5588026119355106,-0.20107035025594128,-0.7489645549425287,2.751499880009576,-0.8870890328773626,0.0520758339332854,0.4636429085673085,-0.14302855771537817,1.057835373170137,-4.3936471623459274,4.335315154184313,-12.746303147624714,-28.996861816595583,13.649028164625596,-9.461171475425358,-9.323103563576629,-0.04113874335016217,-2.7799216414060437,0.246085,-0.222735,-0.863448,-0.423938,0.2499,-0.8166370000000001,0.670023,0.472635,0.046810999999999936,0.5,0.031890000000000085,flight,-0.8166370000000001
150,1.25,jog,2.1237249489979817,-1.1022440897636006,0.1023640945637826,0.8024086126211867,-0.008373420696493281,-0.742150630445548,2.5243009720389042,-0.7763110524421051,-0.05460218408736364,0.5994239769590805,-0.2089283571342864,1.0606024240969751,-0.3438046096454905,-3.198144399352514,-11.158079669558335,-27.26495955486303,13.29388940780734,-12.801874237447501,16.29437998221207,-7.908292261959537,0.33205939359631215,0.24942299999999998,-0.220019,-0.8647560000000001,-0.43664000000000003,0.257344,-0.808652,0.686063,0.477363,0.05610400000000004,0.5,0.0,flight,-0.808652
151,1.258333,jog,2.1012840513620703,-1.1063242529701263,0.06504260170406052,0.44889043879498597,0.07300094387307211,-0.7213979065538084,2.2512900516020844,-0.6837873514940653,-0.15204608184327562,0.7430697227889154,-0.2065282611304438,1.1567262690507736,-2.693015436926869,-0.4896391703499038,-4.478758293498431,-32.76262095725697,11.103288245294683,-11.69373548012875,17.238179026741417,0.28802304138276796,11.535322807368214,0.25067300000000003,-0.21649800000000002,-0.866565,-0.447958,0.264842,-0.799555,0.698631,0.48134000000000005,0.06701000000000001,0.5,0.0,flight,-0.799555
152,1.266667,jog,2.103311735061181,-1.12479001679865,-0.03047756179505334,0.8397957662995577,0.1256494207172588,-0.8692421326844632,2.038156947444189,-0.5590352771778219,-0.24790016798655898,0.6610271178305669,-0.21418286537077308,1.0344372450203891,0.24330257968690247,-2.2157144022706476,-11.461502699677602,-25.573926584820445,14.969051393837594,-11.50157021157699,-9.844325048997822,-0.9184790305170635,-14.673509002925787,0.25012999999999996,-0.211783,-0.868377,-0.45997800000000005,0.272431,-0.79068,0.7101080000000001,0.484214,0.0776969999999999,0.5,0.0,flight,-0.79068
153,1.275,jog,2.0735629425177184,-1.0837633505340294,-0.14808592343693372,0.2972485954583876,-0.6067378771944238,-0.89695833503995,1.8965558622345082,-0.42313692547702314,-0.3800552022080922,1.0316812672507087,-0.2326893075723079,1.141725669026771,-3.5699979051317405,4.923396887630021,-14.113567939743364,-16.99280993755937,16.308454542277687,-15.859238476123176,44.48027714150309,-2.220861898660146,12.875125885801369,0.24865500000000001,-0.20627800000000002,-0.87031,-0.46865999999999997,0.27952299999999997,-0.7799320000000001,0.7173149999999999,0.485801,0.09037799999999996,0.5,0.0,flight,-0.7799320000000001
154,1.283333,jog,2.091803672146853,-1.0936037441497481,-0.18564742589704175,-0.04625461067618722,-0.7381183596463557,-0.7599926559840897,1.7299891995679522,-0.34453378135124785,-0.4784591383655251,1.1176047041881498,-0.21516860674425803,1.1562462498499744,2.1889751145006793,-1.1808944696650168,-4.5075605976367905,-19.988799071949256,9.432754605277081,-11.808944696679612,10.311224881488009,2.1025682020940324,1.7425394003603918,0.24563999999999997,-0.200036,-0.8727499999999999,-0.476778,0.28684300000000007,-0.7687499999999999,0.722418,0.48687900000000006,0.10399999999999998,0.5,0.0,flight,-0.7687499999999999
155,1.291667,jog,2.1077513798896454,-1.0753539716822855,-0.3045356371490254,0.12088988224862593,-0.9260635684628434,-0.8821527035476951,1.5825533957283726,-0.2780177585793189,-0.5815934725222097,1.2652987760979262,-0.21994240460764572,1.2344612431005744,1.9135718433876687,2.1897975122945725,-14.26544411470913,-17.69088119025466,7.981284229893237,-12.375130088395316,17.72187087950314,-0.5728099188130288,9.385048386201282,0.241263,-0.193391,-0.875059,-0.48379900000000003,0.29397199999999996,-0.755924,0.7250620000000001,0.48736299999999994,0.11913499999999999,0.5,0.0,flight,-0.755924
156,1.3,jog,2.1687267490699287,-1.0094803792151512,-0.34093363734548576,-0.176726856561814,-2.1775142146043933,-0.630053892820477,1.4370574822992668,-0.16920676827072806,-0.6840273610944314,1.5003000120004553,-0.29341173646944396,1.3285731429256935,7.317336995113664,7.905147301948057,-4.367934740964809,-17.460208019813187,13.057841150676696,-12.292558330999627,28.201276359357372,-8.816672490315247,11.293879734203466,0.235166,-0.186389,-0.8779180000000001,-0.48936900000000005,0.29993900000000007,-0.7420120000000001,0.724535,0.48632800000000004,0.13590599999999997,0.5,0.0,flight,-0.7420120000000001
157,1.308333,jog,2.1306852274091117,-1.0574822992919797,-0.43945757830314264,-0.7525179470159494,-1.9615189274702793,-0.3000147013156353,1.1856474258970466,0.03012120484819435,-0.7934717388695629,1.6708268330733405,-0.38773550942037843,1.2871714868594877,-4.5651652059063155,-5.760460827652574,-11.823345848752883,-30.170413584810085,23.92031358681438,-13.133850687043381,20.46403709023002,-11.319305526333293,-4.968397463843298,0.22729100000000002,-0.177326,-0.880868,-0.493201,0.30552,-0.727624,0.720492,0.48284600000000005,0.15324399999999994,0.5,0.0,flight,-0.727624
158,1.316667,jog,2.0287976961842937,-1.0505159587232957,-0.5937125029997498,-0.24069354915996755,-1.1038553835224978,-0.4504754777692071,0.7516198704103605,0.1400287976961834,-1.1592272618190451,1.778857691384673,-0.44924406047516824,1.2175425965922622,-12.22552570492167,0.8358939967223297,-18.50911023477393,-52.079140327175764,13.187856113269524,-43.88715178179499,12.962665984081077,-7.3804356917193825,-8.354798448191143,0.21664699999999998,-0.167404,-0.8855810000000001,-0.49528400000000006,0.310531,-0.7125290000000001,0.7119310000000001,0.477935,0.17305199999999998,0.5,0.0,flight,-0.7125290000000001
159,1.325,jog,1.9000360014400732,-1.060722428897164,-0.7212288491539812,0.14116553356271744,-0.2335521340392963,-0.5429538326190283,0.09948397935917568,0.2550102004080185,-0.7951518060722501,1.8447137885515652,-0.4632185287411508,1.1218048721948974,-15.452021450164608,-1.2248254138807528,-15.302573641453574,-78.25943730363504,13.798320258230664,43.69080232170867,7.903047781938417,-1.6770032720488077,-11.488986487143357,0.201643,-0.15644000000000002,-0.886197,-0.495745,0.31550999999999996,-0.697171,0.697388,0.47195,0.18902600000000003,0.5,0.0,flight,-0.697171
160,1.333333,jog,1.889955598223894,-1.04404176167045,-0.7344293771750758,-0.7399177419964668,-1.6406814383457666,-0.1895246530721687,0.019440777631104363,0.2592103684147319,-0.34537381495259273,1.9950798031920929,-0.5187807512300426,1.032521300852016,-1.2096967738124356,2.0017601376111385,-1.58412672760043,-9.605568430105594,0.5040403224184973,53.97551795507614,18.04464354260471,-6.667733408003221,-10.714457139431165,0.186056,-0.14558,-0.8829549999999999,-0.494869,0.319887,-0.682447,0.680925,0.46546699999999996,0.2005079999999999,0.5,0.0,flight,-0.682447
161,1.341667,jog,1.8550515958723657,-1.0243580513559096,-0.7236621070314523,-1.4140793225925097,-1.8349534114032793,0.051479044220928465,0.12922966162707247,0.07967362610991331,0.00011999040076806085,2.254139668826533,-0.6389488840892813,0.9818814494840628,-4.188145230565037,2.3618562892417554,1.2919690597100741,13.173612190541181,-21.542685661725702,41.455940167190704,31.084697100365396,-14.419022421315209,-6.076296060469667,0.17167300000000002,-0.136379,-0.8769229999999999,-0.491543,0.323099,-0.668233,0.663216,0.459478,0.20868999999999993,0.7469727367596407,0.0,single,-0.668233
162,1.35,jog,1.7736709468378442,-0.9696387855514056,-0.7140285611424212,-1.6260183344956534,-2.2740505109634963,0.054395419189318124,0.27253090123604495,-0.11280451218048565,-0.22056882275290618,2.4573382935316945,-0.6709468378735047,0.94899795991838,-9.766068526883481,6.56657455952275,1.156071749553693,17.196836626541458,-23.098300526868545,-26.48371692711753,24.384810357033217,-3.839908050428762,-3.9461765949456606,0.159164,-0.129239,-0.872811,-0.48584600000000006,0.325588,-0.654375,0.6450100000000001,0.454827,0.21843599999999996,0.5,0.0,flight,-0.654375
163,1.358333,jog,1.7251890075603182,-0.9211568462738613,-0.7715108604344266,-1.53104908681658,-1.0725117429876916,0.16157279712162,0.2592103684147392,0.005520220808832095,-0.21996879875195224,2.611184447377929,-0.7230289211568532,0.8895955838233615,-5.818065435920607,5.818065435922805,-6.89815184111436,-1.5985278796718905,14.199535940155865,0.07200576034488676,18.46227695262642,-6.250099998001799,-7.128570274213257,0.146948,-0.12151699999999999,-0.8682150000000001,-0.47846299999999997,0.327239,-0.640533,0.6254109999999999,0.448756,0.22768200000000005,0.5,0.0,flight,-0.640533
164,1.366667,jog,1.7540196784257116,-0.9028077753779632,-0.7760979121670243,-2.0626434676379373,-2.1542791562735,0.4755428539393585,0.15286777057835224,0.0704343652507799,-0.05363570914326765,2.8227741780657354,-0.9121670266378618,0.8376529877609679,3.4594037515470544,2.2017123705181136,-0.5504021757376557,-12.760090933091691,7.7890742070971095,19.95837408311535,25.388736583609873,-22.694757077154676,-6.232612918453708,0.133604,-0.11340599999999998,-0.862194,-0.469556,0.32716100000000004,-0.627084,0.6031599999999999,0.440567,0.23511000000000004,0.7055780409704032,0.0,single,-0.627084
165,1.375,jog,1.7255490219608947,-0.8352334093363804,-0.7107884315372693,-1.9802104595682386,-1.6821758779207996,0.17392253989464387,0.10812432497299979,0.044641785671426945,-0.07008280331213326,3.06744269770793,-1.114844593783764,0.7560302412096587,-3.4166154403956805,8.109248294921812,7.83745117361761,-5.3694282497723345,-3.0952333588567367,-1.9737302494738704,29.361396812936125,-24.322280948746453,-9.795121391012833,0.120126,-0.106074,-0.856855,-0.458374,0.324831,-0.614861,0.5785,0.430905,0.24199400000000004,0.7727253374897844,0.0,single,-0.614861
166,1.383333,jog,1.678747149886011,-0.84723388935558,-0.6363854554182161,-2.8893326084494957,-1.0944360916178393,0.12417583784158541,0.1035641425657039,0.06168246729869258,-0.06564262570502867,3.1561262450498297,-1.0625225009000425,0.6801872074883065,-5.616449306958377,-1.4401152069122443,8.928714282857783,-0.5472437786266565,2.044963593815648,0.5328426265576183,10.642451379083246,6.278902302138733,-9.101528107686649,0.107,-0.0985,-0.852099,-0.446063,0.323037,-0.60389,0.553063,0.421537,0.248209,0.7712399807484185,0.0,single,-0.60389
167,1.391667,jog,1.7218622510199055,-0.8012958963282897,-0.5746340292776586,-2.449267394438888,-0.40567318963624077,0.1445497357522134,0.0489560835133184,0.06995440364770768,-0.05747540196784216,3.2686585073193846,-1.2027837772978043,0.5695944324454002,5.173398264206177,5.512118193819288,7.409578370597196,-6.552442890854942,0.9925529576451922,0.9799884493864225,13.50279124904655,-16.830006767189907,-13.270071399436702,0.093058,-0.09123899999999999,-0.847789,-0.43317200000000006,0.31969100000000006,-0.594354,0.5262300000000001,0.41093,0.25343499999999997,0.8284568524148253,0.0,single,-0.594354
168,1.4,jog,1.6947077883115473,-0.8634345373815023,-0.502460098403947,-2.088653208830204,0.3988320361807288,0.18161515458158853,0.020640825633025335,0.10020400816032762,-0.039961598463938916,3.473058922356939,-1.4060962438497708,0.41521660866434595,-3.258665871637879,-7.456935203793738,8.661218153571614,-3.397966864309771,3.630097745424244,2.1017404900880123,24.529030965745363,-24.398471925113213,-18.526079896922557,0.079108,-0.083209,-0.843935,-0.418353,0.315169,-0.586707,0.49746099999999993,0.398378,0.257228,0.8169409909497832,0.0,single,-0.586707
169,1.408333,jog,1.6943477739109258,-0.8591143645745678,-0.4503780151205977,-0.840194782152262,1.2810956603340113,-0.027587487571025054,0.03588143525740975,0.06012240489619414,-0.0034801392055683117,3.655346213848482,-1.4632185287411252,0.3358934357374298,-0.043203456212827764,0.5184414744911142,6.250099998001725,1.828946312778609,-4.809984791087578,4.377950229013556,21.875349992984496,-6.854948384897805,-9.51916151769048,0.06528800000000001,-0.075549,-0.8402109999999999,-0.40201200000000004,0.310135,-0.580155,0.4673,0.38568399999999997,0.26005599999999995,0.8831633103724628,0.0,single,-0.580155
170,1.416667,jog,1.6966642668586835,-0.8576913846892413,-0.38600911927045545,-0.3777191993289444,1.492221695968964,0.19993368789142493,0.01811855051595887,0.0008399328053755933,-0.01307895368370531,3.813174946004392,-1.491360691144733,0.18934485241180685,0.27795691717755616,0.1707439267250416,7.723649610048415,-2.1313756589214323,-7.113327584691585,-1.1517655961287716,18.937932824083685,-3.3767893452853754,-17.584423245215472,0.051299000000000004,-0.06839400000000001,-0.837103,-0.384373,0.304854,-0.5753600000000001,0.435672,0.373248,0.26174299999999995,0.9627304715850793,0.0,single,-0.5753600000000001
171,1.425,jog,1.6869074762990224,-0.8789151566062485,-0.3298931957278235,0.12256807744984374,1.3779651217319024,0.35265815254212596,0.002280091203648721,0.0007200288011527536,-0.01452058082323304,3.8553942157685652,-1.5817832713308253,0.06816272650906072,-1.1708617016273846,-2.5469545082211478,6.734180192323409,-1.9006911451229895,-0.014389056068983276,-0.17300217683039784,5.0665150323019645,-10.851143668077608,-14.542436805801513,0.03726100000000001,-0.061064,-0.8344750000000001,-0.366303,0.298997,-0.5720430000000001,0.403564,0.360061,0.262432,0.9754731142521627,0.0,single,-0.5720430000000001
172,1.433333,jog,1.6461058442337853,-0.8822752910116483,-0.26833073322933354,0.5211665214126322,1.005909853135039,0.33239086369708604,-0.0026401056042243353,0.011400456018240577,-0.013320532821312972,3.9893195727829505,-1.6158646345853989,-0.10104404176167252,-4.89639170349664,-0.40323225793828865,7.387791011459321,-0.5904472348341655,1.2817025341519168,0.1440115206912372,16.071685709154742,-4.08992718763637,-20.30562441746487,0.023522,-0.053617000000000005,-0.83235,-0.346777,0.29288400000000003,-0.570649,0.370299,0.346501,0.2617010000000001,0.9704488602556249,0.0,single,-0.570649
173,1.441667,jog,1.7221022318214407,-0.8444924406047455,-0.1955843532517408,0.3522228906087647,0.3188958688443396,0.27572803359314446,0.01679865610751142,0.022438204943604302,-0.004679625629949253,4.030717542596556,-1.6534677225821826,-0.19810415166786668,9.118837003558303,4.5335793624792995,8.728867287928027,2.3324648082236146,1.3244239171302665,1.0368259168902871,4.967358988913542,-4.512009598846101,-11.646281486224312,0.009310000000000006,-0.046392,-0.830759,-0.327537,0.286142,-0.57067,0.336847,0.332534,0.260089,0.9526371340914372,0.0,single,-0.57067
174,1.45,jog,1.6895475819032917,-0.8508340333613421,-0.11724468978759325,0.5401363262630638,-0.18250559601031727,-0.009313834289260579,0.01788071522860887,0.030601224048962032,0.03012120484819435,4.042841713668587,-1.6534261370454983,-0.44737789511580983,-3.9067142587482713,-0.7610215716544683,9.401135661124238,0.12985228862324028,0.9796014767020046,4.176266708045593,1.4549587269927342,0.004990464020665799,-29.914045775584473,-0.004619999999999999,-0.039047000000000005,-0.829531,-0.307927,0.279454,-0.573421,0.303307,0.318501,0.25611000000000006,0.9224786432313961,0.0,single,-0.573421
175,1.458333,jog,1.6637465498619655,-0.8321132845313678,-0.017760710428421266,0.6498954696652484,-0.7171521666322219,-0.33755593600720996,0.018120724828992647,0.034921396855873574,0.031081243249728885,4.12984519380768,-1.729149165966609,-0.5958238329533073,-3.096247694866887,2.2465797227857904,11.938555065303042,0.028802304138218236,0.5184414744883554,0.11520921655280425,10.440835250100992,-9.087126955611337,-17.814225109503766,-0.018333000000000002,-0.031821999999999996,-0.829124,-0.287377,0.27197899999999997,-0.578238,0.269044,0.303801,0.25088599999999994,0.9164351830306707,0.0,single,-0.578238
176,1.466667,jog,1.6439884809215577,-0.8116150707943509,0.08819294456444146,1.0370209539414195,-0.011656734998074446,-0.6514477021457801,0.028557715382770174,0.01967842572594283,0.0019198464122873083,4.077873770098468,-1.655627549796045,-0.7482601391888748,-2.3707786105601327,2.4595888813315656,12.713421525421735,1.2523386793589784,-1.8290102147745422,-3.4990876934775774,-6.2360719593487755,8.821888189412677,-18.290893476790302,-0.031796000000000005,-0.024894,-0.829843,-0.267093,0.264945,-0.585209,0.235297,0.289839,0.24463400000000002,0.9421095537247406,0.0,single,-0.585209
177,1.475,jog,1.6627865114604292,-0.8001920076802932,0.14232569302772105,1.2023157309144727,-0.6487426532471513,-1.0137437805879228,0.014640585623424334,0.028681147245888872,0.022080883235328627,4.233049321972808,-1.7893915756629961,-0.8546741869674658,2.2558538988204964,1.3708224065831656,6.4961896631799645,-1.6701223760165123,1.0803697971853936,2.4194211956127405,18.62181109736435,-16.05232519704172,-12.770196541292346,-0.04553,-0.017987000000000003,-0.8308450000000001,-0.24567499999999998,0.256702,-0.5935170000000001,0.20014499999999996,0.274689,0.23732799999999998,0.9349248221245143,0.0,single,-0.5935170000000001
178,1.483333,jog,1.6500660026401206,-0.8133925357014354,0.21516860674426377,1.3591227959208625,-0.4825481155474407,-1.2165638314599234,0.0144005760230413,0.015360614424577496,0.023040921636866246,4.326773070922874,-1.934717388695562,-1.0177607104284283,-1.526522119321821,-1.584126727606188,8.741499305957445,-0.028802304138129908,-1.5985278796725666,0.11520921655317747,11.247299765998685,-17.439795155714293,-19.57116566194216,-0.059160000000000004,-0.011081,-0.8324459999999999,-0.22337,0.24735800000000002,-0.603791,0.16421,0.25843900000000003,0.22865499999999994,0.9479794609160066,0.0,single,-0.603791
179,1.491667,jog,1.7429805615550624,-0.8429325653947624,0.31725461963043805,1.0063787109645843,-0.531894988152614,-1.6714084759901087,0.020398368130549818,0.012958963282936905,0.03383729301655812,4.464362850971887,-1.8737700983921166,-1.120590352771768,11.148855161380023,-3.5445200015990754,12.249341599012899,0.7196774787027205,-0.28817508299022954,1.29546092868872,16.509452849653478,7.31308978923025,-12.33856999560102,-0.073516,-0.003948,-0.834808,-0.20069,0.238767,-0.615774,0.127174,0.24271500000000001,0.21903399999999995,0.9306981130919393,0.0,single,-0.615774
180,1.5,jog,1.7728309132365458,-0.7889115564622653,0.41869674786991434,1.3997303393050504,-0.8647231299616372,-1.6468493385506378,0.024360974438977164,0.017640705628225447,0.06396255850234053,4.543981759270413,-1.914796591863695,-1.2920916836673584,3.5821854891976113,6.482780383115031,12.173542330430484,0.4755317782824172,0.561831554696818,3.6151764653525365,9.554651181870499,-4.92337615163553,-20.580982946788907,-0.088086,0.0027729999999999977,-0.837764,-0.177598,0.22938499999999998,-0.63003,0.08951200000000001,0.22661199999999998,0.20773399999999997,0.8821976648405906,0.0,single,-0.63003
181,1.508333,jog,1.8211928477139245,-0.858634345373823,0.48805952238090483,0.709185520642473,-0.8893376832576053,-1.4437150260523064,0.030601224048962865,0.04500180007200333,0.0547221888875566,4.571702868114767,-1.8807152286091606,-1.3252130085203526,5.8036642838568495,-8.367069352161087,8.323865895954773,0.7488599075945948,3.283462671760246,-1.1088887093224546,3.3266661279675858,4.08992718763168,-3.974717971078188,-0.10300699999999999,0.010303,-0.841375,-0.15467799999999998,0.22086799999999998,-0.64514,0.051671,0.210565,0.19623499999999994,0.871373550330372,0.0,single,-0.64514
182,1.516667,jog,1.7996160307175286,-0.8460523158147286,0.4758819294456304,1.1864315051298604,0.1047085656895925,-1.3531834274304209,0.05243580513558874,0.06623470122390121,0.08915286777057692,4.584233261339058,-1.8530117590592592,-1.458363330933514,-2.589010918693994,1.5097227692697721,-1.4611942566923848,2.6199401351842697,2.547744318682232,4.131350957885775,1.5035269047625612,3.3241504139550306,-15.976760548735346,-0.11756799999999999,0.017906,-0.844598,-0.131471,0.212476,-0.66126,0.013902999999999999,0.19457000000000002,0.183338,0.7952997914418172,0.0,single,-0.66126
183,1.525,jog,1.8739949597984096,-0.8508340333613421,0.5479419176767205,1.0184152922502607,-0.0697217212927792,-1.141937075598599,0.08172326893075726,0.08388335533421476,0.08892355694227917,4.807992319692831,-2.027121084843411,-1.3350534021360971,8.92582852284671,-0.5738290587559749,8.647544489510473,3.51463624086989,2.117923210166052,-0.027518400131735076,26.85216108889653,-20.893954852292516,14.79778336702484,-0.132503,0.025695000000000003,-0.848423,-0.107022,0.20267400000000002,-0.6769510000000001,0.025481000000000004,0.176979,0.17147199999999996,0.7549234305244709,0.0,single,-0.6769510000000001
184,1.533333,jog,1.8545541821672538,-0.8480739229569034,0.4819392775710968,1.3017844300877233,0.1691767356471244,-0.997719168159789,0.10692427697107731,0.08208328333133147,0.11028441137645267,4.700588023520858,-1.9966398655945905,-1.4752190087603243,-2.332986635204065,0.33122649759254036,-7.92063363802023,3.0242419345157336,-0.21601728103723258,2.5634050683035072,-12.88903110188061,3.6578926255634348,-16.820545616731636,-0.147066,0.033446000000000004,-0.85152,-0.08330599999999999,0.193103,-0.69326,0.06376,0.159657,0.15826000000000007,0.709726576211277,0.0,single,-0.69326
185,1.541667,jog,1.8688504919606794,-0.7864170866330843,0.42536597072233945,1.3959714535928438,0.4458163669845221,-0.8860991632513253,0.09839212862971165,0.06323494120470478,0.17938564914807195,4.9599232061436025,-1.9929205663547311,-1.4469642428606004,1.7154199416157832,7.39822850057839,-6.788253761550085,-1.0237758988919874,-2.2616201255851984,8.291485213777369,31.11773249613025,0.4462802063666228,3.3903006839122156,-0.161821,0.040527,-0.8535699999999999,-0.057545,0.183048,-0.7088639999999999,0.10427600000000001,0.14252099999999998,0.144706,0.6430885579582203,0.0,single,-0.7088639999999999
186,1.55,jog,1.9395175807031952,-0.881915276611049,0.5372614904596167,1.3048020926772377,0.12785829927205392,-0.7700078879630379,0.09756390255610069,0.04092163686547402,0.29161166446657294,4.9488779551181175,-2.030001200047965,-1.4608184327372826,8.480389864696336,-11.46024120700384,13.427999488452572,-0.09939110447749326,-2.6777036288527984,13.467660544641669,-1.3254831423838767,-4.449854037349456,-1.6625692879733525,-0.17717,0.048217,-0.8556170000000001,-0.03246800000000001,0.173481,-0.725514,0.144702,0.125264,0.13010300000000008,0.5,0.0,flight,-0.725514
187,1.558333,jog,1.9326773070922991,-0.8359534381375332,0.566662666506666,1.0999523969907399,0.2780595390806039,-0.13761201018833036,0.11664466578663261,0.025681027241089747,0.33073322932917637,5.047521900876081,-2.1460458418336943,-1.4544581783271453,-0.8208656679342592,5.515641242471641,3.5282822569362238,2.2897831789910117,-1.828946312778641,4.694775574535436,11.837747000835765,-13.9259140508497,0.763261059658872,-0.192303,0.055397,-0.857583,-0.00651199999999999,0.162564,-0.742356,0.18579099999999998,0.10716699999999998,0.11522699999999997,0.5,0.0,flight,-0.742356
188,1.566667,jog,2.0293976481881306,-0.7704583633309274,0.6220302375809847,-0.48790586259988217,0.437945291077457,0.04519888191511777,0.136429085673145,-0.041636669066474376,0.36201103911686777,5.112071034317216,-2.1809455243580342,-1.3948884089272748,11.605512490500452,7.858780274370683,6.6435770427547824,2.3739404711437753,-8.077477358718935,3.7530369315684142,7.745276390824874,-4.18762689276934,7.147800503944086,-0.20807900000000001,0.061471,-0.85975,0.019179,0.150809,-0.759165,0.22725800000000002,0.089338,0.10058500000000004,0.5,0.0,flight,-0.759165
189,1.575,jog,2.024720988839572,-0.8387135485419496,0.5879035161406494,2.0497337710428356,0.14823954762695477,-0.5439197882219861,0.16056642265690763,-0.07644305772230943,0.3421336853474178,5.184567382695354,-2.1150846033841533,-1.3752550102004204,-0.5612215706898845,-8.190949863317265,-4.095370387655786,2.896596301903619,-4.176933716048887,-2.3853778674487187,8.699909801768712,7.9036266619322655,2.356102091306206,-0.223613,0.067823,-0.861798,0.045509999999999995,0.140173,-0.775524,0.269123,0.07235,0.08627399999999996,0.5,0.0,flight,-0.775524
190,1.583333,jog,2.1243249729988825,-0.7505100204008024,0.2281291251650076,-2.3279712502877046,5.120378334776414,1.6935004397045932,0.2062882515300574,-0.11832473298931759,0.4436577463098445,5.333253330133113,-2.3026521060842042,-1.2143285731429065,11.952956217365758,10.584846770808308,-43.17465390323239,5.486838938335409,-5.026002072123776,12.183374650477012,17.843027413627297,-22.509000684033083,19.311944924698313,-0.239596,0.07309099999999999,-0.860002,0.07225000000000001,0.127239,-0.787544,0.311846,0.054147999999999995,0.07245800000000002,0.5,0.0,flight,-0.787544
191,1.591667,jog,2.119510439164909,-0.9413246940244965,0.8317734581233586,1.278960227820674,-2.8598756918147807,-1.2117045150002688,0.20290376769858773,-0.11519078473722351,0.44636429085674006,5.28401727861781,-2.2224622030238,-1.2386609071274532,-0.577697844249299,-22.895929160510885,72.43152543296885,-0.406105571330661,0.3760437067547563,0.32475936487828333,-5.907853553552158,9.62201860576021,-2.919646506425146,-0.255569,0.07997599999999999,-0.8632139999999999,0.09862299999999999,0.116562,-0.8047989999999999,0.354192,0.036586,0.058414999999999995,0.5,0.0,flight,-0.8047989999999999
