frame_id,timestamp,gait_type,root_linear_velocity_x,root_linear_velocity_y,root_linear_velocity_z,root_angular_velocity_x,root_angular_velocity_y,root_angular_velocity_z,left_linear_velocity_x,left_linear_velocity_y,left_linear_velocity_z,right_linear_velocity_x,right_linear_velocity_y,right_linear_velocity_z,root_acceleration_x,root_acceleration_y,root_acceleration_z,left_acceleration_x,left_acceleration_y,left_acceleration_z,right_acceleration_x,right_acceleration_y,right_acceleration_z,left_pos_rel_x,left_pos_rel_y,left_pos_rel_z,right_pos_rel_x,right_pos_rel_y,right_pos_rel_z,step_length,step_width,step_height,left_contact_prob,right_contact_prob,support_type,max_foot_height
<<<<<<< HEAD
1,0.008333,jog,-0.07908316332652889,0.05016200648026275,0.02088083523339691,-0.06143954020372156,-0.10558211602648399,0.16426251900226946,0.007440297611905255,0.00816032641305136,0.009600384015361056,0.0014400576022922092,0.001200048001901292,0.0057602304092163005,0.0,0.0,0.0,0.0,0.0,0.0,0.0,0.0,0.0,0.003926000000000096,0.09565899999999994,-0.903497,0.10459299999999994,-0.1540220000000001,-0.906534,0.10066699999999984,0.24968100000000004,0.0030369999999999564,0.9452421427662324,0.9899040525908155,double,-0.903497
2,0.016667,jog,-0.09539236861049664,0.0719942404607552,-0.0009599232061311468,-0.002728133398094664,-0.2104969292841814,0.03400758399704791,0.010079193664503596,0.008519318454515505,0.009479241660667466,0.0015598752099880916,0.0015598752099880916,0.007919366450683538,-1.9569480782298725,2.6196585049786956,-2.620681358234708,0.31664219493620605,0.04307559892778321,-0.014535919689655613,0.014376962766484576,0.0431758109055435,0.25907559892815424,0.004804999999999948,0.09512999999999994,-0.90341,0.10540099999999986,-0.154609,-0.90646,0.10059599999999991,0.24973899999999993,0.003049999999999997,0.9424185921547359,0.9862985416103003,double,-0.90341
3,0.025,jog,-0.11340453618147074,0.04212168486739352,0.021120844833787827,0.11335726070473653,-0.016055039693762905,0.21699456140021267,0.01272050882034555,0.008760350414041976,0.010800432017280667,0.0006000240009639692,0.002400096003855877,0.008160326413056355,-2.161546570379707,-3.58485006520601,2.6497981567165456,0.3169704975209353,0.028924992142862278,0.15854918476097452,-0.1151867525529968,0.10083052848527366,0.028916352138823653,0.005856000000000083,0.09485200000000016,-0.903496,0.10635100000000008,-0.15493999999999986,-0.906568,0.100495,0.24979200000000001,0.0030720000000000747,0.9378685541126064,0.9857881683879355,double,-0.903496
=======
1,0.008333,stand,-0.07908316332652889,0.05016200648026275,0.02088083523339691,-0.06143954020372156,-0.10558211602648399,0.16426251900226946,0.007440297611905255,0.00816032641305136,0.009600384015361056,0.0014400576022922092,0.001200048001901292,0.0057602304092163005,0.0,0.0,0.0,0.0,0.0,0.0,0.0,0.0,0.0,0.003926000000000096,0.09565899999999994,-0.903497,0.10459299999999994,-0.1540220000000001,-0.906534,0.10066699999999984,0.24968100000000004,0.0030369999999999564,0.9452421427662324,0.9899040525908155,double,-0.903497
2,0.016667,stand,-0.09539236861049664,0.0719942404607552,-0.0009599232061311468,-0.002728133398094664,-0.2104969292841814,0.03400758399704791,0.010079193664503596,0.008519318454515505,0.009479241660667466,0.0015598752099880916,0.0015598752099880916,0.007919366450683538,-1.9569480782298725,2.6196585049786956,-2.620681358234708,0.31664219493620605,0.04307559892778321,-0.014535919689655613,0.014376962766484576,0.0431758109055435,0.25907559892815424,0.004804999999999948,0.09512999999999994,-0.90341,0.10540099999999986,-0.154609,-0.90646,0.10059599999999991,0.24973899999999993,0.003049999999999997,0.9424185921547359,0.9862985416103003,double,-0.90341
3,0.025,stand,-0.11340453618147074,0.04212168486739352,0.021120844833787827,0.11335726070473653,-0.016055039693762905,0.21699456140021267,0.01272050882034555,0.008760350414041976,0.010800432017280667,0.0006000240009639692,0.002400096003855877,0.008160326413056355,-2.161546570379707,-3.58485006520601,2.6497981567165456,0.3169704975209353,0.028924992142862278,0.15854918476097452,-0.1151867525529968,0.10083052848527366,0.028916352138823653,0.005856000000000083,0.09485200000000016,-0.903496,0.10635100000000008,-0.15493999999999986,-0.906568,0.100495,0.24979200000000001,0.0030720000000000747,0.9378685541126064,0.9857881683879355,double,-0.903496
>>>>>>> 3b0d06690e55fb02323d988053aa126fb7c3a6e7
4,0.033333,jog,-0.05868234729388716,0.11580463218529997,-0.024360974438971946,0.15817612149789545,-0.2536976219029616,0.33535567687886136,0.01764070562823944,0.006240249609977317,0.01632065282611271,0.003240129605184117,0.0037201488059393044,0.008760350414016994,6.566925343523771,8.842307370443592,-5.4580366341965405,0.5904472348366602,-0.30242419345549737,0.6624529951796525,0.3168253455202385,0.15841267275692156,0.07200576034569049,0.006492000000000164,0.093939,-0.9031570000000001,0.10686700000000005,-0.15587400000000007,-0.9062920000000001,0.10037499999999988,0.24981300000000006,0.003134999999999999,0.9272676728902193,0.9832434352521923,double,-0.9031570000000001
5,0.041667,jog,-0.07823374130068092,0.09911207103431645,-0.005279577633794576,0.02791593123693871,-0.2552354347327433,0.15499570426746556,0.02027837772976526,0.011639068874491688,0.019318454523638277,0.002039836813047004,0.005999520038409588,0.009359251259899408,-2.345979602447055,-2.0029471023498346,2.289584449865295,0.3164953325564938,0.6478064872227467,0.3597074271088992,-0.14402361316740012,0.2735026676830194,0.07186235251768824,0.007312999999999903,0.09321000000000002,-0.902952,0.10753599999999985,-0.15664999999999996,-0.90617,0.10022299999999995,0.24985999999999997,0.003218000000000054,0.9172707057748446,0.9811621864428464,double,-0.902952
6,0.05,jog,-0.09864394575784237,0.1002040081603167,-0.002160086403451637,0.14425254204942176,-0.26731331871466646,0.003880663103106227,0.01788071522860371,0.00540021600862243,0.014880595223808845,0.0027601104044289292,0.003960158406330221,0.008520340813631906,-2.449322507759684,0.13103769662789547,0.3743539217980246,-0.287731009379761,-0.7486922915959747,-0.5325644185562741,0.08643628841736772,-0.24473318517693113,-0.10067328048331958,0.008283999999999958,0.09241999999999995,-0.90281,0.10838100000000006,-0.15745199999999993,-0.906081,0.1000970000000001,0.24987199999999987,0.003271000000000024,0.9274879054068395,0.9836788079455381,double,-0.90281
7,0.058333,jog,-0.0816032641305669,0.11076443057722395,-0.014760590423628376,-0.14492587052885972,-0.2775036154944207,-0.0037281821243801607,0.013560542421700437,0.006000240009613046,0.0172806912276489,0.0019200768030740432,0.006240249609977317,0.007320292811713128,2.044963593816809,1.2673013820841528,-1.512120967259899,-0.5184414744873723,0.07200576034928786,0.288023041382462,-0.10080806448516573,0.27362188931322395,-0.144011520691081,0.009077000000000002,0.09154700000000005,-0.902543,0.10907700000000009,-0.158323,-0.905897,0.10000000000000009,0.24987000000000004,0.003353999999999968,0.928508514878677,0.9836518692052387,double,-0.902543
8,0.066667,jog,-0.13174946004320173,0.05075593952484547,0.01559875209984095,0.025660066044892394,0.01764943887168909,0.2733802505027482,0.009599232061444684,0.006959443244527413,0.013558915286777294,0.0013198944084453137,0.007559395248371036,0.006359491240700442,-6.0170621445446155,-7.200442890854148,3.6428296764422035,-0.47531921769327484,0.11509518057527801,-0.4465773867136556,-0.07201612606536231,0.15828481382214057,-0.11528696556427713,0.010255000000000125,0.09118199999999987,-0.90256,0.11018600000000012,-0.15868300000000013,-0.9059740000000001,0.09993099999999999,0.249865,0.003414000000000028,0.9358404096279859,0.9833892850335255,double,-0.90256
9,0.075,jog,-0.11568462738509129,0.09300372014880244,-0.004800192007685112,0.10508522115025758,-0.20361125939055497,0.10400905237193736,0.009000360014406253,0.012720508820372208,0.01788071522860872,0.0020400816032561803,0.007920316812687097,0.00600024000960056,1.9278570332545848,5.069936472333733,-2.4479712117515997,-0.07186752034542557,0.6913555233223089,0.5186367384893111,0.08642592041412063,0.04331232021073569,-0.043111872206874145,0.011294000000000137,0.09051300000000007,-0.902371,0.11116700000000002,-0.15939199999999998,-0.905884,0.09987299999999988,0.24990500000000004,0.0035129999999999884,0.9253402010389389,0.9830937033809154,double,-0.902371
10,0.083333,jog,-0.09264370574822924,0.06312252490099916,0.015360614424579009,-0.1326680895317006,-0.08856729567119376,0.27049551893334167,0.007440297611905249,0.01956078243128682,0.018720748829953584,0.0016800672026831248,0.017280691227639727,-0.00024000960038425518,2.765021197271335,-3.5858868652109988,2.419393547613597,-0.18721497689919628,0.8208656679364703,0.10080806448396286,-0.043203456207014906,1.1232898613887703,-0.7488599075944811,0.012128000000000139,0.09014999999999995,-0.902343,0.11195299999999997,-0.15977400000000008,-0.906014,0.09982499999999983,0.24992400000000004,0.00367099999999998,0.9164911195933994,0.9710602868151914,double,-0.902343
11,0.091667,jog,-0.133429325653948,0.0674346052315757,-0.00623950083993905,0.04578958361949789,-0.07270692757557184,0.1068798424878581,0.007079433645285487,0.01919846412286274,0.015478761699063747,0.0016798656107728034,0.013318934485237858,0.007079433645307967,-4.89388287805601,0.5174082470094237,-2.591806487223191,-0.043300211977413273,-0.04347471903336717,-0.38900733511997115,-2.4189094111032154e-05,-0.4753727792658834,0.8782629284487914,0.01329899999999995,0.08974799999999994,-0.9021619999999999,0.11307900000000015,-0.16022500000000006,-0.9059029999999999,0.0997800000000002,0.249973,0.0037409999999999943,0.9198280143783168,0.9747053834762198,double,-0.9021619999999999
12,0.1,jog,-0.15348613944558132,0.08640345613825193,-0.010920436817466957,-0.1714627569210842,-0.06996350880133423,0.07630390429529117,0.005640225609039989,0.02340093603746155,0.019080763230529135,0.0009600384015370207,0.014640585623446228,0.004680187207488812,-2.406913931553259,2.2763531629276628,-0.5617347866948162,-0.1727118728243726,0.5043168024239536,0.4322574740748092,-0.08638272041711054,0.15860448076423486,-0.2879210893818736,0.01462500000000011,0.08922300000000005,-0.901912,0.11436600000000019,-0.16082299999999994,-0.9057729999999999,0.09974100000000008,0.250046,0.0038609999999998923,0.9101961560284575,0.9743326529621006,double,-0.901912
13,0.108333,jog,-0.1419656786271373,0.08712348493939817,-0.015480619224774493,-0.1724751179016536,-0.21954378320207674,0.011161174863059066,0.004200168006721142,0.019920796831859905,0.015480619224769497,-0.007080283211332209,0.02664106564261906,-0.040321612864514966,1.3825105986372286,0.08640691241404592,-0.5472437786280498,-0.17281382483125507,-0.4176334100085979,-0.43203456207363977,-0.9648771886318538,1.4401152069090175,-5.400432025921495,0.01584300000000005,0.08866299999999994,-0.901654,0.11549000000000009,-0.161327,-0.90598,0.09964700000000004,0.24998999999999993,0.004326000000000052,0.9141134195704127,0.9185937954022676,double,-0.901654
14,0.116667,jog,-0.15094792416606434,0.07355411567074323,-0.000599952003830301,-0.3174297246923189,0.008038686259942057,0.15932459733216536,0.006479481641468495,0.01859851211904573,0.014158867290616743,0.023038156947440578,0.0415166786657016,-0.017638588912887106,-1.077783242011883,-1.6281940567140545,1.7855372235354185,0.2734957565091614,-0.15866147261989133,-0.1585975442947868,3.6139237051563184,1.7849307683084383,2.721745134584574,0.01715500000000003,0.08820500000000009,-0.9015310000000001,0.11694000000000004,-0.16159400000000002,-0.906122,0.09978500000000001,0.2497990000000001,0.004590999999999901,0.9136630474141008,0.9155818755998872,double,-0.9015310000000001
15,0.125,jog,-0.1698067922716843,0.07680307212288184,-0.017880715228617047,-0.2640749391740821,-0.07771505534766572,0.04842291285564743,0.01068042721708938,0.020160806432250822,0.014640585623424603,0.002280091203647097,0.016320652826102733,0.0003600144005763834,-2.263154698862351,0.38989036987142905,-2.0737745379559294,0.5041336344198835,0.18748281689728716,0.05780851227743437,-2.491067531956498,-3.023644046513727,2.159918794367395,0.01865899999999998,0.08773300000000006,-0.90126,0.11837399999999998,-0.16209800000000008,-0.9059699999999999,0.099715,0.24983100000000014,0.004709999999999992,0.9077189940063595,0.9725281894513391,double,-0.90126
16,0.133333,jog,-0.17448697947918698,0.05904236169446016,-0.012000480019199436,-0.25017262401852525,-0.05408770823523112,0.10586019347575693,0.015000600023992634,0.014400576023028664,0.014160566422657733,-0.003120124805001979,0.018840753630167364,0.004200168006720302,-0.5616449306975495,-2.1313705062308497,0.7056564513881682,0.5184414744873694,-0.6912552993186311,-0.05760460827635541,-0.648051843111613,0.30242419345549376,0.46083686621191833,0.020237999999999978,0.08736100000000002,-0.901042,0.11980199999999996,-0.16243299999999983,-0.905835,0.09956399999999999,0.24979399999999985,0.004792999999999936,0.9101402892302242,0.9674103549405588,double,-0.901042
17,0.141667,jog,-0.18166546676266127,0.07583393328535991,-0.02147828173745256,-0.23988747646732453,0.011181392515959733,0.1239293578453929,0.01967842572594833,0.014998800096010687,0.017518598512118275,0.005279577633781268,0.01835853131747637,0.04391648668106541,-0.8613495660516318,2.0148274047155974,-1.1372452265722517,0.5612941807002287,0.07178114626614161,0.4029316162059695,1.007883661961035,-0.05786204855903488,4.765576994761843,0.021916000000000047,0.08685399999999999,-0.900717,0.12135999999999991,-0.16291200000000017,-0.90529,0.09944399999999987,0.24976600000000015,0.004573000000000049,0.9037420721558489,0.9201813267716883,double,-0.900717
18,0.15,jog,-0.1910476419056806,0.10092403696146272,-0.0522020880835322,-0.3459276616681862,0.08357030010730322,0.2066605547453346,0.019920796831859874,0.005040201608049374,0.010680427217089363,0.003960158406356865,0.011640465618626384,0.036001440057602474,-1.1259060534044558,3.0109328784474734,-3.687004241699222,0.029085696137230874,-1.1950796217402262,-0.8206133799386662,-0.15833664075655846,-0.8062001318672722,-0.9498435885590939,0.023673999999999973,0.08605499999999999,-0.900193,0.12298500000000012,-0.16365600000000002,-0.904555,0.09931100000000015,0.24971100000000002,0.004361999999999977,0.9177826014043848,0.9365946247318317,double,-0.900193
19,0.158333,jog,-0.19536781471258388,0.05676227049081307,-0.02016080643225079,-0.1927385622050505,0.23818714081403075,0.33820272671580465,0.021600864034569643,-0.004200168006721135,0.006360254410176101,-0.045481819272786383,0.030961238449548935,0.03324132965318603,-0.5184414744873723,-5.299623961436412,3.845107602457864,0.201616128970331,-1.108888709320833,-0.5184414744885706,-5.933274652483284,2.3185854831300294,-0.3312264975898762,0.025482000000000005,0.08554700000000004,-0.899972,0.12423399999999996,-0.16387099999999988,-0.90411,0.09875199999999995,0.24941799999999992,0.004137999999999975,0.9204430881841301,0.8928632731324124,double,-0.899972
20,0.166667,jog,-0.18886489080873084,0.07427405807537156,-0.048836093112556496,-0.23232075758059384,0.22812819028936268,0.2941656284267531,0.022318214542838888,-0.007319414446828253,0.0034797216222703644,-0.05567554595632583,0.0370770338372801,0.04319654427645775,0.7802884453867334,2.1012464104341824,-3.440759140905409,0.08607517497831102,-0.37427963044241847,-0.34563628364599636,-1.2231493500767263,0.7338367395885722,1.1945301923772145,0.02724199999999999,0.08486700000000003,-0.899536,0.1253439999999999,-0.16418100000000013,-0.903343,0.09810199999999991,0.24904800000000016,0.003807000000000005,0.9223564050297451,0.8672888025622122,double,-0.899536
21,0.175,jog,-0.19260770430818225,0.08472338893554245,-0.058202328093118795,0.06265928681269663,0.1699790814232675,0.3453748595677937,0.023280931237252847,-0.007440297611905274,-0.0022800912036487664,-0.06744269770790265,0.026761070442827887,0.04860194407776354,-0.4491555861576164,1.25396986201499,-1.1239931573937745,0.11553062455465758,-0.01450656007164543,-0.6912051873177901,-1.4121146947770127,-1.2379651259393065,0.648673923113621,0.029041000000000095,0.08409900000000015,-0.89907,0.12638700000000003,-0.16466399999999992,-0.9024530000000001,0.09734599999999993,0.24876300000000007,0.003383000000000025,0.9252582180877638,0.854447209524215,double,-0.89907
22,0.183333,jog,-0.22320892835713083,0.05184207368294583,-0.06336253450137676,0.07779264980348492,0.27442001379819303,0.40858256445586805,0.021000840033605674,-0.006720268810759145,-0.0038401536061447522,-0.08928357134283635,0.0368414736589532,0.05844233769350785,-3.6722937776249314,-3.9459156669382685,-0.6192495389725139,-0.2736218893132331,0.08640691241403194,-0.1872149768985941,-2.621009676579105,1.2096967738059885,1.1808944696681032,0.031076000000000104,0.0836110000000001,-0.8985740000000001,0.12750300000000014,-0.16478899999999985,-0.9014380000000001,0.09642700000000004,0.24839999999999995,0.0028639999999999777,0.9340570333796381,0.8118484865255848,double,-0.8985740000000001
23,0.191667,jog,-0.2272618190544829,0.04931605471564205,-0.08951283897288502,0.2546004653574677,0.0785822634907274,0.44049619505478527,0.023158147348198647,-0.0038396928245778704,-0.007079433645307122,-0.09143268538518727,0.013078953683695058,0.08315334773218125,-0.4863079790439242,-0.3030980282341942,-3.1377855137398893,0.258856169257616,0.3456414670243907,-0.38868251009867616,-0.2578730552376914,-2.851274295087367,2.965083997920971,0.033163000000000054,0.08316799999999991,-0.897887,0.12863500000000005,-0.1650910000000001,-0.899999,0.095472,0.248259,0.0021120000000000028,0.93801567807412,0.7928669628711756,double,-0.897887
24,0.2,jog,-0.23544941797669452,0.02856114244569306,-0.0955238209528403,0.16863295301603023,0.29865224484319997,0.5006318436094139,0.018000720028812478,-0.0008400336013548856,-0.00444017760710539,-0.09648385935437732,0.021000840033605674,0.07980319212768491,-0.9825511727123033,-2.490689099957875,-0.7213466914622917,-0.6189160349677385,0.35997350572698694,0.3167233935199484,-0.6061651229077223,0.9506643885648156,-0.4020347539297171,0.035274999999999945,0.08292299999999986,-0.897128,0.12979299999999983,-0.16515400000000002,-0.8985380000000001,0.09451799999999988,0.24807699999999988,0.0014100000000000223,0.954967872006703,0.788400798994626,double,-0.897128
25,0.208333,jog,-0.24084963398537107,0.02952118084723018,-0.11100444017760182,0.1608935803203399,0.2390223525668258,0.44804885865345667,0.0213608544341788,0.016800672026884594,-0.012840513620544372,-0.10944437777511415,0.06156246249849837,0.09720388815552625,-0.6480518431149116,0.11520921655311674,-1.857748616916063,0.4032322579342769,2.1169693541629093,-1.0080806448384738,-1.5553244234653614,4.86758939936311,2.088167050022966,0.03746000000000005,0.08281699999999992,-0.89631,0.1308879999999999,-0.164887,-0.896803,0.09342799999999984,0.24770399999999992,0.0004929999999999657,0.9449748828961759,0.7353377178783992,double,-0.89631
26,0.216667,jog,-0.2407007439404788,0.03479721622269032,-0.13030957523398493,0.09137332770718745,0.13761578858162635,0.40143302933570907,0.005879529637624873,-0.010319174466046365,-0.005279577633789576,-0.12910967122628436,0.05891528677706008,0.15010799136069042,0.01786537615697973,0.6330735991672832,-2.316430892294587,-1.8576103667571289,-3.2541212494517557,0.9072397392314362,-2.359646442425029,-0.31763567571853735,6.347984545856026,0.03951499999999997,0.08244099999999999,-0.8952680000000001,0.131818,-0.1646859999999999,-0.894466,0.09230300000000002,0.24712699999999987,0.0008020000000000804,0.9783379382834859,0.6476903638144365,double,-0.894466
27,0.225,jog,-0.26101044041762106,-0.0033601344053662495,-0.09468378735149874,0.11801504353744445,0.15637749056970518,0.40875082364860504,0.008640345613833186,-0.002520100804011364,-0.008280331213248476,-0.2082083283331382,0.1420856834273192,0.15180607224288986,-2.437261067699777,-4.5790652379763035,4.2752655565205995,0.33131116959178103,0.9359262764952592,-0.36010483372841684,-9.492218541564116,9.980846831904362,0.20377785697821213,0.04176200000000008,0.08244800000000008,-0.894548,0.132258,-0.16347400000000012,-0.892412,0.09049599999999991,0.2459220000000002,0.0021360000000000268,0.9796168393718163,0.48822030164601266,single,-0.892412
28,0.233333,jog,-0.26149045961837625,0.005160206408258156,-0.0914436577463013,-0.03601410659314453,0.38342600610495153,0.37667441750628844,0.009000360014379592,0.004800192007658457,-0.010560422416896403,-0.20388815552623493,0.15108604344175208,0.2161286451458053,-0.05760460827495356,1.022481796906804,0.38883110586792746,0.043203456203816784,0.8784702762114261,-0.2736218893133235,0.5184414744873723,1.0800864051881527,7.719017509050207,0.04401599999999983,0.08244499999999988,-0.8938740000000001,0.1327379999999998,-0.162258,-0.8898490000000001,0.08872199999999997,0.2447029999999999,0.004024999999999945,0.9755294482352246,0.45975000000000005,single,-0.8898490000000001
29,0.241667,jog,-0.2806575473962199,-0.008519318454515526,-0.0949124070074513,-0.09244704918842624,0.20140709157873435,0.24221029490202883,0.012239020878335342,-0.0035997120230351048,-0.0031197504199661995,-0.26889848812094347,0.14698824094072888,0.29133669306455545,-2.299866544017722,-1.6414116705991977,-0.41621661400888,0.3886082150174895,-1.0079078510551454,0.8928092148944349,-7.800615862096075,-0.4916969643656367,9.024243810745181,0.04645699999999997,0.08248599999999984,-0.8931089999999999,0.13283599999999995,-0.16096200000000005,-0.8866299999999999,0.08637899999999998,0.2434479999999999,0.0064790000000000125,0.978111113842866,0.4352100000000001,single,-0.8866299999999999
30,0.25,jog,-0.2990519620784755,-0.027481099243973902,-0.058682347293887105,-0.20689494992392643,0.5089708115563778,0.2491829916851022,-0.00036001440057305197,-0.017280691227639727,-0.03516140645625841,-0.3232929317172653,0.16392655706227977,0.3171726869074768,-2.207418058593015,-2.2755047149236005,4.347781076870774,-1.5119447112574564,-1.6417831758795884,-3.845152530456281,-6.5275943353320285,2.0326792417557753,3.100443278881714,0.048945999999999934,0.08257099999999995,-0.892913,0.13263399999999992,-0.15936700000000004,-0.883498,0.08368799999999998,0.241938,0.009414999999999951,0.9346999148448774,0.40585,single,-0.883498
31,0.258333,jog,-0.371654866194664,-0.007560302412114056,-0.04896195847833493,-0.2612489492110949,0.05200931122787355,-0.10621161465189378,0.004200168006721149,0.008280331213260163,-0.011160446417857078,-0.44413776551061607,0.258610344413766,0.42253690147605966,-8.712697001822711,2.3905912434729264,1.1664933175989682,0.5472437786264505,3.067445390723623,2.88023041382472,-14.501960133607472,11.36250898253768,12.644211516690643,0.05207800000000007,0.08270300000000019,-0.892598,0.1320300000000001,-0.15714899999999998,-0.879569,0.07995200000000002,0.23985200000000018,0.013028999999999957,0.9758039913454585,0.36971,single,-0.879569
32,0.266667,jog,-0.3072954163666946,-0.03263738900885861,-0.08135349172067036,-0.2448002972072822,0.3114936149737281,0.16891646378339406,0.004919606431480405,-0.0039596832253625805,-0.021478281737460816,-0.497240220782328,0.3017758579313706,0.36561075113990943,7.722516178062072,-3.0090096708356766,-3.886673055235829,0.08632570491471753,-1.4686842378956961,-1.2380411950568428,-6.37178488981424,5.179447266331236,-6.83059159301058,0.05468000000000006,0.08294199999999985,-0.892099,0.1304470000000002,-0.1543620000000001,-0.875844,0.07576700000000014,0.23730399999999996,0.01625500000000002,0.9626875726287838,0.3374499999999999,single,-0.875844
33,0.275,jog,-0.347893915756627,-0.04440177607104043,-0.08448337933516428,-0.016224417150095878,0.25805486635551866,0.07665659712134555,0.004440177607112037,-0.002880115204611053,-0.016800672026881153,-0.5213008520340943,0.23232929317171844,0.3910956438257512,-4.87201480738416,-1.411782918778563,-0.37560153780078154,-0.057533760274614945,0.12955334462396773,0.561335618694305,-2.8873912458617754,-8.333921128003341,3.058309454679185,0.05761600000000011,0.0832879999999998,-0.8915350000000001,0.12900200000000006,-0.1520560000000002,-0.871881,0.07138599999999995,0.235344,0.01965400000000006,0.9706423953951092,0.30345999999999995,single,-0.871881
34,0.283333,jog,-0.3664946597863792,-0.0567622704908399,0.046921876875065424,-1.3288708695166616,0.5610046176533783,-0.23156830486620172,0.003360134405366261,0.0008400336013548883,-0.012600504020160117,-0.5832233289331425,0.28885155406216895,0.38005520220808964,-2.2321785707130983,-1.4833186631224653,15.76926151568823,-0.12961036862423841,0.4464357141444798,0.5040403224194223,-7.430994467664519,6.782942624559061,-1.324905990359003,0.06069799999999992,0.08376800000000006,-0.8920309999999999,0.1271960000000001,-0.14917599999999998,-0.8691049999999999,0.06649800000000017,0.23294400000000004,0.022926000000000002,0.9782202399490565,0.27074,single,-0.8691049999999999
35,0.291667,jog,-0.34881209503239624,-0.051115910727146274,-0.16294696424285685,0.8154172155849815,-0.21439648380952597,0.19514920234718394,-0.0009599232061444676,0.005999520038409583,-0.008879289656827999,-0.6790256779457734,0.29901607871369523,0.3868490520758325,2.121738031435436,0.6775089709255604,-25.18224635444229,-0.5183654441457552,0.6190888453389357,0.4465100027996298,-11.495362252535488,1.219645386552229,0.8151967683876691,0.0635969999999999,0.08424400000000021,-0.890747,0.124444,-0.146258,-0.8645229999999999,0.060847000000000095,0.2305020000000002,0.026224000000000025,0.9820682251248094,0.23776000000000003,single,-0.8645229999999999
36,0.3,jog,-0.43273730949238054,-0.016560662426493677,-0.07476299051961247,-0.26683198606980024,0.10920467731791388,-0.04485004575182396,0.003240129605184125,0.009360374414952676,0.0016800672026881264,-0.7349093963758591,0.34777391095644716,0.357614304572185,-10.071428592341835,4.146795667905038,10.582500146795224,0.5040264984193692,0.40331865793148935,1.2671735100823416,-6.706314464188863,5.85117391608689,-3.5083100328390175,0.0672299999999999,0.08445999999999998,-0.8901100000000001,0.12192599999999998,-0.14322199999999996,-0.86092,0.05469600000000008,0.22768199999999994,0.02919000000000005,0.9832553760823196,0.20809999999999995,single,-0.86092
37,0.308333,jog,-0.41305652226088213,-0.021960878435115978,-0.05040201608065345,-0.8451393207895272,0.5220046759775953,0.06705742610339352,0.000240009600390916,0.01740069602784845,-0.004320172806912415,-0.8144725789031645,0.3030121204848314,0.31693267730708985,2.3617889393373726,-0.6480518431083977,2.923433870029871,-0.36002880172725266,0.9648771886350342,-0.7200576034562002,-9.547963821829486,-5.371629721782742,-4.881990551433457,0.0706739999999999,0.08478799999999986,-0.889726,0.11858099999999983,-0.14051400000000003,-0.8578589999999999,0.04790699999999992,0.2253019999999999,0.03186700000000009,0.9701156990329813,0.18133000000000005,single,-0.8578589999999999
38,0.316667,jog,-0.4169666426686029,-0.07631389488841907,-0.02999760019198151,-0.47572094909497326,0.0037177069051803928,-0.2082000940148319,-0.03839692824575232,-0.00935925125990196,0.022918166546676836,-0.9091672666186691,0.2993760499159981,0.3040556755459591,-0.46917691477331236,-6.5218402271782345,2.4483340399174534,-4.636061656604686,-3.2109367995861007,3.2683392552903054,-11.36245352957825,-0.4362935647748171,-1.5451166020075404,0.07382899999999992,0.08534599999999992,-0.889285,0.114479,-0.13738300000000003,-0.855075,0.040650000000000075,0.22272899999999995,0.03420999999999996,0.923857552342179,0.15789999999999998,single,-0.855075
39,0.325,jog,-0.43657746309852574,-0.06444257770310902,-0.04596183847354141,-0.6108286714161394,0.24872438034482375,-0.04031406356580162,0.000240009600390916,-0.0007200288011461016,0.016200648025920517,-1.009720388815539,0.27673106924275886,0.2755310212408476,-2.353392587294224,1.4246150468390737,-1.9157852251961882,4.636618006257419,1.0367481649772978,-0.8061344678694696,-12.066857337917861,-2.717506381043937,-3.4230954404309797,0.07746900000000001,0.08587699999999998,-0.888767,0.1097030000000001,-0.1345400000000001,-0.8523959999999999,0.032234000000000096,0.22041700000000009,0.03637100000000004,0.9729693053824544,0.13629000000000002,single,-0.8523959999999999
40,0.333333,jog,-0.4652586103444039,-0.09264370574822955,-0.04824192967718882,-0.18536013013292987,-0.14416575317437272,-0.03260999608375678,-0.028321132845302237,-0.028921156846266206,-0.0655226209048361,-1.0818432737309513,0.26665066602666193,0.2373694947797927,-3.4418753445191697,-3.3842707362439226,-0.2736218893132623,-3.427474192450885,-3.3842707362438706,-9.80718455907318,-8.655092393545239,-1.2096967738025872,-4.579566357980921,0.08111000000000002,0.08640800000000004,-0.888911,0.10456500000000002,-0.13154599999999994,-0.850016,0.023455000000000004,0.21795399999999998,0.03889500000000001,0.8716370842622971,0.11104999999999998,single,-0.850016
41,0.341667,jog,-0.44540436765058006,-0.09767218622511299,-0.039596832253412664,-0.32914581125748255,-0.08344463786935216,-0.1556511664674641,-0.005519558435324028,0.004679625629937628,-0.023398128149748086,-1.1726661867050663,0.20050395968322252,0.23158147348212135,2.3823185377758382,-0.6033693876749979,1.0373287045567734,2.735970051593255,4.031771355436022,5.05453476782913,-10.897877726675647,-7.936969803628432,-0.6945069951609468,0.08477599999999996,0.08726100000000003,-0.888776,0.09850399999999992,-0.12906099999999987,-0.847756,0.013727999999999962,0.2163219999999999,0.041020000000000056,0.9591807227502414,0.08979999999999994,single,-0.847756
42,0.35,jog,-0.47425897035883685,-0.16584663386535434,-0.0015600624025009946,-0.5720327900441644,0.23852447365129817,-0.2741818944467286,-0.004440177607112066,0.027481099243973996,-0.014760590423616755,-1.3580943237729568,0.12660506420257178,0.20352814112564424,-3.4626908326241286,-8.181260967267672,4.564594965908048,0.1295308806206605,2.736286285135776,1.0365459889753212,-22.25226653880847,-8.868222186565573,-3.366534544159028,0.08869100000000008,0.08887200000000006,-0.888886,0.09113900000000008,-0.12662399999999985,-0.846047,0.0024480000000000057,0.2154959999999999,0.04283899999999996,0.9474854247085838,0.07161000000000006,single,-0.846047
43,0.358333,jog,-0.598103924156949,-0.13128525141004727,-0.0574822992919723,-0.30607813397451306,-1.3203810599891286,-0.7859385052583734,-0.002400096003829221,0.007440297611905225,-0.026041041641665787,-1.4328573142925731,0.1683667346693646,0.13116524660986512,-14.86198893533081,4.147531795908668,-6.710936864211098,0.24481958517734753,-2.404992395544064,-1.3537082944976582,-8.971917739063484,5.0116009200519205,-8.683894697681366,0.09365500000000004,0.090028,-0.888624,0.0841829999999999,-0.1241270000000001,-0.844475,0.009472000000000147,0.2141550000000001,0.044148999999999994,0.9546846132593314,0.05850999999999995,single,-0.844475
44,0.366667,jog,-0.5147588192944712,-0.11747060235181932,-0.09239260859130509,0.06488889657267888,-0.30207715245829797,-0.01330536867273296,0.007679385649129097,-0.01319894408447977,-0.01775857931365433,-1.4257259419246384,0.09995200383970276,0.09191264698823952,10.000612534494568,1.657625276965195,-4.18890200375963,1.2094410430715512,-2.4765108826955813,0.993815974083447,0.8556962284538877,-8.20911097068176,-4.709935159782285,0.09800900000000001,0.090897,-0.8880020000000001,0.07659100000000008,-0.12231499999999995,-0.842939,0.021417999999999937,0.21321199999999996,0.045063000000000075,0.9609646802337,0.04937000000000008,single,-0.842939
45,0.375,jog,-0.5153006120244846,-0.08052322092882129,-0.11244449777992067,-0.4530072434073096,-0.46289108135629586,-0.14437878936971962,0.004680187207502984,-0.041881675267002705,-0.006360254410176955,-1.5006600264010583,-0.021240849633996663,0.022200888035522028,-0.06501772831074347,4.433863125284786,-2.406322955552098,-0.3599182097235234,-3.442065424519742,1.3678537025653914,-8.99244983516382,-14.5437241658106,-8.365745704154286,0.10234200000000016,0.09121899999999994,-0.887118,0.06838000000000011,-0.12182100000000018,-0.8418169999999999,0.03396200000000005,0.21304000000000012,0.045301000000000036,0.92896730581333,0.04699000000000003,single,-0.8418169999999999
46,0.383333,jog,-0.5417016680667128,-0.1288851554062189,-0.08556342253689733,-0.4096832147276295,-0.589172016636248,-0.09744330823776141,-0.000960038401537024,-0.012600504020163448,-0.016680667226689136,-1.5676227049082059,-0.001800072002865266,-0.003000120004799869,-3.1682534552056,-5.8036642838590815,3.2258580634853486,-0.6768541472506927,3.5138811048649146,-1.2384990779445826,-8.035842854571909,2.3329866352011814,-3.0242419345160156,0.10684800000000005,0.09218799999999994,-0.886544,0.05983099999999997,-0.12076200000000004,-0.841129,0.047017000000000087,0.21294999999999997,0.04541499999999998,0.965121678397044,0.04585,single,-0.841129
47,0.391667,jog,-0.5261579073674201,-0.14818814494841565,-0.10127189824813476,0.3439914669940301,-0.18224085226619458,0.18073508582044373,0.01619870410367124,-0.007199424046070185,-0.01691864650827876,-1.5497960163186844,-0.05687544996401308,-0.04523638108951308,1.8651020757490686,-2.316173451187513,-1.8848662960448062,2.0588843898737994,0.6480777506711372,-0.02855522937240487,2.139031508221923,-6.608516674003811,-5.06794589449402,0.11136800000000013,0.09336300000000008,-0.885841,0.05130000000000012,-0.12000100000000002,-0.840662,0.06006800000000001,0.2133640000000001,0.04517899999999997,0.9591591734458464,0.04821000000000003,single,-0.840662
48,0.4,jog,-0.5480619224768953,-0.14328573142924667,-0.11232449297972447,-0.044646041881499385,-0.3965215964739971,0.10194269953863501,0.001440057602292203,0.002520100804038002,-0.030721228849154583,-1.7523100924036892,-0.08484339373575066,-0.05772230889235489,-2.628586956615285,0.5883131548264682,-1.3263644223676536,-1.771108424502457,1.1663896375984815,-1.65637613595053,-24.302661236649943,-3.3562875041086597,-1.498371271191859,0.11594700000000002,0.09457800000000005,-0.885161,0.04126500000000011,-0.11951400000000012,-0.8402069999999999,0.07468199999999992,0.21409200000000017,0.04495400000000005,0.9485699348639728,0.05045999999999995,single,-0.8402069999999999
49,0.408333,jog,-0.5436217448697869,-0.2226089043561676,-0.10620424816993002,0.8404711705187351,-1.519920981220217,-0.5414862202960095,-0.010560422416880617,-0.0003600144005996996,-0.016200648025920625,-1.7187087483499317,-0.16872674906996543,-0.05088203528141231,0.5328426265580793,-9.519161517691243,0.734458755525557,-1.4401152069090184,-0.3456276496625116,1.742539400364094,4.032322579354081,-10.066405296317651,0.8208656679398295,0.12038900000000008,0.0964299999999998,-0.884411,0.031473000000000084,-0.1190650000000002,-0.839746,0.088916,0.215495,0.044664999999999955,0.9677633262480896,0.053350000000000064,single,-0.839746
50,0.416667,jog,-0.5242380609551311,-0.06527477801777051,-0.303215742740574,0.08291110947208014,-0.3009518542622308,0.17062382265743398,-0.004799616030722338,-0.005759539236840162,-0.011759059275258072,-1.8396928245740471,-0.2183825293976399,-0.09743220542356522,2.3258560012785825,18.878584873817726,-23.639488189422103,0.691241467021631,-0.6478911490569303,0.5329480142383668,-14.516927792670426,-5.958216981962375,-5.58557357117265,0.1247180000000001,0.09692600000000007,-0.881982,0.020510000000000028,-0.12034100000000003,-0.838031,0.10420800000000008,0.2172670000000001,0.04395100000000007,0.9767570750727774,0.06048999999999999,single,-0.838031
51,0.425,jog,-0.5664226569062579,-0.17436697467897877,-0.28285131405256925,1.8271341039329312,0.7372386386386901,0.3841672570711225,-0.009840393615761157,0.003840153606148096,-0.005280211208448636,-1.8148325933037364,-0.23976959078362525,-0.04428177127085193,-5.062354008295558,-13.091587262835537,2.4438291957284055,-0.604917506904936,1.152009221527455,0.7774928677318436,2.9833470863207543,-2.56655002831938,6.378307230614835,0.1293559999999998,0.09841100000000003,-0.8796689999999999,0.010106999999999866,-0.12088600000000005,-0.836043,0.11924899999999994,0.21929700000000008,0.04362599999999994,0.9803177493497206,0.06374000000000002,single,-0.836043
52,0.433333,jog,-0.5229809192367774,-0.15564622584904575,-0.1902076083043251,-0.25584447810172306,0.1842876378047777,0.0013724312549849755,-0.009360374414952613,0.004800192007658442,-0.012840513620544287,-1.7650306012240349,-0.3102124084963457,-0.08784351374054884,5.213217049019606,2.246579722780864,11.117689397365147,0.05760460828135621,0.115209216549903,-0.9072725803546886,5.976478108688501,-8.453476264576999,-5.227618201091651,0.1336360000000001,0.09974799999999995,-0.878191,-0.00024299999999999322,-0.122174,-0.83519,0.13387900000000008,0.22192199999999995,0.04300100000000007,0.9723344757997998,0.06999000000000005,single,-0.83519
53,0.441667,jog,-0.6388288936885214,-0.07739380849532161,-0.08099352051835673,-2.298709213210235,-1.7074547781822749,0.16159529130659678,-0.021598272138237343,-0.011159107271406198,0.010439164866810331,-1.8308135349172163,-0.2954163666906621,-0.0627549796016317,-13.90064488261875,9.389538919333404,13.104642162943243,-1.468430252373986,-1.91496271647045,2.7933379514464547,-7.893320577535615,1.7753829860431536,3.010383266008793,0.13878000000000013,0.10030000000000006,-0.877429,-0.01017699999999988,-0.12399099999999996,-0.8350380000000001,0.148957,0.22429100000000002,0.042390999999999956,0.9559045480561217,0.07608999999999999,single,-0.8350380000000001
54,0.45,jog,-0.5755430217208425,-0.1212048481939219,-0.14832593303732267,-0.9717963427903152,0.3587631742221994,0.5918504455154328,-0.009360374414979259,0.0003600144005730508,-0.0007200288011519304,-1.873034921396856,-0.3204128165126532,-0.00864034561382483,7.594608420458251,-5.257535065234622,-8.08021271078431,1.4686064710498061,1.3823498946332893,-1.3391568064277228,-5.066769048318674,-2.999693966397571,6.494015839170364,0.1434979999999999,0.10131299999999999,-0.8761990000000001,-0.020989000000000146,-0.12565099999999996,-0.833874,0.16448700000000005,0.22696399999999994,0.04232500000000006,0.9843417876506619,0.07674999999999998,single,-0.833874
55,0.458333,jog,-0.6104644185767523,-0.13812552502098943,-0.08556342253689733,-1.4343766290108138,-0.48295835291612016,0.40750996226777836,-0.007680307212296192,-0.002880115204611072,-0.003480139205568381,-1.909036361454467,-0.34813392535702026,-0.05616224648985928,-4.190735252119269,-2.0305624417457793,7.531802532152345,0.20161612896712722,-0.38883110586633035,-0.3312264975898785,-4.3203456207381565,-3.3266661279691756,-5.702856219372922,0.1485209999999999,0.10243999999999986,-0.875515,-0.031810000000000116,-0.1274010000000001,-0.8336290000000001,0.18033100000000002,0.22984099999999996,0.04188599999999998,0.9851494901549163,0.08113999999999993,single,-0.8336290000000001
56,0.466667,jog,-0.6699064074874143,-0.27873770098393,0.13138948884088747,-0.38286736608401484,-1.8246092292532825,-0.0268546931665038,-0.001199904007660602,-0.003119750419949537,0.0014398848092158688,-1.9236861051115681,-0.4126469882409367,-0.03575713942884645,-7.132468071833685,-16.872111346645124,26.03226678399143,0.7775861776620571,-0.028753925526573663,0.5903556533218436,-1.7578286125631306,-7.740948270208349,2.4484169739636195,0.15409400000000018,0.10473700000000008,-0.876598,-0.042258999999999824,-0.128517,-0.835022,0.196353,0.23325400000000007,0.041575999999999946,0.99393418491,0.08424000000000009,single,-0.835022
57,0.475,jog,-0.6093843753750064,-0.16536661466459915,-0.1929677187087553,0.4772020904529232,0.41776117004277846,0.6878696637183503,0.0028801152045844253,0.0060002400095864146,0.015840633625345074,-1.907116284651393,-0.46885875435018776,-0.0996039841593663,7.26293437086379,13.60507456130219,-38.92442188283254,0.48962189034501835,1.0944426292494869,1.7281589842948808,1.9884579935407691,-6.745681760380558,-7.6619278447761925,0.1591959999999999,0.10616500000000006,-0.8748579999999999,-0.053072999999999926,-0.131046,-0.834244,0.21226899999999982,0.23721100000000006,0.04061399999999993,0.971363212401958,0.09386000000000005,single,-0.834244
58,0.483333,jog,-0.6738269530781114,-0.15936637465498504,0.039721588863564125,-1.4919849031574406,-0.667306587469183,0.27518059584557547,-0.01764070562821272,0.024840993639753676,-0.0001200048001921272,-1.9647185887435479,-0.46633865354612,-0.08676347053882136,-7.733418661119002,0.7200576034578279,27.923833862032694,-2.4625970038158,2.260980874855056,-1.915353225193464,-6.912552993178291,0.3024241934558708,1.540923271396243,0.16466399999999992,0.10770000000000013,-0.87519,-0.06383000000000005,-0.13360399999999983,-0.8352980000000001,0.22849399999999997,0.24130399999999996,0.03989199999999993,0.949220414720316,0.10108000000000006,single,-0.8352980000000001
59,0.491667,jog,-0.6711063114951015,-0.1991840652747772,-0.03227741780658441,-0.08981697403651634,-0.4368716574596278,0.2270265706581305,-0.01367890568753868,0.05483561315093943,-0.0881929445644347,-1.9476841852651798,-0.5064794816414718,-0.0789536837053042,0.32645087389127475,-4.777740655122644,-8.639189665244597,0.4753779626438729,3.599066416029005,-10.56790733912197,2.043964900212146,-4.816514050318192,0.9370994520658927,0.17014300000000016,0.10981700000000005,-0.875656,-0.0744689999999999,-0.13616499999999987,-0.835687,0.24461200000000005,0.24598199999999992,0.03996900000000003,0.8254207247775264,0.10031000000000012,single,-0.835687
60,0.5,jog,-0.6641065642625635,-0.2612504500179862,-0.0907236289451555,0.7244544199042874,-1.2235983890360773,-0.11829583920977456,0.0015600624025009946,0.010560422416907264,0.010800432017280695,-1.953918156726263,-0.5623424936997455,-0.0960038401536058,0.8400032680352756,-7.448264099749088,-7.013825889664134,1.8287493207775967,-5.313235417500573,11.879680377020957,-0.7481064995899533,-6.703829600176869,-2.04610061782091,0.17569000000000012,0.11208200000000001,-0.87481,-0.08521699999999988,-0.13867399999999996,-0.835731,0.260907,0.250756,0.039078999999999975,0.9746904910226349,0.10921000000000008,single,-0.835731
61,0.508333,jog,-0.6474258970358834,-0.3012120484819395,-0.07428297131885679,0.9859877033467925,-0.9199589553963861,-0.4239024346209041,0.009000360014379562,0.004800192007658442,0.012120484819392357,-1.9531981279251303,-0.6547461898476065,-0.14556582263290374,2.0017601376071146,-4.795583639019938,1.972957833469175,0.8928714282825557,-0.6912552993218286,0.1584126727603092,0.0864069124124134,-11.088887093226994,-5.9476758045479095,0.18116,0.11463199999999985,-0.8740899999999999,-0.09609800000000002,-0.14162000000000008,-0.836325,0.277258,0.2562519999999999,0.03776499999999994,0.9735974287891442,0.12234999999999996,single,-0.836325
62,0.516667,jog,-0.6871850251979926,-0.23530117590594105,-0.16030717542596729,0.7474571634992946,-0.4763322814217834,-0.06230171495444762,0.01715862730981582,0.03143748500122486,0.032877369810415766,-2.0046796256299375,-0.6786657067434504,-0.2970962323014183,-4.770713722355349,7.908672015358631,-10.322078726555194,0.9789137623513685,3.196219461671055,2.4906269487669217,-6.177285541733567,-2.8701124185078073,-18.18219458465508,0.18703000000000003,0.11685500000000015,-0.8724799999999999,-0.10707799999999978,-0.14531499999999986,-0.8374649999999999,0.2941079999999998,0.26217,0.03501500000000002,0.9189709345699157,0.14985000000000004,single,-0.8374649999999999
63,0.525,jog,-0.6929077163086429,-0.2728909156366108,-0.13320532821312128,0.9231775009611372,-0.6308972968962617,-0.39665695398911816,0.003960158406356851,0.030121204848193948,0.028321132845313707,-1.9584783391335707,-0.6403456138245512,-0.09540381615264619,-0.6867504032941611,-4.510949205648575,3.252351759611891,-1.5838796236000139,-0.15795993676117945,-0.5467703066245098,5.544376154610176,4.598595094071642,24.204058100176557,0.19283700000000015,0.11938000000000004,-0.871134,-0.11762399999999995,-0.14837699999999998,-0.8371500000000001,0.3104610000000001,0.267757,0.0339839999999999,0.9307770028227571,0.16016000000000008,single,-0.8371500000000001
64,0.533333,jog,-0.6740669626785113,-0.23316932677307642,-0.2697707908316391,0.9964660450749625,0.40159770021230995,-0.1675543123772507,-0.0036001440057838487,0.03564142565702561,0.013320532821312972,-1.9533181327253386,-0.6361454458178385,-0.08484339373575012,2.260980874850807,4.766781334877561,-16.38851105466447,-0.9072725803601067,0.662452995179613,-1.8001440086404503,0.6192495389694183,0.5040403224184308,1.2673013820828236,0.19842399999999993,0.12162000000000006,-0.868775,-0.12828400000000006,-0.15173499999999995,-0.8356089999999999,0.326708,0.273355,0.03316600000000003,0.9363012983218971,0.1683400000000001,single,-0.8356089999999999
65,0.541667,jog,-0.8663306935445103,-0.030837532997354183,0.44036477081833864,-5.880360185482639,1.4041578618413588,-1.0082280015206475,-0.012718982481394128,0.048956083513314236,0.0601151907847361,-1.9482841372689839,-0.6105111591072645,-0.0999520038396921,-23.069802119750126,24.277873023244624,85.20945064194532,-1.094173083226567,1.5976311322640415,5.614909762829706,0.604031132271983,3.075868335801992,-1.8128881814185114,0.205538,0.12228499999999998,-0.871944,-0.1373009999999999,-0.15656599999999998,-0.8401120000000001,0.3428389999999999,0.27885099999999996,0.03183199999999997,0.8690599501954994,0.18168,single,-0.8401120000000001
66,0.55,jog,-0.7626305052201923,-0.3109324372974918,-0.2946117844713758,1.759023475472723,-0.8190936323463435,-0.5893129190588017,-0.016560662426493566,0.04440177607104043,0.08376335053402151,-1.9121564862594562,-0.6483859354374204,-0.07488299531981242,12.444520379733303,-33.612733025337384,-88.2007146633519,-0.46102003421329923,-0.5465387546230397,2.8378926856216617,4.335491540804931,-4.545154965817322,3.008401358439887,0.21175499999999992,0.12524599999999997,-0.8687910000000001,-0.14688000000000012,-0.15937800000000002,-0.838281,0.35863500000000004,0.284624,0.030510000000000037,0.8396005667183012,0.19490000000000007,single,-0.838281
67,0.558333,jog,-0.8143525741029666,-0.20976839073564127,-0.0032401296051841467,-1.5411104411180894,0.40240936931995414,-0.7194253998742958,-0.03204128165126841,0.054722188887557435,0.0891635665426626,-1.9197167886715691,-0.6708268330733271,-0.014280571222848338,-6.206896541794645,12.140171194269948,34.96599722383227,-1.8577486169176751,1.2384990779451701,0.6480518431106608,-0.9072725803567727,-2.6930154369263093,7.272581794907553,0.21827399999999986,0.12745000000000006,-0.868021,-0.1560910000000002,-0.16321999999999992,-0.838373,0.37436500000000006,0.29067,0.029648000000000008,0.817644248140031,0.20352000000000003,single,-0.838373
68,0.566667,jog,-0.8221742260619184,-0.2847372210223111,-0.00815934725222792,-0.8655710920740248,-0.23238380902759107,-1.0182492960994274,-0.03971682265417047,0.047876169906411706,0.08135349172066066,-1.8854091672665882,-0.7025437964962948,-0.03971682265418712,-0.9385231532219501,-8.995539991201014,-0.5902588969334935,-0.9209912410489556,-0.8214565612125843,-0.937134007919592,4.116585241778333,-3.805731152263914,-3.052106003280368,0.22479500000000008,0.13022200000000006,-0.867275,-0.164952,-0.16670200000000013,-0.8386359999999999,0.38974700000000007,0.2969240000000002,0.02863900000000008,0.8293155586909474,0.2136099999999999,single,-0.8386359999999999
69,0.575,jog,-0.8519140765630663,-0.29053162126485405,0.04080163206528382,-1.3217648939536408,0.1678157956544723,-0.9374643096607453,-0.04272170886835788,0.046561862474479354,0.11688467538701687,-1.8465138605544438,-0.6989079563182387,-0.037681507260291805,-3.5689248171304673,-0.6953558433388954,5.875552540203071,-0.36060076973328253,-0.15772320075991403,4.263912596466644,4.667623510397795,0.43631827409770974,0.24424761717212692,0.23153800000000002,0.1330309999999999,-0.866641,-0.17324000000000006,-0.17010499999999995,-0.83929,0.4047780000000001,0.30313599999999985,0.027351000000000014,0.7785453470920227,0.22649000000000002,single,-0.83929
70,0.583333,jog,-0.889115564622581,-0.570982839313575,-0.05616224648986223,1.8485846421382195,-2.0010591547766614,-1.472309565330504,-0.053042121684873586,0.04188167526702907,0.11868474738989555,-1.8529941197647875,-0.6745469818792841,-0.02028081123244951,-4.464357141427406,-33.65549238554179,-11.63613087185235,-1.238499077944997,-0.5616449306912591,0.21601728103668255,-0.777662211729707,2.923433870029338,2.0881670500230674,0.23850499999999997,0.1381380000000001,-0.865184,-0.1812720000000001,-0.170968,-0.8389909999999999,0.41977700000000007,0.3091060000000001,0.026193000000000022,0.7723696304006993,0.23807000000000006,single,-0.8389909999999999
71,0.591667,jog,-0.8456923446124444,-0.427285817134617,-0.08183345332372872,2.03151365865787,-3.0755564293124267,-0.9515530554751119,-0.057115430765528837,0.03443724502038925,0.12850971922246152,-1.8134149268058335,-0.6546676265898564,-0.011999040076792443,5.210369571650626,17.24226328041239,-3.0802983961922603,-0.4887579890395032,-0.8932601687832691,1.1789023077232885,4.7491232252164215,2.3853318081866433,0.9937330400356377,0.2450770000000002,0.14198599999999995,-0.8634310000000001,-0.18933699999999987,-0.172863,-0.838409,0.4344140000000001,0.31484899999999993,0.0250220000000001,0.7586908149123357,0.24978,single,-0.838409
72,0.6,jog,-0.8181927277091148,-0.23004920196810105,0.08724348973959437,-0.5952261972797726,-0.5580190165395515,-0.0721689493155647,-0.011280451218053445,0.0558022320892766,0.22212888515540724,-1.8126725069002834,-0.5369014760590579,0.00048001920076684975,3.300086031840854,23.669340593605874,20.290044769389734,5.500417562399593,2.5639010043066777,11.234749301925667,0.08909395242411326,14.132503363830507,1.4975470151877364,0.25180100000000016,0.14436800000000005,-0.862307,-0.1976239999999998,-0.1754199999999999,-0.839132,0.44942499999999996,0.31978799999999996,0.023175000000000057,0.6178191988868631,0.26825,single,-0.839132
73,0.608333,jog,-1.0300012000479986,-0.4178567142685672,0.1292451698067911,-0.8267287805317556,0.09458020432734685,-1.8406508812690918,-0.06888275531022106,0.0507620304812265,0.18372734909396354,-1.7382695307812337,-0.6782671306852234,0.025561022440898112,-25.418033402002028,-22.53780298817537,5.040403224192555,-6.912552993179812,-0.6048483869014852,-4.608368662119709,8.928714282857237,-16.96455713742528,3.009840782447037,0.2598100000000001,0.1482730000000001,-0.861853,-0.20352599999999987,-0.17758999999999991,-0.8399960000000001,0.46333599999999997,0.325863,0.021856999999999904,0.6622075073082756,0.28142999999999996,single,-0.8399960000000001
74,0.616667,jog,-0.9604031677465737,-0.5381569474441895,0.16294696424285793,0.9006945324437032,-2.1052797078752183,-1.6862636095753143,-0.10031197504200429,0.04259659227263106,0.1904247660187202,-1.7066234701224114,-0.5925125989920704,-0.039836813054955705,8.351095788507944,-14.434873191219465,4.043891820982364,-3.771204671440293,-0.9797742030952112,0.8036257409115289,3.7972235011785975,10.28972062552837,-7.847112490503263,0.26697799999999994,0.15311300000000005,-0.861624,-0.20974500000000007,-0.17804299999999995,-0.841686,0.476723,0.331156,0.0199379999999999,0.6343250019053319,0.30062,single,-0.841686
75,0.625,jog,-1.0594023760950464,-0.6020640825633059,0.0812432497299935,1.55938310293511,-2.4622171201994743,-1.8747495783120989,-0.1041641665666465,0.04836193447737064,0.19524780991239443,-1.6578663146525685,-0.5282611304452176,-0.06120244809792325,-11.88038021702535,-7.669162980813167,-9.804837935061093,-0.46228147421603183,0.6918687393183194,0.5787884187776581,5.851092700089132,7.710484645008107,-2.5639787643066674,0.2749380000000001,0.15853300000000004,-0.860674,-0.21473199999999992,-0.17742799999999992,-0.842873,0.48967000000000005,0.33596099999999995,0.017801000000000067,0.6224687004200693,0.3219899999999999,single,-0.842873
76,0.633333,jog,-0.9546381855274092,-0.3319332773310974,0.1891275651025926,-0.7296473506537272,-0.143195705468916,-0.5512539241486526,-0.12408496339853295,0.043201728069112495,0.21072842913716552,-1.582623304932188,-0.49465978639147534,-0.07140285611424407,12.572205756346664,32.41699330759719,12.946635710140244,-2.3905912434761034,-0.6192495389725334,1.8577486169172,9.02952234733951,4.032322579352229,-1.2240979258755285,0.2818590000000001,0.161659,-0.860494,-0.21996499999999997,-0.17878400000000005,-0.8450439999999999,0.501824,0.34044300000000005,0.015450000000000075,0.5861094538931344,0.3454999999999999,single,-0.8450439999999999
77,0.641667,jog,-1.0212383009359232,-0.057955363570916,-0.019798416126706464,-2.877897082918632,3.516055013830215,0.8720027793992415,-0.13378929685627616,0.03827693784496761,0.2421406287497021,-1.5061195104391876,-0.46220302375809796,-0.05051595872330299,-7.991374539058596,32.87471967364806,-25.069112218538546,-1.1644268607803299,-0.5909275526931745,3.76916242051077,9.179720961483191,3.894499956008827,2.506227188737846,0.2892549999999998,0.16246099999999997,-0.8583109999999999,-0.22400600000000015,-0.182153,-0.8452999999999999,0.513261,0.344614,0.013010999999999995,0.5345349278666868,0.36989000000000005,single,-0.8452999999999999
78,0.65,jog,-0.9363974558982325,-0.885275411016433,0.08340333613344512,4.08179514234839,-2.9560509596269635,-1.9955048800725064,-0.19692787711505758,-0.004920196807867223,0.1737669506780253,-1.3846153846153713,-0.4460578423136871,-0.08580343213728601,10.181308656869108,-99.28237698854117,12.384705659444517,-7.576932708362072,-5.183863512880673,-8.205169575384197,14.581078341991576,1.9374992733002259,-4.234666196325799,0.29541700000000004,0.16979699999999998,-0.857558,-0.22774100000000008,-0.178493,-0.84671,0.5231580000000001,0.34829,0.01084800000000008,0.5622032743713805,0.39152000000000003,single,-0.84671
79,0.658333,jog,-1.0411616464658835,-0.1543261730469111,0.01944077763110488,-2.7609541729088085,2.3294609997766482,0.9291639861968908,-0.17652706108244492,0.02988119524780343,0.22248889955598528,-1.2797311892475824,-0.35569422776911,-0.1449657986319467,-12.572205756348485,87.71741725303356,-7.6758140528430125,2.4481958517476103,4.176334100044518,5.8468677400648525,12.58660690841111,10.84406750804967,-7.09976797007815,0.30262200000000017,0.17133199999999982,-0.855866,-0.22972899999999996,-0.18017100000000008,-0.84808,0.5323510000000001,0.3515029999999999,0.007786000000000071,0.5240331490607895,0.4221400000000001,single,-0.84808
80,0.666667,jog,-1.1641468682505163,-0.8999280057595398,0.18034557235421414,2.580146779125753,-2.806964262370408,-2.3761572370250152,-0.2011039116870648,-0.004199664026878687,0.3051355891528642,-1.1384689224861853,-0.2706983441324716,-0.124670026397887,-14.757046050471784,-89.46506272049712,19.307030804308617,-2.9489861536620685,-4.089375962884792,9.916809406872845,16.950116002087366,10.198690141185235,2.435297844259604,0.31064800000000004,0.17879699999999987,-0.854826,-0.22951500000000002,-0.17492700000000005,-0.850622,0.5401630000000001,0.3537239999999999,0.0042039999999999855,0.5,0.45796000000000003,flight,-0.850622
81,0.675,jog,-1.1399255970238937,-0.5928237129485088,0.13284531381254824,-0.1674313576529453,0.14219087840875808,-0.6364011743460138,-0.22092883715350964,-0.030121204848193948,0.338773550942037,-0.9513980559222385,-0.20436817472698943,-0.2101284051362032,2.9066688139472507,36.85398929689544,-5.700259035361298,-2.379086219422149,-3.110709326930895,4.036716883376052,22.44940196375207,7.959938726206879,-10.25541566522451,0.318306,0.18348599999999982,-0.85311,-0.22794399999999992,-0.17169000000000012,-0.85348,0.5462499999999999,0.35517599999999994,0.00036999999999998145,0.4963000000000001,0.5,flight,-0.85311
82,0.683333,jog,-1.1884075363014623,-0.5063002520100818,-0.08208328333133616,-0.13123978085628246,0.40061277106356163,0.5613169754650192,-0.24900996039839746,-0.04488179527179621,0.3494539781591293,-0.7437897515900749,-0.15456618264730201,-0.25969038761550856,-5.818065435925723,10.383230641837008,-25.792463355800596,-3.3698695841699355,-1.771341704500468,1.2817025341524582,24.913993079583044,5.976478108686892,-5.9476758045488785,0.32613400000000015,0.18733099999999991,-0.849514,-0.22423899999999997,-0.1687590000000001,-0.8549599999999999,0.5503730000000001,0.35609,0.005445999999999951,0.44553999999999994,0.5,flight,-0.849514
83,0.691667,jog,-0.9427645788336865,-0.7276217902567822,-0.04343652507799024,3.495115614750785,-0.36437379885693966,-0.07195562600169728,-0.23722102231822684,-0.051235901127904,0.37784977201823555,-0.6309095272378143,-0.022678185745139582,-0.350371970242377,29.47479691237989,-26.556460072798025,4.6372400112005785,1.414559404868074,-0.762431708196273,3.4072226852778997,13.544543358802455,15.82529360477099,-10.880919441668794,0.33201400000000003,0.19296800000000003,-0.846003,-0.22163999999999995,-0.16288400000000003,-0.857518,0.553654,0.35585200000000006,0.011515000000000053,0.38485,0.5,flight,-0.846003
84,0.7,jog,-1.2298091923676835,-0.6884675387015667,0.16332653306133074,-0.07267408710173207,0.3006902327910206,-1.2415053794346584,-0.28681147245888805,-0.07440297611905324,0.4225369014760625,-0.33601344053762755,0.025681027241082253,-0.36997479899196334,-34.44673149333969,4.69869813455128,24.81255947909791,-5.951092060561822,-2.7801602053461476,5.362670041740951,35.38894596186121,5.803337691854348,-2.3524335472922755,0.33987199999999995,0.19808500000000007,-0.843843,-0.21419200000000016,-0.156933,-0.861962,0.5540640000000001,0.35501800000000006,0.018118999999999996,0.31881000000000004,0.5,flight,-0.843843
85,0.708333,jog,-1.1828873154926154,-0.5837033481339204,0.09576383055321758,0.03848524055040144,-0.22257554205293634,-0.6931064216032625,-0.35173406936277507,-0.11520460818433552,0.4216968678747136,-0.12756510260409465,0.16224648985959608,-0.41569662786511224,5.63085045902651,12.572205756347756,-8.107848614918142,-7.7910232693971855,-4.896391703501994,-0.10080806448444424,25.014801144069608,16.388511054663777,-5.486838938335379,0.34679799999999994,0.20198899999999997,-0.841127,-0.20539800000000008,-0.150717,-0.866224,0.552196,0.35270599999999996,0.025097000000000036,0.24903000000000008,0.5,flight,-0.841127
86,0.716667,jog,-1.2471802255819457,-0.7433405327573678,0.166906647468205,0.7693089355833885,-0.8986038030565426,-1.3151378699058551,-0.40856731461483997,-0.13846892248618534,0.3935685145188361,0.016198704103671132,0.2285817134629267,-0.42080633549315855,-7.714532048155731,-19.1549297604327,8.536455113389353,-6.8194438747377575,-2.791494396670223,-3.375132392113904,17.25027678278914,7.959590065194396,-0.6131158660962637,0.35378699999999985,0.20703000000000005,-0.839238,-0.19486900000000007,-0.142617,-0.8711220000000001,0.5486559999999999,0.34964700000000004,0.03188400000000002,0.18115999999999993,0.5,flight,-0.839238
87,0.725,jog,-1.233169326773103,-0.7547101884075419,0.1879275171006805,0.6614166687312254,-0.6108286764909245,-1.6262966506923757,-0.45157806312252435,-0.09996399855995336,0.43321732869315194,0.10128405136205011,0.25741029641186647,-0.37525501020041035,1.6813751120656297,-1.3644132545510883,2.522605260107489,-5.161496280773404,4.620775702175966,4.758048022838855,10.21065009700945,3.4595683366062695,5.466377690237442,0.36030000000000006,0.21248599999999995,-0.837194,-0.18374899999999994,-0.13418299999999994,-0.875815,0.544049,0.3466689999999999,0.038621000000000016,0.11379,0.5,flight,-0.837194
88,0.733333,jog,-1.1560062402496054,-0.7683907356294144,0.205208208328331,1.0691912457505937,-1.0354081141723017,-1.2389600902656392,-0.5427817112684551,-0.15396615864633598,0.4136565462618478,0.15540621624865483,0.20496819872792676,-0.29221168846753826,9.259940780450888,-1.6417313358781291,2.0737658979539693,-10.944875572534544,-6.480518431103131,-2.34738778726798,6.494919583175866,-6.293303454210907,9.965597231833884,0.36541,0.21760599999999997,-0.835457,-0.1728209999999999,-0.12607200000000018,-0.87996,0.5382309999999999,0.34367800000000015,0.04450299999999996,0.05497000000000002,0.5,flight,-0.835457
89,0.741667,jog,-1.1197504199663966,-0.5838732901367968,0.2879769618430491,0.33688069975234786,1.6543511445965613,-0.7081839156138147,-0.5935925125989729,-0.19606431485482897,0.31701463882889613,0.06407487401008369,0.1708663306935565,-0.1718262538996885,4.350350405952609,22.140322233335574,9.931455905293806,-6.096808414988978,-5.051374635048385,-11.596101203857955,-10.958884357879969,-4.091896812379464,14.445096540418819,0.3697950000000001,0.22083799999999987,-0.8352149999999999,-0.16295499999999996,-0.11978200000000006,-0.8837919999999999,0.5327500000000001,0.3406199999999999,0.04857699999999998,0.01423000000000002,0.5822508927687972,single,-0.8352149999999999
90,0.75,jog,-1.202688107524293,-0.6687867514700621,0.24204968198728408,-0.10871314282579653,2.1660875151027,-0.7999226070433395,-0.7404296171846854,-0.18324732989317505,0.4222968918756726,-0.09888395535821955,0.10860434417375853,-0.12744509780391167,-9.952920623772481,-10.190022960910227,-5.511494042453479,-17.621157396581278,1.5380997193872403,12.63437574064275,-19.555841757866624,-7.4717372518658,5.32595176956398,0.37364700000000006,0.22488400000000008,-0.833713,-0.15375700000000003,-0.11330400000000007,-0.886871,0.5274040000000001,0.33818800000000016,0.05315799999999993,0.0,0.6758978506578728,single,-0.833713
91,0.758333,jog,-1.2451698067922594,-0.6642265690627679,0.04164166566662483,0.9852420012563933,-0.3919313968470177,-0.4793515164734274,-0.796111844473779,-0.20832833313334628,0.45985839433577175,-0.2386895475819045,0.03684147365895307,-0.11892475699027898,-5.098007832469246,0.5472437786264428,-24.049923955437226,-6.682134560073615,-3.0098407824518336,4.507560597635784,-16.777342160528544,-8.611888937334111,1.0224817969077948,0.377389,0.22868299999999997,-0.830228,-0.1453700000000001,-0.10746199999999995,-0.888209,0.5227590000000001,0.3361449999999999,0.05798100000000006,0.0,0.551319551563159,single,-0.830228
92,0.766667,jog,-1.1109911207103649,-0.6913846892248446,-0.5046796256299443,2.545200063363585,4.060371541548991,-0.04030347156828393,-0.8645308375330176,-0.24730021598270702,0.5405567554595657,-0.2716582673386064,0.026997840172776698,-0.05003599712023075,16.100154317482037,-3.25871372235144,-65.55331069073341,-8.209622397316894,-4.676251841775972,9.683028692559926,-3.9559298964125347,-1.1811415270190102,8.265989905213416,0.379443,0.23238399999999992,-0.821517,-0.13837499999999991,-0.1014750000000002,-0.8844200000000001,0.5178179999999999,0.33385900000000013,0.06290300000000004,0.0,0.5374265866216349,single,-0.821517
93,0.775,jog,-1.1833673346933704,-0.6612264490579747,-0.023040921636875097,0.15630556492416323,-0.2841311830970582,0.08728485028336092,-0.9284771390855455,-0.29833193327732843,0.6330253210128381,-0.24900996039842077,-0.012600504020136717,-0.14496579863194475,-8.685493097684535,3.6191335853677953,57.79895643742556,-7.673863140828948,-6.12405103739604,11.096671733261976,2.717905549044223,-4.751991382804902,-11.392031862680142,0.381567,0.23540800000000006,-0.8160499999999999,-0.13058900000000007,-0.09606999999999988,-0.885436,0.5121560000000001,0.33147799999999994,0.06938600000000006,0.0,0.5193181467604178,single,-0.8160499999999999
94,0.783333,jog,-1.2053282131285559,-0.688107524300967,-0.013080523220918723,-0.4022839203253744,0.20972878803945957,-0.0768159509457154,-0.9941197647905957,-0.3487339493579865,0.7340693627745191,-0.12924516980679282,0.004200168006721177,-0.13056522260890538,-2.6354108286554254,-3.2258580634816476,1.1952956217396453,-7.877430181813368,-6.048483869033787,12.12577004220351,14.372349764986085,2.0161612896745527,1.7281382482946726,0.3833270000000002,0.2382359999999999,-0.8098240000000001,-0.1216219999999999,-0.09030099999999996,-0.8864150000000001,0.5049490000000001,0.32853699999999986,0.07659099999999996,0.0,0.693726553348408,single,-0.8098240000000001
95,0.791667,jog,-1.1799856011518866,-0.6973842092632717,-0.11939044876410745,-1.2560249640766408,0.9760889106386139,-0.042839542362289276,-1.2550995920326442,-0.2829373650107802,0.9696424286057047,-0.0197984161267062,0.02027837772976511,-0.09215262778977586,3.040870167586888,-1.1131131464248434,-12.756170571536828,-31.31507406312053,7.894958524982698,28.266506579215726,13.132559836823349,1.9292308282989934,4.609142646883757,0.38270099999999996,0.24169000000000018,-0.800748,-0.11195299999999997,-0.08431999999999995,-0.886188,0.4946539999999999,0.32601000000000013,0.08543999999999996,0.0,0.8393131349743457,single,-0.800748
96,0.8,jog,-1.175087003480137,-0.7033481339253413,-0.14364574582983303,-0.5723817265043148,0.19879154506273733,0.2544426290315347,-1.3508940357614334,-0.3621744869795001,1.017160686427451,0.06132245289810705,-0.01764070562821272,-0.076203048121925,0.5878552348193296,-0.7156995874318499,-2.910752077970175,-11.495793079177824,-9.508834989645935,5.702419035370939,9.734893678724697,-4.550472021838194,1.9140261211869432,0.3812359999999999,0.2445329999999999,-0.791075,-0.10165000000000002,-0.07860599999999995,-0.885626,0.4828859999999999,0.32313899999999984,0.09455100000000005,0.0,0.8343485732397509,single,-0.791075
97,0.808333,jog,-1.2146885875435085,-0.7001080043201933,0.02412096483859457,-1.7472834144010332,1.4442790664974436,0.012815965890384334,-1.4963398535941383,-0.4147365894635708,0.9624384975399103,0.02352094083764392,0.04884195367812647,-0.09048361934477435,-4.752380182811929,0.3888311058620075,20.132810592635202,-17.454196307777064,-6.3077046062727895,-6.56692534351868,-4.536362901771688,7.978238246290627,-1.7137370962257874,0.37888900000000003,0.2469110000000001,-0.783256,-0.09133199999999997,-0.07236500000000001,-0.886581,0.470221,0.3192760000000001,0.103325,0.0,0.8241997940628638,single,-0.783256
98,0.816667,jog,-1.190184785217175,-0.7159827213822639,-0.3708903287736899,-1.1914195991573948,-0.8497492827423533,0.820651102096684,-1.9341252699783864,-0.5676745860331179,0.8428125749939943,-0.007199424046083459,0.02087832973363537,-0.07343412526997802,2.940221061475084,-1.9048136623554768,-47.3975634283995,-52.53004756230438,-18.351091501025437,-14.353962388518726,-3.6861488941357266,-3.355366444023385,2.0457756269253906,0.37268900000000005,0.2481469999999999,-0.7731410000000001,-0.08147300000000002,-0.06622400000000006,-0.884102,0.45416200000000007,0.31437099999999996,0.11096099999999998,0.0,0.8721947324026319,single,-0.7731410000000001
99,0.825,jog,-1.177847113884555,-0.7010680427217303,-0.19560782431297674,-0.6318219840259651,0.8680767276700162,0.35494357182395747,-2.123124924997024,-0.6333853354134096,0.7412696507860401,-0.029641185647425836,-0.007320292811723187,-0.04764190567622767,1.4805797831057355,1.7898330325853569,21.034741924962766,-22.680865836870204,-7.8856053498490635,-12.185638330487834,-2.6931191169257866,-3.3839700642456276,3.095190158856424,0.3648119999999999,0.24871100000000013,-0.765334,-0.07190500000000011,-0.060443000000000024,-0.882869,0.436717,0.30915400000000015,0.11753500000000006,0.0,0.9056905544100065,single,-0.765334
100,0.833333,jog,-1.1226449057962273,-0.626665066602642,-0.23172926917076778,0.4819785104901468,0.4542567400633085,0.27307926987881453,-2.4798991959678203,-0.7437897515900782,0.6539061562462449,-0.05040201608064013,0.03900156006241802,0.0463218528741153,6.624529951797363,8.928714282861874,-4.334746772805818,-42.81462510149942,-13.249059903596324,-10.484038706323632,-2.491399307958023,5.558844698684869,11.276102070123915,0.353502,0.24773499999999982,-0.757954,-0.06297000000000008,-0.054896000000000056,-0.880552,0.41647200000000006,0.3026309999999999,0.12259799999999998,0.0,0.8686903684036733,single,-0.757954
101,0.841667,jog,-1.2239020878329758,-0.5922726181905464,-0.42308615310775166,-1.233229596578322,-1.6798392712861019,0.5899379075076403,-2.63714902807774,-0.7889368850491898,0.4745620350371951,-0.04883609311255617,-0.01835853131750283,-0.012359011279098282,-12.149889853221469,4.126763668357965,-22.960989193302428,-18.86847037556019,-5.417222637282367,-21.519572979247478,0.1878957245121125,-6.882660352762228,-7.041140407153003,0.341724,0.24609599999999987,-0.750473,-0.05317700000000003,-0.050113000000000074,-0.8771289999999999,0.39490100000000006,0.29620899999999994,0.126656,0.0,0.9106389218701443,single,-0.750473
102,0.85,jog,-1.1502460098403986,-0.6365054602184116,-0.17100684027361365,-0.6655593391367679,0.44041926312455093,0.6371897608746714,-2.8108724348974183,-0.8775951038041485,0.309132365294614,-0.03660146405856264,-0.02616104644186409,-0.02376095043801735,8.839082922426245,-5.308153369478646,30.2507275691996,-20.847642724070543,-10.639411827068226,-19.85235446328844,1.4682142150478388,-0.9363392684940995,-1.3682874305675234,0.327886,0.24408699999999994,-0.7464719999999999,-0.043897000000000075,-0.04502700000000015,-0.875902,0.3717830000000001,0.2891140000000001,0.12943000000000005,0.0,0.9152020327831181,single,-0.7464719999999999
103,0.858333,jog,-1.223808952358094,-0.8823952958118486,-0.3688947557902193,0.482571196178282,2.750693511179279,-0.28662102237001136,-2.9614784591383505,-0.9541581663266541,0.20256810272410752,-0.006120244809795156,-0.010560422416880547,-0.01548061922476942,-8.82790621837214,-29.507960589635903,-23.747499761983057,-18.073445846745656,-9.187935020101433,-12.788223037382222,3.657892625557105,1.872149768988777,0.9936794927694584,0.3134060000000001,0.24348900000000007,-0.7417100000000001,-0.03375000000000006,-0.03776199999999985,-0.872957,0.34715600000000013,0.2812509999999999,0.1312469999999999,0.0,0.9671438535372638,single,-0.7417100000000001
104,0.866667,jog,-1.1720662347012305,-0.6172306215502573,-0.337652987760979,0.16763624684144493,-2.111646738407363,0.7759812994026506,-3.087113030957538,-1.0052795776337946,0.12994960403167827,-0.01091912646987674,0.0007199424046016947,0.0031197504199670426,6.208629428469371,31.817215534148403,3.7487122665275328,-15.074942622892737,-6.134078630566455,-8.713522761270658,-0.5758197336311028,1.3535354957382177,2.2318658081037395,0.2974460000000001,0.24025499999999989,-0.737813,-0.02407300000000001,-0.032612000000000085,-0.870117,0.3215190000000001,0.27286699999999997,0.13230399999999998,0.0,0.9810352313036639,single,-0.737813
105,0.875,jog,-1.2432497299891987,-0.8599543981759241,-0.5545421816872769,-2.3873628630116714,6.479166651409978,1.1265901337708382,-3.175927037081492,-1.0576023040921545,0.04536181447257745,-0.01440057602304194,0.002640105604220137,-0.005880235209408404,-8.542361129001307,-29.128018315812525,-26.02774438093087,-10.658107059156796,-6.278978334136526,-10.150940784723444,-0.41779065800614257,0.23042880110625635,-1.0800414771841365,0.28134099999999995,0.23860799999999993,-0.732814,-0.013832999999999984,-0.025424000000000113,-0.865545,0.29517399999999994,0.26403200000000004,0.13273100000000004,0.0,0.9737044620644696,single,-0.732814
106,0.883333,jog,-1.0672026881075114,-0.7753510140405644,-0.46345853834152223,0.7119031701039611,2.112135482212986,0.39603201788718745,-3.3049321972878656,-1.1546861874474954,-0.02868114724588842,-0.01008040321612536,0.0008400336013548828,-0.012480499219968738,21.126490085405802,10.152812208731474,10.93047442046733,-15.481238474303758,-11.650532023921818,-8.885510826648934,0.5184414744889669,-0.21601728103507098,-0.7920633638017889,0.262694,0.23544699999999996,-0.729191,-0.0050240000000000284,-0.018955999999999973,-0.8617870000000001,0.267718,0.25440299999999993,0.13259600000000005,0.0,0.9732250611458984,single,-0.729191
107,0.891667,jog,-1.1924646028317805,-0.7502999760019318,-0.38120950323974123,0.6737129667593633,0.21310137737570192,0.9696933366498461,-3.462203023758111,-1.2037437005039715,-0.07691384689224938,-0.010079193664503655,0.01715862730981582,-0.023158147348212123,-15.030227348724475,3.0058840939084193,9.869094684639006,-18.870989497269797,-5.88643065232498,-5.787460960686492,0.00014513458383791665,1.9580745990474,-1.2812152781669601,0.24377800000000005,0.23166799999999999,-0.726655,0.004830000000000001,-0.012559999999999905,-0.8588030000000001,0.23894800000000005,0.2442279999999999,0.13214800000000004,0.0,0.9491104566327655,single,-0.726655
108,0.9,jog,-1.1659666386655487,-0.6188647545901904,-0.29053162126485016,-0.8809428176623052,0.9917012351188488,1.412480647940936,-3.550462018480738,-1.3208928357134218,-0.12012480499219941,-0.005160206408258139,0.017400696027821804,-0.011760470418816808,3.1798828952636056,15.772857483708245,10.881781108231213,-10.591503026836229,-14.05845856347651,-5.185522392889697,0.5903020828327729,0.02904940813704327,1.3677759425651346,0.223908,0.22581800000000007,-0.7252350000000001,0.014503000000000044,-0.007257999999999987,-0.85648,0.20940499999999995,0.23307600000000006,0.13124499999999995,0.0,0.96395525092563,single,-0.7252350000000001
109,0.908333,jog,-1.1621264850594162,-0.712588503540148,-0.359414376575076,0.364205515993246,1.0364840178661903,1.1214039790152452,-3.586343453738175,-1.3484939397575957,-0.22044881795272075,-0.01284051362055445,-0.024240969638763384,-0.03468138725549108,0.46083686621055814,-11.247299765985655,-8.266261287678686,-4.30594446867123,-3.312264975899938,-12.039363129787864,-0.9216737324248627,-4.997199767980987,-2.7506200452027456,0.20370700000000008,0.22051900000000013,-0.724077,0.02407999999999999,-0.0015219999999998013,-0.8537739999999999,0.1796270000000001,0.22204099999999993,0.12969699999999995,0.0,0.9263020047567923,single,-0.724077
110,0.916667,jog,-1.1317494600431874,-0.7636189104871329,-0.36609071274296756,0.40348735683008463,0.8525563086512917,1.1757658315038604,-3.588672906167485,-1.3831293496520252,-0.291576673866087,-0.01415886729061082,0.00899928005757435,-0.00479961603071731,3.6449514058349544,-6.123158980919668,-0.8010962524467828,-0.27951193056275786,-4.155916713994387,-8.534659936808938,-0.1581897852239454,3.9885108826898827,3.585525704916432,0.18323100000000003,0.21535599999999988,-0.7234560000000001,0.033394000000000035,0.004916999999999838,-0.850763,0.149837,0.21043900000000004,0.12730699999999995,0.0,0.9709169351230106,single,-0.7234560000000001
111,0.925,jog,-1.1261250450017892,-0.6645865834633409,-0.3406936277451127,0.1605174597527671,0.4413495175773777,1.3159895821191623,-3.7644305772230706,-1.4879395175807029,-0.3021720868834732,-0.012840513620540955,-0.018720748829931872,0.007800312012480774,0.6749568032399123,11.884354617039678,3.0477721106269966,-21.091764197238085,-12.577723260371686,-1.271500422103223,0.15820876875913356,-3.326536527961851,1.512051847257654,0.161246,0.20849499999999987,-0.723135,0.042671000000000014,0.010299000000000058,-0.847859,0.11857499999999999,0.19819599999999982,0.12472400000000006,0.0,0.9599934000484939,single,-0.723135
112,0.933333,jog,-1.157566302652122,-0.6859474378975287,-0.27733109324373983,-0.1331918318338751,0.6175054178481517,1.3795451511658803,-3.8149525981039574,-1.5655826233049335,-0.35869434777391657,0.01860074402976331,0.0014400576022922224,0.02184087363494579,-3.77310184211364,-2.5634050683052894,7.603808292496512,-6.06288502110731,-9.317545388723307,-6.78294262455825,3.7731018421102305,2.4193935476088178,1.6849347920875009,0.13910200000000006,0.20116500000000004,-0.7238129999999999,0.052472000000000074,0.016027000000000013,-0.845366,0.08662999999999998,0.18513800000000002,0.12155300000000002,0.0,0.9521261726138277,single,-0.7238129999999999
113,0.941667,jog,-1.2126229901607717,-0.6504679625629778,-0.2939764818814415,-0.23413878944947442,0.5372635144789442,1.5033241972870977,-3.8028557715382445,-1.6053515718742415,-0.4532037437005008,-0.034917206623474806,0.07883369330452396,0.001799856011518367,-6.606273999117994,4.257196464428918,-1.997286853575897,1.4515030676401222,-4.77189207695077,-11.340220293566539,-6.421640347160752,9.286493364798554,-2.404729736432358,0.11751500000000004,0.1932069999999999,-0.72514,0.06228699999999998,0.02210499999999982,-0.842901,0.055228000000000055,0.1711020000000001,0.117761,0.0,0.8562679769687085,single,-0.72514
114,0.95,jog,-1.1904476179047319,-0.6455058202328179,-0.3279731189247582,0.3180173967032373,0.13053204353915135,1.788628820409584,-3.9631585263410996,-1.7853114124565181,-0.47077883115324826,-0.007320292811709864,0.07056282251290512,0.012600504020161033,2.6611511167694744,0.5954808988551479,-4.079759635583469,-19.237100060345195,-21.59604471166186,-2.109094858124037,3.311762127896939,-0.9925441967621403,1.2961296062213805,0.09441,0.1837089999999999,-0.72633,0.07214600000000004,0.028071999999999875,-0.840063,0.02226399999999995,0.15563700000000003,0.11373299999999997,0.0,0.8799135576460877,single,-0.72633
115,0.958333,jog,-1.197887915516608,-0.6812672506900432,-0.24804992199688375,-0.4005507338732816,0.6461507853546412,1.2742489260421745,-3.901356054242145,-1.777511100444016,-0.5089403576143018,-0.02460098403936276,0.025441017640717642,0.08688347533901349,-0.8928714282822651,-4.291543316599689,9.591167278036018,7.416593315607161,0.9360748844956263,-4.579566357980724,-2.0737658979542566,-5.414833177989594,8.914313130787487,0.071882,0.174574,-0.7285039999999999,0.08192299999999997,0.03396100000000013,-0.837272,0.010040999999999967,0.14061299999999988,0.10876800000000009,0.0,0.8436422186734925,single,-0.7285039999999999
116,0.966667,jog,-1.237101031917442,-0.6226301895848151,-0.2572594192464492,-0.03907390975182088,0.4649319632748045,1.6066350769671154,-3.9823614110870857,-1.8737700983920966,-0.5634749220062358,-0.026637868970488816,0.019318454523620646,0.029277657787376926,-4.705197552295863,7.035884461870375,-1.105051265846576,-9.719865232174262,-11.550155741310276,-6.543624237093068,-0.2444066392039887,-0.7346488021474622,-6.912145134585567,0.04900300000000002,0.16414700000000004,-0.731056,0.09201099999999995,0.039310999999999874,-0.8348840000000001,0.043007999999999935,0.12483600000000017,0.10382800000000003,0.0,0.9265917050935719,single,-0.731056
117,0.975,jog,-1.2512900516020713,-0.6385455418216944,-0.2084483379335312,0.07461020347648849,0.579270459717753,1.5728261834537158,-3.919356774271009,-1.8807152286091773,-0.5979839193567815,-0.00756030241208746,0.020760830433241614,0.023880955238209482,-1.7027504721744147,-1.9099186651721456,5.857564060112615,7.560858852283352,-0.8334489640082463,-4.141245331878796,2.2893995629907034,0.1730920328358312,-0.6476302111085436,0.02676999999999996,0.15379600000000004,-0.734302,0.102375,0.044805000000000206,-0.8329479999999999,0.07560500000000003,0.10899099999999984,0.0986459999999999,0.0,0.945776433067208,single,-0.734302
118,0.983333,jog,-1.2398895955838192,-0.6347053882155113,-0.21984879395175053,0.11016543431596701,0.1769504371377136,1.587329988239598,-3.941437657506282,-1.9125165006600024,-0.5972638905556175,-0.01992079683187313,0.019200768030713706,0.023760950438017868,1.368109446568112,0.4608368662166274,-1.368109446564175,-2.649811980711953,-3.8163052983109367,0.08640691241618387,-1.483318663120799,-0.18721497690242425,-0.014401152069076419,0.004257999999999984,0.14314800000000005,-0.737447,0.112541,0.05025400000000002,-0.830918,0.10828300000000002,0.09289400000000003,0.09347100000000008,0.0,0.9392159924837684,single,-0.737447
119,0.991667,jog,-1.2985361171106384,-0.6444684425246034,-0.1745860331173497,0.3302706478080494,0.4835197948776975,1.63791443743735,-3.9514038876890125,-1.9329253659707515,-0.615070794336459,-0.02999760019199483,0.057955363570916,0.0820734341252701,-7.03701962164862,-1.171472799267128,5.431096812383141,-1.1958519537713739,-2.44886792785567,-2.136657521099303,-1.2091196736407195,4.650179450468263,6.996938287407315,-0.01785100000000006,0.13240999999999992,-0.741118,0.12311299999999992,0.05610800000000005,-0.828779,0.14096399999999998,0.07630199999999987,0.08766099999999999,0.0,0.8252404129713649,single,-0.741118
120,1.0,jog,-1.3099723988959548,-0.6337453498140009,-0.15240609624384832,0.5657517936322553,0.23528980529589283,1.6072260707405084,-3.9281171246849724,-2.0085203408136243,-0.6325453018120696,-0.040081603264123855,0.0471618864754427,0.020040801632065258,-1.3724087105863876,1.2868225981762296,2.661698892775864,2.794523341418456,-9.071759851538761,-2.09702477806439,-1.2101287738064304,-1.2952690622192793,-7.444213667731259,-0.03966800000000004,0.120954,-0.7451190000000001,0.133695,0.061782000000000004,-0.827342,0.17336300000000004,0.059172,0.08222299999999994,0.0,0.891571680280358,single,-0.7451190000000001
121,1.008333,jog,-1.3684147365894823,-0.6471858874355011,-0.07488299531982175,0.8110045671517725,0.42323569984731163,1.6636538521805986,-3.985959438377571,-2.069722788911577,-0.5732629305172263,-0.045721828873151106,0.07728309132366433,0.04176167046681919,-7.013361057665667,-1.61292903174131,9.30314423665274,-6.941355297323778,-7.344587555256604,7.1141691221461425,-0.6768541472491663,3.6146891693534027,2.606608524511476,-0.06147999999999998,0.10909999999999997,-0.7492719999999999,0.1447170000000001,0.06781900000000007,-0.8263699999999999,0.20619700000000007,0.0412809999999999,0.077098,0.0,0.8349478284482049,single,-0.7492719999999999
122,1.016667,jog,-1.341492680585539,-0.6471082313414854,-0.1202303815694672,0.6842447029790385,-0.48130306758062313,1.6461563455470232,-4.051835853131721,-2.137628989680799,-0.5562754979601591,-0.01871850251980367,0.04211663066954494,0.0647948164146862,3.2303882894100275,0.009317985843012366,-5.441251049873424,-7.904537407505388,-8.148092244926977,2.038328840540811,3.2401399512055713,-4.219637707477696,2.763756413230961,-0.08406800000000003,0.09667800000000004,-0.7529060000000001,0.15574100000000002,0.07356300000000005,-0.824828,0.23980900000000005,0.023114999999999997,0.07192199999999993,0.0,0.8674757763259063,single,-0.7529060000000001
123,1.025,jog,-1.3681747269890914,-0.6390255610224497,-0.014760590423615187,1.0226765301802163,0.011441465346870546,1.6026433312848753,-3.95151806072246,-2.15444617784712,-0.5826233049322007,-0.023760950438021518,0.022200888035533835,0.07464298571942916,-3.2019736473722156,0.9699592366537658,12.656881212750868,12.038616633776819,-2.0181433056907454,-3.161863311177473,-0.6051179549043434,-2.3899847154699736,1.1818275896727541,-0.105595,0.08405000000000018,-0.757638,0.16694399999999998,0.07907300000000017,-0.824083,0.272539,0.004977000000000009,0.06644499999999998,0.0,0.8643018309261801,single,-0.757638
124,1.033333,jog,-1.3452538101523757,-0.6757470298811764,0.08568342733709107,1.4289728572333575,-0.482105414635868,1.4119313815801062,-3.916476659066294,-2.1327253090123377,-0.622824912996509,-0.033361334453377606,0.002880115204584368,0.061922476899075186,2.7506200452076452,-4.406752533148457,12.053764281855814,4.205136404196039,2.6066085245147845,-4.824385943154636,-1.1520921655293315,-2.3185854831332207,-1.5265221193272236,-0.12702100000000005,0.071909,-0.763542,0.17787599999999992,0.08472799999999991,-0.824281,0.304897,0.012818999999999914,0.06073899999999999,0.0,0.8826725043424473,single,-0.763542
125,1.041667,jog,-1.4769618430525857,-0.6855051595872556,0.10547156227501558,1.234105012004907,0.14456480009478803,1.03335162393977,-3.9520038396928956,-2.2433405327574274,-0.48500119990401735,-0.04271658267337638,-0.018718502519777528,0.06539476841852739,-15.803699652053343,-1.1708818941779853,2.3743862416516546,-4.262920641540969,-13.27276502820876,16.537522569293767,-1.122539983201218,-2.5916267967797344,0.41664165100219164,-0.147648,0.058926000000000034,-0.768463,0.18982900000000003,0.09028500000000017,-0.824615,0.337477,0.03135900000000014,0.05615199999999998,0.0,0.8661306139429271,single,-0.768463
126,1.05,jog,-1.4780991239649355,-0.6239049561982315,0.09084363374534915,0.5035973266000358,-0.4382235450639165,0.4263166199462648,-3.84927397095877,-2.241449657986277,-0.5225009000359919,-0.04692187687507781,-0.03468138725548766,0.1286451458058304,-0.1364791686487159,7.392320099486737,-1.7554216404255585,12.328077371189703,0.226914049100029,-4.500144021597733,-0.5046554904237799,-1.91562279319691,7.590348900432245,-0.16740699999999997,0.045447000000000015,-0.773574,0.20175500000000002,0.09519500000000014,-0.8243,0.369162,0.049748000000000125,0.05072600000000005,0.0,0.7645687485883711,single,-0.773574
127,1.058333,jog,-1.5324612984519592,-0.685587423496929,0.14616584663387297,0.7664825892193895,-0.40520337040124776,0.6798556924300478,-3.9251170046802315,-2.255130205208219,-0.41029641185647864,-0.05268210728430124,-0.025441017640717982,0.15276611064442674,-6.523721887318401,-7.402192163530312,6.6389311038670735,-9.101528107699773,-1.6417313358865313,13.465077184629102,-0.6912552993187908,1.1088887093207442,2.8946315658942248,-0.18734499999999998,0.03236799999999995,-0.778211,0.214086,0.1006959999999999,-0.824245,0.401431,0.06832799999999994,0.04603400000000002,0.03966000000000003,0.7273579148818038,single,-0.778211
128,1.066667,jog,-1.6259899208063207,-0.7516198704103672,0.1919846412286924,0.4683010632536676,0.4325392973786678,0.6822013712932562,-3.8366930645548036,-2.2548596112311015,-0.38780897528197433,-0.05651547876169854,-0.04547636189103723,0.1923446124310041,-11.222536879572921,-7.9232597688310085,5.4978155261362,10.610024013130213,0.03246867975974366,2.6982765268183506,-0.459967779865283,-2.4040489861194017,4.749040291165952,-0.20576899999999998,0.019839999999999858,-0.7830429999999999,0.22716599999999998,0.10658100000000004,-0.8242419999999999,0.43293499999999996,0.08674100000000018,0.041198999999999986,0.08801000000000003,0.6573852634933739,single,-0.7830429999999999
129,1.075,jog,-1.6980679227169237,-0.7909516380655315,0.2485299411976556,0.4274886572517234,0.7584856148666788,0.7218830599398027,-3.8287531501260355,-2.338293531741288,-0.4242169686787506,-0.06552262090482905,-0.08604344173767974,0.22104884195367974,-8.649706217521151,-4.720000918656509,6.785707424572626,0.9528278445659729,-10.012470960060886,-4.369133972972109,-1.0809002931873986,-4.8682443113696,3.444645328534251,-0.22352399999999994,0.006945999999999897,-0.788649,0.24077000000000004,0.11245499999999997,-0.8244710000000001,0.464294,0.10550900000000007,0.03582200000000002,0.14177999999999996,0.5898534196799397,single,-0.788649
130,1.083333,jog,-1.591983679347146,-0.7394695787831385,0.273370934837389,0.9030652674405873,-1.0726944262409872,0.22999316265134293,-3.7992319692787104,-2.365174606984235,-0.4489379575182922,-0.0738029521180873,-0.05652226089044785,0.24804992199687545,12.730618429110269,6.178094237656561,2.9810384783070893,3.5426834090153014,-3.2258580634761125,-2.96663732623799,-0.993679492770683,3.542683409004124,3.2402592155520504,-0.241917,-0.006601000000000079,-0.794668,0.253421,0.11814599999999986,-0.824682,0.495338,0.12474699999999994,0.030013999999999985,0.19985999999999987,0.5585050474676077,single,-0.794668
131,1.091667,jog,-1.7656587473002403,-0.9796016318694762,0.2660187185025278,0.14561884529784772,-0.5070740563289385,1.197178008547824,-3.7044636429086357,-2.300215982721415,-0.3226541876649942,-0.07487401007919003,-0.0808735301175731,0.33897288216943383,-20.839341007091143,-28.81354128705812,-0.8821953845525986,11.371289461252282,7.794411358629852,15.15284015518363,-0.1285166739984113,-2.921918553770784,10.909882430112804,-0.25807500000000005,-0.017606999999999928,-0.799574,0.26751199999999997,0.12563600000000008,-0.8240740000000001,0.525587,0.143243,0.024500000000000077,0.25500000000000006,0.5,flight,-0.799574
132,1.1,jog,-1.7285491419656585,-0.7391095643825655,0.21072842913715936,0.501854263534398,-1.8761175810972779,-0.1440464832801753,-3.651626065042536,-2.3393735749429583,-0.2887315492619644,-0.14208568342734348,-0.12432497299892221,0.3385335413416482,4.45333077338068,28.86020250652905,-6.635100127849208,6.3407629744508265,-4.699099030546329,4.070879443541244,-8.0657234307155,-5.214381721030644,-0.05272300825460464,-0.27409999999999995,-0.030941999999999914,-0.803736,0.280732,0.13075900000000007,-0.823009,0.554832,0.16170099999999998,0.019272999999999985,0.30727000000000004,0.5,flight,-0.803736
133,1.108333,jog,-1.641065642625719,-0.7304692187687518,0.41809672386895036,1.1314267732896388,-0.9512018417203052,-0.5929317218479676,-3.513260530421252,-2.3100924036961676,-0.13872554902196266,-0.2080883235329315,-0.2172086883475466,0.4264970598823977,10.498439858387156,1.0368829489756077,24.885190775446166,16.604528335687657,3.513881104859103,18.001440086403832,-7.920633638016154,-11.14649170150309,10.556044466668705,-0.289701,-0.04410499999999995,-0.808376,0.29267300000000007,0.13503599999999993,-0.822939,0.5823740000000001,0.17914099999999988,0.014562999999999993,0.35436999999999996,0.5,flight,-0.808376
134,1.116667,jog,-1.5859131269498228,-0.7710583153347724,0.19798416126710197,-0.30565418389612353,-1.751937296957606,-1.1860492942841054,-3.383849292056607,-2.1893448524118018,-0.1144708423326121,-0.2230621550276027,-0.17146628269737121,0.39404847612190835,6.6177724593107605,-4.870301963765335,-26.41139460065355,15.528106355248871,14.488547070358166,2.910331976163952,-1.7967160420771657,5.488649586054121,-3.8935185697731125,-0.30468500000000004,-0.055925,-0.81098,0.30403099999999994,0.14003300000000007,-0.821305,0.608716,0.19595800000000008,0.010324999999999918,0.39675,0.5,flight,-0.81098
135,1.125,jog,-1.77283091323655,-0.8329533181327166,0.1742469698787978,-0.6071109689634794,-1.8891611164970965,-0.4433391604406328,-3.2287291491659977,-2.1137645505820317,-0.018600744029761643,-0.2257290291611711,-0.21780871234851057,0.44977799111964906,-22.431031595671307,-7.42769744365111,-2.8485769096729117,18.615161753343415,9.06999901953327,11.504871991221808,-0.32003769753611144,-5.561314010697202,6.68780931210143,-0.316817,-0.06659800000000005,-0.812587,0.31692299999999995,0.14515899999999982,-0.819009,0.63374,0.21175699999999986,0.006422000000000039,0.43578000000000006,0.5,flight,-0.812587
136,1.133333,jog,-1.7639505580223391,-0.831513260530451,0.31501260050402163,-0.2615117846874707,-1.4360373016237782,-0.6304916997157181,-2.979119164766616,-1.9674786991479898,0.041521660866434926,-0.23328933157325857,-0.07320292811712528,0.6137045481819321,1.0656852531154464,0.17281382482485574,16.892551377082096,29.95439630377821,17.555004372260083,7.214977186631119,-0.9072725803537184,17.353388243296124,19.6719737264232,-0.326943,-0.07606399999999991,-0.814866,0.329678,0.151478,-0.81652,0.656621,0.2275419999999999,0.0016540000000000443,0.48346,0.5,flight,-0.814866
137,1.141667,jog,-2.0269978401727764,-0.9061675065994522,0.7315814734821181,0.5667872042168968,2.3942479534208263,0.29339090682464875,-2.749340052795757,-1.8086153107751246,0.02951763858891221,-0.30345572354211475,-0.19966402687783477,0.4935205183585282,-31.56314880614774,-8.957792904847684,49.98426601608991,27.57128773348419,19.062081638212618,-1.4403674439072023,-8.419293492783256,-15.174117921851275,-14.420929904416,-0.33296299999999995,-0.08358500000000002,-0.820717,0.34404200000000007,0.157366,-0.818504,0.6770050000000001,0.24095100000000003,0.0022130000000000205,0.5,0.4778699999999999,flight,-0.818504
138,1.15,jog,-1.8066722668906836,-0.9048361934477451,0.33445337813512654,-0.03797990116046481,-1.5746545710480186,-0.7512523342782603,-2.4557782311292686,-1.6017040681627408,-0.00972038881555244,-0.3836553462138527,-0.2313692547701845,0.5771030841233695,26.44012639890733,0.15976396876360305,-47.65727773274873,35.22882775308908,24.83034232717937,-4.7087516386013455,-9.624339694196411,-3.8047795382635323,10.030309104145214,-0.338372,-0.08939200000000003,-0.823585,0.3559,0.16297800000000007,-0.816482,0.694272,0.2523700000000001,0.0071029999999999704,0.5,0.42897,flight,-0.816482
139,1.158333,jog,-2.028921156846239,-0.9999999999999867,0.5030601224048842,1.1510850562865194,0.5253388825904942,0.35103493821678405,-2.1056042241689275,-1.3571342853713928,-0.03444137765510507,-0.47185887435497154,-0.2578903156126414,0.5783031321252754,-26.67093363201147,-11.420113590812418,20.233618657116846,42.022561737709715,29.34954791687792,-2.966637326239313,-10.584846770804905,-3.182654607279066,0.14401152068952988,-0.339011,-0.092368,-0.8280639999999999,0.36887499999999995,0.16916199999999992,-0.815855,0.707886,0.26152999999999993,0.012208999999999914,0.5,0.37791,flight,-0.815855
140,1.166667,jog,-1.8803695704344,-0.9460043196544459,0.17206623470123272,-0.1469525575692552,-1.7743541187181968,-0.6908231499480084,-1.718742500599985,-1.1676265898728244,-0.13690904727622089,-0.5595152387809049,-0.3018958483321347,0.645188384929217,17.82476438826998,6.478963324399068,-39.71608923729995,46.41969325281375,22.73910433148212,-12.295136743594643,-10.51792229732842,-5.280241507018729,8.025588289409997,-0.337664,-0.09421499999999994,-0.830639,0.37988299999999997,0.17452999999999996,-0.811912,0.7175469999999999,0.2687449999999999,0.01872700000000005,0.5,0.31273000000000006,flight,-0.811912
141,1.175,jog,-1.889475579023129,-0.960518420736814,0.1840873634945408,-0.08854174863775045,-1.854405239897238,-0.8139144839081232,-1.4089763590543376,-0.9566782671306793,-0.23340933637345113,-0.5852634105364136,-0.3552142085683187,0.5835833433337239,-1.0927647412371246,-1.7417618003561641,1.442593158923301,37.17342392243393,25.314811321509836,-11.58049791158389,-3.089904206829263,-6.39845916670864,-7.392900707487352,-0.33366,-0.09418300000000002,-0.834118,0.39075099999999996,0.17957400000000012,-0.808583,0.7244109999999999,0.27375700000000014,0.025534999999999974,0.5,0.24464999999999998,flight,-0.808583
142,1.183333,jog,-1.920676827073106,-0.9561982479299229,0.24072962918516388,-0.39916564216064454,-1.0498798279225856,-1.068216706248605,-1.0793231729269273,-0.7751110044401838,-0.339853594143769,-0.5609024360974437,-0.3037321492859815,0.5192607704308216,-3.7442995379787978,0.5184414744859186,6.7973437766258975,39.55996473387896,21.788943080582882,-12.773821885313671,2.9234338700312152,6.178094237650024,-7.719017509048699,-0.32664899999999997,-0.09267400000000003,-0.838956,0.40208200000000005,0.18501100000000004,-0.806262,0.728731,0.27768500000000007,0.032694,0.5,0.17306,flight,-0.806262
143,1.191667,jog,-1.8957283417326412,-0.9448044156467468,0.03179745620349864,-1.036614133953418,-1.2723263025886091,-1.3794133660447947,-0.747300215982717,-0.6589872810175066,-0.4359251259899172,-0.6273098152147792,-0.46760259179265773,0.5825533957283371,2.9935787545554007,1.3671505019409713,-25.069855169386088,39.839567667891494,13.933732112152184,-11.527661608609007,-7.968248034237463,-19.662880070395364,7.5945074751037875,-0.317078,-0.09029199999999993,-0.842854,0.412653,0.18898800000000004,-0.8016719999999999,0.729731,0.27928,0.04118200000000005,0.5,0.08818000000000004,flight,-0.8016719999999999
144,1.2,jog,-2.0853234129365403,-1.0040801632065257,0.2568102724109025,-0.4279663589714997,4.891900638080045,-0.7176777762717585,-0.34717388695547885,-0.4803792151686086,-0.5670226809072406,-0.6708268330733271,-0.4411376455058258,0.5647425897035951,-22.752318637213598,-7.113374242143223,27.002618049610692,48.01708016647568,21.43382525487815,-15.732335883514297,-5.222251033067117,3.175920591243511,-2.137382218257783,-0.302594,-0.085928,-0.849719,0.42444000000000004,0.19367899999999993,-0.799106,0.727034,0.27960699999999994,0.05061300000000002,0.5,0.0,flight,-0.799106
145,1.208333,jog,-1.9794791791671298,-1.008760350414002,0.06480259210368121,-0.6397472263547355,0.34118654220752753,-1.5508009864492938,-0.0381615264610593,-0.4540981639265503,-0.6368654746189744,-0.8292331693267552,-0.6218648745949753,0.7375495019800645,12.701816124974043,-0.5616449306943626,-23.041843310598573,37.08296657799281,3.1538523031390686,-8.381470504228071,-19.009520731240283,-21.688135016098204,20.737658979535144,-0.28641700000000003,-0.08130599999999999,-0.8555659999999999,0.43402500000000005,0.19690299999999994,-0.7935,0.720442,0.27820899999999993,0.062065999999999955,0.5,0.0,flight,-0.7935
146,1.216667,jog,-1.9216462682985729,-0.9126469882409582,0.015118790496769006,-0.21875168899749386,-1.4557178730205675,-1.4390491368966667,0.17614590832733681,-0.37377009839214653,-0.625389968802507,-0.9077273818094778,-0.6427885769138658,0.7656587473002303,6.939394152694746,11.532680846297756,-5.9615792664882585,25.714834987809,9.638596776386523,1.3769505419327583,-9.418552013765789,-2.510643426792766,3.3728396112510586,-0.268934,-0.07681500000000008,-0.860904,0.442475,0.19915199999999988,-0.7872450000000001,0.711409,0.27596699999999996,0.07365899999999992,0.5,0.0,flight,-0.7872450000000001
147,1.225,jog,-1.8573142925716726,-0.8913956558262163,-0.1942877715108615,-0.9229022992479294,-0.1945979256926397,-1.4211849629672395,0.16584663386535103,-0.17256690267609676,-0.4428177127085013,-1.0361214448577798,-0.7196687867514344,0.7977919116764549,7.7201458930636235,2.550261900245002,-25.129792632620525,-1.2359623739332293,24.145349299897546,21.909547113164823,-15.407903881951253,-9.225994220276881,3.8561339705057045,-0.252075,-0.07082500000000003,-0.862975,0.449318,0.20058300000000007,-0.778978,0.7013929999999999,0.2714080000000001,0.0839970000000001,0.5,0.0,flight,-0.778978
148,1.233333,jog,-1.785431417256707,-0.8111124444977957,-0.19428777151086665,0.34256027890472296,-1.350699139540722,-1.366718898465839,0.22428897155886554,-0.14772590903636065,-0.2457698307932341,-1.1464058562342638,-0.8301932077283409,0.839793591743678,8.626290089399529,9.634370734239921,-6.195292289099994e-13,7.013361057664111,2.981038478307492,23.646691697500177,-13.234658751528267,-13.26346105567113,5.04040322419578,-0.23532799999999998,-0.06529699999999994,-0.863404,0.45464299999999996,0.20042399999999994,-0.770361,0.6899709999999999,0.2657209999999999,0.09304299999999999,0.5,0.0,flight,-0.770361
149,1.241667,jog,-1.7843772498199968,-0.8072954163666792,-0.1867050635949112,-0.4073571958571039,-0.19508954129457132,-1.5185213405301827,-0.03527717782577231,-0.05903527717783108,-0.1441084713222932,-1.241060715142778,-1.1166306695464054,0.9251259899207986,0.12648997320736197,0.45800673519516166,0.909852161741707,-31.14544629045307,10.642024461066582,12.198387265531572,-11.357674455065201,-34.3697458385004,10.239068655761942,-0.220751,-0.05906100000000003,-0.863049,0.45917099999999994,0.19784600000000008,-0.761095,0.6799219999999999,0.2569070000000001,0.10195399999999999,0.7338708817256039,0.0,single,-0.761095
150,1.25,jog,-1.741389655586239,-0.7983919356774368,-0.33433337333493107,-0.4503797235621628,0.5770972653793207,-1.4436642763670124,-0.26761070442818075,-0.05364214568582495,-0.15036601464058666,-1.427817112684516,-1.0830433217328865,0.8351134045361882,5.158717656757261,1.0684604211259434,-17.716105813035067,-27.88113843782678,0.6472016671074261,-0.7509352356046453,-22.41166417157564,4.030642963340839,-10.801942323846305,-0.20847000000000002,-0.052854999999999985,-0.8615160000000001,0.461784,0.19547400000000004,-0.75135,0.670254,0.24832900000000002,0.1101660000000001,0.5,0.0,flight,-0.75135
151,1.258333,jog,-1.7095883835353614,-0.713188527541112,-0.44809792391696257,0.5606010948320685,1.453593532995502,-1.2308094519758415,-0.3298931957278323,-0.06852274090963559,-0.2532101284051386,-1.7062282491299752,-1.34141365654629,0.9145565822632976,3.816305298317276,10.224817969077842,-13.652292161530365,-7.474197923875213,-1.785742856571556,-12.341787323239279,-33.410672800367415,-31.00568040482489,9.533562669760006,-0.19697299999999998,-0.04748299999999994,-0.859892,0.46181200000000006,0.19023899999999994,-0.739995,0.6587850000000001,0.23772199999999988,0.11989700000000003,0.5,0.0,flight,-0.739995
152,1.266667,jog,-1.742260619150452,-0.8333333333333245,-0.38744900407967514,-0.7853672026519727,3.214854431547124,-1.7125163637219292,-0.30045596352291665,-0.026037916966645196,-0.3468922486201075,-1.8586513078953546,-1.3382529397648049,0.8492920566354628,-3.920354645439205,-14.416223397193619,7.277288197418643,3.5321852897666726,5.09777105147469,-11.240955149384225,-18.28930390753279,0.37925567332434396,-7.831116586013235,-0.184957,-0.040754999999999986,-0.8595539999999999,0.46084200000000003,0.18603099999999995,-0.729688,0.645799,0.22678599999999993,0.12986599999999993,0.5,0.0,flight,-0.729688
153,1.275,jog,-1.688707548301951,-0.7271090843633723,-0.35461418456737753,-0.1727939723402582,2.375851645701982,-1.7446221488345028,-0.15108604344173693,-0.0349213968558795,-0.28525141005640536,-2.036841473658967,-1.5179407176287083,0.8418336733469441,6.426625566842856,12.747419773185307,3.9403359549139454,17.92510741403829,-1.066060229117291,7.397196515504942,-21.383675238643235,-21.56339587950379,-0.8950417962940999,-0.17214399999999996,-0.0349870000000001,-0.8589760000000001,0.45794100000000004,0.17944099999999996,-0.7197180000000001,0.630085,0.21442800000000006,0.139258,0.5,0.0,flight,-0.7197180000000001
154,1.283333,jog,-1.6223448937957172,-0.8795151806072125,-0.46189847593902844,-0.6017862457642325,1.1934488401705263,-1.6886063970443659,-0.08232329293171822,-0.07848313932556354,-0.15096603864154245,-2.067442697707875,-1.6949477979118899,0.7767910716428496,7.963837094231672,-18.28946312778561,-12.874629949795876,8.251860135607524,-5.227618201090038,16.11488916534988,-3.6722937776199704,-21.241699301953496,-7.805424421468073,-0.15931100000000004,-0.028312000000000004,-0.8563850000000001,0.45423199999999997,0.17264599999999997,-0.709396,0.613543,0.20095799999999997,0.14698900000000004,0.684971462753694,0.0,single,-0.709396
155,1.291667,jog,-1.6613870890329119,-0.7449004079673758,-0.4154067674586203,0.5164178348636648,2.0800523876615067,-1.191415570702113,0.00287976961843013,-0.1973842092632636,-0.05831533477321929,-2.1556275497960584,-1.7233021358291647,0.7041036717062783,-4.684688653371178,16.152480518339242,5.5785587329504445,10.223549622048234,-14.266987033561595,11.117195088591904,-10.581335743722736,-3.4022483702034267,-8.721790249168782,-0.14544100000000001,-0.02374900000000002,-0.853409,0.450113,0.16449199999999997,-0.700066,0.595554,0.188241,0.153343,0.6569357955731427,0.0,single,-0.700066
156,1.3,jog,-1.6530661226448746,-0.6947077883115256,-0.43621744869793355,0.9908380538393992,2.274839314218668,-0.8782443089848512,0.0007200288011527536,-0.14616584663386908,-0.03672146885875379,-2.4377775111003945,-1.8777151086043073,0.7269890795631707,0.998555908800805,6.023355292913635,-2.4973816439833034,-0.25917926524389034,6.1464493735021755,2.591367564438392,-33.85934973050896,-18.530297944934592,2.746358797178929,-0.13166000000000003,-0.01917800000000003,-0.8500800000000001,0.443574,0.15463400000000005,-0.690373,0.575234,0.17381200000000008,0.15970700000000004,0.7488170242033894,0.0,single,-0.690373
157,1.308333,jog,-1.7016680667226876,-0.803912156486268,-0.27673106924277585,-0.8145028920457057,2.853668690346124,-1.3868834943998194,0.002280091203650447,-0.10512420496819824,-0.010440417616705213,-2.448337933517367,-1.9114364574583222,0.6272650906036277,-5.832466588001125,-13.10504838290453,19.139131099863093,0.18721497689880084,4.925194007640852,3.1538523031379833,-1.267301382091985,-4.046723731431082,-11.967357369440052,-0.11746099999999998,-0.013355000000000006,-0.847861,0.437352,0.145405,-0.68284,0.554813,0.15876,0.16502099999999997,0.8238900311507992,0.0,single,-0.68284
158,1.316667,jog,-1.5959923206143396,-0.723662107031433,-0.41912646988240243,0.23856644202445906,1.3148322305569042,-0.6581347790073295,-0.006959443244540683,-0.07223422126229744,-0.028317734581233298,-2.640628749700004,-1.9970002399807818,0.5632349412046997,12.680075126991499,9.629235595732474,-17.08608119025984,-1.1086554413476195,3.946482326121977,-2.1451064272291758,-23.07305209774843,-10.26683255609058,-7.683003287608284,-0.10421799999999998,-0.007925999999999989,-0.844604,0.428646,0.13479300000000005,-0.6746530000000001,0.532864,0.14271900000000004,0.16995099999999996,0.870169868851452,0.0,single,-0.6746530000000001
159,1.325,jog,-1.6133445337813674,-0.5961838473538963,-0.4389775591023741,1.1208348505487131,0.9910795513542201,-0.3376199090620473,-0.030721228849154993,-0.02628105124204623,-0.021840873634944958,-2.776071042841734,-2.100204008160344,0.5311412456498324,-2.08234887399832,15.298003081427797,-2.3822259954364426,-2.851528333687091,5.514600986469654,0.7772544037307572,-16.253725326020824,-12.384947579450772,-3.8513975224850103,-0.09102999999999997,-0.0031769999999999854,-0.841128,0.4189570000000001,0.12226000000000004,-0.666569,0.5099870000000001,0.12543700000000002,0.17455900000000002,0.9234146932150014,0.0,single,-0.666569
160,1.333333,jog,-1.5517820712828205,-0.6426257050281897,-0.3729749189967533,0.5491737669310439,0.0371664755212957,-0.19630553988089391,-0.023160926437056924,-0.019920796831872863,-0.025081003240129268,-2.967838713548497,-2.171486859474351,0.39721588863553603,7.387791011465959,-5.573245850749144,7.920633638019884,0.9072725803549666,0.7632610596631771,-0.38883110586634506,-23.01304100645142,-8.554284329053841,-16.071685709143654,-0.078292,0.0020120000000000138,-0.838229,0.407157,0.10951999999999995,-0.6601509999999999,0.485449,0.10750799999999994,0.17807800000000007,0.9341229389238541,0.0,single,-0.6601509999999999
161,1.341667,jog,-1.6683465322774496,-0.7435805135589304,-0.3244540436765035,0.13688435283598402,-0.30154552831930503,-0.43127415682920495,-0.018238540916728597,-0.026877849772018986,-0.029637628989681888,-3.184545236381151,-2.209383249340083,0.2540196784257317,-13.986616390044546,-12.113607935054308,5.822039275288063,0.5906390113185049,-0.8347795704519144,-0.5467513498383376,-26.002702523717065,-4.547203007647323,-17.182170651524725,-0.06454000000000001,0.00798500000000002,-0.8357720000000001,0.394521,0.09730400000000006,-0.6553300000000001,0.459061,0.08931900000000004,0.180442,0.9267149356722433,0.0,single,-0.6553300000000001
162,1.35,jog,-1.5699027961118182,-0.7009480379215028,-0.2968918756750323,0.1691618365266301,-1.0484834842775868,-0.03290779247935541,-0.01596063842553605,-0.04104164166566032,-0.024840993639745016,-3.1978879155165654,-2.20700828033118,0.19632785311412096,11.81372088871111,5.11610172056004,3.3075924638750425,0.27335923331243334,-1.699723016157577,0.5756192667630851,-1.6011855436714366,0.28500768137560933,-6.923295969231937,-0.051591,0.013484000000000052,-0.8335049999999999,0.380955,0.084754,-0.6512199999999999,0.432546,0.07126999999999994,0.18228500000000003,0.9157346569431976,0.0,single,-0.6512199999999999
163,1.358333,jog,-1.5833433337333618,-0.7367094683787425,-0.2448097923916896,0.0834138511400049,-1.08445533039274,-0.24174988204323203,-0.0038401536061447904,-0.04692187687507906,-0.005880235209408482,-3.3168126725069267,-2.260410416416673,0.0009600384015370304,-1.6129290317465195,-4.291543316601464,6.250099998001099,1.454516358981324,-0.7056564513883105,2.275382026921482,-14.27154170051151,-6.4085126707660285,-23.445075568533028,-0.03842900000000002,0.019232000000000027,-0.8315140000000001,0.36651,0.07205700000000004,-0.6491720000000001,0.40493900000000005,0.05282500000000001,0.182342,0.9209257297901939,0.0,single,-0.6491720000000001
164,1.366667,jog,-1.5712742980561463,-0.654427645788327,-0.1709863210943123,0.16244271039850872,-0.618135047151236,-0.3722596744954602,0.0038396928245745146,-0.057595392368614384,-0.00215982721382254,-3.359731221502257,-2.2273818094552262,-0.1143508519318457,1.448168427791627,9.8730288685403,8.858107907052643,0.9215078510582249,-1.2807194016720955,0.44641324641059676,-5.1498138943280525,3.963115786110687,-13.836199944010302,-0.02530199999999999,0.02420599999999995,-0.830107,0.351605,0.058948,-0.6487,0.376907,0.03474200000000005,0.18140699999999998,0.9037272780546601,0.0,single,-0.6487
165,1.375,jog,-1.5281411256450392,-0.6833073322933085,-0.1536061442457783,0.09049805464492457,-0.8230928134010318,-0.4436246710523393,0.0037201488059526618,-0.046681867274688135,0.010680427217088638,-3.487939517580736,-2.1654866194648092,-0.17628705148206067,5.176187736842365,-3.465701008638159,2.0857046500101015,-0.014345856068865225,1.3096753982870935,1.5408921673960512,-15.385610953855767,7.427719907646412,-7.432641251675931,-0.012536999999999993,0.029511000000000065,-0.828738,0.33527399999999996,0.046597,-0.6488889999999999,0.347811,0.017085999999999935,0.17984900000000004,0.9199460639296237,0.0,single,-0.6488889999999999
166,1.383333,jog,-1.5113404536181578,-0.6839073562942458,-0.06372254890195045,-0.024284464469440232,-0.3636048176608303,-0.8049673332474102,0.0027601104044156313,-0.043201728069126394,0.006720268810752551,-3.533301332053314,-2.198487939517601,-0.3326533061322479,2.016161289677374,-0.07200576034288829,10.78646289977543,-0.11520921655310684,0.41763341000381293,-0.47523801828106604,-5.443635482128699,-3.9603168190078226,-18.764701146068482,7.999999999999674e-05,0.03484999999999994,-0.828151,0.31842499999999996,0.033975999999999895,-0.65113,0.318345,0.0008740000000000414,0.17702099999999998,0.9269861213632017,0.0,single,-0.65113
167,1.391667,jog,-1.5327573794096365,-0.7359011279097682,0.01991840652747759,-0.45114300494018494,-0.1355039758189735,-0.8985443656489914,0.006839452843772625,-0.032277417806570875,0.012239020878329392,-3.6220302375809648,-2.1689464842812387,-0.47048236141108446,-2.5698255089367086,-6.2387534935831575,10.03611176259028,0.489481934168102,1.3108123665173308,0.6621972723274296,-10.646616933963296,3.5446910530792173,-16.53816358037383,0.012911000000000006,0.04071400000000003,-0.828215,0.301013,0.02203299999999997,-0.655217,0.28810199999999997,0.01868100000000006,0.17299799999999999,0.9413484051670301,0.0,single,-0.655217
168,1.4,jog,-1.5000600024001076,-0.724708988359543,0.07116284651385577,-0.3231193438156382,0.009864310466713315,-1.0521430883511254,0.004080163206529049,-0.022800912036484485,0.0009600384015361976,-3.7441497659906746,-2.2884915396615977,-0.5280211208448371,3.923842194831298,1.3431104704458594,6.1495787815166985,-0.3311280015892958,1.1372261814576354,-1.3535320384967355,-14.65492960634957,-14.345980484862602,-6.904927329143546,0.025444999999999995,0.04656300000000002,-0.8288,0.282313,0.009002000000000066,-0.66021,0.256868,0.037560999999999956,0.16859000000000002,0.9613616844160331,0.0,single,-0.66021
169,1.408333,jog,-1.5100204008160074,-0.6831873274930815,0.15192607704307778,-0.49260754147640806,0.24130300132173016,-1.1930895943696465,-0.0019200768030740096,-0.03000120004799809,0.009600384015360055,-3.7997119884794723,-2.1465258610344153,-0.6794671786871357,-1.1952956217328239,4.9827986159199265,9.691975342520173,-0.7200576034564926,-0.8640691241465833,1.0368829489768037,-6.667733407991929,17.036562897777493,-18.17425391123196,0.03801199999999999,0.052006,-0.829986,0.263233,-0.0031920000000000837,-0.667138,0.225221,0.05519800000000008,0.162848,0.9474028393116319,0.0,single,-0.667138
170,1.416667,jog,-1.4619630429565913,-0.667506599472053,0.07859371250300992,-0.1665958681465515,-0.7782186874549233,-1.3148037567661088,-0.0019198464122856431,-0.035637149028077436,0.024238060955124145,-3.856611471082384,-2.1587473002160213,-0.7932565394768576,5.766421629399692,1.8815368395762884,-8.799179810423476,2.764468302933164e-05,-0.6762597768273881,1.7563807223139392,-6.827391721011822,-1.46645538536192,-13.653631004286545,0.05018,0.05727199999999999,-0.830439,0.24327600000000002,-0.015620000000000078,-0.674404,0.19309600000000002,0.07289200000000007,0.15603500000000003,0.9280977554059124,0.0,single,-0.674404
171,1.425,jog,-1.5841833673346646,-0.771150846033833,0.24384975399014608,-0.2080219867489902,0.06699535055810492,-1.1377023444633403,0.007920316812673628,-0.03936157446297722,0.028201128045121204,-4.060602424096894,-2.1404056162246072,-0.8268330733229193,-14.667025606392793,-12.437807099697364,19.83151823918556,1.1808668216679585,-0.44694893014517234,0.47558707428261005,-24.47989355748308,2.2010901225745583,-4.029345235336752,0.063447,0.06337000000000004,-0.832236,0.22264,-0.02703,-0.683326,0.159193,0.09040000000000004,0.14891,0.9182250957805693,0.0,single,-0.683326
172,1.433333,jog,-1.5616224648986115,-0.7435497419896839,0.19152766110645103,-0.12727862293784778,-1.5939587714421075,-1.3433403986193564,-0.008040321612865968,-0.05436217448698438,0.012720508820353162,-3.9951998079923547,-2.0998439937597713,-0.9373574942997788,2.70741658898996,3.3122649758969533,-6.278902302135549,-1.9153532251937768,-1.8001440086412213,-1.8577486169168587,7.848627877659873,4.867589399356334,-13.26346105566548,0.076393,0.06911299999999998,-0.833726,0.202361,-0.03833200000000003,-0.692733,0.12596800000000002,0.10744500000000001,0.14099299999999992,0.9059890057960072,0.0,single,-0.692733
173,1.441667,jog,-1.5957523398128017,-0.7495800335973068,0.3417326613870818,-1.1685061258707643,-0.6526091246013797,-1.061188360295346,0.016438684905207245,-0.025557955363572967,0.03827693784497209,-4.087832973362105,-2.0848332133429204,-0.9898008159347185,-4.095257369113273,-0.7235771067462049,18.023158181021074,2.9372458025045627,3.4562297964256294,3.066526160861379,-11.115090637119009,1.8011495580574484,-6.29269518057827,0.08982899999999999,0.07514699999999996,-0.836255,0.18159199999999998,-0.04946000000000006,-0.70383,0.09176299999999998,0.12460700000000002,0.13242500000000001,0.9185451144878526,0.0,single,-0.70383
174,1.45,jog,-1.6359054362174643,-0.7679107164286694,0.3766950678027159,0.08188881136638504,-1.050317125739694,-0.9189539508136382,-0.010440417616705213,-0.05940237609504713,0.07704308172327008,-4.178687147485936,-2.0669626785071613,-1.082323292931727,-4.818564311131999,-2.199769930560745,4.195656596139974,-3.225621327482624,-4.061492947494836,4.6521233503298145,-10.902937012340328,2.144549962289599,-11.10314136529574,0.103374,0.08105099999999998,-0.8387519999999999,0.160403,-0.06028500000000003,-0.715988,0.057028999999999996,0.14133600000000002,0.12276399999999998,0.8369280914650167,0.0,single,-0.715988
175,1.458333,jog,-1.6333853354133878,-0.7854314172566793,0.4155766230649146,-1.0379235785344312,-0.5798677270900058,-0.9470080520517886,-0.03300132005280123,-0.07776311052441745,0.09348373934957174,-4.370454818192648,-2.040801632065243,-1.0121204848193748,0.3024241934569126,-2.1025682020892393,4.665973270394581,-2.707416588995034,-2.203376266575063,1.9729578334695035,-23.01304100644529,3.1394511510761975,8.42467396044054,0.11671,0.08694800000000003,-0.841436,0.13759500000000002,-0.07074599999999998,-0.7278849999999999,0.020885000000000015,0.157694,0.11355100000000007,0.7900039814766396,0.0,single,-0.7278849999999999
176,1.466667,jog,-1.6511879049676343,-0.7858171346292345,0.43196544276459276,-0.6091647834046209,-0.17469864901835405,-0.7249254062521577,-0.009599232061434877,-0.08819294456442814,0.15502759779217976,-4.347612191024803,-2.0245980321574693,-1.0965922726182125,-2.136137455513183,-0.04628238211605758,1.966501043877905,2.8080259168906645,-1.251479966403994,7.3846722393339554,2.7408959884624307,1.9442764468171292,-10.13580367156699,0.130391,0.09276200000000001,-0.843744,0.115123,-0.08107000000000009,-0.740624,0.015268000000000004,0.1738320000000001,0.1031200000000001,0.7023065670660156,0.0,single,-0.740624
177,1.475,jog,-1.6835473418936462,-0.8427937117484554,0.5118204728188994,-1.0094500297830162,-0.515892146825512,-0.7538016042574559,-0.01968078723148861,-0.0730829233169412,0.18636745469818453,-4.451338053522063,-2.0040801632064857,-1.0806432257290084,-3.8832877626318583,-6.837462752816499,9.582986925993671,-1.209835013806979,1.8132750807016285,3.7609332660511487,-12.447601403727147,2.462242763828531,1.913962185191862,0.144256,0.09917599999999993,-0.846456,0.092059,-0.09074700000000002,-0.753894,0.05219700000000001,0.18992299999999995,0.09256200000000003,0.6647501958021912,0.0,single,-0.753894
178,1.483333,jog,-1.6876275051002194,-0.8138725549022114,0.30877235089404426,0.6639096366293316,-0.47377522828659807,-0.6059912438409225,-0.032401296051841465,-0.05256210248409246,0.22488899555982453,-4.50630025201012,-1.937597503900173,-1.0356414256570357,-0.4896391703556061,3.470677648655254,-24.36674930095488,-1.5265221193271294,2.4625970038220246,4.62276981418941,-6.5957276476727875,7.978238246287462,5.400432025917815,0.158049,0.10552000000000006,-0.847155,0.06857100000000001,-0.10011099999999995,-0.765097,0.089478,0.205631,0.08205799999999996,0.6113138979727339,0.0,single,-0.765097
179,1.491667,jog,-1.7273818094552302,-0.8886489080873491,0.560355171586263,-0.46253535171215165,-0.18991421245820006,-0.5655647447253339,-0.0731941444684419,-0.05147588192944678,0.26433885289176706,-4.643028557715348,-1.9850011999039894,-0.9948404127669735,-4.7701349118083165,-8.972444586649518,30.187523481187526,-4.894750229973617,0.13033603967430696,4.733604191497748,-16.406084197891403,-5.68798848137942,4.895729888416342,0.17183500000000002,0.11249700000000007,-0.849622,0.044272,-0.1092479999999999,-0.7780579999999999,0.127563,0.22174499999999997,0.07156400000000007,0.5348770223758715,0.0,single,-0.7780579999999999
180,1.5,jog,-1.7500300012000642,-0.9105964238569539,0.6631465258610442,-0.8623024692459358,0.2944329737821008,-0.4485931348078417,-0.12024480979239315,-0.013560542421700562,0.2996519860794458,-4.628465138605587,-1.9963998559942695,-1.0136805472218977,-2.717891725049108,-2.633807244642392,12.335455931211099,-5.646305691101845,4.5500227418392605,4.237745492341183,1.7476802003793512,-1.3678934465714903,-2.2609065708537543,0.185416,0.11997199999999997,-0.852651,0.020286000000000002,-0.11829600000000007,-0.792031,0.16513,0.23826800000000004,0.06062000000000001,0.5,0.0,flight,-0.792031
181,1.508333,jog,-1.7886715468618906,-0.8861154446177997,0.6944677787111532,-1.3962191441829557,-0.5864489471227973,-0.6033195521303344,-0.10824432977319358,0.016440657626311653,0.34057362294492094,-4.754830193207772,-1.9176767070682996,-0.9159966398656031,-4.637170966257851,2.937835022099423,3.7587006900407167,1.4401152069122376,3.60028801728219,4.910792855571282,-15.164413128787471,9.447155757346765,11.722537784266832,0.19941899999999999,0.12749300000000008,-0.8556,-0.0044309999999999974,-0.126892,-0.805451,0.20384999999999998,0.2543850000000001,0.050149,0.5,0.0,flight,-0.805451
182,1.516667,jog,-1.8714902807775236,-0.8940484761219016,0.7550995920326308,-0.549530045290217,-0.6195589638664867,-0.5967834048953296,-0.19510439164866525,-0.00611951043916761,0.44672426205903154,-4.7439404847611835,-1.9685625149987755,-0.8812095032397328,-9.937453073629992,-0.9518876294818696,7.275235579730878,-10.422373635165707,-2.7070036075688853,12.737057729074849,1.306660480752115,-6.105808486978106,4.174122465307179,0.21339,0.13489300000000004,-0.85817,-0.02837,-0.13584699999999994,-0.8190879999999999,0.24176,0.27074,0.03908200000000006,0.5,0.10917999999999994,flight,-0.8190879999999999
183,1.525,jog,-1.866314652586121,-0.9816392655706276,0.9342373694947934,-1.417415912457669,2.608785521647249,-1.0228015143650273,-0.23616944677787297,-0.011520460818431041,0.4674186967478737,-4.846753870154852,-1.9793591743669938,-0.7697107884315446,0.6211002269773972,-10.511315186454675,21.49739319118736,-4.928003735654397,-0.6481399711104621,2.4834314999210756,-12.338099771231164,-1.295650950224214,13.380380992222394,0.226974,0.14297700000000002,-0.86206,-0.053206,-0.14416099999999998,-0.833287,0.28018,0.287138,0.02877300000000005,0.5,0.21226999999999996,flight,-0.833287
184,1.533333,jog,-1.822512900515988,-1.0567622704907988,0.5568222728909031,0.7820892128307866,0.9405518883235948,-0.1635009628415225,-0.25609024360973953,-0.025921036841472483,0.5294611784471285,-4.923196927877029,-2.0309612384495086,-0.593903756150235,5.256420505236082,-9.015121195268199,-45.29162325739634,-2.390591243473685,-1.7281382482948746,7.445395619735235,-9.173533868015863,-6.192495389717253,21.09768778126803,0.240027,0.151567,-0.8622879999999999,-0.07904400000000002,-0.15227900000000005,-0.842876,0.319071,0.30384600000000006,0.019411999999999985,0.5,0.3058799999999999,flight,-0.842876
185,1.541667,jog,-1.9055675545956694,-1.0506359491240884,0.45728341732662364,2.2911352907567046,-4.84635854859468,0.28202045687793204,-0.3119750419966485,-0.04451643868490728,0.5427165826733981,-4.847612191024809,-2.0794336453084097,-0.5359971202303933,-9.965761228663675,0.7350997560247836,-11.943707171140074,-6.7056393552807805,-2.2312697196346476,1.5905212654511443,9.069442866837253,-5.816223525186226,6.948240451145057,0.253308,0.15995199999999998,-0.861576,-0.103563,-0.16085300000000002,-0.851154,0.356871,0.320805,0.010422000000000042,0.5,0.39578000000000013,flight,-0.851154
186,1.55,jog,-1.9549981999279629,-1.0495619824792846,0.6576263050521954,0.061285956144618875,-0.2987114717506686,-0.22815446723745594,-0.37273490939636905,-0.08220328813152943,0.5663026521060728,-4.827073082923234,-1.966278651146016,-0.3789751590063529,-5.931914716463771,0.1288811526225657,24.042108211396652,-7.291475746996219,-4.522602837708086,2.8304415495828996,2.464791563851524,13.579142465185615,18.843389082447807,0.266493,0.16801299999999997,-0.862337,-0.127496,-0.16849200000000003,-0.859792,0.39398900000000003,0.336505,0.0025450000000000195,0.5,0.4745499999999999,flight,-0.859792
