frame_id,timestamp,gait_type,root_linear_velocity_x,root_linear_velocity_y,root_linear_velocity_z,root_angular_velocity_x,root_angular_velocity_y,root_angular_velocity_z,left_linear_velocity_x,left_linear_velocity_y,left_linear_velocity_z,right_linear_velocity_x,right_linear_velocity_y,right_linear_velocity_z,root_acceleration_x,root_acceleration_y,root_acceleration_z,left_acceleration_x,left_acceleration_y,left_acceleration_z,right_acceleration_x,right_acceleration_y,right_acceleration_z,left_pos_rel_x,left_pos_rel_y,left_pos_rel_z,right_pos_rel_x,right_pos_rel_y,right_pos_rel_z,step_length,step_width,step_height,left_contact_prob,right_contact_prob,support_type,max_foot_height
1,0.008333,jog,0.22416896675866804,0.009480379215168096,-0.06720268810752489,-0.1550107170622626,0.05627938712078482,0.13601258419556364,-0.0820832833313354,-0.05484219368774573,0.013560542421697106,0.1346453858154407,-0.10584423376935337,0.15648625945037797,0.0,0.0,0.0,0.0,0.0,0.0,0.0,0.0,0.0,-0.026339,-0.057697,-0.898021,-0.13066200000000006,0.178204,-0.88915,0.10432300000000005,0.235901,0.008870999999999962,0.833924214741623,0.5246365119329804,double,-0.88915
2,0.016667,jog,0.21850251979841148,0.015358771298298173,-0.06035517158626351,-0.27889531729916756,0.22284810048025866,0.1176732650045651,-0.018478521718261035,-0.02351811855051283,-0.002879769618430491,0.137029037676983,-0.15526757859371124,0.19894408447324208,-0.6799192416914518,0.7053506219258551,0.8216362516512333,7.631960836701986,3.7585883294015954,-1.972679630444876,0.2860153421577029,-5.930326952766722,5.094531440228473,-0.02831399999999995,-0.05802099999999999,-0.8975420000000001,-0.13134100000000004,0.176782,-0.886989,0.10302700000000009,0.23480299999999998,0.010553000000000035,0.9499208754374235,0.41586169669896383,single,-0.886989
3,0.025,jog,0.19236769470779083,0.04152166086643621,-0.04956198247929878,-0.3126685708658792,0.2731496350379905,-0.10431173279627885,-0.009120364814601704,-0.027481099243973926,0.0025201008040321837,0.17724708988358942,-0.16668666746669883,0.20928837153486168,-3.136304463053,3.1396723350699673,1.2952345022158562,1.1230237493890953,-0.4755767062835828,0.6480103711103654,4.8263593191655385,-1.3703454785776543,1.241364101958431,-0.029993000000000047,-0.05859600000000004,-0.897108,-0.1314670000000001,0.17504699999999998,-0.8848320000000001,0.10147400000000006,0.23364300000000002,0.012275999999999954,0.9515592349682209,0.37723999999999996,single,-0.8848320000000001
4,0.033333,jog,0.2508100324013004,0.02208088323532485,-0.07308292331694248,-0.27325566322083655,0.16420680565353596,-0.10037717888525918,-0.005160206408244837,-0.026521060842430243,-0.00036001440057596674,0.20664826593063737,-0.2023280931237241,0.26977079083163324,7.013361057663454,-2.3329866351987714,-2.822625805549466,0.47523801828355544,0.11520921655390419,-0.34562764965896436,3.5282822569360315,-4.2771421645296135,7.258180642838301,-0.03212599999999999,-0.05900099999999997,-0.8965019999999999,-0.13183500000000015,0.17317700000000003,-0.881975,0.09970900000000016,0.232178,0.014526999999999957,0.9549653217338695,0.35473,single,-0.881975
5,0.041667,jog,0.22978161747060233,0.052195824334055514,-0.04115670746340079,-0.3008808345376949,0.07437535727599176,-0.3306763303781624,-0.0007199424046150121,-0.025557955363573158,-0.003839692824574127,0.2207823374130146,-0.1478281737461016,0.30537556995440346,-2.5232079350489642,3.6135038515395563,3.8308394352701804,0.532789057310994,0.11556341238985897,-0.41752800863908807,1.6959529016531338,6.539467167941264,4.2722317161951295,-0.03404700000000005,-0.05964900000000001,-0.896191,-0.13191000000000008,0.17151,-0.879087,0.09786300000000003,0.231159,0.017104000000000008,0.9569086680403818,0.32896000000000003,single,-0.879087
6,0.05,jog,0.25477019080763064,0.041161646465856495,-0.06204248169926673,-0.04607832366407771,-0.06938735556032015,-0.3702733608706438,0.0038401536061480864,-0.025441017640704423,0.016800672026880806,0.2954518180727186,-0.36025441017640764,0.3855754230169207,2.9987487503934127,-1.3241543103562965,-2.506393164030474,0.5472334106279969,0.014033088067770863,2.4769428598889873,8.96069610700876,-25.49216805835906,9.62436734219576,-0.036138,-0.06020399999999998,-0.8955339999999999,-0.1315710000000001,0.168165,-0.8753569999999999,0.0954330000000001,0.228369,0.020177,0.9487854529436254,0.29823,single,-0.8753569999999999
7,0.058333,jog,0.23268930757230577,0.04428177127085182,-0.01632065282611604,-0.051814498443582,0.1829116669079204,-0.48109022587450256,0.016200648025920583,-0.023400936037441585,0.0,0.4026161046441854,-0.35197407896315414,0.4090963638545536,-2.6498119807182126,0.3744299537975906,5.486838938335616,1.4833186631192246,0.24481958517494756,-2.016161289677284,12.860228797727927,0.9936794927701308,2.8226258055481694,-0.03794200000000003,-0.06076799999999999,-0.8953979999999999,-0.13015500000000013,0.16486300000000004,-0.8718119999999999,0.0922130000000001,0.22563100000000003,0.023585999999999996,0.9525639376549808,0.26414000000000004,single,-0.8718119999999999
8,0.066667,jog,0.24106071514277985,0.0508759299256102,-0.009239260859130518,0.16390194643288844,-0.18694608825254616,-0.48891259786450203,0.013438924886009236,-0.008519318454522166,0.018838492920566458,0.44744420446365407,-0.30549556035517733,0.35001199904007707,1.0044885493729399,0.7912357397118288,0.8496990601134536,-0.3313802663680522,1.7856512578497021,2.2604383154027423,5.378941663003199,5.576976074871226,-7.089556613208128,-0.03983899999999996,-0.06126300000000001,-0.895164,-0.12843499999999997,0.16189299999999995,-0.868818,0.08859600000000001,0.22315599999999997,0.02634599999999998,0.9589014631059425,0.23654000000000003,single,-0.868818
9,0.075,jog,0.2932917316692672,0.07584303372134482,-0.032281291251645736,0.08890500447069555,-0.16511139688037593,-0.6146798564377856,-0.001080043201732481,-0.01716068642745762,0.0002400096003842556,0.5666626665066479,-0.3723748949957962,0.37093483739349564,6.26797270208657,2.9961723023802525,-2.7651542532719593,-1.742345864363582,-1.0370056369777343,-2.2319072747128548,14.306787716667934,-8.02584119052189,2.510841036051673,-0.042291999999999996,-0.06203799999999998,-0.894893,-0.12615700000000007,0.15815800000000002,-0.8654580000000001,0.08386500000000008,0.220196,0.02943499999999999,0.9713394746603832,0.20565000000000005,single,-0.8654580000000001
10,0.083333,jog,0.24816992679708005,0.07092283691347746,-0.02232089283571575,-0.018574754456933528,-0.03192025199154159,-0.7218396353262664,-0.004200168006721135,-0.019080763230531633,0.001680067202688121,0.5711028441137856,-0.40753630145205894,0.40669626785071405,-5.414833177989572,-0.5904472348334758,1.195295621736467,-0.37442995379679006,-0.23041843310620563,0.1728138248294569,0.5328426265615949,-4.219537556253777,4.29154331659887,-0.04439500000000007,-0.06278800000000001,-0.894693,-0.12346599999999996,0.154171,-0.861883,0.07907099999999989,0.216959,0.032810000000000006,0.9673171994540349,0.17190000000000005,single,-0.861883
11,0.091667,jog,0.34125269978401246,0.07571394288456841,-0.011879049676021155,0.796162900203724,-0.3785279967872721,-0.7857747196474899,-0.0015598752099747711,-0.017758579313652698,0.0013198944084469799,0.6107511399087857,-0.42248620110391155,0.4734821214302857,11.169039235293074,0.5748867255928667,1.252920945487713,0.31680979082629773,0.15864937807522628,-0.04321727792670283,4.7574149022078345,-1.7938444506662619,8.013661336641668,-0.04725199999999996,-0.06356699999999998,-0.894583,-0.1212200000000001,0.150019,-0.857838,0.07396800000000014,0.213586,0.03674500000000003,0.9702070817904174,0.13255,single,-0.857838
12,0.1,jog,0.283811352454092,0.09984399375975024,0.006720268810745822,-0.17187055515725017,0.08537792459210909,-0.5196032466278521,-0.0001200048001954584,-0.017520700828030644,-0.001320052802111738,0.7080283211328466,-0.43069722788911624,0.4249369974798983,-6.8932374090868125,2.895721933899173,2.232007498711984,0.1727913608279505,0.028546560137051865,-0.3168063375205467,11.673728696035143,-0.985362628729711,-5.825647899962475,-0.04961799999999994,-0.06454499999999996,-0.89465,-0.11768500000000004,0.145598,-0.8543529999999999,0.0680670000000001,0.21014299999999997,0.04029700000000003,0.9707153861948621,0.09703000000000012,single,-0.8543529999999999
13,0.108333,jog,0.2986919476779163,0.07740309612384581,-0.035521420856829855,0.4527784033375031,-0.28177339222166997,-0.5701800654280207,-0.0002400096003909172,-0.01812072482899464,-0.0006000240009602226,0.7357494299772127,-0.4218168726749062,0.40405616224649127,1.785742856573179,-2.6930154369260104,-5.069205528330218,-0.01440115206953785,-0.07200576034609359,0.08640691241467852,3.32666612796905,1.065685253115331,-2.50580046002725,-0.05210900000000007,-0.06534099999999998,-0.894359,-0.114043,0.141438,-0.85069,0.061933999999999934,0.206779,0.04366900000000007,0.9697795919884633,0.06331000000000003,single,-0.85069
14,0.116667,jog,0.34629229661626365,0.09647228221742574,-0.03395728341733057,0.3626173521067543,-0.21308512232401378,-0.5555919852915422,0.002519798416132558,-0.015598752099834277,-0.0004799616030718175,0.8047756179505654,-0.3917686585073212,0.39500839932805376,5.711584945806013,2.2881192816870537,0.1876814782216562,0.33115046994522107,0.30261251849776366,0.014406335239789408,8.282479958405643,3.6054972603293725,-1.0856446986366088,-0.05497399999999997,-0.06627500000000003,-0.89408,-0.11022199999999993,0.13736899999999996,-0.847115,0.055247999999999964,0.203644,0.046965000000000034,0.9736529142308104,0.030349999999999933,single,-0.847115
15,0.125,jog,0.3655346213848549,0.10032401296051892,-0.028201128045120056,0.15966462695957503,0.3730599019427996,-0.7072814495775439,0.02304092163686189,-0.027001080043198778,0.0024000960038400576,0.8766350654026175,-0.39973598943957467,0.3787351494059756,2.309171339084512,0.4622261782183109,0.690766275316275,2.4626332918191944,-1.368334086567204,0.34562073765893164,8.623478633391592,-0.9561179565886833,-1.9528681053735983,-0.05782799999999999,-0.06733600000000001,-0.893825,-0.10596299999999992,0.133202,-0.843724,0.04813499999999993,0.200538,0.05010099999999995,0.9407054702213207,0.0,single,-0.843724
16,0.133333,jog,0.3524540981639357,0.12564502580102768,-0.03516140645625675,0.3786196058765196,-0.271678195806211,-0.48608256075275597,-0.009600384015356884,-0.01860074402976312,-0.03264130565222581,1.0340813632545276,-0.37381495259810776,0.42289691587663464,-1.569725575533322,3.0386430865845124,-0.8352668200092026,-3.9171133628007615,1.0080806448380715,-4.205136404184068,18.894311514689786,3.110648846929903,5.29962396143754,-0.06084500000000004,-0.06853799999999999,-0.893804,-0.10028300000000001,0.12904,-0.839907,0.03943799999999997,0.19757799999999998,0.053897000000000084,0.935372651850416,0.0,single,-0.839907
17,0.141667,jog,0.3874490040796657,0.1258699304055705,-0.019198464122876093,0.23926222289860402,0.4155310769572422,-0.5819538265599763,-0.0035997120230351048,0.01619870410367129,-0.02675785937125048,0.9971202303815633,-0.3264938804895584,0.3322534197264236,4.199052785664758,0.026986393633649026,1.9153998480178416,0.7200230372356364,4.175599728033896,0.7059570771508692,-4.434981146264028,5.67807440707337,-10.876349430070947,-0.06410399999999994,-0.06945200000000001,-0.893867,-0.09520200000000001,0.12527,-0.836978,0.03109800000000007,0.194722,0.05688899999999997,0.9475241066081371,0.0,single,-0.836978
18,0.15,jog,0.38929557182287555,0.10956438257530257,-0.056282251290044556,0.5563710114053638,0.13866815988507258,-0.44618447710577724,0.007560302412087385,-0.028801152046083977,0.013800552022080933,1.1957278291131737,-0.3496939877595134,0.3775351014040554,0.22159699306490419,-1.956744009392527,-4.450232469358987,1.3392553024267946,-5.400198745920465,4.86720405536198,23.83386520240132,-2.784124237364089,5.434019162082295,-0.06728500000000004,-0.07060500000000003,-0.893283,-0.08848199999999995,0.12144299999999997,-0.833363,0.02119699999999991,0.192048,0.059920000000000084,0.9453008285697015,0.0,single,-0.833363
19,0.158333,jog,0.36781471258850135,0.15264610584423308,0.02208088323532483,0.8786609581868694,-0.504921679709802,-0.19981017958286287,-0.0014400576023055312,-0.009600384015356884,-0.009960398415936598,1.1075243009720297,-0.2814112564502561,0.280091203648146,-2.5778062203737173,5.170013592815369,9.403952301136364,-1.0800864051833563,2.3041843310604917,-2.8514281096864886,-10.584846770808099,8.19425552733196,-11.693735480128323,-0.07036200000000004,-0.071957,-0.89355,-0.082318,0.11782599999999999,-0.831213,0.011955999999999967,0.18978299999999998,0.062336999999999976,0.9768189088225104,0.0,single,-0.831213
20,0.166667,jog,0.42416606671467033,0.1313894888408941,-0.016318694504442628,0.5208953093339221,0.13250669341406138,-0.3251022201288377,-0.027837772978149596,-0.008879289656829664,-0.011399088072954313,1.0727141828653768,-0.2018238540916745,0.20014398848092,6.761621565415038,-2.550589993201218,-4.607580722314306,-3.1674724473055003,0.08652440107118066,-0.17262894852624347,-4.176880022396554,9.549724305085377,-9.592898388196055,-0.074129,-0.07312600000000002,-0.893509,-0.07691300000000001,0.11504899999999996,-0.829409,0.0027840000000000087,0.18817499999999998,0.06410000000000005,0.9477260794232321,0.0,single,-0.829409
21,0.175,jog,0.4882995319812792,0.1380055202208073,-0.07680307212288198,0.4410111497866256,0.4070759355565752,-0.4914795532333051,0.003360134405366261,-0.008640345613826554,-0.010680427217088567,1.2895715828633083,-0.19632785311412154,0.2184087363494548,7.696323684940478,0.7939555238105391,-7.258415650838774,3.743898641967591,0.0286744321376587,0.08624275241398627,26.023928956910122,0.659546499166323,2.191857418520922,-0.07817000000000007,-0.07434800000000003,-0.8929579999999999,-0.07023600000000008,0.112263,-0.8269489999999999,0.007933999999999997,0.18661100000000003,0.06600899999999998,0.976428736829208,0.0,single,-0.8269489999999999
22,0.183333,jog,0.5262210488419499,0.24360974438977254,-0.1831273250929935,-1.6849105909885753,0.3516335650560962,-0.47985705463471395,0.004680187207489645,-0.004440177607098729,-0.012960518420736873,1.45985839433577,-0.14640585623424912,0.22044881795271856,4.550764053842633,12.67301382082865,-12.759420733242703,0.15841267276171644,0.5040403224202354,-0.27362188931336906,20.43523478608682,5.990879260755116,0.24481958517505936,-0.08251600000000003,-0.07641499999999996,-0.89154,-0.06245600000000007,0.10901300000000003,-0.823586,0.020059999999999967,0.18542799999999998,0.06795399999999996,0.975871042799275,0.0,single,-0.823586
23,0.191667,jog,0.4242860571154284,0.1351091912647006,-0.04607631389489448,0.7693497128897678,0.08733997767127304,-0.10537682034994376,0.004079673626107326,-0.002879769618433403,-0.013078953683705466,1.4340052795776377,-0.11579073674105984,0.13630909527237786,-12.231220509541803,-13.019024853020376,16.444805759311123,-0.07205586529665443,0.18723397992144522,-0.014211094668657671,-3.1021256009277907,3.6735204575461062,-10.095959044917281,-0.08601800000000004,-0.077565,-0.891265,-0.054041000000000006,0.10692200000000002,-0.822066,0.03197700000000003,0.184487,0.06919900000000001,0.976666914322069,0.0,single,-0.822066
24,0.2,jog,0.49117964718588863,0.15012600504020174,-0.12420496819872882,-0.05755414321812813,1.3095186831433128,-0.2614810623517146,0.007680307212296166,-0.0198007920316844,-0.006120244809792262,1.4816992679707173,-0.05940237609504653,0.11016440657626321,8.027551910531646,1.8020897366495996,-9.375813549002073,0.4320933140752234,-2.030603913746668,0.8350784680083041,5.723507547471445,6.766873952479691,-3.137488143059478,-0.09004699999999999,-0.07898100000000002,-0.890281,-0.04578700000000002,0.10517599999999999,-0.820113,0.044259999999999966,0.18415700000000002,0.07016800000000001,0.9631626744060587,0.0,single,-0.820113
25,0.208333,jog,0.41881675267010704,0.22428897155886407,0.016680667226689136,0.09800145322139192,-0.7100556304084036,0.16078100057468733,-0.019800792031677804,-0.002040081603262845,-0.029521180847233926,1.5276611064442638,0.0190807632305317,0.058562342493700174,-8.68389469768172,8.89991197871865,16.906952529151365,-3.2978638238298377,2.1313705062308412,-2.808224653479146,5.5156412424752945,9.41835345320754,-6.1924953897231685,-0.09370199999999995,-0.08086700000000002,-0.890666,-0.036546999999999996,0.103466,-0.8197639999999999,0.057154999999999956,0.18433300000000002,0.07090200000000002,0.9406579262841087,0.0,single,-0.8197639999999999
26,0.216667,jog,0.5100791936645069,0.15514758819294305,-0.1095512359011208,0.45545019611496373,0.08194689382165969,-0.0764650754408202,0.0023998080153478474,0.007319414446848235,-0.02999760019198464,1.6043916486681076,0.08507319414447018,0.02099832013438858,10.95061686997838,-8.296302299726536,-15.146616646005498,2.663858896931321,1.1230496820387654,-0.05716574811023667,9.20692851258024,7.9184582330139675,-4.507322097349599,-0.09793300000000005,-0.08209899999999998,-0.8900030000000001,-0.02742699999999998,0.10288200000000003,-0.8186760000000001,0.07050600000000007,0.184981,0.07132700000000003,0.9483820411410961,0.0,single,-0.8186760000000001
27,0.225,jog,0.4762990519620781,0.18864754590183805,-0.05736229449179036,-0.17228942800940378,0.049874074073611364,0.05575215627666838,0.020760830433228083,0.0028801152046044006,-0.020160806432257036,1.5797431897275822,0.1527661106444219,-0.02604104164166504,-4.053779155457674,4.020155731296648,6.26292348605909,2.2034108265786894,-0.532737218558002,1.1804624696660981,-2.957933390198649,8.123474918990958,-5.6449492110948745,-0.10172899999999996,-0.08364700000000003,-0.889693,-0.018232000000000026,0.10258299999999998,-0.818415,0.08349699999999993,0.18623,0.07127799999999995,0.9515299273357496,0.0,single,-0.818415
28,0.233333,jog,0.4935797431897312,0.20136805472219024,-0.0824432977319084,-0.31508568627843564,0.14602513710872464,0.11274889934945877,0.015600624024956603,0.025801032041284117,-0.012240489619584941,1.7559102364094523,0.17496699867994883,-0.0459618384735399,2.073765897954286,1.526522119327035,-3.009840782445459,-0.619249538974136,2.7506200452033713,0.950476036562113,21.140891237473895,2.6642131327885425,-2.39059124347472,-0.10571200000000003,-0.08511000000000002,-0.889108,-0.007713000000000081,0.10236299999999998,-0.818111,0.09799899999999995,0.187473,0.07099699999999998,0.9457653680115896,0.0,single,-0.818111
29,0.241667,jog,0.5139188864890731,0.15826733861290643,-0.11939044876409532,0.13038394219683264,0.0796721944327186,0.010022437083342023,0.03683705303575077,-0.004679625629950964,-0.040436765058795454,1.7858171346292449,0.2782577393808521,-0.03959683225341946,2.440501955764578,-5.171672199338123,-4.433303459585676,2.5481676278850753,-3.6573863296418474,-3.3832823901140605,3.5885407031188628,12.393897372318634,0.7637396472426754,-0.10968800000000001,-0.08646799999999999,-0.88845,0.002887000000000084,0.10336300000000004,-0.817446,0.11257500000000009,0.18983100000000003,0.07100399999999996,0.9085001617971159,0.0,single,-0.817446
30,0.25,jog,0.531021240849635,0.13944557782311237,-0.09540381615264484,0.7240805583457679,0.013811667002506777,-0.036322465909661324,0.019560782431300144,0.0501620064802627,0.028921156846274023,1.759630385215405,0.31789271570862293,-0.11544461778471017,2.0523646178521338,-2.2587016428409985,2.878511053816208,-2.0732354019501518,6.581259103589778,8.32328355995073,-3.1425356310860306,4.756387414829091,-9.102098347688784,-0.11395,-0.08721199999999996,-0.887414,0.013125000000000053,0.10485,-0.817613,0.12707500000000005,0.19206199999999995,0.069801,0.8981383779502614,0.0,single,-0.817613
31,0.258333,jog,0.538101524060969,0.16824672986919692,-0.15636625465019288,-0.2762945608265085,0.4071215253948319,0.2720327754793575,0.019200768030727157,0.023400936037441644,-0.009360374414976823,1.8226329053162147,0.33241329653186147,-0.17028681147245975,0.8496679720789684,3.456276496590018,-7.315785251115828,-0.043203456207006795,-3.211456911414991,-4.593967510050515,7.560604836290641,1.7425394003646435,-6.581326495589789,-0.11827399999999999,-0.08841899999999997,-0.886189,0.02382899999999999,0.10621799999999998,-0.8177289999999999,0.14210299999999998,0.19463699999999995,0.06846000000000008,0.947192963705719,0.0,single,-0.8177289999999999
32,0.266667,jog,0.5121190304775539,0.15142788576913657,-0.12934965202782714,0.16712331199070732,0.667033776598642,0.09343543156614269,-0.0031197504199761807,0.01523878089752677,-0.013798896088312983,1.8351331893448541,0.3815694744420462,-0.17410607151427962,-3.1176498180243657,-2.0180998440197184,3.2417329760458022,-2.678247954248058,-0.9793802663684744,-0.5325799944007866,1.499914090309508,5.898269487663149,-0.4582745430549398,-0.12256800000000001,-0.08955399999999997,-0.8852260000000001,0.03485500000000008,0.10813600000000001,-0.8181020000000001,0.1574230000000001,0.19768999999999998,0.06712399999999996,0.9653444401133002,0.0,single,-0.8181020000000001
33,0.275,jog,0.5883835353414101,0.31993279731189134,-0.24828993159727467,-1.1591933403135168,-0.07384606092637264,-0.6690146598586185,0.028081123244937778,0.010320412816509616,-0.017400696027840955,1.9213968558742267,0.44737789511580384,-0.09492379695187768,9.152106667929418,20.22139824106013,-14.273404484513025,3.744254609974058,-0.5902277788332093,-0.43223328207463785,10.352054065687291,7.89732637390584,9.502253037609698,-0.12723699999999993,-0.092134,-0.8833019999999999,0.04596300000000009,0.10919800000000002,-0.816824,0.17320000000000002,0.201332,0.06647799999999993,0.9423168466329042,0.0,single,-0.816824
34,0.283333,jog,0.48433937357494894,0.17892715708628631,-0.19248769950797345,-0.04974758810584661,-0.42965671899020424,0.5433745389002399,0.02640105604224151,0.010320412816516345,-0.005160206408256507,1.9266770670826798,0.4414976599063959,-0.1959678387135485,-12.485798843929125,-16.921353681219895,6.696535712144648,-0.20161612896871123,8.075113840530483e-13,1.4689175110505794,0.633650691042018,-0.7056564513870108,-12.125770042202218,-0.13105299999999998,-0.09353899999999998,-0.881741,0.05798199999999998,0.11138599999999999,-0.816853,0.18903499999999995,0.20492499999999997,0.06488799999999995,0.9519793328339909,0.0,single,-0.816853
35,0.291667,jog,0.515598752099831,0.18550515958723185,-0.20266378689705422,-0.4823921900474524,0.06474197301814502,0.39562329064722757,0.030837532997354387,0.01775857931365267,0.04079673626109907,1.9600431965442733,0.49400047996160706,-0.17962562994960365,3.7508253569572836,0.7892971563409561,-1.2210328040653657,0.5323346478417172,0.8925085789700405,5.514391968965147,4.003615246171517,6.299834419871745,1.9609081790190583,-0.13509300000000002,-0.094937,-0.8797119999999999,0.07001999999999997,0.11395700000000003,-0.816661,0.205113,0.20889400000000002,0.06305099999999997,0.9097735215299256,0.0,single,-0.816661
36,0.3,jog,0.5727829113164573,0.20172806912276398,-0.18456738269529968,0.12289773058330733,-0.37979314085168947,-0.0457471980764269,0.01788071522861708,-0.000960038401537024,0.021840873634945645,1.992559702388108,0.5145805832233252,-0.13380535221408948,6.862373600939216,1.9468270173445537,2.171655370425367,-1.5548803274615794,-2.24632397878192,-2.2747945069186937,3.902136786731656,2.46971117985338,5.49865327439269,-0.13971699999999998,-0.09662599999999999,-0.877992,0.08185100000000001,0.116564,-0.816238,0.221568,0.21319,0.061753999999999976,0.9529283816356812,0.0,single,-0.816238
37,0.308333,jog,0.5630625225009013,0.23496939877595188,-0.20484819392775794,-0.7022116821141352,-0.3204841156839935,0.328973831657393,0.01644065762629811,0.019320772830915826,0.004920196807872219,2.0156006240249567,0.523580943237728,-0.14388575543021562,-1.1664933175994234,3.989119123147458,-2.433794699682968,-0.1728138248312686,2.4337946996823194,-2.0305624417464725,2.765021197269707,1.0800864051845318,-1.209696773806083,-0.14427200000000007,-0.09842299999999998,-0.876244,0.09395500000000001,0.11896899999999999,-0.8157300000000001,0.23822700000000008,0.21739199999999997,0.06051399999999996,0.9569304237761347,0.0,single,-0.8157300000000001
38,0.316667,jog,0.6635469162466949,0.20362371010319338,-0.13630909527238208,0.30293694170145347,-1.0004053075516037,-0.3450980671364762,0.010439164866817825,0.0057595392368601835,0.010559155267578807,2.020638348932093,0.542476601871853,-0.17110631149508265,12.05716267648119,-3.7611817461913457,8.224033915931875,-0.7201215214159252,-1.6272178538583777,0.6766208854939549,0.6044786305659113,2.267297652282832,-3.266205431349555,-0.14971499999999993,-0.100072,-0.87502,0.10526500000000005,0.12179299999999998,-0.81602,0.25498,0.22186499999999998,0.05900000000000005,0.9734563140327344,0.0,single,-0.81602
39,0.325,jog,0.5735029401176129,0.1784471378855166,-0.16056642265689963,-0.2975933189934125,-0.379695989102689,-0.05617625404601352,-0.013320532821322787,0.02208088323533142,-0.02112084483379357,2.024240969638776,0.6011040441617655,-0.14760590423616823,-10.805709363864349,-3.02130951850194,-2.9109957259711328,-2.851277773687809,1.9586396254015566,-3.801752082247959,0.4323317780731133,7.03557449776939,2.82016167753682,-0.1546050000000001,-0.10137499999999999,-0.873858,0.11735399999999996,0.12531499999999998,-0.8159120000000001,0.27195900000000006,0.22668999999999997,0.05794599999999994,0.9444449200845217,0.0,single,-0.8159120000000001
40,0.333333,jog,0.5939037561502453,0.14832593303731698,-0.3139325573023004,0.7037186075018307,-0.4728221059138528,-0.20654909296578372,-0.00576023040920882,-0.002640105604226816,0.028681147245890277,2.0043201728069167,0.6086643465738637,-0.10020400816032696,2.4481958517499556,-3.614689169350739,-18.40467234434191,0.9072725803568925,-2.966637326240045,5.976478108686424,-2.39059124347289,0.9072725803549947,5.68845506730366,-0.15960200000000002,-0.10263299999999997,-0.871003,0.12910699999999997,0.12915100000000002,-0.8141309999999999,0.288709,0.231784,0.056872000000000034,0.9510454116521954,0.0,single,-0.8141309999999999
41,0.341667,jog,0.6030717542596556,0.20794336453084214,-0.17062634989199926,-0.007989251098551971,-0.19277112488385556,-0.038312978255107544,0.0008399328053730787,0.007079433645305457,0.015838732901367895,2.024358051355886,0.6334293256539478,-0.10967122630189552,1.1000717673878535,7.1535194976632,17.195369259695344,0.791956229251487,1.166251409831085,-1.5409664440271622,2.404353077630119,2.971559764828906,-1.1359752989643093,-0.16462100000000002,-0.10430700000000004,-0.869449,0.14095199999999997,0.13269699999999998,-0.8136230000000001,0.305573,0.23700400000000002,0.05582599999999993,0.9710513228196722,0.0,single,-0.8136230000000001
42,0.35,jog,0.6066242649706042,0.2366494659786366,-0.13356534261370856,0.20910492492466345,-1.3058665299948362,-0.13530258843963092,-0.015600624024956655,0.013560542421700471,0.014280571222848659,1.9939997599904136,0.6675867034681419,-0.1168846753870161,0.42631833804734665,3.4448699685340842,4.4474987733458295,-1.9729457374690718,0.7777641637339531,-0.1869868808975447,-3.6431406894842913,4.099049299675281,-0.8656485161551173,-0.169806,-0.10616599999999998,-0.868217,0.152513,0.13628800000000002,-0.813484,0.322319,0.242454,0.05473300000000003,0.958127093910075,0.0,single,-0.813484
43,0.358333,jog,0.6365054602184032,0.21528861154446302,-0.04188167526701575,-0.39824577761721547,-1.026934795371368,-0.16423382487979588,-0.011520460818430887,0.016440657626304773,0.012720508820352992,1.9918396735869353,0.6743069722788866,-0.08340333613344512,3.5858868652104703,-2.56340506830355,11.002480180810323,0.4896391703499041,0.34562764965850107,-0.1872149768985551,-0.2592207372468862,0.8064645158699981,4.017921427285591,-0.17520599999999997,-0.107823,-0.8677619999999999,0.16380700000000004,0.140113,-0.8138299999999999,0.339013,0.247936,0.05393199999999998,0.9603898306652104,0.0,single,-0.8138299999999999
44,0.366667,jog,0.6845452363810841,0.29433645308375095,-0.19582433405327157,-0.6854275257678641,-1.28352486476705,-0.11864405073912283,-0.010199184065274976,0.015478761699062888,0.011639068874490014,1.921886249100064,0.7446604271658247,-0.10907127429805523,5.764311994562145,9.484982186139652,-18.471641323044835,0.15854052713653818,-0.11541827780680151,-0.12976241251055642,-8.393739439269414,8.441739247292782,-3.0799061872582287,-0.18099599999999993,-0.110147,-0.866033,0.17411900000000002,0.143866,-0.813107,0.35511499999999996,0.254013,0.05292600000000003,0.9635200457024357,0.0,single,-0.813107
45,0.375,jog,0.6813872554902299,0.3002520100804045,-0.17604704188167525,-0.24805014939515393,-0.5536517134552068,-0.12353825650488531,-0.012360494419785853,0.018960758430336237,0.0030001200048002854,1.9440777631105284,0.6911076443057756,-0.05928237129485294,-0.37897286581713435,0.7098952354078412,2.3733699953913803,-0.2593676172459957,0.41785632200568307,-1.036715332976089,2.663088204783936,-6.426591006846176,5.974907356678557,-0.18677700000000008,-0.11249100000000001,-0.864541,0.18464099999999994,0.147123,-0.812134,0.371418,0.259614,0.05240699999999998,0.9619469338876496,0.0,single,-0.812134
46,0.383333,jog,0.7388695547821893,0.22332893315732702,-0.2869314772590949,0.42338336211676053,0.10847111172486838,-0.4418781810803766,-0.007920316812673786,0.02064082563302603,0.006840273610944218,1.8964358574343034,0.7013080523220931,-0.04836193447737762,6.898151841108785,-9.23113847630837,-13.306664511870867,0.5328426265585118,0.2016161289679343,0.46083686621192155,-5.717257371441866,1.2240979258751377,1.3105048382905735,-0.19300000000000006,-0.11418,-0.862093,0.194287,0.151106,-0.810146,0.38728700000000005,0.265286,0.051946999999999965,0.9614295577943317,0.0,single,-0.810146
47,0.391667,jog,0.7305015598752072,0.25509959203263916,-0.2814974802015787,-0.1637053718951856,0.035749877918510524,-0.38345985069784927,-0.005159587233009862,0.01667866570674347,0.010559155267578736,1.8933285337172994,0.7259419246460276,-0.043076553875691356,-1.0040790625128555,3.8121740911101636,0.652027484703165,0.33126104867577655,-0.47542115746130953,0.4462301003881107,-0.3728490181190376,2.95582821261512,0.6341949366074223,-0.19913099999999995,-0.11616700000000002,-0.8596590000000001,0.203978,0.15502999999999997,-0.8081590000000001,0.40310899999999994,0.271197,0.05149999999999999,0.965994486144108,0.0,single,-0.8081590000000001
48,0.4,jog,0.7572302892115699,0.2816512660506394,-0.2710908436337455,-0.6685162906056531,0.5010736684571631,-0.5549136687781201,-0.012720508820358821,0.013560542421700381,0.01368054722188876,1.8537141485659334,0.7151086043441731,-0.026401056042241338,3.207575823396449,3.186328335293427,1.2488463419936577,-0.9073468843572456,-0.3741897617956411,0.3745820177979133,-4.753916374818886,-1.30005043824006,2.001139785605418,-0.20554700000000004,-0.11840099999999998,-0.857286,0.21311499999999994,0.158642,-0.8061200000000001,0.418662,0.277043,0.051165999999999934,0.9615271730918399,0.0,single,-0.8061200000000001
49,0.408333,jog,0.8169926797071814,0.2268090723628954,-0.44389775591023845,-0.4216426000142401,2.265509510394237,-0.5556765580934557,0.0075603024121007325,0.016560662426493677,0.012000480019200725,1.79191167646707,0.7175087003480138,-0.05592223688947502,7.171773730422614,-6.581326495589118,-20.737658979538384,2.43379469968314,0.36002880172726553,-0.20161612896772343,-7.416593315596259,0.28802304138254287,-3.542683409004411,-0.21229199999999993,-0.12015300000000001,-0.853487,0.22123900000000007,0.162731,-0.802887,0.433531,0.282884,0.05059999999999998,0.9636595865744665,0.0,single,-0.802887
50,0.416667,jog,0.8156947444204554,0.28773698104151774,-0.22762179025678375,-0.2460195922908188,0.9871630357398202,-0.6679424290770055,0.01823854091671824,0.011039116870648055,0.01931845452363826,1.748740100791932,0.7279817614590846,-0.056995440364771145,-0.15573977522509566,7.310764180300248,25.95103979523092,1.2812861176646864,-0.6625324641043456,0.8780866935970155,-5.180174667043174,1.2566667999844856,-0.12877411510632622,-0.21893800000000008,-0.12245900000000004,-0.851429,0.22901499999999997,0.1664,-0.801465,0.44795300000000005,0.28885900000000003,0.04996400000000001,0.952050108294743,0.0003600000000000825,single,-0.801465
51,0.425,jog,0.8474738989559485,0.327613104524183,-0.300732029281173,-1.46329768020724,1.467407893358934,-0.5576349623420671,-0.004560182407294202,-0.028081123244924643,0.016560662426497008,1.7283091323652953,0.7047881915276616,-0.0495619824792989,3.81365109030279,4.785326230969084,-8.773579626111774,-2.735956237130985,-4.694616598532677,-0.33094828958853456,-2.4518142837677765,-2.783339725359777,0.8920506282818033,-0.22603799999999996,-0.125423,-0.848785,0.23635500000000004,0.16954299999999997,-0.799372,0.462393,0.29496599999999995,0.04941300000000004,0.9451365258551123,0.005870000000000042,single,-0.799372
52,0.433333,jog,0.9469578783151398,0.34705388215527877,-0.3231729269170688,-1.334020964881233,0.6299707285315796,-0.8747578697224552,0.002280091203647086,-0.0178807152286103,0.04656186247449872,1.6863074522980859,0.705748229929194,-0.07212288491539683,11.938555065305517,2.3329866351968884,-2.693015436924961,0.8208656679396688,1.224097925874751,3.6002880172808815,-5.0404032241940735,0.11520921655254474,-2.7074165889953,-0.23391000000000006,-0.12846399999999997,-0.845704,0.24251599999999995,0.17253200000000002,-0.79728,0.476426,0.300996,0.04842400000000002,0.9167846530233866,0.015760000000000052,single,-0.79728
53,0.441667,jog,0.8599712023038114,0.36501079913607654,-0.1447084233261396,2.1730650959200934,-0.05658472269425694,-0.40161952490532704,0.013198944084479856,-0.017758579313659446,0.0617950563954889,1.6381089512839062,0.6795056395488401,-0.072114230861532,-10.437566116070178,2.1546576650825378,21.414027308726926,1.310157533097292,0.014655137383111864,1.8278370435553475,-5.783357453105344,-3.1488589369275215,0.0010384033915078166,-0.24096699999999993,-0.13165400000000005,-0.8439829999999999,0.24900100000000003,0.17515299999999998,-0.796675,0.48996799999999996,0.30680700000000005,0.047307999999999906,0.8906050953463349,0.02692000000000011,single,-0.796675
54,0.45,jog,0.8981159246369873,0.41065642625704624,-0.03888155526220924,-1.2255915487878482,2.629518591166742,-0.4768313234949217,0.00588023520940424,-0.03000120004799849,0.09120364814592508,1.5852634105364147,0.6681867274690947,-0.10932437297491795,4.577549781972367,5.4776943622908325,12.699732156957868,-0.878280196216919,-1.4691732550508811,3.529172176939404,-6.341718558441289,-1.3583237825207488,-4.465395669433073,-0.248402,-0.135326,-0.842899,0.254727,0.17729899999999998,-0.797262,0.5031289999999999,0.312625,0.04563699999999993,0.8396812670753486,0.04363000000000006,single,-0.797262
55,0.458333,jog,0.978999159966401,0.4268570742829696,-0.12648505940237634,0.02118594186196492,0.39309677021737044,-0.693699275696423,0.023760950438021358,-0.03384135365414678,0.11808472338893612,1.5172206888275588,0.6354254170166849,-0.1074042961718463,9.706376494589447,1.9441555293319812,-10.512841010460496,2.1457716583003914,-0.4608368662124449,3.225858063483873,-8.165453223191662,-3.9315145148697828,0.23041843310592372,-0.256362,-0.13916499999999998,-0.840861,0.259212,0.17903700000000003,-0.797103,0.515574,0.318202,0.043757999999999964,0.791474609321759,0.062419999999999976,single,-0.797103
56,0.466667,jog,1.0340772738180952,0.40688744900408325,-0.17734581233501054,0.37924685392294427,0.18422271769709245,-0.8516692771644034,0.12263018958482919,-0.011159107271419444,0.13858891288696887,1.4475641948644118,0.6088312934965191,-0.1484281257499401,6.608844954606935,-2.3961633403991276,-6.102802127745878,11.86335962884662,2.7216518337805757,2.460305915290704,-8.358110626727493,-3.1910395392567485,-4.9224657521110835,-0.263958,-0.14264900000000003,-0.838228,0.262658,0.18072,-0.796862,0.526616,0.323369,0.041366000000000014,0.6910161104168391,0.08634000000000003,single,-0.796862
57,0.475,jog,1.019080763230525,0.3996159846393865,-0.16008640345614553,0.3195997215702953,2.3759512863324406,-1.2394597240605807,0.05700228009120417,-0.04008160326413078,0.16308652346093874,1.3723748949958035,0.5760230409216381,-0.17064682587303615,-1.799653256638698,-0.8726106281887365,2.071211913940364,-7.875664165801654,-3.4708383526594755,2.9398308621108766,-9.023076907309315,-3.9371477948975206,-2.6663506687982834,-0.27197499999999997,-0.14631300000000003,-0.8355349999999999,0.26560200000000006,0.18219,-0.7969499999999999,0.537577,0.328503,0.03858499999999998,0.7044167301456952,0.11415000000000008,single,-0.7969499999999999
58,0.483333,jog,1.1027241089643542,0.4827793111724447,-0.11472458898355369,0.4836168724045945,-0.45180291576879406,-0.6670852229930679,0.04620184807391901,-0.06096243849754066,0.17268690747629825,1.2844113764550484,0.5081003240129569,-0.18252730109204227,10.037602992179156,9.979998383902297,5.443635482130284,-1.2961036862216633,-2.5058004600275763,1.1520921655297574,-10.556044466669224,-8.151052071124559,-1.4257140548429221,-0.280779,-0.15084400000000003,-0.83314,0.267116,0.18240099999999998,-0.797515,0.547895,0.333245,0.03562500000000002,0.6852170161720781,0.14375,single,-0.797515
59,0.491667,jog,1.0710343172546173,0.5685145188384881,0.073794096472286,0.7909061836857979,-0.2914848179122294,-0.44248571761651595,0.06587473002160081,-0.040796736261093244,0.20074394048476113,1.1882649388048938,0.4437245020398372,-0.2366210703143748,-3.802470807503831,10.28740192777098,22.620432620091133,2.3605569891626814,2.4196906931182385,3.3665746350447385,-11.53664958605166,-7.7244806783200906,-6.490733048036054,-0.28915599999999997,-0.15592199999999995,-0.832082,0.268093,0.18136100000000002,-0.800102,0.557249,0.337283,0.03198000000000001,0.6413684055781332,0.18020000000000003,single,-0.800102
60,0.5,jog,1.1398055922236925,0.5907836313452566,0.0884435377415084,0.11314902568353345,0.3014794771034824,-0.48597532194240334,0.06576263050521952,-0.06600264010561044,0.2750510020400826,1.0234009360374483,0.4006960278411157,-0.2952118084723401,8.25288311161351,2.6724003968280927,1.7580032724375891,-0.013452480064957353,-3.0248294545202516,8.91720407480159,-19.78447171096195,-5.163623448784547,-7.031169825748881,-0.298106,-0.161395,-0.830527,0.26712300000000005,0.17977700000000002,-0.803299,0.565229,0.34117200000000003,0.02722800000000003,0.5159943589770584,0.2277200000000001,single,-0.803299
61,0.508333,jog,1.1940477619104732,0.6210248409936421,0.13104524180966967,-0.07762206551748202,0.16622438219996288,-0.42691768003705494,0.13188527541102454,-0.0694827793111717,0.3955358214328557,0.8750750030001122,0.29101164046561534,-0.3451338053522122,6.509320735243072,3.629090321419102,5.112408984538713,7.9350347900881735,-0.4176334100037491,14.458756677399808,-17.799823957438555,-13.162652991179634,-5.9908792607550625,-0.3069569999999999,-0.16714900000000005,-0.828323,0.264465,0.17702699999999996,-0.807267,0.5714219999999999,0.34417600000000004,0.021056000000000075,0.5,0.28944000000000003,flight,-0.807267
62,0.516667,jog,1.2145428365730901,0.6762658987281025,0.17482601391889246,-0.10579892909282668,-0.06984160870995021,-0.21942812516649832,0.12011039116869743,-0.040196784257256556,0.35805135589153075,0.7181425485961186,0.17854571634269564,-0.4084473242140649,2.45921222253624,6.628396656402776,5.25327239131546,-1.4128730792329234,3.514038283407164,-4.49777604287559,-18.83038809743155,-13.49483130824578,-7.597014502262181,-0.3160780000000001,-0.17312,-0.8267960000000001,0.26032799999999995,0.172879,-0.8121280000000001,0.576406,0.345999,0.014668000000000014,0.5,0.35331999999999997,flight,-0.8121280000000001
63,0.525,jog,1.2461298451937963,0.6339853594143717,0.09660386415455914,-0.6857263558551526,0.6453654001370351,-0.4819784681257066,0.1237249489979599,-0.029401176047041185,0.358454338173525,0.5400216008640328,0.0483619344773773,-0.48205928237129364,3.7905926581910534,-5.073867672354566,-9.387033453058082,0.43376429008309775,1.2955248062180877,0.048359808231639954,-21.375368742599907,-15.622678730987376,-8.833788330400631,-0.325431,-0.17864799999999997,-0.824614,0.254444,0.167999,-0.81695,0.579875,0.346647,0.007664000000000004,0.5,0.42336,flight,-0.81695
64,0.533333,jog,1.1974078963158687,0.7112684507380379,0.2314892595703933,0.6863541782765827,0.1627218867052294,-0.3205037283002213,0.13740549621985756,-0.025681027241088915,0.398655946237853,0.31753270130805306,-0.10980439217568792,-0.512420496819877,-5.846867740060965,9.274341932517327,16.186894925697274,1.6417313358811705,0.44643571414284217,4.824385943157129,-26.699735936155264,-18.980718427105085,-3.6434914734889765,-0.334264,-0.18478899999999998,-0.8232210000000001,0.24711199999999994,0.161157,-0.823149,0.5813759999999999,0.345946,7.2000000000072e-05,0.5,0.49927999999999995,flight,-0.823149
65,0.541667,jog,1.1413486921046188,0.6813054955603519,-0.5115190784737202,-3.5333145763516267,4.991048766576491,-0.18881588271101335,0.23746100311974297,-0.015958723302135016,0.4413246940244748,0.0358771298296126,-0.20758339332852993,-0.5717542596592227,-6.726566380039545,-3.5952669999622944,-89.15386825583248,12.0057003719564,1.1665831460227771,5.119840147182799,-33.795964900220575,-11.73254153501815,-7.119481982162852,-0.341797,-0.1906,-0.81528,0.23789899999999997,0.153749,-0.823651,0.579696,0.344349,0.008371000000000017,0.41629000000000005,0.5,flight,-0.81528
66,0.55,jog,1.2586103444137644,0.8175927037081399,0.20376815072602547,-3.1901212531235026,-0.14922181165028145,1.019359254755505,0.3285731429257178,-0.01572062882515867,0.4948997959918379,-0.0727229089163558,-0.3055322212888527,-0.4562582503300113,14.07196115554364,16.355119182501785,85.83790102000994,10.933894132482235,0.028572480136366738,6.4292694068598255,-13.032525950554177,-11.754329528419822,13.860075522526211,-0.34954699999999994,-0.197544,-0.812854,0.22680500000000003,0.14439000000000002,-0.829151,0.576352,0.341934,0.016297000000000006,0.33703000000000005,0.5,flight,-0.812854
67,0.558333,jog,0.9644785791431831,0.7506300252010162,-0.6726269050762057,-9.123639090558685,5.057115856945261,1.8845416547317593,0.4035761430457261,-0.009120364814588465,0.494419776791076,-0.10740429617184535,-0.3580943237729526,-0.3283331333253363,-35.29722372141893,-8.035842854569097,-105.17161356081114,9.000720043202803,0.792063363802984,-0.057604608275760194,-4.1619329479767035,-6.307704606276293,15.351628105685363,-0.354221,-0.20387499999999997,-0.803129,0.21787299999999998,0.13515100000000002,-0.8262820000000001,0.572094,0.339026,0.02315300000000009,0.26847,0.5,flight,-0.803129
68,0.566667,jog,1.2445404367650417,0.8809695224382,0.16234701223901216,-1.2362937539833934,2.14423356055101,-0.04916052385598349,0.459083273338129,-0.019558435325176746,0.5590352771778211,-0.17602591792656405,-0.25869930405567254,-0.1298296136309085,33.6047345358599,15.639488509381193,100.18885496942782,6.660322809263556,-1.2524682638094793,7.753239787226372,-8.233935895694525,11.926448250213497,23.818516881980596,-0.36076699999999995,-0.21138,-0.799823,0.20603400000000005,0.12565300000000001,-0.8287169999999999,0.566801,0.337033,0.028893999999999975,0.21106000000000008,0.5,flight,-0.799823
69,0.575,jog,1.3867754710188547,0.8012720508820412,0.9323172926917193,6.535468596007234,-0.41934893207399865,-1.175591232670036,0.4714988599543977,-0.03348133925356729,0.6896675867034747,-0.07464298571943083,-0.150846033841356,-0.049441977679107935,17.068886865932356,-9.56407914990514,92.40012965951207,1.4899299911519082,-1.6708153040190414,15.67650420324671,12.166438522396994,12.942910142123788,9.646902190303768,-0.368394,-0.21833599999999997,-0.801845,0.19385600000000003,0.11771900000000002,-0.836898,0.56225,0.336055,0.035053,0.14947,0.7076407727184468,single,-0.801845
70,0.583333,jog,1.1830073202928109,0.7261490459618388,-0.23172926917076778,-3.256995826310762,-1.4453423625498398,1.5144684532936155,0.526101044041766,-0.07332293291731977,0.6938677547101849,-0.009000360014399546,-0.0020400816032661623,-0.051482059282370936,-24.453156213373692,-9.015121195272062,-139.6911750705007,6.55252419145183,-4.7811824869497555,0.5040403224181177,7.877430181810993,17.857428565713334,-0.24481958517496613,-0.373868,-0.22499800000000003,-0.794132,0.183923,0.11165099999999997,-0.835396,0.5577909999999999,0.336649,0.04126400000000008,0.08736000000000005,0.9128288586029001,single,-0.794132
71,0.591667,jog,1.216582673386121,0.771538276937838,0.10703143748500085,-0.20609816421086227,-0.16007042615298805,0.6114447853597934,0.6658267338612891,-0.11891048716102191,0.8255339572834124,0.11735061195104049,0.026757859371250213,-0.09575233981281425,4.0287200735912885,5.4462720153586375,40.64803295605544,16.765741519021116,-5.470068903731917,15.798680414354028,15.160903763551605,3.4554764788236327,-5.312008702956921,-0.37845799999999996,-0.232419,-0.788144,0.17476199999999997,0.10544399999999998,-0.837086,0.5532199999999999,0.33786299999999997,0.04894200000000004,0.010579999999999978,0.7436600578276966,single,-0.788144
72,0.6,jog,1.4754590183607412,0.7463098523941029,0.1536061442457783,0.2647250005750881,-2.8839728701261786,0.4549567207812872,0.8514340573622978,-0.10320412816513083,0.9779191167646782,0.13584543381735656,0.03888155526221309,-0.12252490099604109,31.066404053116845,-3.027532046530112,5.589188378828497,22.273769770912086,1.884838473045869,18.2869506157767,2.219467402654055,1.454901702983678,-3.2128358554214667,-0.38365799999999994,-0.23949800000000002,-0.781275,0.16359900000000005,0.099549,-0.8393870000000001,0.547257,0.339047,0.05811200000000005,0.0,0.688292745099562,single,-0.781275
73,0.608333,jog,1.193087723508936,0.7503900156006186,0.03984159366374626,0.4425152738621135,-0.8626317754849908,1.18990430372491,1.0259210368414728,-0.053522140885635436,1.0997239889595545,0.14688587543501713,0.05688227529101167,-0.0390015600624022,-33.88591081864922,0.4896391703486982,-13.652292161530248,20.939275108505257,5.962076956617687,14.617169350159093,1.3249059903588776,2.1601728103682354,10.023201840110229,-0.3850509999999999,-0.246197,-0.772443,0.15488100000000005,0.09377000000000002,-0.840044,0.539932,0.339967,0.06760100000000002,0.0,0.7295468035362014,single,-0.772443
74,0.616667,jog,1.230381569474454,0.7458603311735102,-0.14890808735301833,-1.641439470893491,0.014223521497029419,1.878695170633783,1.2812574994000512,0.017638588912888057,1.302255819534445,0.08183345332372982,0.029157667386608424,-0.04667626589872842,4.474903523580284,-0.5435186497610215,-22.648149870022277,30.637924473071728,8.53860448746387,24.301875518945476,-7.805666200058517,-3.3266868135833216,-0.9208910290768255,-0.384627,-0.252266,-0.7603489999999999,0.14530899999999997,0.08779700000000001,-0.839192,0.529936,0.340063,0.07884300000000011,0.0,0.8356362650791784,single,-0.7603489999999999
75,0.625,jog,1.1802472098883885,0.7317892715708622,0.16572662906515778,1.6480716514787663,0.4221118139713291,1.0235330236031626,1.5700228009120245,0.2034081363254524,1.3986559462378436,0.04716188647546269,-0.010680427217089328,-0.08520340813632496,-6.016363804880029,-1.6885946961056086,37.757676277232065,34.65322231032907,22.293237419004388,11.568477943525536,-4.160754451970117,-4.780762582947028,-4.623442006191813,-0.381379,-0.25666900000000004,-0.7500749999999999,0.13586700000000002,0.08160999999999999,-0.841283,0.5172460000000001,0.338279,0.09120800000000007,0.0,0.836718240969881,single,-0.7500749999999999
76,0.633333,jog,1.2012480499219942,0.7437897515900582,0.04236169446778426,1.2524055247760446,-1.0830550308746048,1.4780763505693815,1.7472698907956266,0.3076923076923077,1.3160926437057432,0.057242289691588046,-0.0178807152286103,0.01644065762630519,2.5202016120971567,1.4401152069117988,-14.804384327057843,21.2705016060964,12.514601148068508,-9.907992623556952,1.2096967738059898,-0.8640691241474788,12.19777580254767,-0.376829,-0.26030299999999995,-0.739461,0.126334,0.075263,-0.841499,0.503163,0.335566,0.10203799999999996,0.0,0.8963620762058849,single,-0.739461
77,0.641667,jog,1.1871850251979925,0.7522198224142108,0.09527237820973913,2.6406913239252585,-0.4134324162819367,1.2211342050089116,1.9886009119270645,0.4206863450923961,1.140868730501565,0.018358531317496412,-0.04715622750179733,-0.029037676985841615,-1.6874279726423989,1.0115275766921814,6.348774147102852,28.95740594329725,13.558199832024123,-21.02518756949594,-4.6656777506709695,-3.512780450346436,-5.456963596369937,-0.37015,-0.26306599999999997,-0.730747,0.116593,0.06860100000000002,-0.8425349999999999,0.486743,0.331667,0.11178799999999989,0.0,0.9027612881576872,single,-0.730747
78,0.65,jog,1.2598103924156856,0.7620304812192482,0.21336853474139564,3.8980337525948707,-1.4286188862269233,0.73206281641965,2.7730709228368906,0.7021480859234334,1.219848793951754,0.00252010080403134,-0.019320772830915826,0.010680427217088912,8.715392681830407,1.1773261496504688,14.172105668025443,94.14016691585537,33.77675997012314,9.477986733491973,-1.9006876891233657,3.340388176032808,4.766363158877998,-0.35754,-0.263565,-0.72236,0.10611600000000004,0.06208999999999998,-0.8442240000000001,0.46365600000000007,0.325655,0.12186400000000008,0.0,0.9629671806071565,single,-0.72236
79,0.658333,jog,1.1334453378135274,0.6349453978159173,0.2660506420256864,6.593997637318705,-2.866280286677513,0.8341064319542902,2.8747149885995773,0.7429497179887266,0.9986799471978965,0.014880595223803986,-0.002520100804031374,-0.013800552022081072,-15.164413128784272,-15.250820041201496,6.322105758345283,12.197775802554617,4.896391703503368,-26.541323263393664,1.4833186631192556,2.01616128967774,-2.937835022101309,-0.34303,-0.262665,-0.7162550000000001,0.09679499999999996,0.056777999999999995,-0.8465560000000001,0.43982499999999997,0.319443,0.130301,0.0,0.9659152095506521,single,-0.7162550000000001
80,0.666667,jog,1.1491480681545392,0.6976241900647878,-0.06611471082314314,2.2010589337730817,-0.7197425812376762,1.5257739636948222,2.839692824574008,0.7991360691144647,0.8927285817134564,0.027117830573554387,0.012598992080632731,-0.013798896088312891,1.8841769067688567,7.520853401592277,-39.85665380955447,-4.202323497188501,6.74182278926538,-12.713146806388213,1.4683507739081243,1.8141460144785204,0.00019869615648914477,-0.32894100000000004,-0.26181899999999997,-0.708264,0.08744399999999997,0.051069,-0.84612,0.416385,0.31288799999999994,0.13785599999999998,0.0,0.945113225896905,single,-0.708264
81,0.675,jog,1.1870874834993363,0.7596303852154057,-0.18960758430337443,0.2517703317711958,1.1694511329855846,1.5036688431189635,3.1322452898115842,0.9963998559942362,0.7796711868474709,0.03000120004800515,0.005400216008642393,-0.017400696027840955,4.552911957853955,7.441041059716505,-14.819737607131978,35.10770013651445,23.67260132962567,-13.56743008112144,0.34601817766119664,-0.8638876841462029,-0.43223328207464884,-0.312732,-0.25984599999999997,-0.7001869999999999,0.07780199999999998,0.04478400000000002,-0.8446849999999999,0.390534,0.30462999999999996,0.14449800000000002,0.0,0.9414997967830276,single,-0.7001869999999999
82,0.683333,jog,1.1906876275051095,0.7609504380175293,-0.2412096483859324,-0.07843845400902703,-0.1659762996754028,1.9486280164977579,3.0963638545542094,1.003480139205575,0.610824432977326,0.025561022440900118,-0.006720268810752551,-0.017640705628225447,0.43203456207526275,0.15841267276173795,-6.192495389722601,-4.305944468663769,0.849667972079547,-20.262420961256026,-0.5328426265576711,-1.4545163589817658,-0.028802304138304775,-0.296852,-0.25782499999999997,-0.693087,0.06809300000000001,0.038387000000000004,-0.842822,0.364945,0.29621200000000003,0.14973499999999995,0.0,0.94703978494886,single,-0.693087
83,0.691667,jog,1.1889848812094943,0.7296616270698292,-0.18286537077033335,0.538325172140129,-0.3836417682099969,1.665523483454217,3.43124550035994,1.0934725221982136,0.556035517158623,0.019078473722097852,-0.013438924886009136,-0.013558915286776777,-0.20431321041698622,-3.7543569651667683,7.000753253611543,40.18258289005614,10.798222101348438,-6.574143966726977,-0.7778436187667646,-0.8061742350919766,0.48977565892112296,-0.27816500000000005,-0.25479300000000005,-0.686929,0.05834299999999998,0.032194,-0.841411,0.33650800000000003,0.286987,0.154482,0.0,0.9550173784973401,single,-0.686929
84,0.7,jog,1.1516860674427043,0.7418696747869974,-0.2270490819632812,0.08535965005723342,-0.4909492142176216,1.7510294280092868,3.439097563902596,1.1586463458538476,0.40561622464898894,0.012960518420736587,-0.021000840033602555,-0.007680307212288748,-4.476036693482581,1.4650243270332803,-5.302257433451127,0.942285316531416,7.8211716855435816,-18.051037142641956,-0.7341840035234996,-0.9074661163558728,0.7054611873860653,-0.25910399999999995,-0.25132,-0.681657,0.04885400000000001,0.025837,-0.839583,0.30795799999999995,0.277157,0.157926,0.0,0.9569239226378895,single,-0.681657
85,0.708333,jog,1.2473298931957244,0.7151086043441698,-0.006120244809795156,1.5872627195867492,-0.548239356150155,1.4361231089496411,3.6443057722308683,1.2713308532341232,0.33013320532821216,0.019680787231488875,-0.02364094563782574,-0.009840393615744437,11.477718199090328,-3.211456911415756,26.512520959256584,24.625970038194094,13.522681792904729,-9.058324651479234,0.8064645158709061,-0.31682534552060176,-0.2592207372441714,-0.23913,-0.246685,-0.678855,0.03862399999999999,0.019681000000000004,-0.839614,0.277754,0.266366,0.16075899999999999,0.0,0.946172574028595,single,-0.678855
86,0.716667,jog,1.1517878569714364,0.7626589872810118,-0.2251019918406497,-0.5562875157400168,-1.4363437546943119,1.7421261907759529,3.671226301895828,1.2998560115190663,0.12455003599711728,0.022198224142067353,-0.021118310535154835,-0.0069594432445402666,-11.464127216737138,5.705589505260575,-26.27570758709538,3.2302051433836985,3.422745174579175,-24.668006879180865,0.3020682638083105,0.30269199696074944,0.3456863896333272,-0.21813299999999997,-0.242208,-0.675941,0.029209999999999958,0.013149000000000022,-0.837796,0.24734299999999992,0.25535700000000006,0.16185499999999997,0.0,0.9476343506041235,single,-0.675941
87,0.725,jog,1.2211688467538768,0.725909036361461,-0.20748829953198084,0.5783353531313457,-0.1796573714532057,1.6770103070440447,3.680427217088711,1.4033361334453551,-0.005040201608062748,0.03444137765511099,-0.027601104044162977,0.0019200768030719789,8.326051815965569,-4.410170517166823,2.1137276261453275,1.1041539893055046,12.418111355609001,-15.551450570644572,1.4692371910528919,-0.7779663397345735,1.0655850291146438,-0.19763999999999998,-0.23656299999999997,-0.674254,0.019321000000000033,0.006870000000000015,-0.836051,0.21696100000000001,0.24343299999999998,0.16179699999999997,0.0,0.9263696142477625,single,-0.674254
88,0.733333,jog,1.1242049681987285,0.750510020400814,-0.15312612504500775,0.13911270089132954,-1.29473962415345,1.6546047085860252,3.7003480139205482,1.42985719428776,-0.063482539301572,0.027241089643582895,-0.030241209648386076,-0.007800312012480357,-11.636130871852624,2.9522361741693226,6.523721887312235,2.3905912434702095,3.1826546072728665,-7.013361057663387,-0.8640691241483336,-0.3168253455205914,-1.1664933175989793,-0.17617299999999997,-0.23090200000000002,-0.673507,0.010179999999999967,0.0003640000000000032,-0.83484,0.18635299999999994,0.23126600000000003,0.16133300000000006,0.0,0.930929733976925,single,-0.673507
89,0.741667,jog,1.1265898728101793,0.7741780657547456,-0.16066714662826814,-0.28024856702406054,-0.7763206646582402,1.7353309256606246,3.7633789296856404,1.559995200383983,-0.1235901127909778,0.07007439404848,-0.045956323494120065,0.001559875209983105,0.2861656601212879,2.8399382474120056,-0.9048502019750944,7.563104843423623,15.615311506626313,-7.212331832182163,5.1395853617587415,-1.8856628084634124,1.1231326160863349,-0.154198,-0.224353,-0.673198,0.001375000000000015,-0.0064710000000000045,-0.833488,0.15557300000000002,0.217882,0.16029000000000004,0.0,0.8603094930745852,single,-0.673198
90,0.75,jog,1.121804872194886,0.7275891035641378,-0.14832593303732267,0.023147707466181916,-0.7669783205070975,1.7821518403254977,4.5108604344173555,1.62522500900035,0.12132485299411735,0.010800432017278124,-0.028921156846276008,-0.018240729629185014,-0.5742230427569172,-5.590899098836869,1.4810048711082953,89.70136862255035,7.827890149569985,29.390971533072616,-7.113159970143001,2.044301769812071,-2.3761676274052608,-0.12595700000000004,-0.216873,-0.670951,-0.007883000000000029,-0.012775000000000009,-0.8324039999999999,0.11807400000000001,0.204098,0.16145299999999996,0.0,0.9402364180362002,single,-0.670951
91,0.758333,jog,1.095283811352449,0.7574702988119507,-0.13236529461177973,-0.4045410815516926,-0.8672019005909146,1.497100661751925,4.0110404416176495,1.724588983559338,-0.23604944197767772,0.012120484819394855,-0.030481219248767,-0.013320532821312795,-3.182654607276704,3.5858868652121494,1.9153532251941519,-59.98079836789919,11.924153913235045,-42.8866308618497,0.1584126727609175,-0.1872149768979943,0.5904472348340571,-0.10166000000000003,-0.208814,-0.671815,-0.016909000000000007,-0.019340999999999997,-0.831412,0.08475100000000002,0.189473,0.159597,0.0,0.9409932331142281,single,-0.671815
92,0.766667,jog,1.080873530117592,0.7595392368610541,-0.22774178065755665,-0.33331529129342047,-0.5206832923780361,1.888938777840452,3.9626829853611967,1.751379889608841,-0.4059275257979381,0.013078953683701806,-0.02543796496280525,-0.014638828893688657,-1.7290954205492048,0.24825270567594965,-11.444262784470538,-5.802430556329866,3.214651553816082,-20.38373935928262,0.11500706315178265,0.6051421029471779,-0.15818287405517997,-0.07764299999999996,-0.200548,-0.6733,-0.025807999999999998,-0.025883000000000003,-0.8296359999999999,0.051834999999999964,0.174665,0.15633599999999992,0.0,0.946447211860943,single,-0.6733
93,0.775,jog,1.1336853474138964,0.7931117244689759,-0.05880235209408237,0.58067022100722,-0.8908898166439968,1.9208360066221184,3.9959198367934543,1.769110764430567,-0.42241689667586474,0.02160086403456291,-0.02760110404416261,-0.009240369614784635,6.337671582419793,4.028859667337301,20.2735423693116,3.9885817151395044,2.1277900902107163,-1.9788036574974865,1.0226701489092844,-0.25958707324581193,0.6478410271095644,-0.053792000000000006,-0.192415,-0.67633,-0.03507500000000002,-0.032722000000000015,-0.8292229999999999,0.018716999999999984,0.159693,0.15289299999999995,0.0,0.9395893059937463,single,-0.67633
94,0.783333,jog,1.1908076323052983,0.7587903516140709,-0.05616224648984966,0.05087314571449618,-1.114280557573521,1.7076637109644413,4.024360974439012,1.8298331933277545,-0.5247809912396529,0.0064802592103682935,-0.027001080043199,-0.003480139205568404,6.85494838490369,-4.118729491768308,0.3168253455217489,3.4130730403885536,7.286982946980444,-12.284182714963295,-1.8145451607097987,0.07200576034604755,0.6912552993179266,-0.030179999999999985,-0.18349,-0.680235,-0.044943999999999984,-0.039269999999999985,-0.8287840000000001,0.014764,0.14422,0.14854900000000004,0.0,0.9533582372455598,single,-0.680235
95,0.791667,jog,1.2320614350851837,0.7180225581953393,-0.05543556515479601,0.38248145729807875,-0.4505171343830791,1.6342715179412426,4.1207103431725125,1.973002159827197,-0.574274058075351,0.023038156947447087,-0.014278857691385538,-0.013678905687544833,4.950060328759914,-4.891743870738096,0.0871947846236676,11.560999368070544,17.178901667799536,-5.938692924849739,1.9867887853466122,1.5265445586529116,-1.2237540775109612,-0.006106,-0.173031,-0.6845589999999999,-0.05501999999999996,-0.045373,-0.828436,0.04891399999999996,0.127658,0.14387700000000003,0.0,0.9493993051948562,single,-0.6845589999999999
96,0.8,jog,1.1382455298211906,0.7980319212768481,-0.08568342733709222,-0.5013296710180227,-0.1908116345519761,1.8875545857385374,4.136085443417719,1.9941197647905824,-0.6783871354854155,0.026761070442814387,-0.008760350414015293,-0.017520700828033083,-11.258358966037765,9.601507630086212,-3.6298886574218274,1.8450858328580861,2.5342139641648087,-12.494069051969765,0.44676749014367995,0.6622473631789538,-0.4610338582129166,0.018874999999999975,-0.163064,-0.6894979999999999,-0.064282,-0.05209599999999999,-0.8278679999999999,0.08315699999999998,0.11096800000000001,0.13837,0.0,0.9447260964698165,single,-0.6894979999999999
97,0.808333,jog,1.2911316452658246,0.7263890555622294,-0.05808232329292372,-0.07736164207925912,0.7218595333849187,1.1491875063030557,4.1312852514100955,1.9727589103564334,-0.7170286811472534,0.016920676827073506,-0.028681147245892134,-0.0012000480019200388,18.347067736065682,-8.597487785265725,3.3122649758992866,-0.5760460827581348,-2.5634050683006397,-4.637170966259236,-1.1808944696677033,-2.390591243474982,1.9585566814008393,0.04254199999999997,-0.15267799999999998,-0.6949890000000001,-0.07490000000000002,-0.05838800000000001,-0.8273940000000001,0.11744199999999999,0.09428999999999998,0.132405,0.0,0.944463284745992,single,-0.6949890000000001
98,0.816667,jog,1.2687784977201695,0.7781377489800746,0.11639068874488936,-0.33028672182309143,-0.24256147504805498,1.3495016638553903,4.175305975521929,2.103551715862714,-0.7775377969762343,-0.0010799136069091885,-0.041876649868008826,0.013318934485241078,-2.6821631324279966,6.209346462424378,20.9350866376064,5.282064328273697,15.693881150261529,-7.260513058432976,-2.159898060233088,-1.583333647962154,1.7421385273771306,0.06676500000000002,-0.14163199999999998,-0.7024389999999999,-0.08548299999999998,-0.06522199999999999,-0.828253,0.152248,0.07641,0.1258140000000001,0.0,0.9267384056694336,single,-0.7024389999999999
99,0.825,jog,1.319332773310945,0.7797911916476735,0.17820712828514138,-0.4485053299562948,-0.11888543893647649,1.0530247743893972,4.121444857794348,2.022560902436117,-0.7813512540501711,0.012240489619583813,-0.023880955238210315,0.017040681627265217,6.066755741122763,0.19842105695415105,7.418269475609334,-6.463592671016614,-9.719286382647045,-0.45763315419859735,1.5985123276722817,2.159569738365376,0.44662752214378665,0.090115,-0.131276,-0.710435,-0.09637499999999999,-0.071919,-0.829596,0.18649,0.05935699999999999,0.11916099999999996,0.0,0.9470190170507076,single,-0.710435
100,0.833333,jog,1.4291371654866138,0.8610344413776516,0.26485059402375494,-0.5487529294481179,-0.49119068974161556,1.123344358411543,4.179887195487802,2.1297251890075497,-0.859834393375732,0.01608064322572506,-0.024000960038402123,0.029161166446657765,13.177054143245936,9.749579950795363,10.39763179390534,7.013361057656754,12.860228797723796,-9.41835345320539,0.460836866211596,-0.014401152069099735,1.454516358981459,0.113037,-0.120704,-0.719807,-0.10815000000000002,-0.079294,-0.83156,0.22118700000000002,0.04141,0.11175299999999999,0.0,0.9315852761573514,single,-0.719807
101,0.841667,jog,1.3857691384689124,0.8246940244780351,0.3179745620350397,-0.9174504144523804,0.09755712571856738,0.6412751742042978,4.253899688024926,2.341972642188608,-0.7750179985601083,0.01835853131749617,-0.0007199424046083459,0.04979601631869438,-5.203746942368749,-4.360501187858922,6.37436621205716,8.88078864136347,25.467656969169244,10.17715320561831,0.27332470503612827,2.793498636164339,2.4759839059319004,0.13694,-0.10805899999999999,-0.728916,-0.11954600000000001,-0.086173,-0.8337950000000001,0.256486,0.02188599999999999,0.10487900000000006,0.0,0.911537873288855,single,-0.728916
102,0.85,jog,1.414016560662438,0.8826353054122246,0.37681507260289804,-1.036535848211258,0.25487681181103633,0.5893979072496812,4.247449897995959,2.425297011880498,-0.802952118084731,0.024000960038405773,-0.03204128165126508,0.06060242409696425,3.3898262562733548,6.953231841376457,7.06114371389162,-0.7740057637065495,9.99932433600035,-3.3522284320920335,0.6771185312504088,-3.7587110580411642,1.2968208062246451,0.160551,-0.09520399999999998,-0.7387469999999999,-0.13112899999999997,-0.09379499999999999,-0.83643,0.29168,0.0014089999999999936,0.09768300000000008,0.0,0.8789473987262704,single,-0.7387469999999999
103,0.858333,jog,1.4736589463578498,0.9246369854794158,0.33337333493340293,-1.3738324329849503,-0.07383077626317634,0.8147551635653473,4.2598103924156785,2.486019440777619,-0.766830673226925,0.02208088323532476,-0.033121324852993794,0.08088323532941254,7.157372578352521,5.040403224191889,-5.213217049021352,1.4833186631128628,7.28698294697238,4.3347467728076134,-0.23041843310704507,-0.1296103686221899,2.4337946996817714,0.183768,-0.08219300000000002,-0.747915,-0.14322500000000002,-0.101776,-0.838534,0.32699300000000003,0.01958299999999999,0.090619,0.0,0.8497531168577797,single,-0.747915
104,0.866667,jog,1.5447564194864494,0.7823374130069637,0.36753059755220246,-1.0897878896665354,1.476350165049246,0.10264436870543109,4.228821694264482,2.619150467962578,-0.6911447084233302,0.021238300935929835,-0.030597552195825134,0.11735061195104454,8.531014294288457,-17.07458273007594,4.098543630765506,-3.7183463104387307,15.974445306570626,9.081589249291484,-0.10110178778436864,0.3028284925808345,4.3757351357850025,0.206137,-0.066885,-0.756738,-0.15592199999999998,-0.10855100000000001,-0.840619,0.36205899999999996,0.041665999999999995,0.08388099999999998,0.0,0.794800627083574,single,-0.756738
105,0.875,jog,1.5331813272530848,0.8787951518060682,0.600264010560414,-1.4290452456003608,-0.8618068995739133,0.2456971492868066,4.125165006600247,2.71246849873994,-0.5805832233289301,0.007440297611898562,-0.02412096483859425,0.17304692187687504,-1.3890666306689747,11.57539167155935,27.92912672605431,-12.4393000917118,11.198611637748904,13.267908927685065,-1.6558266319490238,0.7772215717305719,6.683824544081395,0.227736,-0.05160499999999999,-0.766578,-0.16863600000000004,-0.11607500000000001,-0.844179,0.396372,0.06447000000000001,0.07760100000000003,0.0,0.7085361841384861,single,-0.766578
106,0.883333,jog,1.5556222248889893,0.9191167646705833,0.616944677787103,-1.255075730210991,-0.6358795397991569,0.2919502965689183,4.040561622464882,2.648865954638174,-0.6938677547101866,0.012720508820358821,-0.0034801392055683576,0.24120964838593417,2.6930154369260073,4.838787095225611,2.001760137608181,-10.152812208732193,-7.63261059663573,-13.594687553252852,0.6336506910428701,2.4769981558893326,8.179854375262073,0.24844299999999997,-0.037191,-0.777501,-0.181493,-0.12376300000000001,-0.84731,0.429936,0.08657200000000001,0.06980900000000001,0.0,0.5973834979233238,single,-0.777501
107,0.891667,jog,1.6012718982481489,0.9700023998080209,0.5844732421406404,-1.2257858861331095,-0.28776661201459686,0.3473549087496263,3.9215262778977906,2.8030957523398286,-0.582793376529881,0.02075833933285094,0.047396208303336775,0.3105351571874268,5.477522601291079,6.105787753472269,-3.8962605767293956,-14.283098700155,18.506095236579714,13.32785915290452,0.9644625044986997,6.104673327202474,8.3183955845324,0.26778,-0.021914,-0.7872290000000001,-0.194665,-0.131452,-0.849593,0.462445,0.109538,0.062363999999999975,0.0,0.5,flight,-0.7872290000000001
108,0.9,jog,1.5675027001079966,0.9620784831393215,0.6493459738389441,-1.3977632912758913,0.4711713742317664,0.10404526680481185,3.7915516620664684,2.8403936157446177,-0.4862594503780131,0.052802112084482676,0.09072362894515823,0.3764550582023266,-4.052465875453268,-0.9509080365653871,7.785039205364621,-15.597577802870713,4.475922645480496,11.584534519604878,3.8454065464576512,5.199498456956831,7.910704549969942,0.28631300000000004,-0.006262,-0.796692,-0.207287,-0.138713,-0.8518669999999999,0.49360000000000004,0.13245099999999999,0.055174999999999974,0.0,0.5,flight,-0.796692
109,0.908333,jog,1.7317892715708787,1.0145205808232423,0.6425057002280247,-0.7845023828059045,-0.10913863734057332,0.4693320245121651,3.678147125885067,2.825993039721615,-0.3566542661706504,0.1023640945637826,0.10608424336973526,0.4264970598823994,19.715177182633333,6.293303454208712,-0.8208656679370571,-13.609088705316525,-1.7281382482902858,15.553244234653055,5.947675804548228,1.843347464847855,6.005280412825301,0.302532,0.008833,-0.805018,-0.220865,-0.146283,-0.8536670000000001,0.523397,0.155116,0.04864900000000005,0.013510000000000133,0.5,flight,-0.805018
110,0.916667,jog,1.679985601151895,1.024118070554348,0.6978641708663172,-0.8187967060827469,-0.07780037136335709,0.2963130604751549,3.5914326853851435,2.948524118070532,-0.33813294936404675,0.12850971922245985,0.13882889368850282,0.4799616030717502,-6.2159431748240115,1.1516066392015447,6.642485077788836,-10.40490046795329,14.702553197614128,2.2223802263743084,3.1372239811227556,3.929043714754896,6.415231964164913,0.318462,0.024871,-0.8136519999999999,-0.23379500000000003,-0.15366100000000002,-0.855483,0.552257,0.17853200000000002,0.04183100000000006,0.08168999999999993,0.5,flight,-0.8136519999999999
111,0.925,jog,1.7607104284171298,1.0591623664946554,0.6235449417976667,-0.10316997531484196,-0.05319078124596634,0.31590767993714536,3.338053522140869,2.749909996399844,-0.19836793471738806,0.16080643225729055,0.17136685467418777,0.556702268090721,9.687366766498792,4.205483732186163,-8.918664234807418,-30.406715857947113,-23.834647986401894,16.772472656505233,3.875760594603452,3.904711506742448,9.209248172203347,0.33160599999999996,0.038959999999999995,-0.8205009999999999,-0.247127,-0.161059,-0.8560399999999999,0.5787329999999999,0.200019,0.03553899999999999,0.14460999999999996,0.5,flight,-0.8205009999999999
112,0.933333,jog,1.8012720508820512,1.0489619584783485,0.5683427337093624,0.2776754302063451,0.3192618496240053,0.3942492730713428,3.095403816152679,2.6139445577823355,-0.0960038401536081,0.20028801152046644,0.18348733949358173,0.5645025801032093,4.867589399366594,-1.2240979258738802,-6.624529951794653,-29.119129483762446,-16.31650529431296,12.284182714962306,4.7379790307423795,1.4545163589816472,0.9360748844939867,0.34239,0.052001000000000006,-0.826037,-0.260468,-0.168271,-0.856072,0.602858,0.220272,0.030035000000000034,0.19965000000000005,0.5,flight,-0.826037
113,0.941667,jog,1.8111351091912504,1.0538756899447967,0.6172306215502624,0.07090803664254199,0.5499082581265925,0.40309085415400236,2.815454763618887,2.4130069594432264,-0.02627789776817798,0.26049916006719004,0.21226301895848085,0.6347492200623913,1.1834723193183498,0.589600607925151,5.866077254727581,-33.591199008134105,-24.11058295405658,8.36644377074989,7.224759844819192,3.4528053113629587,8.428922481303273,0.35076,0.063328,-0.8313999999999999,-0.273391,-0.175285,-0.855926,0.624151,0.23861300000000002,0.024526000000000048,0.2547400000000001,0.5,flight,-0.8313999999999999
114,0.95,jog,1.8313932557302464,1.0606024240969734,0.581663266530672,0.22785131281564336,0.7727046054322024,0.31835175876086913,2.54434177367097,2.1650066002640305,-0.0076803072122879155,0.30817232689308033,0.2266890675627048,0.6751470058802405,2.4310748276726413,0.8072403878767165,-4.268253332484187,-32.534860188157865,-29.76123355084582,2.231800138712377,5.721008859461265,1.7311950803101017,4.847928215270552,0.356701,0.07253100000000001,-0.836311,-0.286084,-0.182234,-0.855147,0.6427849999999999,0.254765,0.018835999999999964,0.3116399999999999,0.5,flight,-0.836311
115,0.958333,jog,1.83847353894155,1.0313212528501094,0.537021480859233,0.25247606145779516,0.7394833339124859,0.5108263728563417,2.2474498979959066,1.9151566062642411,0.05256210248409842,0.3429737189487531,0.23748949957998322,0.7128285131405228,0.8496679720753255,-3.5138811048678495,-5.357228569715454,-35.628450219016244,-29.983198607918915,7.229378338699878,4.176334100044719,1.2961036862208548,4.521961749703845,0.36010899999999996,0.079896,-0.840348,-0.29854600000000003,-0.188849,-0.853682,0.658655,0.268745,0.013334000000000068,0.36666,0.5,flight,-0.840348
116,0.966667,jog,1.843892488600898,1.044636429085665,0.4848812095032314,0.2636983509601321,0.7426607488197062,0.3013353953746229,1.9362850971922114,1.6563474922006125,0.07739380849532058,0.35289176865850785,0.19594432445404164,0.6826253899687973,0.6502219413664423,1.5976933328000176,-6.2563320561556495,-37.33678915331087,-31.054609318889685,2.979566356038154,1.1900707595097988,-4.985022213335885,-3.6240848538187227,0.360879,0.08499400000000001,-0.8437439999999999,-0.31097199999999997,-0.19592199999999999,-0.852034,0.671851,0.280916,0.00829000000000002,0.4170999999999999,0.5,flight,-0.8437439999999999
117,0.975,jog,1.845913836553479,1.0771630865234714,0.4272170886835522,0.3943053957576662,0.6004033388393504,0.16895105936992375,1.6323052922117038,1.3741749669986911,0.025561022440896787,0.39229569182767265,0.22824912996519914,0.8261130445217886,0.24257145716801143,3.903355026737882,-6.919971297213456,-36.47903575909161,-33.86205750653114,-6.220183133856267,4.728659926696888,3.8767317306081592,17.219207314651698,0.359099,0.08746899999999999,-0.847091,-0.323085,-0.202996,-0.84871,0.682184,0.290465,0.001618999999999926,0.4838100000000001,0.5,flight,-0.847091
118,0.983333,jog,1.8444737789511503,1.0416416656666214,0.35617424696987376,0.2955813419257662,0.834068037158195,0.09464778719543172,1.3360134405376165,1.1192847713908511,-0.06600264010560335,0.437777511100447,0.27025081003240065,0.9659186367454659,-0.17281382483244767,-4.262741012462475,-8.525482024922372,-35.55644445866868,-30.588046994820463,-10.98807902874112,5.458036634198265,5.040403224193128,16.777342160527624,0.354862,0.088116,-0.850609,-0.33480699999999997,-0.209424,-0.843629,0.689669,0.29754,0.006979999999999986,0.5,0.4302,flight,-0.843629
119,0.991667,jog,1.8488120950324078,1.0583153347732253,0.29013678905688084,0.2909772656078269,0.6607466078260867,0.0398958589431523,1.041876649868016,0.8965682745380428,-0.1678665706743467,0.497240220782338,0.3486921046316305,1.1576673866090783,0.5205562852480909,2.0006802383734024,-7.923861040675942,-35.293591393040806,-26.723841714999956,-12.222693852741054,7.134954365477721,9.412202375717575,23.008009342886194,0.348137,0.086768,-0.854426,-0.346071,-0.21533800000000003,-0.836399,0.6942079999999999,0.302106,0.018027000000000015,0.5,0.31972999999999996,flight,-0.836399
120,1.0,jog,1.8360734429377095,1.0518420736829424,0.24300972038882107,0.442474518406203,0.4537193283506117,0.040916545486376264,0.7623904956198213,0.732869314772588,-0.2860914436577448,0.5774630985239365,0.35473418936757495,1.3052922116884618,-1.5286993993397724,-0.776822403730094,-5.655474459145514,-33.53968009698711,-19.644660958292825,-14.187552260098116,9.627130414208352,0.7250791714801932,17.715687637031422,0.33919,0.08411,-0.858835,-0.356559,-0.22114699999999998,-0.827547,0.695749,0.305257,0.03128799999999998,0.5,0.18712000000000006,flight,-0.827547
121,1.008333,jog,1.819992799712005,1.0624024960998537,0.14304572182887096,0.5678638890176733,0.2655523056213524,0.029561393018306716,0.5466218648746037,0.6273850954038231,-0.3829353174126999,0.686907476299059,0.5537021480859277,1.4252970118804882,-1.9297543772596566,1.2673013820846573,-11.996159673581067,-25.893271420283156,-12.658612668758646,-11.621729719783513,13.133850687042303,23.877110130607768,14.401152069126066,0.328579,0.08048500000000001,-0.863218,-0.366001,-0.225386,-0.816862,0.69458,0.305871,0.046356000000000064,0.5,0.03644000000000008,flight,-0.816862
122,1.016667,jog,1.8069354451643733,1.0669546436285013,0.06731461483081706,0.6702994155304632,0.27236542916090545,-0.07485580198706403,0.31689464842812387,0.5020398368130503,-0.513918886489078,0.7443004559635189,0.5859131269498393,1.3341732661386976,-1.5667572051393657,0.5462140063172063,-9.087005879296054,-27.565060768715878,-15.040227812667611,-15.716770947489453,6.8866066312046375,3.86500826300833,-10.933974771033107,0.316161,0.07577700000000001,-0.868062,-0.374857,-0.22939500000000002,-0.806304,0.691018,0.305172,0.06175799999999998,0.5,0.0,flight,-0.806304
123,1.025,jog,1.7826713068522912,1.0888035521420953,-0.015000600024006107,0.770095668899746,0.2645254423729533,-0.1250919952236079,0.15360614424576496,0.42949717988719927,-0.6019440777631152,0.9483979359174446,0.5972638905556288,1.296651866074656,-2.9118130699726743,2.6219739005873275,-9.878220911415328,-19.59540431805597,-8.705467049784197,-10.563445490704186,24.49267730156337,1.3621461185394892,-4.502748117609736,0.30258599999999997,0.07028300000000001,-0.872953,-0.381809,-0.233491,-0.795374,0.684395,0.303774,0.07757899999999995,0.5,0.0,flight,-0.795374
124,1.033333,jog,1.8419536781470922,1.1173646945877656,-0.08760350414016509,0.6357584489637368,-0.41310186101446245,0.45636366271634765,0.013800552022084451,0.36757470298811096,-0.6661466458658231,1.1086043441737505,0.8582743309732229,1.4020160806432012,7.1141691221408765,3.427474192448063,-8.712697001818999,-16.77734216052779,-7.430994467669174,-7.704616356979087,19.225538012276868,31.322505750340763,12.644211516685866,0.287352,0.06403499999999998,-0.8777739999999999,-0.38792,-0.23565000000000003,-0.782961,0.675272,0.299685,0.09481299999999993,0.5,0.0,flight,-0.782961
125,1.041667,jog,1.7387808975282313,1.1150707943364737,-0.20698344132469515,0.6387349952853633,-0.3791401519464886,-0.356161743670913,-0.13222942164626983,0.1813054955603601,-0.665226781857465,1.1991840652748011,0.9688024958003558,1.380489560835158,-12.379743294799962,-0.2752460104741876,-14.324446506423365,-17.52219506459768,-22.35051684998253,0.11037485101489104,10.868697036363372,13.2623187937527,-2.582975738906122,0.27175900000000003,0.056253,-0.8815930000000001,-0.39241699999999996,-0.236869,-0.769731,0.664176,0.293122,0.11186200000000002,0.5,0.0,flight,-0.769731
126,1.05,jog,1.6839073562942226,1.0472818912756308,-0.272770910836425,0.4324695896140137,-0.495466125341499,-0.5063240276963425,-0.13320532821312617,0.24432977319092455,-0.6737069482779194,1.38125525020998,1.1669266770670619,1.4294971798871712,-6.58508835161499,-8.134993767051695,-7.894812133892802,-0.117113472561661,7.563215844301374,-1.0176606768815928,21.84941616886783,23.775852786115756,5.881149532222773,0.256617,0.04956200000000002,-0.884934,-0.39493900000000004,-0.23587199999999997,-0.755546,0.651556,0.285434,0.12938799999999995,0.5,0.0,flight,-0.755546
127,1.058333,jog,1.6504260170406952,1.0528021120844933,-0.3604944197767952,0.5160964810820697,-0.8694368536159763,-0.753282714167441,0.012840513620541127,0.19380775231009148,-0.5424216968678792,1.4849393975759162,1.2037681507260398,1.388095523820965,-4.017921427280411,0.662452995183313,-10.527242162531019,17.52620206812296,-6.062885021100868,15.754860363619514,12.442595387727971,4.421153685224803,-4.968397463843352,0.242971,0.042404,-0.8864500000000001,-0.396318,-0.234614,-0.740975,0.639289,0.277018,0.14547500000000002,0.5,0.0,flight,-0.740975
128,1.066667,jog,1.602591792656576,0.9942404607631332,-0.4199664026877888,0.7393649799865173,-1.1006511943606423,-0.971299034173368,0.11183105351572316,0.15406767458603282,-0.41432685385168844,1.5849532037436915,1.3464122870170276,1.342812574993991,-5.73964775427392,-7.026836011682217,-7.13606706395406,11.877914554257412,-4.76842785265879,15.370151549818791,12.000696684398196,17.11592708075195,-5.433519177702613,0.23054700000000003,0.03540199999999999,-0.8864029999999999,-0.39646499999999996,-0.23167900000000002,-0.7262839999999999,0.627012,0.267081,0.160119,0.5,0.0,flight,-0.7262839999999999
129,1.075,jog,1.5727829113164677,0.956798271930887,-0.48481939277570735,0.582369451422818,-1.3555591225695776,-1.0341755831747375,0.21396855874234913,0.10152406096244103,-0.2607704308172352,1.7207488299532128,1.378255130205221,1.2769710788431667,-3.5772088491669933,-4.493242389565175,-7.782670117354993,12.256990906831502,-6.305485854265243,18.427507864449133,16.296126990222305,3.8212940343446187,-7.9012955899225785,0.219224,0.028274999999999995,-0.884536,-0.395232,-0.228167,-0.711603,0.614456,0.256442,0.172933,0.5,0.0,flight,-0.711603
130,1.083333,jog,1.5544221768870474,0.9143165726628889,-0.554062162486501,0.589738986414451,-1.3941746354943805,-1.13903762210083,0.3112924516980607,0.09828393135725094,-0.30793231729268616,1.9420376815072267,1.498379935197382,1.204608184327351,-2.2033762665810634,-5.098007832472976,-8.309464743884845,11.679334328058305,-0.3888311058670383,-5.659652763164541,26.55572441545782,14.41555322118792,-8.683894697685638,0.208865,0.021474999999999994,-0.882485,-0.39200199999999996,-0.2233,-0.6969479999999999,0.600867,0.244775,0.18553700000000006,0.5,0.0,flight,-0.6969479999999999
131,1.091667,jog,1.498080153587741,0.8962083033357506,-0.6153107751379899,0.6739684049110064,-1.635434174002084,-1.3518428534007665,0.3762898968082658,0.05051595872330366,-0.36597072234222006,2.118550515958764,1.597912167026668,1.1157907367410822,-6.760501955760433,-2.1728184937771315,-7.349245578532532,7.799069487665748,-5.731698180219365,-6.964051481825654,21.17984574652517,11.942912386523618,-10.657241131061982,0.19951600000000003,0.014426999999999995,-0.880407,-0.386831,-0.217452,-0.682521,0.586347,0.231879,0.197886,0.5,0.0,flight,-0.682521
132,1.1,jog,1.4735389415576379,0.891155646225832,-0.6579863194527684,0.8637427318004501,-1.984999045037699,-1.441671515095992,0.3009720388815512,0.0072002880115208745,-0.2889715588623495,2.29413176527057,1.6903876155045905,1.0014400576022855,-2.9450632461421753,-0.6063431069145034,-5.121270168580073,-9.038504491385247,-5.198088408950201,9.24026922835344,21.070592741126006,11.09749771725919,-13.72263040187144,0.18974500000000002,0.007061000000000012,-0.877332,-0.379993,-0.21079199999999998,-0.668693,0.5697380000000001,0.217853,0.20863900000000002,0.5,0.0,flight,-0.668693
133,1.108333,jog,1.4533781351254196,0.8813152526101146,-0.6829473178927221,0.9962956522753952,-2.139841289684115,-1.5103562720444554,0.048841953678146456,0.12744509780391422,-0.09600384015360644,2.2799711988479734,1.7331093243729907,0.9047161886475563,-2.4193935476081214,-1.1808944696648882,-2.995439630379686,-30.256820497228734,14.429954373262262,23.157052527150462,-1.6993359441493947,5.126810136613536,-11.607328567710315,0.178041,0.0007790000000000019,-0.872441,-0.373105,-0.20369400000000001,-0.655463,0.551146,0.20447300000000002,0.216978,0.7218886777765927,0.0,single,-0.655463
134,1.116667,jog,1.4626829853611574,0.876169906407481,-0.7440604751619828,1.0666172209067053,-2.0526429930254215,-1.522048309706136,-0.022918166546675698,0.1118310535157165,0.0011999040076789112,2.4018478521718087,1.802855771538263,0.8165346772258164,1.116492708871817,-0.6173921529437817,-7.332992232932593,-8.610525584931798,-1.8735354317491726,11.663516218056708,14.624028476582003,8.368904147500803,-10.580934895817043,0.16566000000000003,-0.005591000000000013,-0.86623,-0.365278,-0.195971,-0.6424570000000001,0.530938,0.19038,0.223773,0.809730697738385,0.0,single,-0.6424570000000001
135,1.125,jog,1.447617904716204,0.8925957038281613,-0.7218288731549319,1.0864137698630372,-2.4130871022282663,-1.3736727436702982,-0.028921156846279723,0.06876275051001986,-0.03528141125645006,2.705988239529606,2.1050042001680263,0.7061082443297797,-1.8078819926741154,1.971174537463151,2.6678989568044016,-0.720387651458548,-5.168403096807516,-4.377932949013477,36.49830641519261,36.25926180604417,-13.25170201560515,0.15335599999999996,-0.012456000000000023,-0.860509,-0.354792,-0.185868,-0.630558,0.5081479999999999,0.17341199999999998,0.22995100000000002,0.8624669014455357,0.0,single,-0.630558
136,1.133333,jog,1.419176767070693,0.9174366974679053,-0.7551902076083103,0.6064104670529663,-2.2031737494130956,-1.3519028549865222,-0.03204128165126175,0.011520460818434372,-0.027361094443778718,2.7340693627745356,2.012960518420755,0.5802232089283599,-3.4130730403829843,2.981038478308441,-4.003520275216455,-0.3744299537959985,-6.8693495369718,0.9504760365620324,3.369869584174952,-11.045683637018149,-15.106808520511336,0.14126300000000003,-0.020004999999999995,-0.854444,-0.343835,-0.176739,-0.61943,0.48509800000000003,0.156734,0.23501399999999995,0.9271990110627697,0.0,single,-0.61943
137,1.141667,jog,1.3908087353011676,0.8629709623230081,-0.7093832493400508,0.32922869245154296,-1.9910604013699398,-0.9343935269178579,-0.0027597792176619956,0.01727861771058365,-0.03755699544036458,2.853491720662326,2.0637149028077597,0.3906887449004094,-3.4038915010229407,-6.5353653881565705,5.496395280568657,3.513499212094976,0.6909235531736543,-1.2234102467705525,14.329536583608027,6.09003892332667,-22.742316298050042,0.12964900000000001,-0.027052999999999994,-0.848845,-0.331645,-0.166732,-0.610262,0.46129400000000004,0.139679,0.238583,0.930944971262319,0.0,single,-0.610262
138,1.15,jog,1.4104164166566808,0.8570742829713278,-0.6689067562702531,-0.16324076268922547,-1.5650681061527179,-1.228078977936643,0.012360494419772612,0.010200408016320954,-0.029401176047041577,2.9969998799952267,2.2004080163206736,0.28069122764910615,2.3530158832969463,-0.707629827394733,4.857373463314304,1.814505416708838,-0.8494191400771344,0.9787374766978374,17.221667986667725,16.40382977474081,-13.200230079359685,0.11799899999999997,-0.03411,-0.843516,-0.31842400000000004,-0.155538,-0.602349,0.436423,0.12142800000000001,0.24116700000000002,0.9441913164126817,0.0,single,-0.602349
139,1.158333,jog,1.384495379815164,0.9325573022920753,-0.5347413896555787,-1.0350575053988207,-0.6389853121488106,-0.7266511128603826,0.017400696027841556,0.010920436817470106,-0.029401176047041625,3.086403456138192,2.23184927397092,0.13848553942157305,-3.11064884693584,9.058324651475603,16.100488013281176,0.6048483869037388,0.08640691241439324,-5.828904035443388e-15,10.7288582914873,3.773101842103201,-17.06536520191175,0.10660700000000001,-0.04179000000000002,-0.839305,-0.30424199999999996,-0.144711,-0.596739,0.41084899999999996,0.10292099999999998,0.24256599999999995,0.9402210247967372,0.0,single,-0.596739
140,1.166667,jog,1.387089032877398,0.9398848092152781,-0.47204223662107847,-1.1197241597143286,0.09514001949974116,-0.8698176347894963,0.007319414446848381,0.000839932805376426,-0.024118070554356084,3.1091912646988833,2.2640988720902753,-0.02579793616510977,0.31121347039044434,0.8792304923449555,7.523296500420138,-1.2096570171578314,-1.2095637163539563,0.6339219453666477,2.7343182818204745,3.8696422029464532,-19.712440075196298,0.09510800000000003,-0.04961599999999999,-0.835572,-0.28989,-0.133675,-0.5930200000000001,0.384998,0.084059,0.24255199999999988,0.9579695665080654,0.0,single,-0.5930200000000001
141,1.175,jog,1.3937357494299545,0.9789991599663813,-0.4126965078603036,-1.3550879557325528,0.3320759200023063,-0.644811359606137,-0.004200168006721065,0.0044401776071053166,-0.02124084963398458,3.076443057722255,2.30541221648862,-0.22284891395655407,0.7976378918224453,4.69390984652617,7.121772322185747,-1.3824051906359347,0.4320466580737823,0.34528032165744077,-3.9299420348767464,4.957799639786865,-23.6470632175016,0.083459,-0.05773699999999998,-0.8323100000000001,-0.275868,-0.12262199999999998,-0.5914380000000001,0.359327,0.064885,0.24087199999999998,0.9631621314390543,0.0,single,-0.5914380000000001
142,1.183333,jog,1.403816152646117,0.9523580943237815,-0.3439337573503014,-1.3190678628777524,0.48060132038136955,-0.5962589696991386,-0.014040561622469076,0.01452058082323093,-0.013560542421697231,3.202208088323563,2.399015960638445,-0.40333613344534186,1.2096967738104691,-3.197055759342382,8.251860135605762,-1.1808944696685588,1.2096967738060367,0.9216737324237871,15.092407368451843,11.232898613923684,-21.659332711963213,0.07164399999999999,-0.065552,-0.829557,-0.260882,-0.110567,-0.591933,0.332526,0.045015,0.23762399999999995,0.9594526015052554,0.0,single,-0.591933
143,1.191667,jog,1.3764098872090138,0.8558915286776994,-0.24394048476122474,0.13095383186233764,0.4188782180731433,-0.5766555835520055,-0.02243820494360347,-0.0035997120230350688,-0.022318214542836244,3.5173986081113235,2.386369090472746,-0.5098392128629607,-3.2884887733504944,-11.575061872579962,11.998232852060944,-1.0076365876091107,-2.1742612006558506,-1.0508365876096648,37.81983678758799,-1.517503019642322,-12.779347182339581,0.059985999999999984,-0.07271499999999997,-0.82771,-0.243039,-0.09781199999999998,-0.5941489999999999,0.303025,0.025097000000000008,0.23356100000000002,0.9469137581089873,0.0,single,-0.5941489999999999
144,1.2,jog,1.43573742949719,1.0105604224169074,-0.22188887555502299,0.21891570227003368,-1.2235936446811424,-0.804054865850737,-0.014280571222846672,0.015120604824191574,0.005040201608064413,3.2619704788191823,2.3886955478219356,-0.7485899435977533,7.119589858175544,18.561009689092693,2.6462989567025024,0.9789552046990125,2.2465278827825292,3.283141263758659,-30.652601619121988,0.27918604934473806,-28.651233737524873,0.04790300000000003,-0.08101,-0.825819,-0.227821,-0.08632799999999999,-0.598538,0.275724,0.005317999999999989,0.22728099999999996,0.9643329035481465,0.0,single,-0.598538
145,1.208333,jog,1.371054842193666,0.9452778111124307,-0.23088923556940982,-1.0596763476912223,1.2385708914962326,-0.7312626522619025,-0.007920316812673628,0.02868114724588804,0.007920316812671963,3.374054962198431,2.4857794311772015,-0.8775951038041385,-7.762220965261374,-7.834226725606086,-1.080086405182609,0.7632610596631385,1.6273301838108998,0.34562764965888626,13.450676032550884,11.650532023912655,-15.481238474304925,0.036412,-0.08864800000000003,-0.823829,-0.21112999999999998,-0.07349100000000003,-0.6039270000000001,0.24754199999999998,0.015157000000000004,0.21990199999999993,0.9486820628021707,0.0,single,-0.6039270000000001
146,1.216667,jog,1.3785697144228757,0.9310055195584482,-0.10331173506119715,0.5795506263357904,-0.3517927918012516,-0.6111362327146702,-0.014038876889846468,0.02567794576434171,0.004799616030717439,3.2476601871850845,2.5455963522918665,-1.0883129349652227,0.9017125305027491,-1.7125379834392531,15.308075414952617,-0.7341684757826921,-0.360355349357618,-0.3744541375035497,-15.166159708825136,7.177456337252965,-25.28411700996979,0.024805999999999995,-0.09619299999999997,-0.822928,-0.19555300000000003,-0.06003499999999998,-0.612136,0.22035900000000003,0.036157999999999996,0.21079199999999998,0.9505731944901504,0.0,single,-0.612136
147,1.225,jog,1.340213608544313,1.006720268810739,0.09552382095282538,0.5272864705591798,0.6016691461498295,-0.5568546605918291,-0.017640705628225808,0.027961118444735287,0.0018000720028802186,3.3765750630024605,2.5834633385334986,-1.2661706468258513,-4.602916822100321,9.086133355608965,23.861221170529106,-0.4322367380750362,0.27399168131447715,-0.35995968172772924,15.47040391424141,4.544220117800484,-21.343779174442037,0.01349100000000003,-0.10434900000000003,-0.8237089999999999,-0.178584,-0.04689599999999999,-0.623483,0.19207500000000002,0.05745300000000003,0.2002259999999999,0.9448169989198116,0.0,single,-0.623483
148,1.233333,jog,1.3979359174367127,0.9651986079443227,-0.0022800912036471162,0.3683404027005799,1.3551481161274503,-0.8216737882531852,-0.0043201728069166365,0.03984159366374679,0.007920316812673005,3.568702748109959,2.626545061802495,-1.1633265330613307,6.926954145253839,-4.98279861591465,-11.73693893633426,1.5985278796723021,1.425714054843587,0.7344587555253622,23.05624446267853,5.1700135928233015,12.341787323235518,0.0018059999999999743,-0.11205999999999999,-0.8236239999999999,-0.160495,-0.03305199999999997,-0.6331579999999999,0.16230099999999997,0.07900800000000002,0.19046600000000002,0.9319161485706812,0.0,single,-0.6331579999999999
149,1.241667,jog,1.5015598752099748,1.0227981761459044,0.07715382769379113,0.9151295511260308,1.837307556138435,-0.8338212587506889,-0.008519318454522102,0.014158867290617482,-0.023998080153587384,3.803455723542088,2.689344852411782,-1.2759779217662495,12.433880222373562,6.911395272567951,9.53130776307147,-0.5038571691391208,-3.0816806303250677,-3.82990124385171,28.168103603566998,7.535372043350912,-13.517085277767926,-0.010779000000000039,-0.12046600000000002,-0.8244670000000001,-0.14131100000000002,-0.01916300000000004,-0.644435,0.13053199999999998,0.10130299999999998,0.18003200000000008,0.9514384651263963,0.0,single,-0.644435
150,1.25,jog,1.4822992919716893,1.090963638545547,0.323412936517464,-0.16807617420070278,-0.13826141018673846,-0.456468260005081,-0.021720868834751998,0.03612144485779413,0.036721468858753936,3.5815432617305034,2.790471618864783,-1.2688107524301087,-2.311362443092005,8.180182695264998,29.552275149847006,-1.5842494156042262,2.635614732650528,7.286637346974904,-26.630560639815993,12.135697402256362,0.8600947241258702,-0.023312,-0.12925599999999998,-0.826856,-0.12381799999999998,-0.005000999999999978,-0.657703,0.10050599999999998,0.124255,0.169153,0.9068301849563629,0.0,single,-0.657703
151,1.258333,jog,1.5633025321012997,1.1003240129605332,0.41497659906396167,0.9791918318202872,-0.6478619706043989,-0.7251631326351177,-0.005040201608062748,0.06504260170407052,0.04572182887315527,4.080883235329448,2.6219848793952005,-1.1977679107164416,9.720777646659197,1.1232898613928053,10.988079028740971,2.001760137608233,3.4706776486591444,1.0800864051843773,59.92319375962433,-20.2192175050503,8.52548202492112,-0.036381,-0.137883,-0.829933,-0.10283900000000001,0.007678999999999991,-0.671142,0.06645800000000002,0.145562,0.15879100000000002,0.8672258673934652,0.0,single,-0.671142
152,1.266667,jog,1.5415166786656946,1.262538996880237,0.5861531077513789,1.4846558937047911,0.6479657428127796,-0.03943215573596482,0.0026397888168906074,0.06407487401007618,0.03875689944804432,3.790016798656079,3.123230141588645,-1.330213582913355,-2.6140932848097975,19.46424093108982,20.539537879459548,0.9215251289840768,-0.11611803383661248,-0.8357246730394642,-34.901180306379544,60.14461989362141,-15.892209286886535,-0.04920600000000003,-0.147871,-0.834495,-0.08410000000000001,0.023185999999999984,-0.687113,0.03489399999999998,0.171057,0.147382,0.875114994903859,0.0,single,-0.687113
153,1.275,jog,1.596783871354867,1.2553702148086037,0.49885995439817643,0.6408138190366073,0.9900482435290433,-0.20793557721285058,0.006000240009599778,0.06168246729869425,0.06936277451098133,3.848193927757147,3.012360494419806,-1.343813752550116,6.632328415837376,-0.8602882601264084,-10.475597426281437,0.40327027393606163,-0.2871002893774096,3.6728519216293396,6.981534753518336,-13.304889855855045,-1.6320856398369183,-0.06246200000000002,-0.15781799999999999,-0.838074,-0.06533899999999998,0.037827,-0.702468,0.002876999999999963,0.19564499999999999,0.135606,0.8449738002421622,0.0,single,-0.702468
154,1.283333,jog,1.624264970598798,1.2578903156126013,0.4999399975998956,0.18603620534553997,1.0957592698174252,-0.14292901760400517,-0.0008400336013415484,0.07788311532461291,0.08304332173286764,3.8595943837752795,3.0007200288010996,-1.3660146405856,3.297863823824608,0.30242419344745314,0.1296103686210432,-0.8208656679396623,1.9441555293313786,1.6417313358797645,1.368109446553758,-1.396911750714793,-2.664213132783349,-0.07600400000000002,-0.16765099999999997,-0.841548,-0.04671200000000003,0.05235000000000001,-0.718017,0.029291999999999985,0.22000099999999997,0.12353099999999995,0.8102437338646487,0.0,single,-0.718017
155,1.291667,jog,1.6283897288217253,1.2502999760019484,0.5488360931125708,0.0675899184395015,1.2990246230427862,-0.09381228021433895,-0.009239260859130695,0.13750899928005786,0.14590832733381628,3.952363810895203,3.020158387329074,-1.311615070794361,0.49493139223991217,-0.9107678918470198,5.867062096553406,-1.0078266448031326,7.1545337119565735,7.543197216336673,11.131440739131905,2.332416430042579,6.527426180854329,-0.08965200000000001,-0.17692500000000003,-0.844906,-0.027344000000000035,0.06709999999999999,-0.733522,0.062307999999999975,0.24402500000000002,0.11138400000000004,0.6654882130893421,0.0,single,-0.733522
156,1.3,jog,1.5875435017400341,1.2982119284771156,0.7256690267610474,1.11615978737821,0.9674217649787663,0.20274530332530796,0.02628105124205219,0.09924396975878794,0.21768870754829767,4.011040441617595,3.1594863794551182,-1.2188887555502006,-4.901743319535636,5.74966428359131,21.22080086985162,4.26260795646013,-4.591987222041192,8.61399018534503,7.0414773457807796,16.72002785623926,11.127602933416393,-0.10266199999999992,-0.18691600000000003,-0.849139,-0.007148999999999961,0.08260999999999996,-0.749726,0.09551299999999996,0.269526,0.09941299999999997,0.5988612300867038,0.0,single,-0.749726
157,1.308333,jog,1.5996639865594846,1.2901716068642877,0.6807872314892705,0.7802786742534779,0.6891590001722281,0.1732489359591267,0.01944077763110488,0.08640345613824613,0.30781231249250307,4.0302412096484295,3.194047761910509,-1.163566542661715,1.4545163589884322,-0.9648771886269105,-5.386030873848235,-0.8208656679404024,-1.5409232713958871,10.815265203912904,2.304184331073362,4.147531795918792,6.638931103862487,-0.11582999999999999,-0.19694700000000004,-0.852247,0.013105000000000033,0.09847499999999998,-0.765095,0.12893500000000002,0.295422,0.08715200000000001,0.5,0.0,flight,-0.765095
158,1.316667,jog,1.6381089512838845,1.3610511159107157,0.7144228461723026,0.2556656314501209,0.956091998408994,0.3624217246721152,0.02879769618430053,0.0839932805375571,0.46532277417806217,4.055315574753985,3.336093112550973,-1.0103191744660363,4.613026724789963,8.504860696715562,4.035950885892951,1.1227404071508975,-0.2891979362477812,18.899743422793126,3.0086831180172084,17.044078550571474,18.388213126431193,-0.12924200000000002,-0.20759000000000002,-0.854323,0.03325,0.11493500000000001,-0.779469,0.16249200000000003,0.32252500000000006,0.07485400000000009,0.5,0.0,flight,-0.779469
159,1.325,jog,1.6932677307092385,1.4138965558622425,0.8123124924997104,0.8333114329932887,0.3726120181314882,0.09656713250954728,0.12144485779431442,0.06468258730349413,0.4615384615384652,4.01260050402019,3.3166926677067314,-1.0254410176407147,6.6193183037747,6.341706462441771,11.747227448386981,11.118104117366464,-2.317375883122902,-0.45413568217893113,-5.126013528596603,-2.3281465071692913,-1.8146937687121805,-0.14233999999999997,-0.21883299999999997,-0.8572460000000001,0.052576999999999985,0.130791,-0.794783,0.19491699999999995,0.34962399999999993,0.062463000000000046,0.5,0.0,flight,-0.794783
160,1.333333,jog,1.6114244569782503,1.4359774390975426,0.6361454458178216,-1.4732678748049244,-0.42790629820968934,0.5865945547743514,0.15300612024481025,0.10140405616224288,0.5131405256210161,4.0453618144725105,3.3518540741629126,-0.9876395055802061,-9.82158571114686,2.6498119807151954,-21.14089123747578,3.7875029941792,4.406752533151098,6.19249538972159,3.9315145148589923,4.219537556243915,4.536362901777028,-0.15449299999999994,-0.22995400000000002,-0.858271,0.07285900000000001,0.146756,-0.8083140000000001,0.22735199999999994,0.37671,0.04995699999999992,0.5,0.00042999999999998595,flight,-0.8083140000000001
161,1.341667,jog,1.6592272618190935,1.3837293016558923,0.641828653707708,-0.3439415028386439,1.4910977430721999,-0.2766929415054092,0.20710343172545986,0.2248620110391229,0.6807055435565281,4.0560355171587075,3.4058075353972286,-0.8326133909287416,5.735877710684439,-6.269274951002082,0.6819303923549938,6.491158085031274,14.81376948366719,20.106193656769285,1.2807418629946175,6.473897436323136,18.601645626525965,-0.16659500000000005,-0.239612,-0.857947,0.09283399999999997,0.16360799999999998,-0.8206019999999999,0.259429,0.40321999999999997,0.03734500000000007,0.5,0.12655,flight,-0.8206019999999999
162,1.35,jog,1.7117484699387608,1.5702628105123946,0.4107764310572429,-4.350622361762038,2.798813642582273,0.1307560066040607,0.25993039721588423,0.14280571222848623,0.5472218888755465,3.9905196207847586,3.424816992679645,-0.697347893915744,6.302797086243418,22.384916459438266,-27.727375813087857,6.339489438428351,-9.847149743265959,-16.018679308889876,-7.862222053755873,2.281226122934849,16.232508941917107,-0.178693,-0.25150700000000004,-0.8568100000000001,0.111823,0.17906199999999994,-0.829836,0.290516,0.430569,0.026974000000000053,0.5,0.23026000000000002,flight,-0.829836
163,1.358333,jog,1.652106084243395,1.6913476539061711,0.35869434777390324,-4.5709448298368915,3.822438118493444,0.5103916104919511,0.31825273010921246,0.1412456498259957,0.6023040921636915,4.031681267250735,3.5321012840513997,-0.4522980919236821,-7.1573725783471005,14.53076243775083,-6.250099998000733,6.998959905595674,-0.18721497689794264,6.610128799729456,4.939595159723618,12.87462994980867,29.407152525148707,-0.18980800000000003,-0.264424,-0.85478,0.131652,0.194401,-0.836594,0.32146,0.458825,0.018186000000000035,0.5,0.3181400000000001,flight,-0.836594
164,1.366667,jog,1.5867530597551958,1.6819054475641821,0.44636429085673485,-2.1097604789665336,0.19686243164245423,-0.012696490816966978,0.40388768898487576,0.2391408687304991,0.7134629229661564,3.817614590832699,3.4493640508758996,-0.3204943604511606,-7.84173559973587,-1.1329741231088228,10.519551605811246,10.275373035236699,11.746486549616352,13.337992656883138,-25.68594629446058,-9.927673767158561,15.815182562097492,-0.19966599999999995,-0.276448,-0.852554,0.15024400000000004,0.20913099999999996,-0.842985,0.34991,0.485579,0.00956900000000005,0.5,0.40430999999999995,flight,-0.842985
165,1.375,jog,1.5905436217448963,1.613584543381745,0.7056282251290111,1.456575607854333,-2.1415187039944494,0.059038846864797156,0.4082563302532158,0.2586103444137777,0.7901116044641866,3.7013080523221213,3.3319332773311285,-0.09492379695187894,0.4548856341894334,-8.198836455350738,31.112916629338613,0.5242579225177083,2.3364305392150237,9.19820970815203,-13.957342914986052,-14.09225651563328,27.069550401930123,-0.20951800000000004,-0.28773899999999997,-0.85185,0.1678329999999999,0.22345000000000004,-0.849656,0.37735099999999994,0.511189,0.0021940000000000293,0.5,0.47806,flight,-0.849656
166,1.383333,jog,1.6009840393615815,1.5889835593423953,0.6015840633625321,-1.043452580630326,0.2980396333754725,0.26531357199662214,0.4005760230409262,0.25729029161166767,0.8303132125285081,3.457578303132164,3.196807872314918,0.06384255370214757,1.2529002300114405,-2.9522361741689624,-12.485798843931354,-0.921673732424054,-0.15841267276011917,4.82438594315635,-29.248739852389235,-16.21569722983463,19.052724187450853,-0.21952099999999997,-0.298836,-0.8499439999999999,0.18330400000000002,0.23684799999999995,-0.8541369999999999,0.402825,0.5356839999999999,0.004193000000000002,0.45807,0.5,flight,-0.8499439999999999
167,1.391667,jog,1.6250299976001763,1.5979121670266285,0.5392368610511249,-0.663332140632094,0.2108807707183328,0.25368445757391106,0.4509239260859077,0.286057115430763,0.9204463642908494,3.1528677705783257,3.1304295656347287,0.24646028317734398,2.885284165898081,1.0713472143308298,-7.481065792105442,6.041265064192597,3.451742718873905,10.815113002440674,-36.56233891934678,-7.964759620852959,21.912374547059635,-0.22930599999999995,-0.30976900000000007,-0.846767,0.19603700000000002,0.24961999999999995,-0.856577,0.42534299999999997,0.559389,0.009809999999999985,0.40190000000000003,0.5,flight,-0.846767
168,1.4,jog,1.629425177007106,1.580103204128171,0.5186607464298544,-0.24218814830133883,-0.04706051122496444,0.38242229184062904,0.5138605544221826,0.33793351734069493,1.0812432497299995,2.821552862114508,2.843633745349846,0.35857434297372276,0.5274426265366283,-2.137161034256285,-2.4692325238534383,7.552697508253386,6.225417245881723,19.29639810862254,-39.759379390834134,-34.41687510919062,13.45422534457936,-0.23860200000000004,-0.32011999999999996,-0.842079,0.2059709999999999,0.2601490000000001,-0.857911,0.44457299999999994,0.580269,0.015831999999999957,0.34168,0.5,flight,-0.842079
169,1.408333,jog,1.611664466578628,1.5779431177246905,0.4155766230649146,-0.3921050669148759,1.1140756008678703,0.46166195745241334,0.6284651386055322,0.44137765510619825,1.1113644545781642,2.628105124204926,2.6241449657985823,0.4135365414616518,-2.1313705062375776,-0.2592207372471492,-12.370589627377651,13.753100226010755,12.413793083583524,3.6146891693464767,-23.214657135434827,-26.339707134436555,6.595727647657276,-0.246795,-0.3295910000000001,-0.8362809999999999,0.214441,0.26886699999999997,-0.857928,0.461236,0.598458,0.021647000000000083,0.28353,0.5,flight,-0.8362809999999999
170,1.416667,jog,1.651667866570709,1.576913846892277,0.21934245260380208,-1.2669453134322388,-0.00816142100594268,0.44309785677796104,0.6784257259419366,0.4834413246940342,1.1910247180225813,2.415526757859418,2.435925125989969,0.4154067674586103,4.800023997130044,-0.12350261968005437,-23.54621675799331,5.994790897096875,5.047236571614683,9.558466935975344,-25.507363372391637,-22.584574011113155,0.2244091669016744,-0.254906,-0.338704,-0.828183,0.22080699999999998,0.276026,-0.856294,0.475713,0.61473,0.028110999999999997,0.21888999999999992,0.5,flight,-0.828183
171,1.425,jog,1.6049441977678822,1.5705028201127722,0.17592703708147625,-1.1529123821723561,0.7931157146734116,0.6325088785459186,0.713908556342239,0.5702628105124112,1.2746909876394823,2.156966278651114,2.0873634945397477,0.387975519020754,-5.607064538920668,-0.7693539877000681,-5.210058265009609,4.258109972435114,10.41899505800738,10.040353968186677,-31.028498644941767,-41.82906893678327,-3.291881487802214,-0.26233100000000004,-0.347039,-0.819027,0.22540700000000002,0.28033300000000005,-0.854527,0.48773800000000006,0.627372,0.03550000000000009,0.14499999999999996,0.5,flight,-0.819027
172,1.433333,jog,1.713548541941685,1.4648985959438472,0.33913356534261624,-0.14334621735552808,-0.6504552724659867,0.4838049828742908,0.8283931357254424,0.5399015960638445,1.1729269170766943,1.8736349453978316,1.8219128765150674,0.2136085443417761,13.033042622561346,-12.67301382082395,19.58556681400954,13.738699073947483,-3.6434914734869843,-12.21217695461286,-34.0011200351956,-31.855348376897002,-20.924873956435796,-0.2697069999999999,-0.354747,-0.812079,0.22674100000000008,0.283308,-0.855573,0.496448,0.638055,0.04349400000000003,0.06505999999999995,0.5,flight,-0.812079
173,1.441667,jog,1.5682745380369483,1.5122390208783218,-0.037556995440365414,-0.49652462877858883,-0.3967398053884024,0.8963928850182079,0.969642428605698,0.6997840172786128,1.3623710103191644,1.756059515238762,1.4712023038156927,0.10583153347732027,-17.43148594969229,5.680396560412082,-45.19925135384914,16.94855926088968,19.184355797308275,22.73147267128254,-14.107922985249434,-42.0819021717509,-12.932206727196425,-0.274696,-0.361518,-0.800412,0.228306,0.28296600000000005,-0.854378,0.503002,0.6444840000000001,0.05396599999999996,0.0,0.5,flight,-0.800412
174,1.45,jog,1.6181447257890524,1.504740189607594,0.10284411376455112,2.0649934547158564,-1.4756099427075886,0.8667494718484636,1.1464058562342638,0.8219128765150674,1.4200168006720377,1.4616584663386631,1.2834513380535217,-0.17076683067322773,5.984661916729224,-0.8998957483172785,16.848807056872413,21.21245981382064,14.656049350348695,6.91777155320699,-35.32953904957416,-22.53101713214601,-33.193131423322995,-0.278627,-0.367208,-0.789436,0.22700199999999993,0.281122,-0.856658,0.5056289999999999,0.64833,0.067222,0.0,0.5,flight,-0.789436
175,1.458333,jog,1.5409816392655427,1.4705388215528348,-0.1665666626664971,0.1327552551355451,-0.07437001599038884,0.9038697896165279,1.3460938437537238,0.990159606384239,1.3690147605903997,1.3256930277210892,1.0500420016800531,-0.38005520220808203,-9.25994078045223,-4.104328339704628,-32.33058639518103,23.96351704301649,20.190415200908284,-6.120489629381628,-16.316505294320358,-28.01024077444672,-25.115609208550417,-0.28025100000000003,-0.37121099999999996,-0.77664,0.22520799999999996,0.27761800000000003,-0.858437,0.505459,0.648829,0.08179700000000001,0.0,0.5,flight,-0.77664
176,1.466667,jog,1.5551955843532814,1.4409647228222073,-0.2792176625870078,0.48681484406499376,-0.40785221186310083,0.9435120808570578,1.4786417086633385,1.032157427405827,1.2802975761939304,1.1741060715143063,0.8527717782577525,-0.5595152387809083,1.7055369675712786,-3.5486079590386375,-13.51703862737135,15.904471431439562,5.039335375760581,-10.645210510735668,-18.188979626444173,-23.67053316802308,-21.53348171020274,-0.280889,-0.374618,-0.763643,0.222032,0.27271599999999996,-0.860773,0.502921,0.647334,0.09713000000000005,0.0,0.5,flight,-0.763643
177,1.475,jog,1.5495019800791803,1.4424576983079107,-0.41833673346933015,0.9077881928375687,-1.78480891639733,0.87872294156123,1.5931837273490672,1.2004080163206299,1.1576863074522765,0.9438377535101252,0.6013440537621518,-0.7401896075842895,-0.6832598432858574,0.17916422485339586,-16.694956304130553,13.745592065969838,20.190878304908196,-14.713940806630468,-27.63330349264096,-30.17253384082519,-21.681791528066498,-0.280525,-0.37663500000000005,-0.75051,0.21698499999999998,0.265707,-0.863455,0.49751,0.6423420000000001,0.11294499999999996,0.0,0.5,flight,-0.75051
178,1.483333,jog,1.5369014760590447,1.4596183847353936,-0.510860434417376,1.2004304203722722,-1.9618643273676768,1.086633364396607,1.6897875915036769,1.2977319092763884,1.0426017040681723,1.021720868834752,0.45589823592944095,-1.0159606384255464,-1.5121209672549727,2.0593647458878044,-11.103288245295422,11.59292741564989,11.679334328064249,-13.810704834286001,9.346347692863025,-17.454196307777774,-33.09384745484932,-0.2792509999999999,-0.37798399999999993,-0.737565,0.212692,0.2573430000000001,-0.867664,0.4919429999999999,0.635327,0.13009899999999996,0.0,0.5,flight,-0.737565
179,1.491667,jog,1.5038396928245645,1.4006479481641416,-0.60955123590112,1.1686017732335972,-1.0618313930867782,0.9291493740001562,1.862371010319161,1.4163666906647339,0.9886009119270378,0.7210223182145558,0.14998800095991888,-0.9040076793856421,-3.967096620407957,-7.075886317644775,-11.841948822143417,20.708353589570784,14.235034963804246,-6.479576690800828,-36.080939599255345,-36.70629169300693,13.433280422354628,-0.2762629999999999,-0.377853,-0.7242460000000001,0.20616800000000013,0.24692000000000003,-0.8701180000000001,0.48243100000000005,0.624773,0.145872,0.0,0.5,flight,-0.7242460000000001
180,1.5,jog,1.449417976719086,1.4039361574463125,-0.7044281771270966,1.8728474187782622,-1.4240347102798125,1.3668348626814197,1.9327973118924877,1.533901356054258,0.8552742109684492,0.37777511100443506,0.004440177607098773,-0.9433577343093819,-6.5308671673441765,0.39460089789642555,-11.385688374652277,8.451494248569215,14.104724035704457,-15.999844108795125,-41.191312517715566,-17.466437459836964,-4.722195478667963,-0.272235,-0.37677,-0.711249,0.19723800000000002,0.23525799999999997,-0.872109,0.46947300000000003,0.612028,0.16086,0.0,0.5,flight,-0.711249
181,1.508333,jog,1.3625345013800647,1.380535221408864,-0.7518300732029308,1.3922938259062971,-0.7550402433418457,1.3201972584085726,2.1672866914676745,1.6495859834393503,0.771270850834039,0.24984999399975236,0.05052202088083626,-0.6745469818792806,-10.426434098046572,-2.8082246534799884,-5.6884550673028516,28.139851143068395,13.882710594634979,-10.080806448387255,-15.351628105686292,5.530042394544331,32.258580634837834,-0.265529,-0.37452799999999997,-0.6985570000000001,0.18796599999999997,0.224175,-0.871465,0.453495,0.598703,0.17290799999999995,0.0,0.5,flight,-0.6985570000000001
182,1.516667,jog,1.397288216942636,1.305615550755933,-0.9824814014878835,0.805843105985531,0.16486828478337598,0.8942133859265422,2.297816174706006,1.754019678425715,0.616270698344128,0.27489800815935034,0.07547396208303166,-0.2922966162706962,4.170112258527833,-8.989641307047078,-27.67594531856863,15.66228500579922,12.53104091509046,-18.598530416355878,3.0055212574511385,2.9939934247894415,45.86637456306474,-0.25802400000000003,-0.370791,-0.685233,0.178612,0.21392299999999997,-0.865713,0.436636,0.584714,0.18047999999999997,0.0,0.5,flight,-0.685233
183,1.525,jog,1.2560902436097563,1.1952478099124038,-0.7127085083403302,2.604740190621901,-1.290271514175576,1.71960528865055,2.5005400216008864,1.8521540861634638,0.5273010920436877,0.25429017160686446,0.2089283571342864,-0.14616584663386714,-16.944434577328806,-13.244658687571139,32.37404213939227,24.32783474077548,11.77659999252967,-10.676779827246019,-2.473039307870643,16.01516801287123,17.536393812172133,-0.24765400000000004,-0.36531699999999995,-0.6749,0.17026399999999997,0.205704,-0.8609920000000001,0.417918,0.571021,0.18609200000000004,0.0,0.5,flight,-0.6749
184,1.533333,jog,1.1879275171006622,1.0327613104524003,-0.6044641785671404,5.508415129625832,0.793359224104814,2.453197870840392,2.697347893915719,2.1006840273610567,0.4048961958478254,0.3372134885395332,0.0616824672986926,-0.1988479539181531,-8.179854375266153,-19.49915990159614,12.989839166349197,23.617889393355227,29.82478593514804,-14.689175110507641,9.951196079763266,-17.670213588814498,-6.322105758344539,-0.23507599999999995,-0.35641799999999996,-0.666489,0.16317499999999996,0.197612,-0.8576119999999999,0.3982509999999999,0.55403,0.19112299999999993,0.0,0.5,flight,-0.666489
185,1.541667,jog,1.2711783057355643,1.293976481881476,-0.8758099352051936,0.5558454740321711,-1.887025461938465,1.40620381687747,2.7350611951044415,2.0977921766259064,0.22726181905448078,0.2814974802015843,0.0217182625389957,-0.194864410847136,9.989295492549038,31.343313106441176,-32.55888608568014,4.525234123916874,-0.34699432867174923,-21.314420061596827,-6.685386169660419,-4.795320945488081,0.47798692956769745,-0.22287599999999996,-0.349719,-0.657296,0.15492699999999993,0.18700899999999998,-0.851937,0.3778029999999999,0.536728,0.19464100000000006,0.0,0.5,flight,-0.657296
186,1.55,jog,1.2379695187807287,1.1087243489739391,-0.7657506300251974,3.569571917296055,-1.1553922519662518,2.333283941739764,2.9174366974678443,2.2341293651745673,0.05832233289331309,0.20508820352815946,-0.038881555262208725,-0.04308172326892979,-3.9852138431339332,-22.231145194711832,13.207644927396407,21.885935721036798,16.361117070521836,-20.27354928131102,-9.169479980010024,-7.272269026905479,18.21465109542824,-0.20888099999999998,-0.340341,-0.6504289999999999,0.14632000000000012,0.177446,-0.845915,0.3552010000000001,0.517787,0.19548600000000005,0.0,0.6447654083182159,single,-0.6504289999999999
187,1.558333,jog,1.2946117844713931,1.1354854194167836,-0.6843873754950144,1.3381948721094938,0.3032273146891204,2.01142678245934,2.9507980319213005,2.3457338293532,-0.03480139205568071,0.08724348973958104,-0.046201848073919624,-0.0477619104764198,6.79734377663086,3.211456911417824,9.763981102866165,4.003520275225794,13.393071424293016,-11.175294005639582,-14.141931331882814,-0.8784702762163645,-0.5616449306960338,-0.19508000000000003,-0.33025599999999994,-0.645016,0.13625900000000002,0.16759900000000005,-0.8406100000000001,0.33133900000000005,0.497855,0.19559400000000005,0.0,0.8172187299914072,single,-0.645016
188,1.566667,jog,1.2591792656587382,1.1289896808255255,-0.5803935685145254,0.2705587830370216,1.021268054614469,2.308406758513805,3.006839452843756,2.3804895608351146,-0.20074394048476063,0.06539476841852815,-0.028557715382764418,0.0005999520038402883,-4.25156213254796,-0.7794262768488147,12.478258576972426,6.72443255609013,4.170354149497771,-19.9115128904582,-2.621636827580121,2.1171265528143834,5.802959260890295,-0.18051499999999998,-0.31982599999999994,-0.641852,0.12631000000000003,0.1579520000000001,-0.835768,0.306825,0.47777800000000004,0.19391599999999998,0.0,0.881065158048586,single,-0.641852
189,1.575,jog,1.2181687267490837,1.35005400216011,-0.48517940717628044,-0.05667546639106272,0.12863573810738604,1.9839717507034202,3.1442457698308255,2.4593783751350293,-0.40597623904956537,0.07740309612384647,-0.04704188167527452,-0.003600144005760533,-4.921461527619684,26.528779711338828,11.426156406845772,16.489417615153084,9.467036397445746,-24.628860982216082,1.4410569669168878,-2.218188682648538,-0.5040316824194,-0.16446499999999997,-0.310582,-0.641192,0.11680400000000002,0.14630999999999994,-0.831755,0.281269,0.45689199999999996,0.19056300000000004,0.0,0.8489192732531328,single,-0.641192
190,1.583333,jog,1.202928117124668,1.2595703828152844,-0.31633265330613664,-0.06721032975134741,1.4026686410097882,1.425654645352559,3.1750870034800815,2.646825873034871,-0.507620304812185,0.057482299291958215,-0.017520700828030353,-0.03288131525260994,-1.8289463127823702,-10.858468660125277,20.26242096125535,3.7010960817539327,22.494599531961864,-12.197775802546245,-2.3905912434762873,3.542683409005598,-3.513881104866062,-0.14803100000000002,-0.299022,-0.642786,0.10725899999999988,0.135668,-0.8293929999999999,0.2552899999999999,0.43469,0.18660699999999997,0.0,0.8858318664067828,single,-0.642786
191,1.591667,jog,1.1714662826974025,1.3143748500120263,-0.25989920806336003,-0.43170651992111553,0.6946837494781614,1.0125953155364025,3.375089992800632,2.680705543556573,-0.6345092392608697,0.012838972882179181,0.002399808015361217,-0.022558195344372128,-3.775118121822182,6.576009982810517,6.771471711396409,23.998438843359033,4.065235243784859,-15.225454097514646,-5.356770627523384,2.3902698396198643,1.238675294964964,-0.12966600000000006,-0.287635,-0.6459079999999999,0.097603,0.12473400000000001,-0.827415,0.22726900000000005,0.412369,0.18150700000000008,0.0,0.9565555757197652,single,-0.6459079999999999
192,1.6,jog,1.1330853234129108,1.2856114244569525,-0.10788431537261099,-0.5526167929744744,0.4060677204877243,0.7387502659331732,3.4072962918516145,2.7022680907235728,-0.7898715948637812,0.018360734429385225,0.006120244809795074,-0.006240249609984702,-4.605899350112928,-3.4517491365742488,18.242516823562507,3.864910482537146,2.587609164406479,-18.64422844148672,0.662637891180361,0.4464702741430208,1.9582318173991529,-0.11071500000000001,-0.27583,-0.651591,0.08831400000000011,0.11407200000000006,-0.826568,0.19902900000000012,0.3899020000000001,0.17497699999999994,0.0,0.966108232705946,single,-0.651591
193,1.608333,jog,1.122764910596438,1.2344893795751999,-0.1088443537741509,-0.027372789257002737,-0.33745621188249125,0.18040475607829787,3.4167766710668803,2.7745109804392465,-0.8415936637465565,0.0369614784591357,0.024840993639740683,-0.02376095043801735,-1.2384990779398757,-6.134890781441632,-0.11520921655345225,1.1376910134724438,8.66949354562275,-6.206896541794765,2.232178570712906,2.2465797227824047,-2.1025682020920207,-0.09159899999999999,-0.26299700000000004,-0.657697,0.07926600000000006,0.10399199999999997,-0.825859,0.17086500000000004,0.366989,0.16816200000000003,0.0,0.915873629768255,single,-0.657697
194,1.616667,jog,1.1167506599471901,1.2152627789776622,0.20950323974082216,3.0251983971898255,-1.7920508403395705,0.045437939947608336,3.505519558435297,2.7969762419006328,-0.9440844732421351,0.03791696664266625,0.0052795776337945365,-0.011279097672186595,-0.7216523457220686,-2.307007511103614,38.198655329370126,10.64829462064029,2.695615726108244,-12.29791330640482,0.11464941007085937,-2.347182146141828,1.4977025156984234,-0.07169099999999995,-0.2498149999999999,-0.667311,0.07027500000000009,0.0939080000000001,-0.827699,0.14196600000000004,0.343723,0.16038799999999998,0.0,0.9334837458529652,single,-0.667311
195,1.625,jog,1.0699627985119544,1.036961478459149,0.08652346093843492,1.0281451748187218,0.1129062758545102,0.5305854114391098,3.5816632665306987,2.9207968318733015,-1.0706828273131006,0.011040441617662525,0.00012000480018213638,0.0010800432017283265,-5.614767962946856,-21.397011942699493,-14.758163782837917,9.137610475867298,14.85906515932676,-15.1924101849234,-3.225312015481096,-0.6191735069737726,1.4831562311190487,-0.050760999999999945,-0.2341169999999999,-0.676954,0.06145100000000003,0.08526800000000001,-0.828411,0.11221199999999998,0.3193849999999999,0.15145700000000006,0.0,0.9815103448155251,single,-0.676954
196,1.633333,jog,1.193087723508952,1.0873634945397899,0.13560542421696564,0.6802671770556828,-0.115846242250244,0.6613747899292491,3.621024840993664,3.027001080043219,-1.144725789031574,0.00900036001440633,-0.0022800912036471162,0.003960158406336086,14.775582022920773,6.048483869031722,5.890071196271591,4.723577878671011,12.74501958117346,-8.885510826649963,-0.2448195851741527,-0.2880230413811682,0.34562764965892073,-0.03052900000000003,-0.21795399999999998,-0.687623,0.051584000000000074,0.07618800000000003,-0.8295079999999999,0.0821130000000001,0.294142,0.14188499999999993,0.0,0.9831767232276603,single,-0.687623
197,1.641667,jog,1.075713942884561,1.213462922966158,0.22606191504680748,0.727327363322892,-0.7300101361057196,-0.12280370225898143,3.6352291816654376,3.0419966402687604,-1.2159827213822774,0.044276457883349996,0.002399808015361153,0.021838252939764845,-14.08372697676868,15.13072095348778,10.853910586733999,1.7043845298504532,1.799323281202456,-8.55014787025471,4.232793120823541,0.5615429828423607,2.145199728033192,-0.00919800000000004,-0.20271499999999998,-0.6996410000000001,0.042987999999999915,0.06609500000000001,-0.83121,0.052185999999999955,0.26881,0.13156899999999994,0.0,0.9176209119600158,single,-0.6996410000000001
