frame_id,timestamp,gait_type,root_linear_velocity_x,root_linear_velocity_y,root_linear_velocity_z,root_angular_velocity_x,root_angular_velocity_y,root_angular_velocity_z,left_linear_velocity_x,left_linear_velocity_y,left_linear_velocity_z,right_linear_velocity_x,right_linear_velocity_y,right_linear_velocity_z,root_acceleration_x,root_acceleration_y,root_acceleration_z,left_acceleration_x,left_acceleration_y,left_acceleration_z,right_acceleration_x,right_acceleration_y,right_acceleration_z,left_pos_rel_x,left_pos_rel_y,left_pos_rel_z,right_pos_rel_x,right_pos_rel_y,right_pos_rel_z,step_length,step_width,step_height,left_contact_prob,right_contact_prob,support_type,max_foot_height
1,0.008333,quasi,-0.07344293771751553,0.05244209768390984,0.009000360014392923,-0.05508620590401011,0.06549197680758201,0.013551003961876786,0.0003600144005730523,0.0009600384015370216,-0.00036001440057638307,-0.0013200528021100738,0.0009600384015370216,0.0019200768030719613,0.0,0.0,0.0,0.0,0.0,0.0,0.0,0.0,0.0,0.18738100000000002,-0.07705099999999998,-0.908535,-0.10173199999999993,0.087729,-0.9031319999999999,0.28911299999999995,0.16477999999999998,0.005403000000000047,0.9981888505263936,0.941769831993281,double,-0.9031319999999999
2,0.016667,quasi,-0.04583633309333842,0.05519558435325365,-0.0007199424046016905,-0.1495443222632316,0.12908258209298779,-0.045539382723558855,-0.00023998080154277791,0.00035997120230084524,0.001799856011519213,-0.0014398848092300241,-0.0002399808015361171,-0.0015598752099830959,3.3125275526970372,0.33039196896373996,-1.1663429828407261,-0.07199366476071876,-0.07200230372404322,0.25916371635416313,-0.014378690559149303,-0.14399078510596813,-0.4175608366996708,0.18776099999999984,-0.07750800000000002,-0.908514,-0.10136200000000017,0.08726699999999998,-0.903139,0.289123,0.164775,0.005375000000000019,0.9969147970921236,0.9426893860861436,double,-0.903139
3,0.025,quasi,-0.0786031441257737,0.04200168006719806,-0.007440297611905255,0.10477661539551848,-0.021316565999499954,0.008182484828956614,0.0006000240009639692,0.0022800912036470954,-0.0001200048001921277,-0.002520100804011366,0.0001200048001887969,-0.0006000240009602221,-3.932174610876668,-1.5833318476005747,-0.8064748838717827,0.10080460848514906,0.23042361710623427,-0.23039251310588513,-0.12963110461794575,0.043200000206997956,0.11518675255284697,0.18842099999999995,-0.07783899999999999,-0.908453,-0.10072799999999993,0.086918,-0.903082,0.2891489999999999,0.164757,0.005370999999999904,0.9960653795005988,0.9419677905546611,double,-0.903082
4,0.033333,quasi,-0.09048361934476436,0.06432257290292048,0.0022800912036470954,-0.025647481608972615,-0.0007334964327858431,-0.016363761398081655,0.0,0.0013200528021100738,0.0013200528021121555,0.0031201248049753352,-0.0010800432017258185,0.0010800432017283165,-1.425714054841073,2.678614284858085,1.166493317598986,-0.07200576034609016,-0.11520921655310472,0.17281382482950716,0.6768541472442939,-0.14401152069058146,0.20161612896778333,0.18917499999999987,-0.07836400000000004,-0.908461,-0.09994800000000015,0.08637299999999998,-0.903092,0.289123,0.16473700000000002,0.005368999999999957,0.9968886057070098,0.9405201224744733,double,-0.903092
5,0.041667,quasi,-0.08579313654907861,0.03647708183344983,0.01067914566834722,0.017111250238600696,0.22294925539412705,0.06451213446075815,0.00011999040075806734,0.0005999520038436232,-0.00035997120230375936,-0.0017998560115042262,0.0011999040076805855,-0.000719942404607935,0.5628129104494539,-3.3411916330058373,1.0078059112911115,0.014397696275266058,-0.08640518337730388,-0.20158675358962258,-0.5903504699399521,0.2735717793864175,-0.2159809942808077,0.1898909999999998,-0.07866299999999998,-0.9085529999999999,-0.099248,0.08607900000000002,-0.903187,0.2891389999999998,0.164742,0.005365999999999982,0.998816878693082,0.9425403039757003,double,-0.903187
6,0.05,quasi,-0.07344293771751553,0.05064202568103125,-0.009120364814588382,0.06189471454922612,0.017405367977829912,0.09531507485623497,-0.0007200288011461046,0.0026401056042201477,0.0006000240009602221,-0.0019200768030740432,0.0004800192007685108,0.0004800192007680944,1.4820831431132935,1.6998612561600168,-2.376036299404248,-0.1008063364819599,0.2448282251741899,0.11520403255297991,-0.014427072071260883,-0.08638963241474555,0.14400115269123118,0.19049699999999992,-0.07906300000000005,-0.9084720000000001,-0.09865199999999996,0.08566099999999999,-0.903107,0.2891489999999999,0.16472400000000004,0.005365000000000064,0.9953307662186861,0.9429557516803686,double,-0.903107
7,0.058333,quasi,-0.09924396975880634,0.0174006960278352,0.034681387255488264,-0.2677305483206724,-0.4804552911221117,-0.28555373230328057,0.0003600144005730523,0.0014400576023055323,0.0010800432017279002,-0.0022800912036470954,-0.0009600384015370216,0.0006000240009602221,-3.096247694862691,-3.9891191231484524,5.256420505229406,0.12961036862104366,-0.14401152069058146,0.05760460827645242,-0.043203456207014546,-0.17281382482965707,0.014401152069138093,0.19132700000000002,-0.07919599999999999,-0.908752,-0.09784399999999982,0.08550800000000003,-0.903391,0.28917099999999984,0.16470400000000002,0.005360999999999949,0.99694046591048,0.9421471896004656,double,-0.903391
8,0.066667,quasi,-0.08111351091911433,0.04991600671946573,0.0007199424046016905,0.045290037183219556,-0.1735493866930321,0.17447333604709284,-0.0015598752099614482,-0.0031197504199628615,0.0005999520038398765,-0.0008399328053864011,0.0009599232061444684,-0.00035997120230375936,2.1754810222812586,3.9015251609827843,-4.075047378316123,-0.23036832379823616,-0.5471331920168458,-0.05760633523974365,0.17280518337661316,0.23037696276475758,-0.11519020917494377,0.1919900000000001,-0.07963799999999999,-0.9087529999999999,-0.09717500000000001,0.08510000000000001,-0.9034,0.2891650000000001,0.164738,0.005352999999999941,0.9941013194129671,0.9442611045081892,double,-0.9034
9,0.075,quasi,-0.11052442097683313,0.06288251530060834,-0.023760950438007994,0.17348979345540563,-0.018708987881140456,-0.0896391553323344,-0.0009600384015370224,0.00036001440057305256,-0.0006000240009602226,-0.00264010560422015,-0.0006000240009639698,-0.0015600624024964124,-3.5294503849416565,1.5560432714679737,-2.9378246540993285,0.07198329634278487,0.41758848200359017,-0.14400288069123965,-0.21602937703513145,-0.1872011528991287,-0.14401670469130612,0.19290300000000005,-0.08015899999999998,-0.90856,-0.09627600000000003,0.08457100000000001,-0.9032150000000001,0.2891790000000001,0.16473,0.005344999999999933,0.9980200218135502,0.9413421050576898,double,-0.9032150000000001
10,0.083333,quasi,-0.07680307212288172,0.05292211688467831,-0.014880595223810498,0.12086121866384404,0.19764522154080735,0.20379914840495805,0.0008400336013282392,0.00396015840633688,-0.0008400336013440605,-0.0018000720028919063,-0.00036001440057305197,0.0013200528021121544,4.046723731423422,-1.1952956217364727,1.0656852531138232,0.21601728103507262,0.43203456207414187,-0.028802304138226056,0.10080806448196841,0.02880230413907568,0.3456276496590141,0.1935499999999999,-0.080567,-0.908443,-0.09565100000000015,0.08412700000000001,-0.90308,0.28920100000000004,0.164694,0.005363000000000007,0.9931091510952672,0.9426015605261228,double,-0.90308
11,0.091667,quasi,-0.10295176385889442,0.057475401967843474,0.0202783777297786,-0.16518290130456048,0.021277586247029388,-0.10078035706843816,-0.0007199424046016911,-0.0026397888168972904,0.0013198944084473962,-0.002279817614589784,0.0002399808015361173,-0.0004799616030718183,-3.137592000961449,0.5463505019396652,4.218739255290271,-0.18718214613990058,-0.791930312363112,0.25917062752477305,-0.05756486821428821,0.07199366475991957,-0.21598444986608759,0.19440199999999996,-0.08106800000000003,-0.908601,-0.09481200000000012,0.08365,-0.903253,0.2892140000000001,0.16471800000000003,0.005348000000000019,0.99493680949477,0.9426164680233712,double,-0.903253
12,0.1,quasi,-0.08376335053403178,0.05676227049081973,-0.012240489619590353,0.09491719464349983,-0.12839801652094807,0.04897774407181722,0.00048001920075518715,0.006120244809795177,-0.0024000960038400537,-0.0021600864034383117,0.0009600384015370207,0.0,2.3027017070517966,-0.08557920041086585,-3.90242017873142,0.14400115268893282,1.051246085046497,-0.4464167061427394,0.014368320070979499,0.08641036841484494,0.057597696276469205,0.19510399999999994,-0.08149,-0.908519,-0.09413199999999988,0.08318500000000001,-0.9031509999999999,0.2892359999999998,0.16467500000000002,0.005368000000000039,0.9890141156487358,0.9423802992912798,double,-0.9031509999999999
13,0.108333,quasi,-0.10128405136203594,0.0746429857194302,0.01764070562822613,-0.19596796883265524,0.26889845710288784,-0.007836181180982556,-0.0021600864034383156,-0.0031201248049953227,0.0020400816032640906,-0.0025201008040380145,0.0007200288011527668,-0.000360014400575967,-2.102568202088585,2.1457716582995907,3.5858868652125895,-0.3168253455170413,-1.1088887093232338,0.5328426265575601,-0.04320345621021278,-0.028802304138276027,-0.04320345620736437,0.19592999999999994,-0.08213800000000004,-0.9086489999999999,-0.09330900000000009,0.082569,-0.903301,0.289239,0.16470700000000005,0.005347999999999908,0.9928191835389462,0.9421107420926644,double,-0.903301
14,0.116667,quasi,-0.10115190784739002,0.05843532517398119,-0.023758099352042268,0.20272362347056003,-0.19528961614861223,0.045434130925585244,0.0015598752099880903,0.004799616030722338,-0.0010799136069116935,-0.001799856011530868,-0.0004799616030722338,-0.0002399808015357006,0.015855953281248406,-1.9447636843591316,-4.967459200896132,0.4463596848363814,0.95029287685597,-0.3743694756630407,0.08642246130395319,-0.14398732952063828,0.0144028796544596,0.19678600000000013,-0.08258499999999996,-0.90846,-0.09248100000000004,0.08207800000000004,-0.903105,0.28926700000000016,0.164663,0.005354999999999999,0.9913983628639182,0.9433197552510612,double,-0.903105
15,0.125,quasi,-0.12420496819871571,0.0924036961478518,-0.0002400096003909172,0.03308608412018616,-0.17672079315495587,0.02246533963823113,0.00048001920075518796,0.002280091203647097,0.0012000480019200288,-0.00264010560422015,-0.0001200048001954586,0.0008400336013440619,-2.7664779012751364,4.076367571567339,2.8222836615446263,-0.12958790462413336,-0.30235507345196727,0.2736063373132995,-0.1008339844820932,0.04319654420698134,0.1296069126220765,0.19782499999999992,-0.08333600000000002,-0.908448,-0.0914680000000001,0.08130699999999996,-0.903096,0.289293,0.16464299999999998,0.005352000000000023,0.9956317593368107,0.9418581271217745,double,-0.903096
16,0.133333,quasi,-0.09588383535341335,0.06564262570502384,-0.03504140165606129,0.3962528847607772,-0.1975983080663411,0.033267492988224796,-0.0008400336013548856,0.002520100804031349,-0.0006000240009598053,-0.0012000480019279376,0.00048001920076851036,0.0003600144005759664,3.3986718883118123,-3.2114569114158082,-4.176334100044443,-0.1584126727601191,0.028802304138275704,-0.21601728103682138,0.17281382482805843,0.07200576034609005,-0.05760460827650247,0.19861699999999982,-0.08386199999999999,-0.908161,-0.09067900000000018,0.080764,-0.9028010000000001,0.289296,0.164626,0.00535999999999992,0.9954610961566779,0.9441638425761913,double,-0.9028010000000001
17,0.141667,quasi,-0.10499160067194159,0.09227261819054733,0.0065994720422265845,-0.21462406793035366,0.06342218854325138,-0.12440272220027591,0.0009599232061444707,0.0032397408207342584,0.0007199424046075204,-0.002279817614589788,0.0,-0.0005999520038398779,-1.0928444106705373,3.195343470785163,4.9965051233846856,0.21597753869682754,0.08634989401282833,0.15838329800423911,-0.12956198856033752,-0.057597696276519256,-0.11518675358961443,0.1994999999999998,-0.08460400000000001,-0.90821,-0.08982300000000021,0.07999499999999998,-0.9028609999999999,0.289323,0.164599,0.005349000000000048,0.9942419886213548,0.9425809377841012,double,-0.9028609999999999
18,0.15,quasi,-0.1003240129605254,0.09468378735149208,-0.025921036841472914,0.01112068699480205,-0.13079532211914482,-0.08713703244929599,-0.0012000480019012912,0.0022800912036470937,0.0015600624024959932,-0.002760110404402281,0.02112084483379447,-0.1048841953678146,0.5601329306871698,0.2893518733883051,-3.9026171707307657,-0.25920691324202094,-0.11516256055288178,0.100818432483916,-0.05763744027511011,2.534602764165901,-12.514609788068478,0.200326,-0.085374,-0.9079809999999999,-0.08901000000000003,0.07938200000000001,-0.903519,0.28933600000000004,0.164756,0.004461999999999966,0.9949798390343708,0.7770045942627708,double,-0.903519
19,0.158333,quasi,-0.10608424336974753,0.07536301452058285,-0.01176047041880852,0.01572719611985956,-0.1493082403620915,-0.1254154400268799,-0.0021600864034649584,0.0024000960038425517,0.0006000240009602216,-0.0022800912036470937,-0.02112084483379447,0.09528381135245396,-0.6912552993186282,-2.3185854831284307,1.6993359441574922,-0.11520921655630222,0.014401152069537732,-0.11520921655295462,0.05760460827495341,-5.069205528331802,24.021121651298262,0.20119200000000004,-0.085982,-0.9078780000000001,-0.08814499999999992,0.07857799999999998,-0.9026270000000001,0.28933699999999996,0.16455999999999998,0.005251000000000006,0.9945262081749527,0.7847846288512046,double,-0.9026270000000001
20,0.166667,quasi,-0.10427165826733956,0.1246700263978895,-0.00863930885530021,-0.1915792442661552,0.22087811802721408,0.009464074593068781,-0.0005999520038436226,-0.00035997120230750576,0.002639788816894788,-0.004319654427636783,0.020998320134386916,-0.09707223422126188,0.21749281286392785,5.9163681158275265,0.3745094268668475,0.18720115186241112,-0.3311815702123896,0.2447521977363288,-0.2447280086380714,5.0538954845429975,-23.080878998525996,0.202056,-0.08702400000000005,-0.9077839999999999,-0.08731199999999983,0.07771399999999995,-0.903364,0.28936799999999985,0.164738,0.0044199999999999795,0.9954484414539848,0.7901144920208777,double,-0.903364
21,0.175,quasi,-0.09732389295570588,0.09276371054841835,0.0,-0.0685893962541458,-0.10352921999692885,0.03247990048491031,0.0002400096003909176,0.007440297611905274,-0.0018000720028802544,-0.003360134405392907,-0.00036001440057305316,-0.004440177607104572,0.8337651880035628,-3.828911058378883,1.0367585329773468,0.10079942448512448,0.9360697004935556,-0.5328046105574287,0.11514700854960735,-2.5631026683019345,11.116291445356717,0.20286899999999997,-0.08773500000000001,-0.9077989999999999,-0.08652900000000008,0.076938,-0.9034009999999999,0.28939800000000004,0.164673,0.004398000000000013,0.9872354775106116,0.9467201656565594,double,-0.9034009999999999
22,0.183333,quasi,-0.1291251650066094,0.07824312972518725,0.0009600384015370207,0.11393049597099368,0.02704243373787654,-0.046405090752921284,-0.0022800912036470937,0.0018000720028852448,0.001440057602304282,-0.002040081603256177,-0.003000120004799859,-0.0051602064082560736,-3.8163052983203505,-1.742539400363745,0.11520921655310451,-0.3024241934522992,-0.6768541472482928,0.3888311058663787,0.15841267276331802,-0.3168253455210373,-0.08640691241467666,0.20392600000000005,-0.08837199999999995,-0.9077949999999999,-0.08546999999999993,0.07626100000000002,-0.9034519999999999,0.289396,0.16463299999999997,0.004342999999999986,0.9945960814088102,0.9460567301884513,double,-0.9034519999999999
23,0.191667,quasi,-0.12395008399328782,0.03875689944804624,0.06275497960163795,0.5635811995447659,0.7033327264803357,0.11491353496844173,-0.0013198944084453126,0.005039596832251794,0.0007199424046075181,-0.0021598272138317128,-0.003959683225342598,-0.0037197024238060654,0.6209600447950051,-4.737968595769255,7.414799760031301,0.11521439827235183,0.38871188257337963,-0.08640691117071793,-0.01436832380316005,-0.11513837539509697,0.17284665040196864,0.20494800000000013,-0.08865299999999998,-0.908312,-0.08445499999999995,0.075905,-0.904006,0.2894030000000001,0.16455799999999998,0.004306000000000032,0.9912348584110061,0.9471960373449424,double,-0.904006
24,0.2,quasi,-0.14304572182885622,0.05652226089043547,0.019560782431300144,0.22069436709230866,-0.024674681296202976,-0.0005869534301511004,0.0,0.0028801152046044006,0.0014400576023038656,-0.00048001920075518715,-0.005160206408258156,-0.004200168006720302,-2.2915682029963267,2.131928650232715,-5.183511000880567,0.15839366476002778,-0.25914816124413675,0.08641728041477822,0.20158502497018171,-0.1440685446916545,-0.05765817627675942,0.20614,-0.08910000000000001,-0.908463,-0.08326699999999998,0.07539099999999999,-0.904204,0.28940699999999997,0.164491,0.004259000000000013,0.9946332221828936,0.946292001592313,double,-0.904204
25,0.208333,quasi,-0.1464058562342496,0.07440297611904607,0.0030001200047932073,0.10756302622217478,0.01248641684415058,0.008074095210071588,-0.0010800432017191595,0.004320172806916608,0.0024000960038404783,-0.00036001440057305316,-0.004920196807867256,0.0014400576023038704,-0.4032322579375232,2.1457716582996094,-1.9873589855402591,-0.1296103686210443,0.1728138248304585,0.11520921655305592,0.014401152067938832,0.028802304139073684,0.6768541472487923,0.20735100000000006,-0.08968399999999999,-0.9084679999999999,-0.08204999999999996,0.07473000000000002,-0.9042169999999999,0.289401,0.164414,0.004251000000000005,0.991568767187341,0.9489246121423487,double,-0.9042169999999999
26,0.216667,quasi,-0.15286777057835327,0.09155267578593868,0.002039836813060324,0.22161329195898402,0.23181430466770842,0.11931152862116795,-0.0020398368130736455,-0.0005999520038436226,0.002039836813054912,-0.0029997600192181134,-0.0033597312215056367,-0.0022798176145906127,-0.7753676918770901,2.057799336080224,-0.11522476502674373,-0.11516602008093173,-0.5903677478713973,-0.04322764468269327,-0.3167441347066304,0.18724089109210673,-0.44634931808189104,0.2086079999999999,-0.09045200000000003,-0.908468,-0.08080100000000012,0.07393899999999998,-0.904253,0.289409,0.164391,0.00421500000000008,0.9950891812023575,0.9494363995008319,double,-0.904253
27,0.225,quasi,-0.14916596663867804,0.07224288971558754,0.008280331213246811,0.39340607711874187,-0.16225854378066887,0.1252205680916971,0.0001200048002087816,0.0076803072122895045,0.00012000480019171124,-0.004560182407294187,-0.0015600624024943279,-0.0009600384015361881,0.44423424213071244,-2.3172670191228995,0.7488892835937216,0.25919136124834097,0.9936708527700852,-0.23038905710586816,-0.18725817689620458,0.21596889703723837,0.15837984076016123,0.20985200000000015,-0.09099000000000002,-0.908536,-0.079596,0.073324,-0.90433,0.28944800000000015,0.16431400000000002,0.004206000000000043,0.987196363235904,0.9497494342855983,double,-0.90433
28,0.233333,quasi,-0.1438857554302111,0.08556342253689704,0.015480619224774467,-0.20725537533244504,0.09439506055952339,-0.02399648037403163,-0.003120124805001979,0.0034801392055683693,0.0013200528021121544,-0.0034801392055483845,-0.0008400336013482239,0.00024000960038383885,0.6336506910436747,1.598527879672326,0.864069124148284,-0.3888311058695257,-0.5040403224194325,0.1440115206912807,0.12961036862424122,0.08640691241402897,0.14401152069123074,0.21102500000000002,-0.09167399999999998,-0.9086540000000001,-0.07842599999999988,0.072604,-0.9044570000000001,0.2894509999999999,0.16427799999999998,0.004197000000000006,0.9919052336713969,0.9520497942367094,double,-0.9044570000000001
29,0.241667,quasi,-0.14530837532998273,0.09167266618671037,-0.010799136069118635,0.12274881486616597,-0.060439280482910876,-0.032142962769512826,-0.0002399808015427785,0.006239500839932399,0.0013198944084473984,-0.00431965442766344,-0.0004799616030655746,0.0014398848092154572,-0.17070073191404314,0.7330505939300868,-3.153318369797596,0.3455896332444453,0.3310969083710147,-1.9005719313182272e-05,-0.10073376795237075,0.04320518337924768,0.14397350717922022,0.21223400000000003,-0.09238600000000002,-0.908553,-0.07725099999999996,0.07183600000000001,-0.904355,0.289485,0.16422200000000003,0.004198000000000035,0.9893631820278602,0.9503890968608888,double,-0.904355
30,0.25,quasi,-0.14748589943596827,0.11532461298451804,-0.021120844833801132,0.07782916631838899,0.11297258780465291,0.019284138517153472,-0.015480619224774467,-0.005640225609026666,0.0012000480019200269,-0.003480139205575031,0.00048001920076184875,0.0003600144005759664,-0.26131334525207467,2.8383471496229036,-1.2386545979458163,-1.828949768778552,-1.4256241988430403,-0.01438214406904733,0.1007458564848684,0.11520230455147275,-0.12958963262204368,0.2133339999999999,-0.09339400000000003,-0.9083669999999999,-0.07605100000000009,0.07087899999999997,-0.904176,0.289385,0.164273,0.004190999999999945,0.9724670988880733,0.9522041889797246,double,-0.904176
31,0.258333,quasi,-0.1398055922236992,0.1464058562342496,-0.0020400816032561833,0.09585132546400058,-0.10563873983173999,-0.38892315923873066,-0.009120364814588404,0.0006000240009639708,-0.001320052802112159,-0.004560182407294202,-0.0008400336013415652,0.0030001200048002854,0.9216737324215865,3.7298983859032315,2.2897831789925593,0.763261059664716,0.7488599075951821,-0.3024241934516011,-0.1296103686210457,-0.15841267275932044,0.3168253455207399,0.21442300000000003,-0.094609,-0.908361,-0.07492399999999999,0.06965199999999999,-0.904134,0.289347,0.164261,0.004226999999999981,0.9846084779330669,0.9485252850122008,double,-0.904134
32,0.266667,quasi,-0.18394528437725044,0.09227261819054702,0.01703863690904432,0.3205810526790919,-0.2536755739321765,0.05103610719187719,-0.002519798416132558,0.0021598272138250523,0.0025197984161267296,-0.004319654427636783,-0.005519558435324028,0.002039836813054912,-5.296339351278041,-6.495468927730084,2.2892630804296235,0.7920046074461051,0.18716141263031916,0.46074528656574093,0.028861048674996295,-0.5614980602330762,-0.11522476502824242,0.215935,-0.09536,-0.908482,-0.07342699999999991,0.06883699999999998,-0.904259,0.2893619999999999,0.16419699999999998,0.004222999999999977,0.9930550534540418,0.9456038043562578,double,-0.904259
33,0.275,quasi,-0.15900636025438533,0.11352454098163908,0.002520100804038002,0.22979084798602603,0.050794001807235464,-0.03097696643550209,0.0034801392055750194,0.010680427217082667,0.0008400336013440577,-0.005760230409222106,-0.00252010080403134,-0.004320172806912415,2.992790606368055,2.550332748240966,-1.742294024361725,0.7200213154575246,1.0225129009069458,-0.2015798409675585,-0.17287603283155129,0.3599493137276701,-0.7632316836634226,0.21728899999999984,-0.09621700000000005,-0.9084960000000001,-0.07215000000000016,0.06786999999999999,-0.904316,0.289439,0.16408700000000004,0.0041800000000000725,0.9812258636179563,0.9454857193685176,double,-0.904316
34,0.283333,quasi,-0.17304692187689535,0.09780391215648106,0.011640465618613099,0.17653580138126918,-0.08601536143509948,-0.21919418038500754,-0.000840033601328242,0.007440297611905274,0.003240129605184125,-0.007680307212269545,-0.0001200048001954588,0.0,-1.6849347920928905,-1.88655092105581,1.0944875572513044,-0.5184414744873722,-0.3888311058655228,0.2880230413824641,-0.23041843310301738,0.2880230413819617,0.5184414744884707,0.21872400000000014,-0.09697,-0.908566,-0.07077199999999984,0.067054,-0.9044129999999999,0.289496,0.164024,0.004153000000000073,0.9864023975904783,0.9456679255124077,double,-0.9044129999999999
35,0.291667,quasi,-0.1601871850251815,0.12167026637869137,0.016438684905214017,0.03040961325303412,0.34243712148436434,-0.018519763044168375,-0.007559395248397674,-0.0017998560115175463,0.0049196064314858175,-0.005879529637651516,-0.0009599232061444676,0.0007199424046079344,1.5430449786073719,2.863733407992595,0.5757402551716958,-0.8062588969365762,-1.108729736431823,0.20152109746840544,0.2160760228723334,-0.10078214614218958,0.08638617765873935,0.21999599999999986,-0.097999,-0.908662,-0.06948600000000016,0.06603199999999998,-0.904544,0.289482,0.16403099999999998,0.004117999999999955,0.9846715165618953,0.9488188002958993,double,-0.904544
36,0.3,quasi,-0.15072602904117952,0.10992439697588266,-0.004920196807867256,0.10914541453788058,0.06165592294574212,-0.044682527276635096,-0.0030001200047932073,0.005400216008642429,0.005400216008640347,-0.00648025921036825,-0.0009600384015303623,0.0008400336013440632,1.1353841334455794,-1.4095607107654793,-2.563168332303051,0.5471349146291224,0.8640432041473651,0.05767545627679479,-0.07209043234330197,-1.3823999267336406e-05,0.014411520069138258,0.22122700000000006,-0.09887000000000001,-0.908576,-0.06828400000000001,0.065108,-0.9044960000000001,0.2895110000000001,0.163978,0.0040799999999999725,0.9863246586551708,0.9481922893669228,double,-0.9044960000000001
37,0.308333,quasi,-0.16968678747150132,0.11016440657625952,-0.010800432017284785,0.047877462670368666,-0.01342283671674979,-0.03508529593202785,-0.0006000240009639668,0.006720268810752461,0.008280331213248449,-0.00828033121323346,0.0,0.00024000960038383804,-2.2753820269196834,0.02880230413738842,-0.7056564513881561,0.2880230413811629,0.15841267276011364,0.34562764965895704,-0.21601728103506576,0.1152092165523051,-0.07200576034564055,0.22263600000000006,-0.09973199999999999,-0.908417,-0.06693899999999986,0.06419000000000002,-0.904404,0.2895749999999999,0.163922,0.004013000000000044,0.9821981643665291,0.9460636518617618,double,-0.904404
38,0.316667,quasi,-0.17986561075113097,0.09347252219822823,0.009959203263732265,0.1937670844475374,-0.20151064663345,-0.12000008980562087,-0.0004799616030589154,0.00803935685144998,0.009359251259899046,-0.010199184065288367,-0.0020398368130603375,0.005399568034557254,-1.2213610846687921,-2.002865896092079,2.4909569571654866,0.0144063352417869,0.15827790265149091,0.12946004879416886,-0.23024392273277144,-0.24476083670030588,0.6190974843020692,0.22413100000000008,-0.10044400000000003,-0.908422,-0.06552500000000006,0.06339399999999995,-0.904442,0.28965600000000014,0.16383799999999998,0.0039799999999999836,0.9794210729499482,0.9406680016965493,double,-0.904442
39,0.325,quasi,-0.17148685947436657,0.09192367694707616,-0.00708028321131885,0.16745544478008983,0.027479877877750296,0.02464044579447533,0.019920796831859808,0.020760830433214687,0.03168126725068994,-0.01548061922474777,-0.01008040321612536,0.0806432257290287,1.0054903728266378,-0.18586886489284268,-2.044820169812918,2.4481889397478267,1.5266378953275717,2.6787490688576505,-0.6337975710379673,-0.9649065646303839,9.02960010734083,0.22572599999999987,-0.10103700000000004,-0.908099,-0.06422499999999998,0.06254399999999999,-0.903711,0.28995099999999985,0.16358100000000003,0.0043879999999999475,0.9286722564241778,0.818233231271247,double,-0.903711
40,0.333333,quasi,-0.1641665666626712,0.11448457938317685,-0.001920076803074048,0.08139451332677226,0.13844014502611396,0.010028888772459412,-0.00048001920075518877,0.010560422416900602,0.011760470418816886,-0.01716068642745765,0.005160206408258173,-0.0008400336013440632,0.8784702762144935,2.7074165889956494,0.6192495389709366,-2.4481958517478755,-1.2240979258747282,-2.3905912434745114,-0.20161612897034498,1.8289463127785397,-9.778382254934952,0.22709000000000001,-0.10190300000000002,-0.907985,-0.06299999999999994,0.06163299999999999,-0.903702,0.29008999999999996,0.16353600000000001,0.004283000000000037,0.9736444395215303,0.9272709780311972,double,-0.903702
41,0.341667,quasi,-0.17782577393808277,0.09335253179745623,0.0020398368130470023,0.15584024570051852,-0.01137903812665077,-0.05032172973848495,0.0021598272138050696,0.010559155267575821,0.01499880009599232,-0.015358771298311482,0.006599472042233223,-0.005639548836092919,-1.6389737551489738,-2.535642858857764,0.47515162180478127,0.3167562292488908,-0.00015204575531328846,0.38856847578298903,0.21621251849606038,0.17269806023218734,-0.5758957565093413,0.22858999999999985,-0.10259300000000005,-0.9078769999999999,-0.06164600000000009,0.060909999999999964,-0.903766,0.29023599999999994,0.163503,0.004110999999999976,0.969217401295636,0.929486230489918,double,-0.903766
42,0.35,quasi,-0.17964718588744574,0.08496339853594002,-0.022080883235324904,0.10975974262795933,-0.13767487669148487,-0.05729399474538832,0.002400096003855883,0.013200528021120756,0.018600744029761102,0.00816032641305138,-0.007320292811709816,-0.024240969638785706,-0.21857817705063923,-1.0067362608323804,-2.8946021898922316,0.028833408142423387,0.3169774095217738,0.432250562074738,2.822404621548412,-1.6704386000171696,-2.2322597867146086,0.23010700000000006,-0.10319100000000003,-0.907538,-0.06008100000000005,0.060141,-0.903784,0.2901880000000001,0.16333200000000003,0.003753999999999924,0.9617754413104171,0.9181190788747371,double,-0.903784
43,0.358333,quasi,-0.18804752190086013,0.07356294251769736,-0.013320532821309464,0.4614641536592229,-0.45489928934203433,-0.05227561155924088,0.002400096003829221,0.008760350414021954,0.015360614424576875,-0.0134405376214916,0.0033601344053729,-0.001200048001920023,-1.008080644835516,-1.3681094465669763,1.0512841010458902,-3.1995999213841857e-12,-0.5328426265569163,-0.3888311058663403,-2.5922073724400443,1.2817025341512867,2.7650211972717615,0.23169399999999984,-0.10373099999999996,-0.907299,-0.05862600000000007,0.059556,-0.903683,0.2903199999999999,0.16328699999999996,0.0036159999999999526,0.9702579293618276,0.9406632234299663,double,-0.903683
44,0.366667,quasi,-0.18586513078953937,0.07487401007919521,-0.009839212862974131,0.19077758715431947,-0.053791037753379525,-0.13684347635016564,0.02591792656587398,0.02375809935204893,0.03875689944804416,-0.014158867290624237,0.0033597312215056367,-0.002399808015358671,0.261865984079765,0.15731552213797048,0.4177249770020794,2.8219139143322223,1.7995859056907801,2.807329616446756,-0.0861926648827257,-4.837819381609992e-05,-0.14395968483785063,0.23345899999999986,-0.104157,-0.906894,-0.05719500000000011,0.05896000000000001,-0.903621,0.29065399999999997,0.163117,0.0032729999999999704,0.9127856494810109,0.9426890455758455,double,-0.903621
45,0.375,quasi,-0.18444737789513085,0.07584303372135161,-0.007920316812673786,0.25828778707419536,-0.049955233887514994,-0.11324319272606273,0.021720868834751852,0.018480739229567725,0.043441737669507034,-0.011640465618626424,-0.003960158406336893,-0.006600264010560378,0.1701371528151347,0.11628748855831025,0.23027673710552624,-0.5036670744176334,-0.6333085470396277,0.562203074698534,0.3022202894513164,-0.8784218922167943,-0.5040748824195028,0.23517699999999997,-0.10463500000000003,-0.906466,-0.055755,0.058294999999999986,-0.90361,0.29093199999999997,0.16293000000000002,0.0028559999999999697,0.9133891455809049,0.9481813827539839,double,-0.90361
46,0.383333,quasi,-0.17856714268569993,0.07644305772230893,0.010800432017284858,0.3693408310168194,0.02356242010303314,-0.0781161372488004,0.023400936037461628,0.021720868834751852,0.05472218888755541,0.03792151686067247,0.008400336013442297,-0.004200168006720316,0.7056564513897687,0.07200576034529264,2.2465797227839546,0.2016161289703325,0.3888311058663308,1.3537082944975882,5.947675804548064,1.4833186631200312,0.28802304138246343,0.23686000000000007,-0.10509100000000005,-0.9061,-0.05395100000000008,0.057728,-0.9037350000000001,0.29081100000000015,0.16281900000000005,0.0023649999999999505,0.894407519377941,0.911237949198715,double,-0.9037350000000001
47,0.391667,quasi,-0.18346532277419153,0.07067434605230982,-0.022918166546682512,0.03547483252499959,-0.21407181149132617,-0.169100728036149,0.023398128149741425,0.026637868970482332,0.05999520038396928,-0.030957523398112453,0.012359011279093368,0.022918166546676267,-0.5877345918516439,-0.6921900251978764,-4.045908155023678,-0.00033691957285857967,0.5899928168623081,0.632710762708647,-8.26482364516257,0.47500303163559715,3.253939831221089,0.23858400000000013,-0.105458,-0.9054089999999999,-0.05267999999999984,0.057242000000000015,-0.903353,0.29126399999999997,0.1627,0.0020559999999999468,0.8838526733780547,0.9120201757516828,double,-0.903353
48,0.4,quasi,-0.17940717628705363,0.07548301932077806,-0.02664106564261893,-0.004220637945582289,-0.11935952153792725,-0.20102283747885902,0.004440177607085391,0.022680907236295386,0.05952238089523555,-0.008280331213260108,0.0033601344053795614,0.002400096003840046,0.4869970583388793,0.5770638747711764,-0.44676576214285385,-2.275045066921391,-0.47485440227852266,-0.05674060827237783,2.7213719170589528,-1.0799084211824994,-2.462266955818569,0.240116,-0.10589799999999999,-0.904691,-0.05125399999999991,0.056641,-0.903111,0.2913699999999999,0.162539,0.0015800000000000258,0.893580330795668,0.9687786179237367,double,-0.903111
49,0.408333,quasi,-0.16344653786149846,0.03840153606144099,-0.026881075243010023,0.17239575706967208,-0.05727429040053616,-0.19997111753703392,-0.0019200768030474015,0.08436337453497605,0.06468258730349245,-0.007920316812660463,0.007560302412094071,-0.004200168006720316,1.9153532251956333,-4.449955989360033,-0.028802304139096898,-0.7632610596583234,7.402192163528239,0.6192495389723885,0.043203456210205826,0.5040403224186392,-0.7920633638017974,0.24146200000000007,-0.10551500000000003,-0.9039280000000001,-0.04995799999999995,0.05638399999999999,-0.902922,0.29142,0.16189900000000002,0.0010060000000000624,0.8227940404333909,0.9703943978902396,double,-0.902922
50,0.416667,quasi,-0.18202543796496148,0.024718022558193397,0.02903767698583684,0.4899733361962906,-0.3260661399989016,-0.15988520767072453,0.03611711063113564,0.04379649628029804,0.08207343412526996,-0.007919366450698519,0.0037197024238064817,0.008279337652987707,-2.2292896692420214,-1.6418902691681763,6.709713490382386,4.564097364312815,-4.867635979682983,2.0867346798389117,0.00011403431268830733,-0.46083513178396757,1.4974208854941218,0.24327999999999994,-0.105356,-0.903486,-0.04850700000000008,0.05620900000000001,-0.903095,0.291787,0.16156500000000001,0.0003910000000000302,0.8336784627104702,0.9760137576090613,double,-0.903095
51,0.425,quasi,-0.18060722428898277,0.08628345133805676,0.020880835233410285,0.07735785480939852,-0.17650408876270177,-0.270350162354897,0.003960158406330232,0.01596063842553637,0.10596423856954285,-0.008760350414015352,0.00036001440057305316,0.009240369614784695,0.1701924488153993,7.3881469794628,-0.9788601646977771,-3.858988626521719,-3.34043656003381,2.8670112137613035,-0.10092211248251946,-0.40317868993560985,0.11532844855358107,0.24481799999999998,-0.10594200000000004,-0.9027769999999999,-0.04707499999999998,0.05549299999999996,-0.903192,0.29189299999999996,0.161435,0.0004150000000000542,0.8171288897535781,0.9787699256580831,double,-0.9027769999999999
52,0.433333,quasi,-0.186967478699141,0.07188287531500757,-0.028561142445692963,-0.14513598482474804,-0.5324829256729634,-0.313143852260219,0.0457218288731505,0.026161046441857082,0.16764670586823432,-0.00972038881555231,0.0016800672026897807,0.006840273610944172,-0.7632610596613699,-1.728138248295827,-5.933274652478463,5.011600920055214,1.2240979258755156,7.402192163529488,-0.11520921655309661,0.15841267276091708,-0.2880230413825169,0.2467569999999999,-0.106323,-0.901142,-0.04559800000000003,0.05490800000000001,-0.9028970000000001,0.2923549999999999,0.161231,0.001755000000000062,0.6895701233397473,0.9799932006277555,double,-0.901142
53,0.441667,quasi,-0.19558435325174342,0.04115670746340769,0.02543796496280192,0.3963318297307032,-0.35717376933939193,-0.22889465403106324,0.024598032157428833,-0.03779697624189537,0.11963042956563517,-0.011159107271406198,0.0007199424046083555,0.003599712023038447,-1.033942230933823,-3.686845194576441,6.479374539056298,-2.534652833659922,-7.674348774148405,-5.761492236932976,-0.17263240411013872,-0.11520575930902696,-0.38883628364599754,0.24859199999999992,-0.10698099999999999,-0.9003570000000001,-0.044060999999999906,0.05457099999999998,-0.903079,0.29265299999999983,0.16155199999999997,0.002721999999999891,0.7596999793171935,0.980420963676428,double,-0.9003570000000001
54,0.45,quasi,-0.17640705628226044,-0.005880235209410902,0.06768270730829312,0.8382538403722045,-0.2621728388393614,-0.16109633991491035,0.051962078483154435,0.04656186247449872,0.1862474498979953,0.04884195367812582,-0.01776071042841484,0.012480499219968738,2.3013676910455896,-5.644658907094491,5.069571864333497,3.283816911763529,10.123465584590631,7.9943622143717565,7.200415330557035,-2.2177670506448,1.0657370931153551,0.25049500000000013,-0.10654399999999997,-0.899369,-0.042184,0.05447200000000002,-0.903539,0.29267900000000013,0.161016,0.004170000000000007,0.6268210865140811,0.9109191669387693,double,-0.899369
55,0.458333,quasi,-0.17472698907955184,-0.008160326413058042,0.02832113284531556,0.02830542914357834,-0.36901699866307525,-0.2808494368057823,0.04644185767429691,0.07008280331212947,0.22656906276251074,-0.003480139205548396,-0.004200168006721149,-0.001320052802112159,0.20161612897019218,-0.27362188931322995,-4.723577878672466,-0.6624529951827116,2.8226258055479194,4.8387870952256735,-6.278902302133007,1.6273301838105996,-1.6561324879492296,0.25233799999999995,-0.10589199999999999,-0.8977170000000001,-0.04075699999999993,0.054505000000000026,-0.9037860000000001,0.2930949999999999,0.160397,0.006068999999999991,0.5365349536534458,0.9906465515012075,double,-0.8977170000000001
56,0.466667,quasi,-0.175545956323493,-0.010199184065274976,0.01211903047755059,0.032361946052751805,-0.5219185529812433,-0.22700407712533976,0.0452363810895214,0.07283417326614154,0.21598272138228958,-0.0032397408207342476,-0.006359491240703768,-0.002999760019198547,-0.09826820781631579,-0.24464334679828809,-1.944096756391283,-0.14464561852357913,0.33013798344277234,-1.2702593448789476,0.02884549853781478,-0.2590980602330954,-0.2015487421509943,0.254178,-0.10519999999999996,-0.896018,-0.03932099999999994,0.054537,-0.9039119999999999,0.29349899999999995,0.15973699999999996,0.007893999999999957,0.5337628025134442,0.9870967693968933,double,-0.896018
57,0.475,quasi,-0.16836673466939236,-0.002640105604220154,-0.00648025921036825,-0.4570289761534337,-0.5940586442591326,-0.3717420167077604,0.051842073682946,0.09156366254649706,0.2685707428297135,-0.028441137645511018,-0.003120124804988666,-0.06564262570502823,0.8615410601344853,0.907125700354595,-2.232004042711975,0.7927148198037458,2.2476286187874193,6.310815006291137,-3.0242885905168406,0.3887395218666878,-7.517444580082783,0.25601300000000005,-0.10441500000000004,-0.8937259999999999,-0.03815499999999994,0.054533,-0.9044049999999999,0.294168,0.15894800000000003,0.010678999999999994,0.41246477755080635,0.8806547049894016,single,-0.8937259999999999
58,0.483333,quasi,-0.16524660986438927,-0.024480979239173962,0.04116164646586965,-0.024523054355952742,-0.48867673919647925,-0.21761034856045924,0.041281651266038465,0.12348493939757564,0.30121204848193867,-0.01392055682227343,0.0,-0.007680307212288646,0.3744299537985216,-2.6210096765815094,5.717257371443383,-1.2673013820841823,3.8307064503874293,3.9171133628015165,1.7425394003645178,0.3744299537967902,6.955756449386697,0.2577339999999999,-0.103182,-0.891559,-0.03689399999999998,0.054737000000000036,-0.9048120000000001,0.2946279999999999,0.15791900000000003,0.01325300000000007,0.36746999999999996,0.9735021478272254,single,-0.891559
59,0.491667,quasi,-0.1654667626589894,-0.03239740820734248,0.05267578593712104,-0.08826963517438191,-0.5530062757853932,-0.2968105603471505,0.06107511399089179,0.15466762658987748,0.3170146388288932,0.014998800095983993,-0.0034797216222703644,0.05027597792176654,-0.026416222054252064,-0.9498954845414578,1.3815862096533933,2.3750255249404018,3.741623133225559,1.896159148902629,3.4700452265727613,-0.41753319201708194,6.954197880256195,0.259622,-0.10162299999999996,-0.889356,-0.03539000000000003,0.05497800000000003,-0.904832,0.29501200000000005,0.156601,0.015475999999999934,0.34524,0.9123652399178248,single,-0.889356
60,0.5,quasi,-0.14448577943117555,-0.022680907236288874,0.025081003240131437,-0.12309649366610052,-0.6000967327666743,-0.32548026572871036,0.04992199687987195,0.17928717148685935,0.34705388215528693,-0.011280451218053369,-0.002160086403458304,-0.0027601104044164457,2.5178187000856727,1.1660267575967393,-3.311506383894117,-1.3384275904260015,2.954463566180479,3.6048533933029896,-3.153636303136617,0.15836256075987803,-6.364585182549276,0.261242,-0.09993999999999997,-0.886673,-0.03428000000000009,0.055149000000000004,-0.905064,0.29552200000000006,0.15508899999999998,0.018390999999999935,0.31609,0.9803126688791826,single,-0.886673
61,0.508333,quasi,-0.13788551542062424,-0.00252010080403134,0.05076203048121318,-0.05737223473139838,-0.5579993904455567,-0.14184004819508866,-0.01308052322091855,0.2580103204128137,0.4204968198727932,-0.010440417616698412,-0.0020400816032628316,-0.0018000720028798262,0.7920633638007053,2.4193935476127986,3.081846542791508,-7.560604836288279,9.447155757344774,8.813505066303367,0.1008080644851739,0.0144011520695394,0.115209216553056,0.2622820000000001,-0.097769,-0.8835919999999999,-0.03321799999999997,0.05515300000000001,-0.905502,0.2955000000000001,0.152922,0.021910000000000096,0.28090000000000004,0.9820181795373317,single,-0.8835919999999999
62,0.516667,quasi,-0.14194864410846422,-0.023038156947440734,0.05927525797936132,0.08204670305571446,-0.4191701831285931,-0.24110174633834722,0.025317974562030526,0.2654187664986806,0.4076073914086893,-0.015238780897526873,-0.000959923206144474,0.009239260859130988,-0.48753643962563015,-2.4619697796267714,1.021505579331436,4.607451137862887,0.8889424149108447,-1.546607687077511,-0.5757575330967709,0.1296086389630866,1.3246139743233594,0.263676,-0.09536500000000003,-0.8806889999999999,-0.032162000000000024,0.05533699999999997,-0.9059189999999999,0.29583800000000005,0.150702,0.025229999999999975,0.24770000000000003,0.9702554469492688,single,-0.8806889999999999
63,0.525,quasi,-0.13188527541101122,-0.008400336013442242,0.03780151206049009,-0.1348757775978014,-0.6885056798689241,-0.32167453608631164,-0.009600384015370176,0.29605184207368135,0.4366974678987145,-0.0075603024120873595,-0.0001200048001887964,0.004200168006720288,1.207652549796347,1.7566087764308689,-2.576952588368072,-4.190370644113831,3.676116113644617,3.4909488167556804,0.9214542764237946,0.10079424048430027,-0.6047153309025175,0.2646949999999999,-0.09282800000000002,-0.8773650000000001,-0.031125999999999987,0.05540600000000001,-0.9061990000000001,0.2958209999999999,0.14823400000000003,0.028834000000000026,0.21166000000000001,0.9855841536843268,single,-0.8773650000000001
64,0.533333,quasi,-0.13404536181447796,-0.012360494419779273,0.07776311052441952,0.31456910239184155,-0.34277427601317595,2.3685827797514866e-05,-0.01704068162724898,0.32089283571343263,0.4390975639025596,-0.005040201608076071,0.0004800192007685152,0.0016800672026881377,-0.2592207372455007,-0.4752380182811794,4.795583639017136,-0.892871428282596,2.981038478309314,0.28802304138307105,0.3024241934490954,0.07200576034529187,-0.30242419345159893,0.2656700000000001,-0.09005099999999999,-0.8743540000000001,-0.03005100000000005,0.055513000000000035,-0.906833,0.2957210000000001,0.14556400000000003,0.032478999999999925,0.1752100000000001,0.9911092000596267,single,-0.8743540000000001
65,0.541667,quasi,-0.12886969042476737,0.004199664026878687,0.04139668826492993,0.1054395725887533,-0.4596723786830319,-0.07993573258526489,-0.04631629469642363,0.3816894648428084,0.49232061435084845,-0.005639548836082057,0.0011999040076739157,0.0037197024238060403,0.6210308842945225,1.9870600487950363,-4.363621581412204,-3.512792544897339,7.295011894573472,6.386255153382342,-0.07191591408759083,0.08637926648732841,0.24473664760233824,0.2663580000000001,-0.08690500000000001,-0.8705959999999999,-0.02902399999999994,0.05548799999999998,-0.9071469999999999,0.29538200000000003,0.142393,0.036551,0.13449,0.9885641321050518,single,-0.8705959999999999
66,0.55,quasi,-0.13620544821791447,0.007800312012478276,0.05820232809313173,0.2242770856115213,-0.48322526490448814,-0.09410970618313523,-0.10344413776552704,0.46009840393615603,0.5693027721108826,-0.003960158406330205,-0.0001200048001887964,0.003720148805952196,-0.8803261482235775,0.43209504207363175,2.0167574496821943,-6.8556153929080965,9.409449069164442,9.238228460342478,0.20153491296674012,-0.15839539275923517,5.356800025869796e-05,0.26663099999999984,-0.08313599999999999,-0.866337,-0.027922000000000002,0.05542200000000003,-0.907601,0.29455299999999984,0.13855800000000001,0.04126399999999997,0.08735999999999994,0.9909420441823954,single,-0.866337
67,0.558333,quasi,-0.10740429617185868,0.02244089763591143,0.05412216488659346,0.29954340011566494,-0.6148127633485369,0.18085147876616997,-0.1398055922236735,0.4994599783991404,0.6069842793711796,-0.002760110404428955,0.0002400096003842576,0.0028801152046081767,3.4562764965865904,1.7569405524340918,-0.48963917035141097,-4.363549076940694,4.723577878673316,4.521961749705664,0.14401152068897888,0.04320345620701515,-0.10080806448386259,0.26636100000000007,-0.07916100000000004,-0.86173,-0.02705000000000002,0.05523699999999998,-0.908028,0.2934110000000001,0.13439800000000002,0.04629799999999995,0.03702000000000005,0.9933394032539767,single,-0.86173
68,0.566667,quasi,-0.12323014158868531,0.0029997600191981107,0.03959683225342572,0.0973019124582963,-0.40979215396124885,-0.020855791264342605,-0.15778737700985926,0.5183585313174895,0.6159107271418238,-0.0010799136069025276,-0.0005999520038436186,0.002279817614591014,-1.898949534056457,-2.332749894014059,-1.7429004839413997,-2.1576415630172328,2.26764493860679,1.0710880454336635,0.2016074871042014,-0.1007873295209827,-0.0720299484061865,0.266073,-0.07486600000000004,-0.856927,-0.026031999999999833,0.05520699999999995,-0.908339,0.29210499999999984,0.130073,0.05141200000000001,0.0,0.9956783091782753,single,-0.856927
69,0.575,quasi,-0.1341653666146601,0.012120484819388355,0.038521540861623384,0.39563999042419146,-0.5560157502805921,0.07657817876255214,-0.19104764190565587,0.5336613464538671,0.6170646825873101,-0.0038401536061481215,-0.004200168006714515,0.0037201488059522454,-1.3122794942967597,1.0945307572531295,-0.1290401286214268,-3.9913914431533564,1.836411272816235,0.1384801926660571,-0.3312420495914579,-0.43204320207259445,0.17284665682962255,0.26559900000000014,-0.07051999999999997,-0.8521059999999999,-0.024945999999999913,0.05507100000000004,-0.9086289999999999,0.29054500000000005,0.125591,0.05652299999999999,0.0,0.988668174347604,single,-0.8521059999999999
70,0.583333,quasi,-0.11796471858873779,0.01824072962919001,-0.003960158406330205,0.12870316999179857,-0.3058383090116995,0.2134152683744775,-0.20520820832834433,0.5322212888515478,0.6157446297851884,0.0008400336013282363,0.0003600144005730508,0.0010800432017278956,1.9441555293318433,0.7344587555264166,-5.098007832467708,-1.6993359441603737,-0.1728138248313019,-0.15841267276150933,0.5616449306943884,0.5472437786256507,-0.31682534552074143,0.264872,-0.06623700000000005,-0.846942,-0.02395600000000009,0.05492199999999997,-0.908587,0.2888280000000001,0.12115900000000002,0.06164500000000006,0.0,0.9976419404531249,single,-0.846942
71,0.591667,quasi,-0.08591312694983602,-0.0027597792176686565,0.11963042956563691,0.8235576443703233,-0.6690246634440673,0.1543493373252617,-0.20866330693543578,0.5445164386849061,0.6449484041276654,-0.0013198944084453037,-0.001679865610752807,0.0031197504199665846,3.845883326002103,-2.5198594728651917,14.829684181901388,-0.41457866655764625,1.4752999560064948,3.5041725872902307,-0.259170627522621,-0.24476602007749487,0.2447452865657156,0.263849,-0.06167599999999995,-0.842564,-0.023251000000000133,0.05493100000000001,-0.909558,0.28710000000000013,0.11660699999999996,0.066994,0.0,0.9936981236474725,single,-0.842564
72,0.6,quasi,-0.09528381135245034,0.01644065762630499,0.08028321132844424,0.09129994740914384,-0.6714479053323078,0.09872605641345673,-0.2396495859834447,0.5258610344413821,0.6703468138725602,-0.0015600624024743586,0.0008400336013482324,0.0007200288011519401,-1.1245271093981046,2.304144587060341,-4.721855062665671,-3.7185022258501403,-2.238738058745246,3.047931086630872,-0.028821312135972294,0.3024000014521856,-0.2879781133822953,0.26264599999999994,-0.057430999999999954,-0.8376469999999999,-0.02246999999999999,0.054801000000000044,-0.910221,0.2851159999999999,0.112232,0.07257400000000003,0.0,0.9968123970058049,single,-0.8376469999999999
73,0.608333,quasi,-0.09708388335534097,-0.10560422416896535,0.22284891395657036,1.6903713159240719,-1.1062235729431498,0.13140513847356122,-0.27709108364335855,0.5031801272050864,0.7428297131885245,-0.0016800672027097656,-0.0002400096003842544,0.002520100804032173,-0.21601728103811646,-14.645971654298553,17.10856865812139,-4.493159445567464,-2.7218177410651125,8.69829584974967,-0.01440115207433175,-0.12961036862264277,0.21601728103686849,0.2611459999999999,-0.05235799999999996,-0.8333140000000001,-0.02167500000000011,0.055679000000000034,-0.912057,0.282821,0.108037,0.0787429999999999,0.0,0.9949362018875867,single,-0.8333140000000001
74,0.616667,quasi,-0.08051355891529782,-0.019678425725941733,0.07115430765538254,0.2911221450059972,-0.668888295286863,0.0798203493900258,-0.24082073434123846,0.484521238300937,0.690664746820258,-0.0025197984161059316,0.0015598752099814399,0.001319894408447403,1.9882798704155564,10.310270991483574,-18.201896604414287,4.352093748754535,-2.2388875574933422,-6.259295220574371,-0.10075968483275387,0.215968899731906,-0.14401324641046037,0.2598100000000001,-0.04815599999999998,-0.828151,-0.02102499999999985,0.05585600000000002,-0.912639,0.28083499999999995,0.104012,0.08448800000000001,0.0,0.994593030223772,single,-0.828151
75,0.625,quasi,-0.05472218888755671,0.015480619224767754,0.03084123364934005,0.044041968748391204,-0.2119641215323562,0.16988694839212673,-0.25897035881436403,0.4754590183607283,0.6999879995199785,-0.002520100804038002,-0.0004800192007685088,0.0015600624024959882,3.0950882068571954,4.219254164251691,-4.8377623912207275,-2.1780420584573976,-1.0875098932207714,1.1188350773695444,-3.628800336857649e-05,-0.24479712117483982,0.02882131213831565,0.258108,-0.044323,-0.822575,-0.020589999999999886,0.05572300000000002,-0.912883,0.2786979999999999,0.10004600000000002,0.09030800000000005,0.0,0.9949958014307703,single,-0.822575
76,0.633333,quasi,-0.06552262090482817,-0.023040921636861774,0.03780151206049009,0.15228152803515074,-0.48608812797962303,-0.03570617838935016,-0.2528501140045422,0.4700588023520926,0.6960278411136416,0.019800792031677672,0.0036001440057571543,-0.0014400576023038609,-1.2961036862200195,-4.622769814188091,0.8352668200108015,0.7344587555288362,-0.6480518431100076,-0.47523801828115725,2.6786142848572636,0.4896391703498915,-0.3600288017280495,0.2565470000000001,-0.04021400000000003,-0.81709,-0.01987899999999998,0.05594499999999997,-0.9132100000000001,0.27642600000000006,0.096159,0.0961200000000001,0.0,0.966371879829115,single,-0.81709
77,0.641667,quasi,-0.06323494120469729,-0.027597792176626983,0.04991600671945936,0.035354117324071795,-0.464473973731035,-0.11008675000188359,-0.2522198224142141,0.46268298536117686,0.7159827213822918,0.005879529637624912,-0.0002399808015294577,0.005159587233021136,0.27449960404738394,-0.5467807223140431,1.4536230692307823,0.07562894052413346,-0.8850272367309527,2.3943940807115833,-1.670417853858032,-0.46077811462522605,0.7918940287167068,0.254972,-0.03612799999999999,-0.811539,-0.01930300000000007,0.05617300000000003,-0.913583,0.27427500000000005,0.09230100000000002,0.10204400000000002,0.0,0.986956504392358,single,-0.811539
78,0.65,quasi,-0.05448217928716579,-0.03504140165606783,0.02496099843993581,-0.04123035460972591,-0.3756537872043427,-0.10096580870800222,-0.23412936517461033,0.4669386775470973,0.7290291611664466,0.006720268810759123,-0.001200048001921272,0.004920196807872219,1.0503734450415774,-0.8932688682876296,-2.994720782374108,2.170941706420699,0.5107034904500667,1.5656353995145456,0.10089273648556432,-0.11521267255391938,-0.028728000137875416,0.2534749999999999,-0.031945,-0.8056719999999999,-0.01879300000000006,0.05645500000000003,-0.91375,0.27226799999999995,0.08840000000000003,0.10807800000000001,0.0,0.9859751743203571,single,-0.8056719999999999
79,0.658333,quasi,-0.040921636865492605,-0.015720628825152218,0.056882275291009095,-0.08431618815469641,-0.35426743467386634,-0.022936301447754,-0.2520100804032173,0.4602184087363576,0.7165486619464816,0.0016800672026831415,-0.01248049921996807,0.010920436817472895,1.6273301838081493,2.31858548312922,3.830706450386844,-2.1457716582991897,-0.8064645158694027,-1.4977198151884175,-0.6048483869045995,-1.353708294497408,0.720057603456226,0.25171600000000005,-0.027978999999999976,-0.800175,-0.018437999999999954,0.05648200000000003,-0.914133,0.270154,0.08446100000000001,0.113958,0.0,0.9722190399499159,single,-0.800175
80,0.666667,quasi,-0.046436285097181694,-0.03359731221502284,0.07367410607151413,-0.17606840921604325,-0.6744723043728499,-0.11096954372340244,-0.24010079193663358,0.46412287017038073,0.7260619150467909,0.006719462443011228,-0.0010799136069158492,0.0037197024238060403,-0.6617048514145724,-2.14503040435211,2.0148585049801904,1.42900029596636,0.4684978922513908,1.1414990521129336,0.6046790545150046,1.3679608366993201,-0.8640190057195584,0.25010200000000005,-0.02383099999999999,-0.7947379999999999,-0.017994999999999983,0.056753,-0.914716,0.26809700000000003,0.08058399999999999,0.11997800000000003,0.0,0.9870735440275133,single,-0.7947379999999999
81,0.675,quasi,-0.03684147365895307,-0.033121324852993794,0.024840993639753676,-0.14940799476528924,-0.331548976033513,-0.07598135101468134,-0.25537021480860683,0.4627385095403828,0.7194287771510831,0.026161046441863744,-0.020520820832830435,-0.033121324852993794,1.1514234295246109,0.05712076827421587,-5.860207900127236,-1.8324040407984141,-0.1661299207965811,-0.7960083878204385,2.3330834031984202,-2.3330021871972284,-4.42110011722065,0.24828099999999997,-0.019698999999999967,-0.78895,-0.017469999999999875,0.05685800000000002,-0.915199,0.26575099999999985,0.07655699999999999,0.12624899999999994,0.0,0.9217815274978682,single,-0.78895
82,0.683333,quasi,-0.061322452898107865,-0.027361094443778718,0.04116164646585688,-0.24911909470272617,-0.5674445409401155,-0.18029535785510203,-0.25081003240128935,0.4670586823472923,0.7344293771750955,0.008160326413051434,-0.014880595223810647,-0.044521780871235234,-2.937835022099486,0.6912552993177882,1.958556681399658,0.5472437786292479,0.5184414744881236,1.8001440086418474,-2.160172810369912,0.6768541472482708,-1.368109446566848,0.24670199999999998,-0.01557900000000001,-0.783173,-0.01689099999999999,0.05696200000000001,-0.915913,0.26359299999999997,0.07254100000000002,0.13273999999999997,0.0,0.9205887635062349,single,-0.783173
83,0.691667,quasi,-0.03503719702423287,-0.03647708183344956,0.02483801295895796,-0.26583287985119175,-0.3683482693785362,-0.1242554381033533,-0.24454043676505505,0.46592272618190494,0.731941444684419,0.0014398848092033701,-0.008039356851449872,-0.009359251259899339,3.153978386594048,-1.0938309802820703,-1.9586793264817364,0.7522912930446671,-0.13630383553963946,-0.2985280166398429,-0.8063884813832509,0.8208829340485629,4.219166020078669,0.24495599999999995,-0.011392000000000013,-0.77728,-0.01658700000000013,0.057199,-0.916198,0.2615430000000001,0.06859100000000001,0.13891799999999999,0.0,0.9792970673712732,single,-0.77728
84,0.7,quasi,-0.02820112804512029,-0.022800912036484485,0.05592223688948539,-0.22318431852232146,-0.578469145039304,-0.028257855553196088,-0.23724948997961545,0.4603384135365464,0.7343093723749033,0.003720148805965985,-0.009480379215168182,-0.011400456018240577,0.820361091937195,1.6412060238767792,3.7302560819066017,0.8749486121972473,-0.6701443232159577,0.2841626893656966,0.2736426253165289,-0.1729296008302321,-0.24495436917571786,0.24321399999999982,-0.007365999999999984,-0.7716270000000001,-0.01632100000000003,0.05731000000000003,-0.9167590000000001,0.25953499999999985,0.06467600000000001,0.14513200000000004,0.0,0.9745219323826158,single,-0.7716270000000001
85,0.708333,quasi,-0.031081243249730967,-0.04356174246969887,0.08556342253689676,0.07752133079530578,-0.473437971767115,-0.043507073489029865,-0.25381015240607924,0.4825393015720605,0.7335893435737374,0.006480259210368207,-0.008160326413057988,-0.013440537621504923,-0.3456276496592663,-2.491399307958034,3.557084561071793,-1.9873589855350673,2.6642131327869882,-0.08640691241641037,0.33122649758816874,0.1584126727601331,-0.24481958517512745,0.24135799999999996,-0.0029819999999999847,-0.766227,-0.016008000000000022,0.05760500000000002,-0.917584,0.257366,0.060587,0.15135699999999996,0.0,0.971655260229517,single,-0.766227
86,0.716667,quasi,-0.04907607391409895,-0.041876649868008826,0.12467002639788867,0.557683909110309,-0.9077094559384798,0.06255538571896598,-0.1997840172786195,0.45572354211663,0.7314614830813501,0.004919606431480372,-0.00659947204223984,-0.013558915286776777,-2.1592069431686878,0.20219493660787513,4.692417069953397,6.482617605886649,-3.217633723953715,-0.2553228332598174,-0.18726335239834685,0.18728754149485669,-0.014204183497942576,0.24010200000000004,0.0011650000000000271,-0.76117,-0.01555799999999996,0.05789899999999998,-0.918736,0.25566,0.05673399999999995,0.15756599999999998,0.0,0.9735635067866533,single,-0.76117
87,0.725,quasi,-0.04224168966757604,-0.03960158406336253,0.10608424336973526,-0.1340567305541557,-0.6131870999602268,-0.07902953654517467,-0.2582503300131947,0.46381855274210815,0.7430697227889187,0.004920196807867288,-0.005040201608062748,-0.009360374414976886,0.8201589159393937,0.2730188173102502,-2.2303831787055772,-7.016238177676195,0.9714401326626907,1.3930444866877165,7.084800034987753e-05,0.18711993689872874,0.5038450584183283,0.238302,0.005359999999999976,-0.755862,-0.015165000000000095,0.05818699999999999,-0.919698,0.2534670000000001,0.05282700000000001,0.16383599999999998,0.0,0.9804758996460913,single,-0.755862
88,0.733333,quasi,-0.04104164166567419,-0.035881435257409396,0.12504500180006997,0.16579917343085182,-1.08144920429419,-0.014795243671524277,-0.2066482659306365,0.46465858634345686,0.7371894875794979,-0.03672146885874429,0.00804032161286253,-0.007320292811712264,0.14401152068904882,0.4464357141429403,2.275382026921232,6.192495389722545,0.10080806448442425,-0.7056564513885516,-4.997199767984088,1.5697255755340482,0.24481958517516056,0.23692200000000008,0.009531000000000012,-0.750761,-0.015128999999999948,0.058552999999999966,-0.920801,0.252051,0.049021999999999955,0.17003999999999997,0.0,0.9361708066261736,single,-0.750761
89,0.741667,quasi,-0.09947204223661787,-0.05987520998320495,0.01607871370289996,-0.18080093871374292,0.03993383602612225,-0.2464147905587645,-0.24790016798657727,0.4577633789296831,0.7431005519558482,0.0015598752099881005,-0.0011999040076739317,-0.009359251259899462,-7.011087181538759,-2.8790226452838596,-13.074908578974158,-4.9498322601321085,-0.8273587009567784,0.7092709834833687,4.593393816742574,-1.10873837539435,-0.24465544134715736,0.23568499999999992,0.013844999999999996,-0.744702,-0.014286999999999939,0.05904200000000004,-0.921013,0.24997199999999986,0.04519700000000004,0.176311,0.0,0.9840601334485322,single,-0.744702
90,0.75,quasi,-0.02016080643225072,-0.056042241689666775,-0.01572062882515201,-0.7510432365705035,0.2857702729308071,-0.21789610120861166,-0.1764070562822338,0.45469818792752026,0.7417496699867954,0.010680427217062681,0.006240249609983953,0.0014400576023042772,9.517729005684245,0.4599745942083471,-3.816073746316073,8.579516585184589,-0.3678376337648908,-0.16211232077917417,1.0945100212497951,0.8928541482848739,1.295968902220532,0.234383,0.018101000000000034,-0.73839,-0.014030000000000209,0.05956100000000003,-0.92087,0.24841300000000022,0.04146,0.18247999999999998,0.0,0.9792444112859644,single,-0.73839
91,0.758333,quasi,-0.060602424096987594,-0.0906036241449661,0.28513140525621444,0.8585571775398587,-1.9454440254098646,0.14482882073155826,-0.22284891395655704,0.44101764070562444,0.7357494299771957,0.006840273610967904,0.0006000240009573052,0.005040201608064346,-4.853188247298297,-4.147531795907739,36.10368823729332,-5.573245850752795,-1.6417313358809271,-0.7200576034560926,-0.4608368662060196,-0.6768541472490848,0.43203456207368934,0.2330310000000002,0.022531000000000023,-0.734635,-0.013467999999999813,0.060321000000000013,-0.923204,0.24649900000000002,0.03778999999999999,0.188569,0.0,0.9858036581272417,single,-0.734635
92,0.766667,quasi,-0.037916966642666756,-0.041276697864165754,0.1083513318934476,-0.29767981618941786,-0.7437522034632229,0.0030125306229603147,-0.17602591792657973,0.44888408927286005,0.750059995200389,0.007439404847613013,0.00011999040077138965,0.008519318454523464,2.7220371315479923,5.918757653083829,-21.211911850584098,5.618310058792605,0.9438983162029833,1.7171304563466974,0.07188999719763768,-0.057599424068384725,0.4174606247251185,0.23188000000000009,0.026615999999999973,-0.729287,-0.013089999999999824,0.060666,-0.924036,0.2449699999999999,0.034050000000000025,0.19474899999999995,0.0,0.98114839167541,single,-0.729287
93,0.775,quasi,-0.026521060842436793,-0.03516140645626329,0.0667226689067561,-0.3216391152698521,-0.3577119388155242,0.013054344202186605,-0.2034081363254524,0.4408976359054356,0.7308292331693251,0.010560422416880547,-0.008640345613826497,0.019320772830913328,1.3675633985635325,0.7338643235212334,-4.995639383978318,-3.2859976477706176,-0.9584127406005515,-2.30778375507786,0.3745370897956944,-1.051282373046664,1.296226374221747,0.2304060000000001,0.030583000000000027,-0.723753,-0.012780999999999931,0.060887000000000024,-0.924431,0.24318700000000004,0.030303999999999998,0.20067800000000002,0.0,0.9605781237856623,single,-0.723753
94,0.783333,quasi,-0.04884195367812647,-0.014040561622462415,0.14052562102484625,-0.04820551590518108,-1.3189524973245765,0.19138372023443076,-0.1261250450017908,0.4410176407056303,0.7718708748349996,0.009600384015370304,0.0028801152046044293,0.007680307212288332,-2.6786142848541803,2.534602764166695,8.8567085225118,9.274341932516776,0.01440115206944633,4.925194007641288,-0.11520921654989225,1.3825105986356694,-1.3969117507050406,0.22976200000000002,0.03437499999999999,-0.718492,-0.012294000000000027,0.06102799999999997,-0.9255380000000001,0.24205600000000005,0.026652999999999982,0.20704600000000006,0.0,0.9789544438769989,single,-0.718492
95,0.791667,quasi,-0.033237341012728655,-0.036957043436528454,0.01991840652747759,-0.21935063683754247,-0.21791274826249551,0.030054295961684803,-0.19594432445404164,0.4149268058555304,0.7377009839212791,0.008759299256058218,0.0010799136069158492,-0.003479721622269925,1.8724037275495198,-2.749757837060939,-14.471708003043886,-8.37764332280421,-3.1306497300335665,-4.100058904934031,-0.10092209734966158,-0.2160069111697344,-1.3390963324403853,0.2284060000000001,0.038141000000000036,-0.7125100000000001,-0.011943999999999955,0.06134500000000004,-0.925733,0.24035000000000006,0.023204000000000002,0.21322299999999994,0.0,0.9841886117497478,single,-0.7125100000000001
96,0.8,quasi,-0.012720508820345498,-0.0429617184687349,-0.049921996879884946,-0.3738319275736667,0.24348314217671196,-0.13323159443622787,-0.12840513620546284,0.4233769350773984,0.7503900156006219,0.0134405376214916,0.005400216008635731,-0.0052802112084486,2.462118347819881,-0.7205898274578689,-8.381183656229718,8.105026790901057,1.01405606886691,1.522744711309578,0.5617710746949913,0.5184570264874432,-0.2160673930371616,0.22744199999999992,0.04202699999999998,-0.7058409999999999,-0.011726000000000125,0.06174799999999997,-0.925361,0.23916800000000005,0.01972099999999999,0.21952000000000005,0.0,0.9743046148274052,single,-0.7058409999999999
97,0.808333,quasi,-0.008040321612869298,-0.05400216008640466,-0.04140165606623447,-0.08893107131969724,-0.06301587089330835,-0.07781833813192837,-0.15900636025441411,0.40561622464898894,0.7416296651866132,0.005880235209430965,0.024960998439942803,-0.004560182407296314,0.5616449306943769,-1.3249059903599978,1.0224817969099427,-3.672293777625291,-2.1313705062294006,-1.051284101045094,-0.9072725803504985,2.347387787268361,0.08640691241477172,0.22618399999999994,0.04585699999999998,-0.699316,-0.011609999999999898,0.06240600000000002,-0.925054,0.23779399999999984,0.016549000000000036,0.225738,0.0,0.9565890479504668,single,-0.699316
98,0.816667,quasi,-0.011639068874491601,-0.04055675545956352,-0.041996640268786876,-0.12545811150342953,-0.09799720518517786,-0.05987818697404771,-0.11483081353490128,0.4019678425725935,0.7443004559635189,0.016438684905187264,-0.011999040076792443,0.010199184065274909,-0.4318151261845783,1.6133194896617518,-0.07139239291485489,5.300641555017099,-0.4377708275012507,0.3204692556882247,1.2669126104819077,-4.434849834021474,1.7709822981246832,0.22532400000000008,0.049545000000000006,-0.692763,-0.011376000000000053,0.06264400000000003,-0.924619,0.23670000000000013,0.013099000000000027,0.23185599999999995,0.0,0.9620588657781755,single,-0.692763
99,0.825,quasi,-0.017400696027848682,0.015120604824194904,0.008400336013442354,-0.3926334608223007,-0.21584233047985515,0.0007973090241056329,-0.11508460338415492,0.39805592223689484,0.7409096363854637,0.008760350414015409,-0.013200528021120844,0.00864034561382453,-0.6914229153194688,6.681550496070915,6.047879069030324,-0.030456000150443564,-0.46944921825257224,-0.4069146259516663,-0.9214369964204878,-0.14418432069223716,-0.18706809689792306,0.22451,0.052736000000000005,-0.6866589999999999,-0.011158000000000001,0.06240800000000002,-0.924617,0.235668,0.009672000000000014,0.2379580000000001,0.0,0.9699235579574002,single,-0.6866589999999999
100,0.833333,quasi,-0.030601224048949133,-0.002760110404415595,0.07032281291251326,0.11633964122540495,-0.948622056416035,0.21687764119827457,-0.11856474258970176,0.39157566302651464,0.7349093963758475,0.005760230409222106,-0.0032401296051841034,-0.002520100804032173,-1.5841267276011515,-2.145771658299583,7.430994467667184,-0.41763341000201876,-0.7776622117340903,-0.7200576034580777,-0.360028801727264,1.1952956217372734,-1.339307142428496,0.2237769999999999,0.05602199999999996,-0.681121,-0.010855000000000059,0.062404000000000015,-0.9252239999999999,0.23463199999999995,0.006382000000000054,0.24410299999999996,0.0,0.9882113988333125,single,-0.681121
101,0.841667,quasi,0.0010799136069025276,-0.04295656347492467,-0.018358531317489508,-0.0788566523812887,-0.007109953831611087,-0.16282875916140147,-0.09071274298055833,0.3897288216942649,0.744540436765055,0.002519798416132541,-0.008279337652992647,-0.0074394048476120805,3.8014324041098417,-4.823188513379982,-10.640910034797466,3.341972595289563,-0.22160323161143528,1.1556323961131996,-0.38882073351206387,-0.6046565932095639,-0.5902692636884894,0.223012,0.059628000000000014,-0.674763,-0.010842999999999936,0.062693,-0.925133,0.23385499999999992,0.0030649999999999844,0.25037,0.0,0.9809794292265746,single,-0.674763
102,0.85,quasi,-0.04236169446778482,-0.018000720028799336,0.1086043441737733,0.21813268077602538,-0.960058257702337,0.006232319298075752,-0.1406456258250284,0.37597503900156315,0.7232689307572374,-0.010320412816516415,0.004680187207489692,0.005880235209408482,-5.2132014970224105,2.994821006375323,15.236154505131882,-5.992185628761614,-1.6505199439219853,-2.5526828282512626,-1.5408869833972247,1.5552051914655534,1.598420743672229,0.22219300000000008,0.062911,-0.669641,-0.010575999999999919,0.062882,-0.9259890000000001,0.232769,2.9000000000001247e-05,0.256348,0.0,0.9787219310139894,single,-0.669641
103,0.858333,quasi,0.06072242889716973,-0.05220208808352537,-0.13632545301812327,-0.28485833547642714,0.7981693028187732,-0.2037329816925369,-0.06288251530060804,0.38713548541941595,0.7269890795631804,-0.004320172806903256,0.017160686427457536,0.017400696027840955,12.370589627379589,-4.104328339700695,-29.392751373082387,9.331946540792037,1.3393071424280274,0.44643571414171873,0.7200576034577143,1.4977198151887428,1.3825105986358366,0.221163,0.06657200000000002,-0.662447,-0.011117999999999961,0.06346000000000002,-0.924708,0.23228099999999996,0.0031120000000000037,0.26226099999999997,0.0,0.9586365273192387,single,-0.662447
104,0.866667,quasi,0.008399328053757487,0.08327333813295319,-0.18670506359491368,-1.402341432648468,2.106807236620116,0.23705718762246653,-0.09083273338134425,0.3869690424766014,0.715622750179986,-0.02951763858890927,0.013198944084473196,0.04895608351331905,-6.278269839622335,16.255750685922646,-6.045069663641793,-3.3537578690588394,-0.019971555413311554,-1.3638504179498967,-3.023454017519337,-0.47537105147400555,3.786343590770131,0.22033599999999987,0.06910299999999997,-0.654927,-0.011433999999999944,0.06287599999999999,-0.922744,0.2317699999999998,0.0062269999999999825,0.26781699999999997,0.0,0.9022162075209123,single,-0.654927
105,0.875,quasi,-0.04452178087124921,0.04908196327853006,-0.08436337453498215,-0.7590606308205267,1.2335003724773674,0.07982075687262855,-0.10260410416414552,0.380895235809432,0.7047881915276603,-0.002400096003855867,0.005640225609026647,0.004080163206528578,-6.350787102484877,-4.103129107695066,12.28149394694961,-1.4126209987760978,-0.7288859554985437,-1.3001990462409334,3.2542352796175793,-0.9070825003535963,-5.385325849848829,0.21985200000000016,0.07186799999999999,-0.648351,-0.011082999999999954,0.06251400000000001,-0.922007,0.2309350000000001,0.009353999999999973,0.273656,0.0,0.9877275899382718,single,-0.648351
106,0.883333,quasi,-0.043801752070076465,0.032401296051841035,-0.02844113764551083,-0.18069083750037337,0.48270487360790465,0.34802813059818555,-0.07668306732269933,0.3804152166086635,0.7135485419416755,-0.0006000240009639668,0.008760350414015293,0.0044401776071041265,0.08640691241722558,-2.001760137608179,6.7109368642110985,3.1106488469274063,-0.05760460827655216,1.051284101045866,0.21601728103826867,0.37442995379678773,0.04320345620731399,0.21957800000000005,0.074768,-0.642168,-0.010723000000000038,0.06231700000000001,-0.9217329999999999,0.2303010000000001,0.01245099999999999,0.27956499999999995,0.0,0.9836005635800851,single,-0.642168
107,0.891667,quasi,0.026157907367416935,0.08675305975522357,-0.13786897048235686,-1.1117664673501306,1.85959633127429,0.21466875451654235,-0.07979361651069612,0.3880489560835173,0.6933045356371537,0.0022798176145897952,0.002879769618426761,0.012718982481401376,8.394487573493375,6.521689909213205,-13.130289517260216,-0.37323604367612273,0.9159754589457451,-2.4290864296282635,0.3455533495984855,-0.7056132464109149,0.9933771147464959,0.21869499999999986,0.07727899999999999,-0.635241,-0.010922000000000098,0.06161799999999995,-0.920478,0.22961699999999996,0.015661000000000036,0.2852370000000001,0.0,0.9779355013166448,single,-0.635241
108,0.9,quasi,0.07104284171365936,-0.13752550102004454,-0.17364694587783153,0.6333070337742982,1.8435102066164306,-0.41378252900313234,-0.05544221768870281,0.38437537501500035,0.6905076203048071,0.0031201248050019685,0.002760110404415595,0.012000480019200645,5.386407577852182,-26.914503873186987,-4.293528788608487,2.922284750029186,-0.440847362116517,-0.33564326561221575,0.10084089648531978,-0.014359680068542631,-0.08622374441386381,0.21764099999999997,0.08162800000000003,-0.62804,-0.011487999999999943,0.06278699999999998,-0.918931,0.22912899999999992,0.018841000000000052,0.290891,0.0,0.9788284186194884,single,-0.62804
109,0.908333,quasi,0.07248289931597918,0.07800312012480377,-0.23676947077883362,-1.0200486045580583,2.3503464688487288,0.24148681938536615,-0.05304212168484765,0.3897755910236413,0.6654266170646913,0.0012000480019279496,0.0031201248049953488,0.005040201608064413,0.17281382483137248,25.864469116146683,-7.575005988359854,0.28802304138427764,0.6480518431106425,-3.0098407824452154,-0.23041843310620863,0.04320345620781918,-0.8352668200091559,0.2165950000000001,0.08422600000000002,-0.620522,-0.012081999999999926,0.062163000000000024,-0.9169160000000001,0.22867700000000002,0.022063,0.29639400000000005,0.0,0.9899199142618818,single,-0.620522
110,0.916667,quasi,-0.030357571394295273,0.0273578113750905,0.004199664026878687,-0.10968123732317564,0.013346412503954323,-0.05518026697703864,-0.04475641948646219,0.39272858171346303,0.6526277897768095,0.0013198944084453037,0.0004799616030722306,0.004319654427645913,-12.339869295689185,-6.076950893894035,28.913983058040614,0.9942047274280533,0.3543305363356997,-1.5357364156325588,0.014380418348614496,-0.3167942406915164,-0.08645874495062338,0.21647499999999997,0.08727100000000004,-0.615118,-0.011817999999999884,0.06193900000000002,-0.916915,0.22829299999999986,0.02533200000000002,0.301797,0.0,0.9924296083390345,single,-0.615118
111,0.925,quasi,-0.049321972878907654,0.10392415696628222,0.0031201248049886453,-0.44020237699794773,-0.007106818475377045,0.0905325546090282,-0.03684147365892643,0.39313572542901565,0.6311052442097674,0.003720148805939289,0.0003600144005730508,0.002280091203648335,-2.275819210921913,9.188329004103133,-0.1295498886223494,0.94983149256399,0.04885920023432307,-2.5828087803962485,0.28804204938125233,-0.014394240069504299,-0.2447573771747953,0.21657900000000008,0.08968100000000001,-0.609885,-0.011376000000000053,0.061075999999999964,-0.916922,0.22795500000000013,0.028605000000000047,0.307037,0.0,0.9927031335865801,single,-0.609885
112,0.933333,quasi,0.0025201008040380353,0.06564262570502451,-0.002880115204611091,0.09798752564273432,0.000461470317185632,0.15290838034627652,-0.03900156006241854,0.377415096603862,0.6233049321972974,0.004440177607112096,-0.0015600624024943435,0.0007200288011519401,6.221297693861294,-4.59396751005137,-0.7200576034561131,-0.2592207372485459,-1.8865509210552946,-0.9360748844917883,0.08640691241723428,-0.23041843310541363,-0.18721497689864502,0.2162329999999999,0.092279,-0.604667,-0.011360000000000037,0.060516000000000014,-0.9168919999999999,0.22759299999999993,0.031762999999999986,0.312225,0.0,0.992064948827991,single,-0.604667
113,0.941667,quasi,-0.0014398848092300135,0.07199424046076798,0.01223902087833522,0.13851023189544828,-0.1527194829661951,0.1291649789287309,-0.009359251259901835,0.37556995440364743,0.5838732901367824,0.005519558435323991,-0.002399808015361153,-0.000839932805375571,-0.47516026077130047,0.7621328000652058,1.814151197857715,3.5567925129009454,-0.22139935207758277,-4.731418533779071,0.1295153381583738,-0.10076141263100591,-0.1871804183498319,0.216167,0.09480899999999998,-0.5999030000000001,-0.011301999999999923,0.05989599999999995,-0.9170010000000001,0.22746899999999992,0.03491300000000003,0.317098,0.0,0.989871644458763,single,-0.5999030000000001
114,0.95,quasi,0.03348133925358728,0.06420256810271896,0.046681867274688135,0.2799263041802172,-0.2749229852789261,0.21337409239849744,-0.03324132965316971,0.3771750870034844,0.5502220088803609,0.004680187207476369,-0.004320172806909975,-0.0004800192007680988,4.190714516118758,-0.9350380844892706,4.133306899838381,-2.865964045754002,0.19262361692511482,-4.038315283381949,-0.10072857648477496,-0.23045299310558498,0.043191360207305345,0.215611,0.09741700000000003,-0.595707,-0.011542000000000163,0.05932500000000002,-0.917394,0.22715300000000016,0.038092000000000015,0.32168700000000006,0.0,0.989354387469779,single,-0.595707
115,0.958333,quasi,0.02772110884433808,0.0715228609144412,0.032881315252609546,0.27992837087861594,-0.2630470578157405,0.16314268581102692,-0.018360734429385468,0.3849753990159577,0.5447017880715224,0.0018000720028919003,-0.002760110404415595,-0.0032401296051841034,-0.6912552993218742,0.8784702762177135,-1.6561324879489419,1.7857428565683646,0.9360748844921689,-0.6624529951804264,-0.3456276496561211,0.1872149768984008,-0.33122649758982275,0.21522700000000006,0.10002899999999998,-0.591442,-0.011757999999999935,0.05870599999999998,-0.917695,0.226985,0.041323,0.326253,0.0,0.9922977441041694,single,-0.591442
116,0.966667,quasi,0.021238300935936212,0.10367170626349524,0.04679625629949586,0.14748089966097963,-0.3857065702813403,0.22340729167060924,0.015598752099827513,0.4116870650347962,0.5356371490280698,0.0010799136069025276,-0.002399808015361153,-0.003959683225342156,-0.7778747190306957,3.8575528376594432,1.6696593528781147,4.074812398513646,3.205143510779734,-1.0876696716405676,-0.08641209455115996,0.04323282806028785,-0.08633952725678509,0.21517999999999993,0.10259600000000002,-0.587368,-0.011926000000000103,0.057821999999999985,-0.918118,0.22710600000000003,0.044774000000000036,0.33075,0.0,0.9920759888184321,single,-0.587368
117,0.975,quasi,-0.05352214088562949,0.09756390255610412,0.07500300012000388,0.40742180875135403,-0.8811817926193654,0.18538532082885006,0.0289211568462664,0.42373694947798374,0.5323412936517504,0.0018000720028919243,-0.003120124804988687,-0.003840153606144374,-8.97161188306329,-0.7329657635174827,3.3849446562472436,1.598752519673468,1.4460439749415173,-0.39551846589696493,0.08642246441730508,-0.08644147241420141,0.014344128068856696,0.2158669999999998,0.10531400000000002,-0.583557,-0.011465000000000058,0.056983000000000006,-0.918775,0.22733199999999987,0.04833100000000001,0.335218,0.0,0.9912246845999885,single,-0.583557
118,0.983333,quasi,-0.0322812912516589,0.09384375375015021,0.07380295211808828,0.36537963867567963,-0.8509064532719085,0.18390759913854055,0.054962198487947624,0.41665666626664594,0.5228609144365752,0.0013200528021100684,-0.0015600624024943227,-0.005160206408256057,2.5490039162331097,-0.44643571414303274,-0.14401152069069925,3.1250499990016936,-0.8496679720794158,-1.137691013461557,-0.05760460827815359,0.18721497689839886,-0.1584126727603117,0.21659399999999995,0.10800399999999999,-0.579815,-0.011185,0.056188000000000016,-0.9194330000000001,0.22777899999999995,0.05181599999999997,0.3396180000000001,0.0,0.9907497651267294,single,-0.579815
119,0.991667,quasi,-0.030957523398139303,0.08375329973601876,0.059395248380132715,0.4053393654158558,-0.8673083463960343,0.11083366468232542,0.07595392368611822,0.4137269018478553,0.4978401727861816,0.0022798176145897952,-0.001919846412288948,-0.001559875209983105,0.15883943526753094,-1.2107576210860933,-1.7287861456630247,2.5188055193389394,-0.35154360676633445,-3.0022488181418026,0.11516256449240848,-0.04317062752515327,0.43200518337808647,0.21748500000000015,0.11075400000000002,-0.576161,-0.010907999999999918,0.05547400000000002,-0.919941,0.22839300000000007,0.055279999999999996,0.34378,0.0,0.9943933102276308,single,-0.576161
120,1.0,quasi,0.0006000240009639668,0.08268330733229237,0.03636145445817124,0.3110301976484679,-0.4886390592559959,0.0877414195958828,0.08304332173285875,0.4153366134645359,0.46813872554901853,0.002160086403464951,-0.0015600624024943227,-0.0015600624024964046,3.7870571701791835,-0.12840422461615109,-2.7641658372688562,0.8507617960807027,0.19317312092650268,-3.5643162411091964,-0.014368320067783963,0.043175808207683165,-2.246400015595689e-05,0.21817200000000003,0.11352600000000002,-0.5725629999999999,-0.010894999999999877,0.05477200000000004,-0.920257,0.2290669999999999,0.05875399999999997,0.34769400000000006,0.0,0.9948539220247645,single,-0.5725629999999999
121,1.008333,quasi,0.0030001200047932272,0.08208328333133616,0.026761070442814745,0.28591312115188683,-0.40892236621098876,0.06580523218284144,0.07728309132366433,0.4420976839073628,0.4490579623184996,0.002880115204611091,-0.0009600384015370304,-0.0019200768030719789,0.2880230413811692,-0.07200576034515989,-1.152092165529411,-0.6912552993153093,3.2114569114157185,-2.289783178989453,0.08640691241403416,0.07200576034528955,-0.0432034562073176,0.21879100000000018,0.11652600000000002,-0.5690439999999999,-0.010895999999999795,0.05408000000000002,-0.920496,0.22968699999999997,0.062446,0.3514520000000001,0.0,0.9940131087055057,single,-0.5690439999999999
122,1.016667,quasi,0.005039596832265082,0.08579313654907796,0.0403167746580274,0.21026145754270237,-0.4781493999205961,0.062050599019278584,0.07871370290376589,0.4733621310295112,0.4179265658747218,0.0033597312214922927,-0.0011999040076805766,-0.0007199424046075133,0.24471764188526987,0.44514677438706113,1.6265543814749885,0.171659656839639,3.7514335399745784,-3.7354687357544436,0.05754931808029734,-0.028781570211608393,0.144004607447139,0.21940500000000007,0.11975599999999997,-0.565897,-0.010909999999999975,0.053354999999999986,-0.9208379999999999,0.23031500000000005,0.06640099999999999,0.35494099999999995,0.0,0.9939341849099808,single,-0.565897
123,1.025,quasi,0.01092043681748039,0.08088323532941487,0.015600624024970082,0.1525555756216785,-0.20452057362658604,-0.014291548548052299,0.11568462738509225,0.48181927277091413,0.41101644065763143,0.004440177607112096,0.0,-0.0009600384015361976,0.7057290273869389,-0.589211714828169,-2.966056718235635,4.436688405295415,1.014897604872557,-0.8292481959786936,0.12965875262448254,0.14399424069129815,-0.028812672138327913,0.22027799999999997,0.12309699999999996,-0.562602,-0.010963999999999974,0.05268099999999998,-0.920976,0.23124199999999995,0.07041599999999998,0.35837399999999997,0.0,0.9924286998556824,single,-0.562602
124,1.033333,quasi,0.012480499219954415,0.07644305772230739,0.010920436817466775,0.13325850903667244,-0.17871448462815312,-0.04276355731818138,0.10824432977318404,0.49261970478818595,0.3734549381975218,0.004920196807867157,-0.0006000240009572972,-0.0006000240009602116,0.18721497689595562,-0.5328426265579504,-0.5616449306976149,-0.8928714282861002,1.2961036862200448,-4.507560597636983,0.057604608274937304,-0.07200576034528822,0.043203456207365855,0.22107600000000005,0.12656499999999998,-0.559581,-0.011026999999999898,0.052039,-0.921072,0.23210299999999995,0.07452599999999998,0.361491,0.0,0.9916786095193039,single,-0.559581
125,1.041667,quasi,0.030957523398139716,0.06755459563234832,0.0016798656107595126,0.21979598838720993,-0.06367412784510738,-0.0044411496878616254,0.14230861531076697,0.500479961603079,0.3581713462923053,0.004679625629937721,-0.0009599232061444868,0.0005999520038398879,2.2170655361393874,-1.0665301283848376,-1.108779842417499,4.0873872735281465,0.9431553653579489,-1.8338843178805841,-0.028866232052968645,-0.04318444986647426,0.14398560172787644,0.22200399999999987,0.13017299999999998,-0.55661,-0.01124600000000009,0.051468000000000014,-0.921081,0.23324999999999996,0.07870499999999997,0.364471,0.0,0.9919756808864524,single,-0.55661
126,1.05,quasi,0.0031201248049752806,0.0633625345013757,0.0345613824552922,0.15985233084887973,-0.4263354978116382,-0.02039371355494955,0.15720628825154465,0.5174606984279326,0.330373214928592,0.004440177607111978,-0.0016800672026897584,0.0018000720028802186,-3.3406214560379155,-0.5030674584150421,3.945939858938211,1.7877922645838735,2.0377699297795973,-3.3359092000135364,-0.028734912135574053,-0.08642073641488766,0.14402016069126483,0.22328800000000015,0.13395700000000005,-0.554145,-0.011234999999999884,0.05092600000000003,-0.921354,0.23452300000000004,0.08303100000000002,0.367209,0.0,0.9915379831987933,single,-0.554145
127,1.058333,quasi,0.03444137765512431,0.05628225129005178,0.014520580823237591,0.06708067793268434,0.04654549616917185,-0.10358399206952165,0.17976719068762906,0.5185407416296656,0.3123724948997948,0.006240249609977374,-0.001320052802110086,0.00012000480019171244,3.7587006900455195,-0.8496679720777617,-2.404992395542397,2.707416588993714,0.12961036862269873,-2.1601728103681,0.2160172810350909,0.043203456207809396,-0.20161612896778128,0.224499,0.13780900000000001,-0.551663,-0.011470000000000091,0.050446000000000046,-0.921474,0.2359690000000001,0.08736299999999997,0.369811,0.0,0.9893675476139151,single,-0.551663
128,1.066667,quasi,0.029157667386608035,0.050515958723302314,-0.003359731221505614,0.029126706796926537,-0.02467777107039444,-0.10774668721226655,0.19270458363330742,0.5397168226541837,0.27789776817854844,0.006959443244554005,-0.0014398848092166917,-0.00035997120230375665,-0.6339945126609353,-0.6918997560294483,-2.14546580810452,1.5523629644442358,2.540926448826256,-4.136636275647479,0.08629633244259963,-0.014378690557547973,-0.05759251289842397,0.225862,0.141886,-0.549319,-0.011654999999999971,0.05001300000000003,-0.921449,0.23751699999999998,0.09187299999999998,0.37212999999999996,0.0,0.988140088790328,single,-0.549319
129,1.075,quasi,0.051002040081591454,0.03120124804992684,0.02316092643705754,0.2674890236638899,0.016392454188740337,-0.051294322393035996,0.2152886115444459,0.5460218408736398,0.23928957158286498,0.007200288011514404,-0.0014400576023055455,0.0009600384015361976,2.6214295805812573,-2.317857995124883,3.182606223276539,2.710191757006922,0.7566324516327995,-4.633168918238787,0.028902528136373635,-2.073600010246157e-05,0.15840748876034635,0.22723099999999996,0.14617599999999997,-0.547518,-0.01201999999999992,0.04974099999999998,-0.9216340000000001,0.23925099999999988,0.09643499999999999,0.3741160000000001,0.0,0.9876577074118726,single,-0.547518
130,1.083333,quasi,0.022560902436106287,0.04680187207488235,-0.0019200768030740096,-0.08067767268428341,-0.007075548782138815,-0.12955508485482112,0.2388095523821101,0.5640225609024274,0.21888875555021725,0.05244209768390892,-0.011880475219010441,-0.0019200768030719277,-3.4130730403797753,1.8721497689853879,-3.0098407824470312,2.8226258055518776,2.16017281036689,-2.4481958517517555,5.429234330060449,-1.2529002300137662,-0.34562764965895537,0.22903300000000004,0.15048599999999998,-0.545678,-0.011770999999999976,0.04925199999999996,-0.921634,0.24080400000000002,0.10123400000000002,0.37595599999999996,0.0,0.9103245667877784,single,-0.545678
131,1.091667,quasi,0.016438684905214346,0.056515478761700044,0.002399808015361217,-0.26733330310996806,-0.09954087104488463,-0.12407727564943592,0.2516198704103738,0.5801535877129947,0.18454523638109108,0.003839692824577947,-0.010199184065275181,-0.036117110631150515,-0.7346073351202372,1.165539559253405,0.5183447106353862,1.5371151941761405,1.9355683717983723,-4.120892628884908,-5.831822037356839,0.20173879934428754,-4.10331579410598,0.230993,0.15485,-0.54416,-0.011875999999999998,0.04869599999999996,-0.921955,0.242869,0.10615400000000003,0.377795,0.0,0.9371241903757175,single,-0.54416
132,1.1,quasi,0.005880235209404162,0.038881555262208725,0.005760230409208705,-0.08280049433364103,-0.19130293296987713,-0.1448694449274302,0.29737189487578747,0.6253450138005403,0.16824672986919353,0.010920436817453453,-0.004920196807867157,-0.0038401536061438554,-1.2670646460830433,-2.1161554661575677,0.4032668179344089,5.4904625543517165,5.423188058027693,-1.9558990173883664,0.8497232680757688,0.6335038110413935,3.873389778591875,0.23342200000000002,0.159737,-0.5428059999999999,-0.011834000000000122,0.04833100000000001,-0.9220349999999999,0.24525600000000014,0.11140599999999998,0.37922900000000004,0.0,0.9790363372163138,single,-0.5428059999999999
133,1.108333,quasi,0.015240609624383703,0.0351614064562571,0.013200528021127506,-0.07369825254028138,-0.1633600997914632,-0.12860476747860394,0.29773190927636844,0.6000240009600444,0.12468498739949857,0.010800432017298254,-0.006240249609984035,-0.006360254410176581,1.123289861392011,-0.44643571414276473,0.8928714282873957,0.04320345620796594,-3.0386430865830025,-5.227618201091487,-0.014401152064706598,-0.15841267276093732,-0.30242419345166793,0.23577599999999999,0.164444,-0.5418769999999999,-0.011870999999999965,0.04798600000000003,-0.922198,0.24764699999999995,0.11645799999999998,0.380321,0.0,0.9766641142397618,single,-0.5418769999999999
134,1.116667,quasi,0.02531797456203019,0.02987760979121638,0.00959923206143129,-0.00204452299165687,-0.19766724946442996,-0.07098608238816831,0.3086153107751379,0.6100311975041957,0.09323254139668422,0.006959443244527361,-0.003119750419969499,-0.009959203263738794,1.2091870575529649,-0.6340048794145285,-0.4321209454879036,1.3059037075557172,1.2007675238962323,-3.773991601009613,-0.46088178218992837,0.374429948405869,-0.43183931528223973,0.23813700000000004,0.169279,-0.54118,-0.012024000000000035,0.047711,-0.922361,0.2501610000000001,0.12156800000000001,0.381181,0.0,0.9790933010068036,single,-0.54118
135,1.125,quasi,0.01044041761669855,0.03612144485779413,0.0022800912036471162,-0.1598571898691886,-0.18619716419784843,-0.12563094132737132,0.3310932437297469,0.6137045481819304,0.05448217928717318,0.002400096003855899,-0.0022800912036471162,-0.011640465618624835,-1.7853782485697558,0.7492901795965207,-0.8783320362155574,2.697459852947227,0.4408197141167419,-4.650229462319859,-0.5471435546227653,0.10076313648414621,-0.2017595529684454,0.24080900000000005,0.174092,-0.540745,-0.012090999999999852,0.047391000000000016,-0.922477,0.2528999999999999,0.12670099999999998,0.38173199999999996,0.0,0.9798299096196138,single,-0.540745
136,1.133333,quasi,0.01656066242649379,0.026761070442821406,0.009360374414979384,-0.05575542876258586,-0.15403134675909233,-0.11276299129103971,0.34297371894876433,0.6213848553942234,0.030001200048005553,0.0,-0.0010800432017258282,-0.011160446417856736,0.7344587555256563,-1.1232898613911928,0.849667972078763,1.4257140548442968,0.9216737324244604,-2.937835022101026,-0.2880230413843659,0.14401152069138354,0.05760460827650338,0.2435290000000001,0.17904699999999998,-0.540573,-0.012228999999999823,0.047159000000000006,-0.922648,0.25575799999999993,0.13188799999999998,0.38207500000000005,0.0,0.981312358691471,single,-0.540573
137,1.141667,quasi,0.02687784977201827,0.036237101031913445,0.0008399328053730732,-0.24652396292345916,-0.023277619749933014,-0.1091556796897724,0.3702903767698462,0.6124310055195534,-0.008399328053757375,0.0014398848092033701,0.0010799136069091885,-0.00911927045836364,1.2379634443873775,1.13703270807439,-1.022371203456473,3.2777367195922347,-1.074376034877597,-4.607694756630986,0.17277235531597782,0.25917408310955126,0.24492152141745638,0.24639100000000003,0.183849,-0.54065,-0.012440999999999924,0.04686600000000002,-0.922731,0.25883199999999995,0.136983,0.382081,0.0,0.9845080150333089,single,-0.54065
138,1.15,quasi,0.01680067202688471,0.02124084963399014,0.00312012480500201,-0.05929308805018839,-0.12257566326140024,-0.13357723764669843,0.3666146645865904,0.6211448457938358,-0.04020160806432651,0.002760110404428955,0.00012000480018879799,-0.007560302412096203,-1.2093097018041106,-1.7996221526369185,0.27363398531488753,-0.4411031061149443,1.0457026610203322,-3.8164262583186632,0.15843340876342216,-0.11519366455303004,0.18708364889804996,0.24930600000000003,0.18884799999999996,-0.5410110000000001,-0.012557999999999847,0.046689999999999954,-0.9228200000000001,0.2618639999999999,0.142158,0.38180899999999995,0.0,0.9865845463116585,single,-0.5410110000000001
139,1.158333,quasi,0.02064082563303228,0.029041161646461085,-0.0032401296051973835,-0.20589472384092897,-0.06544592651446376,-0.13626574812646278,0.48109924396976855,0.6701068042721599,-0.052322092883713464,0.0033601344053661936,0.0015600624025009636,-0.004320172806912358,0.4608368662123491,0.9360748844918767,-0.7632610596663005,13.738699073944092,5.875670044200554,-1.4545163589807684,0.07200576034288111,0.17281382483045007,0.3888311058662893,0.2531430000000001,0.19419,-0.54142,-0.012701999999999991,0.04646100000000003,-0.9228289999999999,0.2658450000000001,0.14772899999999997,0.3814089999999999,0.0,0.9905148960347454,single,-0.54142
140,1.166667,quasi,0.03323734101272954,0.042236621070317455,-0.015478761699056537,-0.44463971495974985,0.12339025128920135,-0.13697614621914714,0.33501319894407955,0.5957523398128259,-0.08687305015598946,0.001679865610746191,0.0,-0.004319654427646027,1.511460928689405,1.5833284645856276,-1.4685183697935429,-17.528923089235874,-8.92182198936109,-4.145783210016398,-0.201616126064319,-0.18719251289908725,6.22005359168135e-05,0.25565799999999994,0.19880299999999998,-0.542015,-0.012965000000000115,0.04610900000000001,-0.922736,0.26862300000000006,0.15269399999999997,0.380721,0.0,0.9922753348068869,single,-0.542015
141,1.175,quasi,0.032401296051840604,0.028561142445699246,-0.014760590423614795,-0.27858536728717653,0.08127803255249304,-0.15363516066774524,0.4262570502820038,0.6224648985959326,-0.1204848193927742,0.004440177607111978,0.0008400336013415484,-0.0007200288011519209,-0.10032940848301024,-1.6411230798773515,0.0861840004130241,10.949700148556659,3.205635279383915,-4.033573651360151,0.3312506895914723,0.10080806448356339,0.43197235407344814,0.25893999999999995,0.20375199999999996,-0.542896,-0.013198000000000043,0.045877999999999974,-0.9226190000000001,0.272138,0.157874,0.37972300000000003,0.0,0.9923734245509954,single,-0.542896
142,1.183333,quasi,0.022560902436080242,0.028561142445693345,-0.02532101284052252,-0.2720778568243823,-0.009813035708780244,-0.17040781694923907,0.5065402616104727,0.6450258010320494,-0.15180607224288636,0.005160206408258207,0.0002400096003842576,0.0001200048001921288,-1.180894469670041,-7.082118403063905e-13,-1.267301382084222,9.634370734245731,2.707416588997608,-3.7587006900410964,0.08640691241404488,-0.07200576034528937,0.10080806448386624,0.2629730000000001,0.20888900000000002,-0.5439499999999999,-0.013342999999999883,0.045642000000000016,-0.922407,0.276316,0.163247,0.37845700000000004,0.0,0.9913880354647711,single,-0.5439499999999999
143,1.191667,quasi,0.04187664986802881,0.030357571394288612,-0.014278857691382209,-0.28134275045165225,0.08118004335191531,-0.10558054675880536,0.3624910007199325,0.5681545476361834,-0.19066474682025378,0.005759539236866767,-0.00011999040077138805,0.001679865610751142,2.317704275491771,0.21555422949307101,1.3249526216870922,-17.28452854458113,-9.223812502503646,-4.6626679358491865,0.07191418629812274,-0.04319654441512394,0.18716832380117604,0.2656449999999999,0.213371,-0.54542,-0.01364399999999999,0.045387999999999984,-0.9222739999999999,0.2792889999999999,0.16798300000000002,0.3768539999999999,0.0,0.989998800295927,single,-0.54542
144,1.2,quasi,0.038161526461037,0.023040921636868744,-0.020160806432250992,-0.23335642894462486,0.06289457511510359,-0.17293203829237408,0.448457938317549,0.6249849993999839,-0.22776911076443396,0.004800192007658505,-0.0006000240009573131,0.0020400816032641075,-0.44583264214470697,-0.8780330922140808,-0.7058620833875959,10.316445169520852,6.819927008736462,-4.452701781372917,-0.11512627255589472,-0.05760633627576257,0.043227648207484565,0.2690640000000002,0.218387,-0.54715,-0.01392199999999999,0.04519099999999998,-0.922089,0.2829860000000002,0.17319600000000002,0.374939,0.0,0.9912497928500568,single,-0.54715
145,1.208333,quasi,0.033361334453377606,0.028801152046076833,-0.01788071522861672,-0.371480000600944,0.13631480817845082,-0.20926548343127627,0.4453378135125351,0.6048241929677068,-0.25609024360974286,0.004200168006721065,0.0020400816032628043,0.0008400336013440465,-0.5760460827624279,0.6912552993169313,0.27362188931168013,-0.3744299537998123,-2.419393547615105,-3.3986718883125415,-0.0720057603429052,0.31682534552022934,-0.14401152069123244,0.2724970000000002,0.22318700000000002,-0.5491349999999999,-0.014164999999999983,0.04496800000000001,-0.921933,0.2866620000000002,0.17821900000000002,0.3727980000000001,0.0,0.9920927247486815,single,-0.5491349999999999
146,1.216667,quasi,0.03479721622271766,0.018598512119032778,-0.018118550515960535,-0.19846427245004872,0.08325178101054106,-0.20041291242845077,0.4590832733381279,0.6210703143748602,-0.2957763378929736,0.00287976961843346,-0.0009599232061444868,0.0015598752099831258,0.17229202895849344,-1.224218853737011,-0.02853795144514263,1.6493232332125074,1.9493786185689492,-4.76195035795914,-0.15843513178397292,-0.35997177938653085,0.08637408311004235,0.276033,0.228208,-0.551449,-0.014431000000000083,0.044804999999999984,-0.921769,0.29046400000000006,0.183403,0.37032,0.0,0.9943118699890652,single,-0.551449
147,1.225,quasi,0.03132125285012147,0.02412096483859393,-0.03024120964837568,-0.2864413819473995,0.07122488987348129,-0.21790201216018876,0.46213848553941933,0.6091443657746233,-0.34897395895834815,0.0028801152046110143,0.0002400096003842512,0.0010800432017278813,-0.4171322900031363,0.6627208351807338,-1.4547772869812712,0.36664012976015886,-1.4311710788715555,-6.383969886640302,4.1472000186498534e-05,0.14399769669131368,-0.057582144276399384,0.27962299999999995,0.233083,-0.5541050000000001,-0.014668000000000125,0.04460599999999998,-0.921508,0.2942910000000001,0.18847700000000003,0.3674029999999999,0.0,0.9948578102595331,single,-0.5541050000000001
148,1.233333,quasi,0.0522020880835194,0.03432137285491553,-0.03036121444858527,-0.40015194595180026,0.11155938449119848,-0.16743875527878904,0.48937957518301495,0.6180247209888438,-0.35893435737430085,0.003480139205575066,0.00036001440057971716,-0.0006000240009598112,2.505800460026176,1.2240979258756384,-0.014401152071233722,3.2690615196922916,1.0656852531165921,-1.1952956217392043,0.07200576034610069,0.014401152069538828,-0.20161612896768366,0.283266,0.237947,-0.556843,-0.015074000000000032,0.044323,-0.92126,0.29834000000000005,0.193624,0.364417,0.0,0.9940836835642313,single,-0.556843
149,1.241667,quasi,0.027477801775861888,0.024118070554356275,-0.027237820974319114,-0.25018353349789924,0.021643787291735005,-0.20738500456168793,0.4884809215262665,0.6292296616270648,-0.39704823614110646,0.0013198944084453037,0.0009599232061444612,-0.00107991360691127,-2.9666770227570582,-1.2242983322005252,0.3747772347331572,-0.10782981242482044,1.344485317761099,-4.573299588049594,-0.2592086389644523,0.07198329800392843,-0.05758214614248321,0.2871079999999999,0.24298999999999998,-0.559925,-0.015292000000000083,0.04413,-0.921042,0.3024,0.19885999999999998,0.361117,0.0,0.99673835964517,single,-0.559925
150,1.25,quasi,0.016680667226675924,0.029401176047041577,-0.012720508820345667,-0.2457515405028342,-0.023292163924396397,-0.1767392883223727,0.4740189607584224,0.6323052922116937,-0.44593783751350424,-0.02352094083764392,0.019560782431293677,-0.003600144005760533,-1.2957079742212965,0.6339980190430038,1.7421471443626042,-1.7355047123297964,0.3690904337728219,-5.866986844161554,-2.9810194703095467,2.232192394713715,-0.3024397454517324,0.2909189999999999,0.24801399999999998,-0.5635350000000001,-0.015627000000000058,0.044047999999999976,-0.9209660000000001,0.306546,0.203966,0.35743099999999994,0.0,0.9486617993629347,single,-0.5635350000000001
151,1.258333,quasi,0.02844113764551121,0.021960878435136253,-0.015600624024970082,-0.104132201099408,-0.039259196876836724,-0.15209971397376645,0.5763830553222317,0.627265090603631,-0.3912156486259468,0.04332173286932185,-0.006960278411136808,0.05220208808352398,1.411312902776358,-0.8928714282857784,-0.34562764966091947,12.28418271496582,-0.6048483869030097,6.566925343520691,8.021441702504065,-3.1826546072759783,6.696535712142688,0.295485,0.253058,-0.566665,-0.015503000000000045,0.043806999999999985,-0.920401,0.31098800000000004,0.20925100000000002,0.35373600000000005,0.0,0.886345112845932,single,-0.566665
152,1.266667,quasi,0.02951763858890888,0.02939764818814415,-0.025797936165102422,-0.20856284849450854,-0.00858126576160277,-0.14977941454104796,0.5191984641228626,0.6163906887448943,-0.4769618430525529,0.003839692824577845,0.003959683225342572,0.0025197984161267127,0.1291697796253494,0.8923409830822944,-1.2235795704502355,-6.86160201576297,-1.3048238371414191,-10.288720233573965,-4.737465808104597,1.3102905731316652,-5.961397848259765,0.299566,0.25795,-0.570425,-0.01571699999999998,0.043594999999999995,-0.920165,0.315283,0.21435500000000002,0.34974000000000005,0.0,0.9898933855143596,single,-0.570425
153,1.275,quasi,-0.028081123244938153,0.16812672506900256,0.009480379215161521,-0.7365540144670464,-0.4617626687942161,-0.2767240987973098,0.46993879755191004,0.5996639865594681,-0.5040201608064346,0.001560062402501005,0.0027601104044156313,0.0042001680067203446,-6.912127905177914,16.648155151909236,4.2335671883192445,-5.911396444372141,-2.007284553633316,-3.247128015586461,-0.2735665933129558,-0.14395449669110186,0.2016524169679164,0.3037160000000001,0.261546,-0.5747039999999999,-0.015469999999999873,0.042217000000000005,-0.9202089999999999,0.31918599999999997,0.219329,0.34550500000000006,0.0,0.9912292443900612,single,-0.5747039999999999
154,1.283333,quasi,0.04800192007682359,0.06900276011040227,-0.05268210728428651,-0.5314733122737128,0.3778289204576416,-0.24318506430708073,0.5174606984279393,0.6063842553702045,-0.5233409336373368,0.0013200528021100508,0.0019200768030740096,0.0039601584063359814,9.130330411827723,-11.89535160909619,-7.459796771804505,5.702856219372186,0.8064645158689882,-2.3185854831275443,-0.02880230413907956,-0.10080806448357219,-0.0288023041382886,0.307628,0.26602400000000004,-0.578626,-0.015859000000000067,0.04165800000000003,-0.919737,0.3234870000000001,0.224366,0.34111100000000005,0.0,0.9923420177930811,single,-0.578626
155,1.291667,quasi,0.11735061195103695,0.11627069834414105,-0.0350371970242338,-0.3745538475232363,0.1127866923987469,-0.03509286882165942,0.5190784737220917,0.601751859851224,-0.5566354691624781,0.0035997120230351646,0.0021598272138250952,0.0016798656107511866,8.321177330719303,5.671698852140591,2.1172198536180757,0.19411750589782137,-0.5558429948380746,-3.9950246610441456,0.27353722353313625,0.028767747870301202,-0.27361324641046775,0.3109759999999999,0.27007,-0.582973,-0.016807000000000016,0.04070699999999999,-0.919431,0.32778299999999994,0.22936299999999998,0.33645800000000003,0.0,0.9924640254054031,single,-0.582973
156,1.3,quasi,0.03012120484819355,0.09156366254649524,-0.015600624024969666,-0.08138037684985644,0.0011400412221282401,-0.10378793839078805,0.5353414136565426,0.5892235689427471,-0.572182887315482,0.012600504020163194,0.0021600864034515992,-0.0020400816032640533,-10.467947570243835,-2.964962894233215,2.332482059194023,1.9516308573683732,-1.5034550472190973,-1.8657648089527894,1.0801382451851522,3.110399934045532e-05,-0.4464115221427067,0.31518599999999997,0.27421700000000004,-0.5876109999999999,-0.016952999999999996,0.039962,-0.919318,0.33213899999999996,0.23425500000000002,0.3317070000000001,0.0,0.9784232244337869,single,-0.5876109999999999
157,1.308333,quasi,0.05280211208448338,0.12324492979719304,-0.029401176047034915,-0.30925192630757414,0.13504280162567098,-0.04351695249573177,0.5425417016680714,0.5718228729149225,-0.5892235689427662,-0.002880115204611091,0.007200288011521066,-0.006240249609984452,2.721817741064447,3.80190414624962,-1.656132487947363,0.8640691241484204,-2.088167050020968,-2.0449635938178785,-1.8577486169176078,0.6048483869038178,-0.5040403224193492,0.31926699999999997,0.277955,-0.592276,-0.017417000000000016,0.038995,-0.919125,0.336684,0.23896,0.32684899999999995,0.0,0.9834101833246687,single,-0.592276
158,1.316667,quasi,0.040196784257256014,0.1408687305015598,-0.03515718742500426,-0.3665700310744062,0.25378003539520416,-0.09161840523094147,0.5364770818334629,0.5571154307655338,-0.635109191264693,0.004679625629937597,-0.0019198464122822615,0.0013198944084473853,-1.512518337800248,2.114686909571229,-0.6906661120673507,-0.7276961644598561,-1.7647518777764064,-5.505834211894227,0.9070963324392405,-1.0943285845696253,0.9071447106349627,0.3234030000000001,0.281424,-0.597276,-0.01771300000000009,0.03780500000000003,-0.918821,0.3411160000000002,0.24361899999999997,0.32154499999999997,0.0,0.9912874886366131,single,-0.597276
159,1.325,quasi,0.043441737669503995,0.14508580343214048,-0.04104164166567474,-0.25144603648663877,0.2102700355659201,-0.019426706413445023,0.554662186487453,0.5397815912636558,-0.6345853834153442,-0.04236169446775818,0.006960278411130147,-0.006840273610944679,0.389409985869196,0.506068994429464,-0.7061627553906797,2.1822998504728566,-2.080143945983225,0.06285945630010867,-5.645184219092308,1.0656576051137032,-0.9792593327003648,0.32766300000000004,0.284713,-0.602222,-0.01842799999999989,0.036653999999999964,-0.918536,0.3460909999999999,0.24805900000000003,0.316314,0.0,0.9275479473334889,single,-0.602222
160,1.333333,quasi,-0.01800072002878553,0.11640465618624192,0.3456138245529753,3.01781996880974,-2.096789056887178,0.5792905938634327,0.554062162486501,0.5231009240369525,-0.6585863434537258,-0.007320292811722992,-0.008760350414015176,-0.0043201728069119415,-7.37338985938899,-3.4418753445215473,46.40051196671586,-0.07200576034465836,-2.0017601376098595,-2.8802304138222934,4.205136404180315,-1.886550921054248,0.3024241934516613,0.33243,0.288102,-0.61059,-0.018339000000000105,0.035611000000000004,-0.9214519999999999,0.3507690000000001,0.252491,0.31086199999999997,0.0,0.9796561284612075,single,-0.61059
161,1.341667,quasi,0.07583393328533453,0.17614590832734014,-0.10559155267578697,-0.3394023181544932,0.9702374223933724,-0.11462332043919675,0.5520758339332784,0.5061195104391745,-0.6535877129829714,0.013558915286780885,0.002999760019198191,-0.00515958723302162,11.259257657082054,7.16837678678898,-54.140314042329116,-0.23834035915797916,-2.0376066232035486,0.599787673476666,2.505304547456716,1.4111003639565143,-0.10072167339929144,0.3363989999999999,0.290852,-0.615157,-0.01885800000000004,0.034167999999999976,-0.920615,0.35525699999999993,0.256684,0.305458,0.0,0.9753094662571733,single,-0.615157
162,1.35,quasi,0.053042121684872885,0.23148925957038044,-0.01776071042840794,0.06753129683179067,0.3359596296593749,-0.032332490599747375,0.5513020520820721,0.4689787591503572,-0.6437057482299222,-0.0002400096003909128,0.0019200768030740096,-0.0032401296051840604,-2.735126797127234,6.641467807877034,10.540122674592283,-0.09285753644621901,-4.457068437395491,1.1858832056941042,-1.655937223949545,-0.12956716862164436,0.2303441291056674,0.3405509999999998,0.29283099999999995,-0.6203730000000001,-0.019302000000000152,0.03225499999999998,-0.920494,0.359853,0.26057600000000003,0.30012099999999997,0.0,0.9937100743255644,single,-0.6203730000000001
163,1.358333,quasi,-0.10992439697589672,0.34777391095643617,0.2893315732629261,1.9173279536068064,-2.9733960823717687,0.5973768569481613,0.5499819992799767,0.46081843273731327,-0.6557062282491323,0.047041881675261195,-0.02124084963398348,0.018720748829953355,-19.556764509872927,13.954716354981015,36.852548144886214,-0.15841267275835386,-0.9792783406989083,-1.4401152069134966,5.674053915234913,-2.779422349340898,2.63541082864966,0.34604999999999997,0.293773,-0.6282479999999999,-0.017994000000000065,0.02918000000000004,-0.9227489999999999,0.36404400000000003,0.26459299999999997,0.294501,0.0,0.908491367112214,single,-0.6282479999999999
164,1.366667,quasi,0.036477081833462884,0.243100551955845,0.03203743700504142,0.6232057064508155,-0.2770582440972829,0.024989750175228666,0.5485961123110134,0.43784497240220444,-0.637269018478518,0.0039596832253625544,-0.003359731221505614,-0.002999760019198527,17.56677211535379,-12.559798296207147,-30.87282652482394,-0.16629313282497554,-2.7565947126360277,2.2122881894185396,-5.16945025796716,2.145562564492168,-2.60625256169327,0.3503179999999999,0.295396,-0.633826,-0.018264999999999976,0.027125999999999983,-0.923041,0.3685829999999999,0.26827,0.289215,0.0,0.990004800416261,single,-0.633826
165,1.375,quasi,0.1116044641785532,0.1708868354734182,-0.16488659546381843,0.1619982435342241,1.4581613531403452,-0.17258158980692875,0.5192607704308183,0.4290171606864324,-0.6560662426497119,0.003960158406330258,0.0,-0.0008400336013440688,9.01564650727121,-8.665992617596,-23.631829169430173,-3.5203818408970733,-1.059379781083895,-2.255757130828521,5.702399708427717e-05,0.4031838739356348,0.25917753724402715,0.353715,0.297547,-0.637919,-0.0191619999999999,0.025702000000000003,-0.921674,0.3728769999999999,0.271845,0.283755,0.0,0.9932528789977965,single,-0.637919
166,1.383333,quasi,0.056162246489876305,0.26341053642145956,-0.03108124324973138,0.43307372205166855,0.26483583666204513,0.028401751207267838,0.5193807752310271,0.3890555622224918,-0.6481459258370381,0.001320052802110086,0.001800072002878601,-0.0019200768030719789,-6.6533322559315256,11.103288245294875,16.057284557072876,0.014401152071138377,-4.795583639018476,0.9504760365623272,-0.3168253455202443,0.21601728103667556,-0.1296103686220953,0.357575,0.298594,-0.643061,-0.019619000000000053,0.023521999999999987,-0.921431,0.37719400000000003,0.27507200000000004,0.27837,0.0,0.995092666048091,single,-0.643061
167,1.391667,quasi,0.026517878569717428,0.2912167026637862,0.031197504199668345,0.5645028068233273,-0.3765591301926425,-0.03319669368864028,0.5177585793136592,0.37401007919366186,-0.6411087113030892,-0.0013198944084453037,0.005639548836095379,-0.0009599232061436286,-3.557039587252058,3.3364730312366704,7.472851865778647,-0.19464793824908622,-1.8053135383765118,0.844398192218484,-0.31676832380074027,0.46070036395689334,0.11520921489420961,0.361669,0.299284,-0.648664,-0.019851000000000063,0.021141999999999994,-0.921699,0.3815200000000001,0.278142,0.273035,0.0,0.9902150789355022,single,-0.648664
168,1.4,quasi,0.04548181927276019,0.28525141005640703,0.03828153126124578,0.6360842194705549,-0.4978438985110758,0.1855593511959621,0.49909996399854073,0.3354134165366644,-0.6079443177727183,-0.025801032041291038,0.0031201248049953488,-0.006960278411136392,2.275763914921749,-0.7158637474354029,0.8501172520793834,-2.2391234027503475,-4.631784790231347,3.979886419101312,-2.937854030102719,-0.30234297745110444,-0.7200714274562364,0.3654489999999999,0.29970199999999997,-0.654049,-0.020445000000000046,0.018791000000000002,-0.922076,0.38589399999999996,0.28091099999999997,0.268027,0.0,0.9551584917999763,single,-0.654049
169,1.408333,quasi,0.08916356654265273,0.2217688707548216,-0.078603144125759,0.5612046901787473,0.613122956731624,0.024413094654591367,0.5280211208448463,0.3106924276971026,-0.6510260410416319,-0.01608064322571152,0.021480859234367166,-0.012240489619584736,5.242019353161139,-7.618209444567901,-14.026722115324942,3.470677648662556,-2.9666373262404147,-5.170013592813251,1.1664933176022256,2.2033762665752423,-0.6336506910414319,0.36910600000000016,0.300443,-0.658819,-0.02132199999999984,0.017122000000000026,-0.9215230000000001,0.390428,0.283321,0.26270400000000005,0.0,0.9508448039898549,single,-0.658819
170,1.416667,quasi,0.06311495080394006,0.2620590352771851,-0.029277657787380205,0.3051423387733213,0.292643269591263,-0.0007244040061620713,0.5153587712982984,0.324814014878816,-0.5889128869690499,-0.03587712982962022,0.006119510439167773,-0.02387808975282038,-3.125583841938225,4.834432988044669,5.9185848738156634,-1.5193603967540341,1.6944549054132088,7.452982250129971,-2.375388361400177,-1.8432143982721003,-1.3964003039639867,0.37287500000000007,0.300966,-0.663483,-0.022146999999999917,0.01498900000000003,-0.921478,0.395022,0.285977,0.257995,0.0,0.9274515483151996,single,-0.663483
171,1.425,quasi,0.07080283211329415,0.23784951398055312,-0.11112444497779506,0.10405288523349761,0.7397639356986095,-0.06862553173196707,0.501620064802592,0.2940117604704138,-0.6650666026641006,-0.017280691227666085,0.0078003120124781715,-0.014640585623424334,0.922582660428892,-2.905258765946425,-9.822007343143337,-1.6487107279138569,-3.6964183857436326,-9.138811435863358,2.2316618987104055,0.20170425696752298,1.108544837320999,0.37646500000000005,0.30143400000000004,-0.668099,-0.02288100000000015,0.013072000000000028,-0.920674,0.3993460000000002,0.288362,0.252575,0.0,0.9600759782630541,single,-0.668099
172,1.433333,quasi,0.09228369134765711,0.19620784831393406,-0.22044881795271742,-0.28745815685012666,1.7967408147780393,-0.1549521512367395,0.5095403816152659,0.26545061802472325,-0.6044641785671432,0.002280091203673763,0.001320052802110086,-0.003840153606144374,2.5778062203723944,-4.997199767985053,-13.119449534972203,0.9504760365623405,-3.427474192450592,7.272581794906748,2.347387787272294,-0.7776622117326466,1.296103686221056,0.379942,0.30201100000000003,-0.6712990000000001,-0.023630999999999958,0.011448000000000014,-0.918869,0.40357299999999996,0.290563,0.24756999999999996,0.0,0.9922382463650616,single,-0.6712990000000001
173,1.441667,quasi,0.09035277177825748,0.2834173266138724,-0.15370770338373865,-0.9274941403875399,1.0316087883779974,0.0546169908883574,0.5034797216222504,0.23482121430285402,-0.6691864650827881,-0.0008399328053863948,0.006479481641468453,-0.005279577633789125,-0.23169181298291494,10.464300251972366,8.008293084830605,-0.7272210214801392,-3.67523442787005,-7.766053097629523,-0.37437293125271587,0.6190819341682657,-0.17271706595209263,0.38338499999999986,0.301606,-0.675595,-0.02439100000000005,0.009139999999999981,-0.917632,0.4077759999999999,0.292466,0.24203700000000006,0.0,0.9859996915261269,single,-0.675595
174,1.45,quasi,0.0871234849393989,0.24516980679227598,-0.07404296171846686,-0.26927424946615647,0.5574102672918329,0.08115530876442473,0.5180607224289171,0.15336613464538737,-0.6360254410176498,0.013200528021127506,-0.0022800912036471162,0.009120364814592628,-0.38752992185990726,-4.589885974030576,9.560151405888938,1.7497900884035547,-9.775000558918444,3.979482067099319,1.684922696089527,-1.0511907890454395,1.728062216294478,0.386976,0.30084099999999997,-0.6802779999999999,-0.025007,0.007077999999999973,-0.916939,0.411983,0.293763,0.236661,0.0,0.9729900321750993,single,-0.6802779999999999
175,1.458333,quasi,0.10536421456857302,0.1909276371054753,-0.09060362414495823,0.21064221207433417,0.92212898352843,-0.06974429126797875,0.4297371894875521,0.24180967238689077,-0.6864274570982722,0.003960158406330152,0.003600144005757106,0.008160326413056213,2.1889751145054355,-6.509320735245377,-1.9873589855383516,-10.599247922880533,10.61364907494322,-6.048483869029349,-1.108888709324036,0.7056564513865498,-0.11520921655302992,0.3896789999999999,0.301265,-0.685243,-0.025851999999999986,0.005516999999999994,-0.916116,0.4155309999999999,0.295748,0.230873,0.0,0.9837352785800201,single,-0.685243
176,1.466667,quasi,0.09551235901128319,0.19930405567555257,-0.1815454763618929,-0.5557323097350375,1.1788312064257789,-0.17072814545997128,0.45740340772740834,0.19774418046556694,-0.6532277417806704,0.005639548836082208,0.00287976961843346,0.0087592992560597,-1.1821280966270722,1.0050898212235924,-10.912149294088838,3.3196806143336683,-5.287436035676107,3.983647146340584,0.20151073071179362,-0.08643801143792414,0.07187099148110122,0.392695,0.301252,-0.6891740000000001,-0.026601000000000097,0.0038799999999999946,-0.9145300000000001,0.4192960000000001,0.297372,0.225356,0.0,0.9819858922888032,single,-0.6891740000000001
177,1.475,quasi,0.11352454098162425,0.247929917196685,-0.24972998919956355,-1.498907030012272,2.0887470537170723,-0.3744655018120601,0.43669746789870206,0.1662066482659274,-0.6549861994479653,0.05604224168966603,0.0,0.009720388815552598,2.161548298372824,5.83533679600763,-8.182468839273907,-2.484812171931587,-3.7846552501666846,-0.21102336100982194,6.0485650850333545,-0.34558617765911553,0.11533536055356791,0.3953880000000001,0.300571,-0.692551,-0.027079999999999993,0.0018139999999999823,-0.9123680000000001,0.42246800000000007,0.298757,0.21981700000000004,0.0,0.9052016934585083,single,-0.692551
178,1.483333,quasi,0.1168846753870202,0.20028801152045977,-0.07548301932078573,-0.2132411758242143,0.7457881074517803,0.1761352778685354,0.3898955958238434,0.16356654266170834,-0.6331453258130386,0.012000480019199556,0.0014400576023055455,0.004920196807872285,0.4032322579378356,-5.717257371441937,20.910472804365703,-5.616449306955366,-0.31682534552011177,2.6210096765782915,-5.2852228093684,0.17281382482966023,-0.5760460827649534,0.3976630000000001,0.300265,-0.697198,-0.027954000000000034,0.00015700000000001824,-0.9116979999999999,0.42561700000000013,0.300108,0.2144999999999999,0.0,0.978250566851744,single,-0.697198
179,1.491667,quasi,0.0814734821214412,0.14518838492920322,-0.06707463402927429,0.020211415560694605,1.0349930029031202,-0.139650094069524,0.3952483801295756,0.1328293736501066,-0.6636669066474608,0.009119270458385703,0.003359731221498953,0.0017998560115187832,-4.249003271607719,-6.611426276848588,1.0089255209396903,0.642282734069129,-3.6881652281739252,-3.6622967163933167,-0.34571748989846784,0.2303424069106543,-0.37441094268700237,0.4002779999999999,0.30016200000000004,-0.70217,-0.028556999999999944,-0.0010249999999999981,-0.9111239999999999,0.42883499999999986,0.30118700000000004,0.20895399999999997,0.0,0.9835270955441552,single,-0.70217
180,1.5,quasi,0.01824072962917693,0.1299651986079456,-0.111724468978762,-0.04015389879806319,0.9145517152136142,-0.35763117009988526,0.4278171126845161,0.048601944077763866,-0.7137885515420692,0.006960278411123485,0.004800192007685152,0.0,-7.58823382842492,-1.8268554327682431,-5.358194521719443,3.9084042427626096,-10.107695856515482,-6.014837980872305,-0.2590894092478384,0.17286220883069867,-0.21599136103669742,0.403691,0.29948400000000003,-0.707187,-0.028650999999999982,-0.0020679999999999588,-0.9101929999999999,0.432342,0.301552,0.2030059999999999,0.0,0.9859083043691411,single,-0.707187
181,1.508333,quasi,0.08412336493460568,0.15000600024001443,-0.05760230409215521,-0.01019729351936094,0.5436220068300389,-0.10049073483551879,0.40369614784590824,0.03348133925357063,-0.6767070682827381,-0.0038401536061481215,0.01248049921996807,-0.014280571222848754,7.90623248595096,2.4049923955441046,6.494919583176201,-2.8946315658956068,-1.8145451607096335,4.449955989359352,-1.2961036862200535,0.9216737324232556,-1.7137370962257152,0.4063539999999999,0.298513,-0.712346,-0.029384000000000077,-0.0032139999999999946,-0.9098320000000001,0.43573799999999996,0.30172699999999997,0.19748600000000005,0.0,0.9677490588014477,single,-0.712346
182,1.516667,quasi,0.11255099592031152,0.17026637868970396,-0.03347732181425811,-0.12680563502320857,0.37138964539066155,0.08096783203554754,0.32877369810417156,-0.03383729301655895,-0.733981281497476,0.0021598272138316985,0.00455963522917953,-0.0032397408207342263,3.411042834857887,2.4310509298883343,2.8947662920442663,-8.98997477102665,-8.077589665242268,-6.872355797304713,0.7199401031893178,-0.9504276446830431,1.3247936647605523,0.4081560000000002,0.29681199999999996,-0.718184,-0.030303999999999887,-0.004595000000000016,-0.90958,0.43846000000000007,0.301407,0.191396,0.0,0.9900068012569778,single,-0.718184
183,1.525,quasi,0.06852274090964891,0.15756630265210855,-0.024720988839558547,-0.06830891807090367,0.2234426099822783,-0.13437118099209036,0.36145445817830557,0.03084123364934629,-0.6995079803192192,-0.001560062402501005,0.004320172806909975,-0.005160206408256542,-5.283601945357376,-1.5240700873149549,1.050801989043519,3.9218480828194298,7.761733669255471,4.136961619855643,-0.44640461014433425,-0.02873664013795233,-0.23046508910624422,0.4105969999999999,0.29575599999999996,-0.723807,-0.030888000000000027,-0.005872000000000044,-0.9094169999999999,0.4414849999999999,0.301628,0.18560999999999994,0.0,0.9884860690710637,single,-0.723807
184,1.533333,quasi,0.10212408496338897,0.1549261970478776,-0.032401296051840604,0.0026240440683891813,0.24207087450271644,0.038086390841096864,0.28945157806312716,0.02904116164646525,-0.6719068762750384,-0.0026401056042201017,0.005640225609026572,-0.006360254410176411,4.03232257935191,-0.3168253455215289,-0.9216737324231277,-8.640691241470916,-0.2160172810369628,3.3122649759006757,-0.12961036862103417,0.15841267276089926,-0.14401152069120943,0.412158,0.294707,-0.729136,-0.03176099999999993,-0.007116000000000011,-0.9092,0.44391899999999995,0.301823,0.180064,0.0,0.9851643130439993,single,-0.729136
185,1.541667,quasi,0.08735301175906837,0.17002639788817236,0.0003599712023008521,-0.16316825548555494,0.0587036442344467,0.04272076717414529,0.2686585073194318,0.0350371970242388,-0.6558675305975645,-0.005639548836108851,0.00851931845452233,-0.008639308855291638,-1.7723869935590206,1.8118791505033651,3.9310375874900503,-2.4949688917321513,0.7194666879977997,1.9245675158956321,-0.35990439547501873,0.34546350437914713,-0.2734646562413331,0.41366900000000006,0.293582,-0.734605,-0.03253600000000012,-0.008462000000000025,-0.9092749999999999,0.4462050000000002,0.30204400000000003,0.17467,0.0,0.9777002145313295,single,-0.734605
186,1.55,quasi,0.09288371534861861,0.14904596183846677,-0.02808112324492408,0.17687021037726008,0.10624674084186718,0.07409758580838838,0.24828993159724472,0.04752190087603427,-0.5965438617544602,-0.008520340813624263,0.009120364814594883,-0.009120364814592385,0.6637109791851846,-2.5177530360860705,-3.4130678563811876,-2.444326859736797,1.4982243911910784,7.119125026173446,-0.34570886565646963,0.07212844834663912,-0.057729024277059775,0.4149639999999999,0.292736,-0.7393419999999999,-0.033381000000000105,-0.00962799999999997,-0.909117,0.448345,0.30236399999999997,0.169775,0.0,0.9742362056213425,single,-0.7393419999999999
