frame_id,timestamp,gait_type,root_linear_velocity_x,root_linear_velocity_y,root_linear_velocity_z,root_angular_velocity_x,root_angular_velocity_y,root_angular_velocity_z,left_linear_velocity_x,left_linear_velocity_y,left_linear_velocity_z,right_linear_velocity_x,right_linear_velocity_y,right_linear_velocity_z,root_acceleration_x,root_acceleration_y,root_acceleration_z,left_acceleration_x,left_acceleration_y,left_acceleration_z,right_acceleration_x,right_acceleration_y,right_acceleration_z,left_pos_rel_x,left_pos_rel_y,left_pos_rel_z,right_pos_rel_x,right_pos_rel_y,right_pos_rel_z,step_length,step_width,step_height,left_contact_prob,right_contact_prob,support_type,max_foot_height
<<<<<<< HEAD
<<<<<<< HEAD
1,0.008333,quasi,0.01824072962920341,0.1636865474619023,-0.0004800192007685108,-0.1143752240971233,-0.39355943063064525,-0.00800700810628816,0.016680667226702417,0.018360734429377218,-0.011040441617664922,0.001080043201719157,0.00012000480019545849,0.001200048001920028,0.0,0.0,0.0,0.0,0.0,0.0,0.0,0.0,0.0,0.03298099999999993,0.182993,-0.906176,-0.01848200000000011,-0.172578,-0.911111,0.051463000000000036,0.35557099999999997,0.004935000000000023,0.9053960075724691,0.9973017445571455,double,-0.906176
2,0.016667,quasi,0.057595392368588176,0.14302855771537926,0.00815934725222798,-0.36205297392931307,0.18007790397279025,-0.04284976998667028,0.016798656107514874,0.013318934485241178,-0.00791936645068437,0.002039836813047004,-0.0015598752099814307,0.0037197024238064848,4.722181754185836,-2.4787604687452665,1.0366410430761328,0.014157533094847265,-0.6049675958886536,0.37449906011285716,0.11516602007773541,-0.20156947566317363,0.3023343438788645,0.03264100000000014,0.18191200000000002,-0.9063100000000001,-0.01894499999999999,-0.17378299999999997,-0.9111480000000001,0.05158600000000013,0.355695,0.004838000000000009,0.9135300032153046,0.9924666793849207,double,-0.9063100000000001
=======
1,0.008333,stand,0.01824072962920341,0.1636865474619023,-0.0004800192007685108,-0.1143752240971233,-0.39355943063064525,-0.00800700810628816,0.016680667226702417,0.018360734429377218,-0.011040441617664922,0.001080043201719157,0.00012000480019545849,0.001200048001920028,0.0,0.0,0.0,0.0,0.0,0.0,0.0,0.0,0.0,0.03298099999999993,0.182993,-0.906176,-0.01848200000000011,-0.172578,-0.911111,0.051463000000000036,0.35557099999999997,0.004935000000000023,0.9053960075724691,0.9973017445571455,double,-0.906176
2,0.016667,stand,0.057595392368588176,0.14302855771537926,0.00815934725222798,-0.36205297392931307,0.18007790397279025,-0.04284976998667028,0.016798656107514874,0.013318934485241178,-0.00791936645068437,0.002039836813047004,-0.0015598752099814307,0.0037197024238064848,4.722181754185836,-2.4787604687452665,1.0366410430761328,0.014157533094847265,-0.6049675958886536,0.37449906011285716,0.11516602007773541,-0.20156947566317363,0.3023343438788645,0.03264100000000014,0.18191200000000002,-0.9063100000000001,-0.01894499999999999,-0.17378299999999997,-0.9111480000000001,0.05158600000000013,0.355695,0.004838000000000009,0.9135300032153046,0.9924666793849207,double,-0.9063100000000001
>>>>>>> 3b0d06690e55fb02323d988053aa126fb7c3a6e7
=======
1,0.008333,stand,0.01824072962920341,0.1636865474619023,-0.0004800192007685108,-0.1143752240971233,-0.39355943063064525,-0.00800700810628816,0.016680667226702417,0.018360734429377218,-0.011040441617664922,0.001080043201719157,0.00012000480019545849,0.001200048001920028,0.0,0.0,0.0,0.0,0.0,0.0,0.0,0.0,0.0,0.03298099999999993,0.182993,-0.906176,-0.01848200000000011,-0.172578,-0.911111,0.051463000000000036,0.35557099999999997,0.004935000000000023,0.9053960075724691,0.9973017445571455,double,-0.906176
2,0.016667,stand,0.057595392368588176,0.14302855771537926,0.00815934725222798,-0.36205297392931307,0.18007790397279025,-0.04284976998667028,0.016798656107514874,0.013318934485241178,-0.00791936645068437,0.002039836813047004,-0.0015598752099814307,0.0037197024238064848,4.722181754185836,-2.4787604687452665,1.0366410430761328,0.014157533094847265,-0.6049675958886536,0.37449906011285716,0.11516602007773541,-0.20156947566317363,0.3023343438788645,0.03264100000000014,0.18191200000000002,-0.9063100000000001,-0.01894499999999999,-0.17378299999999997,-0.9111480000000001,0.05158600000000013,0.355695,0.004838000000000009,0.9135300032153046,0.9924666793849207,double,-0.9063100000000001
>>>>>>> 3b0d06690e55fb02323d988053aa126fb7c3a6e7
3,0.025,quasi,0.01248049921998128,0.2002880115204646,-0.02316092643705733,-0.16583784331278492,-0.08003299492546878,-0.040226056920314585,0.021120844833787827,0.011520460818432601,-0.009840393615744479,-0.0003600144005730523,0.0,0.0033601344053762446,-5.4140037379823465,6.8714093129827605,-3.758583186041679,0.5186833944885338,-0.2158254730359507,-0.23053248110645727,-0.287993665381022,0.18719251289828762,-0.04314988820715711,0.03271299999999999,0.18033899999999997,-0.906199,-0.01905200000000007,-0.175452,-0.910927,0.05176500000000006,0.35579099999999997,0.0047280000000000655,0.9093980639836158,0.9943677235728119,double,-0.906199
4,0.033333,quasi,0.03024120964837621,0.20604824192967341,-0.031081243249731095,0.0671028761127717,-0.09654359651426182,0.08264500149345266,0.02028081123245959,0.010440417616705116,-0.007320292811712295,-0.0024000960038292308,0.0002400096003842554,0.0042001680067203055,2.1313705062276407,0.69125529931703,-0.9504760365623143,-0.1008080644819678,-0.12961036862204303,0.3024241934516001,-0.2448195851741484,0.02880230413827618,0.10080806448386666,0.03263000000000016,0.178709,-0.9060010000000001,-0.019323999999999897,-0.17716699999999996,-0.910633,0.051954000000000056,0.35587599999999997,0.0046319999999999695,0.9137529724265256,0.9919275026718716,double,-0.9060010000000001
5,0.041667,quasi,0.039476841852654626,0.1843052555795581,0.007199424046070191,-0.21999960447334638,-0.20004215245690532,0.11941423008784863,0.017998560115175477,0.007199424046075187,-0.007319414446844078,-0.0032397408207342506,0.0017998560115175478,0.0027597792176620164,1.108187209536647,-2.6089496460421544,4.593312610487314,-0.27384822621599614,-0.38888811742619733,0.00010539535255788339,-0.10074931808315571,0.1871665960083144,-0.17283282806074982,0.03245100000000001,0.17723299999999997,-0.906122,-0.01967999999999992,-0.178688,-0.91067,0.05213099999999993,0.355921,0.0045479999999999965,0.9199852469460327,0.9922986683009497,double,-0.906122
6,0.05,quasi,0.023880955238216758,0.20076803072122645,0.0016800672026964494,-0.2619676966732266,-0.14483926326233462,-0.00028948922410318656,0.014280571222846542,0.006720268810752489,-0.00756030241209655,-0.0038401536061480864,0.0016800672026897876,0.0039601584063368835,-1.8715812569828234,1.975612041481862,-0.6623493151774561,-0.4461765141400378,-0.05750092827585481,-0.028907712138782203,-0.07205241634631415,-0.014375232068613969,0.1440512646915717,0.03237099999999993,0.175616,-0.906199,-0.019911000000000012,-0.18034699999999998,-0.910651,0.05228199999999994,0.355963,0.0044520000000000115,0.9263131000056039,0.9903892045467889,double,-0.906199
7,0.058333,quasi,0.03228129125165904,0.2000480019200737,-0.026041041641668393,0.12676217811458507,0.0871061257110585,0.11875784530148915,0.009960398415943268,0.0025201008040330163,-0.008160326413056355,-0.0037201488059393044,0.001680067202683126,0.003720148805951795,1.008080644838867,-0.08640691241482859,-3.3266661279689,-0.5184414744873723,-0.5040403224192335,-0.07200576034559046,0.014401152071136684,-7.994185753252654e-13,-0.028802304138376172,0.03218499999999991,0.17397,-0.90605,-0.02021099999999998,-0.182,-0.910403,0.05239599999999989,0.35597,0.00435299999999994,0.9346022553724518,0.9907952850122149,double,-0.90605
8,0.066667,quasi,0.03695704343652207,0.21250299976002188,0.029277657787379643,-0.5402188604451749,-0.28196703959893044,0.03306202110247114,0.00575953923686681,-0.0008399328053764098,-0.008759299256059947,-0.007679385649155747,0.0013198944084519743,0.0050395968322534635,0.5610453785532796,1.4944801823791922,6.637712914452607,-0.5040627764670575,-0.40317177938678017,-0.07187099148111253,-0.47507041555272883,-0.043217277925504165,0.15832109746840275,0.03192499999999998,0.172192,-0.906367,-0.020583000000000018,-0.18375999999999998,-0.910605,0.052508,0.355952,0.004237999999999964,0.940091998371196,0.9845338522510199,double,-0.906367
9,0.075,quasi,0.038641545661818516,0.20652826113044542,-0.0062402496099906455,0.14282631885990982,0.009772263247444549,0.1548942814360548,0.002760110404402285,-0.0009600384015353569,-0.007680307212288685,-0.004920196807867247,0.00324012960518412,0.0066002640105603675,0.2021483529696924,-0.7169973154417927,-4.262319380459656,-0.3599458577300525,-0.014413248068996423,0.12948422462153647,0.3311159055908439,0.23043744110550188,0.18728755289894458,0.03162599999999993,0.170463,-0.9063789999999999,-0.02094599999999991,-0.18545399999999998,-0.910498,0.05257199999999984,0.355917,0.004119000000000095,0.9451141975152924,0.9852549197003395,double,-0.9063789999999999
10,0.083333,quasi,0.035881435257416175,0.21552862114484467,0.012000480019199436,-0.26289998135512754,-0.1769949567028889,0.1328204922564004,0.003120124805001979,-0.00396015840633688,-0.007080283211328034,-0.006720268810759145,0.004200168006721135,0.006840273610944611,-0.3312264975881842,1.0800864051841157,2.1889751145073886,0.04320345621021161,-0.3600288017282516,0.0720057603456919,-0.21601728103826914,0.11520921655310382,0.028802304138274715,0.031352999999999964,0.168634,-0.906538,-0.021301000000000014,-0.18721499999999996,-0.9105409999999999,0.05265399999999998,0.35584899999999997,0.004002999999999979,0.9454835653728237,0.9825522392995125,double,-0.906538
11,0.091667,quasi,0.04235661147108807,0.22738180945524467,-0.016918646508272957,0.00703178955009025,0.0007411377244659422,0.14096999811773295,0.0033597312214923205,-0.010799136069113622,-0.011759059275258091,-0.007679385649155754,0.004439644828408178,0.008399328053755779,0.7769589889215138,1.4222688157427412,-3.4700175818901386,0.028750469941245714,-0.8206116705995616,-0.5614082150144061,-0.11508481382248731,0.028734919808860553,0.1870715674119473,0.031027999999999833,0.166649,-0.906495,-0.021718000000000126,-0.18907300000000002,-0.91033,0.05274599999999996,0.35572200000000004,0.003834999999999922,0.934458058344483,0.9796399000012361,double,-0.906495
12,0.1,quasi,0.058562342493678324,0.22164886595463984,0.009240369614783831,-0.2870685368279055,-0.12959029557386717,0.05159587736602314,0.002040081603282823,-0.00396015840633688,-0.006840273610944611,-0.007080283211332197,0.004320172806916593,0.010560422416896403,1.9447655133313624,-0.6879807393021505,3.1392075030669346,-0.15836428875668984,0.8207101479391259,0.5902778908332504,0.07189516834556056,-0.01433721606763292,0.25934169724476447,0.030557000000000167,0.164769,-0.906629,-0.02226499999999998,-0.190884,-0.910319,0.05282200000000015,0.355653,0.003689999999999971,0.9494950447524197,0.977619649922211,double,-0.906629
13,0.108333,quasi,0.04824192967718874,0.22692907716308383,-0.0002400096003909172,-0.09345399502666044,-0.015440134038738397,0.06036253504941793,0.0008400336013282406,-0.0027601104044156083,-0.008040321612864235,-0.007560302412087397,0.003720148805952631,0.010680427217088548,-1.238499077941869,0.6336506910409211,-1.1376910134615092,-0.14401152069537781,0.14401152069138037,-0.14401152069118262,-0.05760460827495501,-0.07200576034608937,0.014401152069140192,0.030162000000000022,0.16285500000000003,-0.906694,-0.022729999999999917,-0.19274399999999997,-0.9102279999999999,0.05289199999999994,0.355599,0.003533999999999926,0.9504228578930733,0.9773266428231913,double,-0.906694
14,0.116667,quasi,0.05639548836095417,0.2307415406767466,0.009719222462202743,-0.13761334641669412,0.14332941446825073,0.20335731571374732,0.0020398368130736455,-0.004319654427646774,-0.008159347252219649,-0.00839932805375743,0.004319654427643443,0.013678905687545342,0.9783487741499188,0.4574590249175382,1.1950122465315154,0.14396486821999083,-0.18713031236275068,-0.014281934167916248,-0.10067502299856401,0.07193491980931266,0.3597886333641458,0.029708999999999985,0.16089599999999998,-0.906843,-0.023270000000000124,-0.194631,-0.910195,0.05297900000000011,0.355527,0.0033520000000000216,0.9507218190399961,0.9722951775689153,double,-0.906843
15,0.125,quasi,0.06732269290769376,0.2265690627625108,0.011880475219017321,-0.24797251859005928,-0.09936751940695057,0.3141819343093346,0.0034801392055483905,-0.0033601344053762476,-0.008640345613824874,-0.008520340813624419,0.005640225609026676,0.015120604824193114,1.311316998288683,-0.5007173784034332,0.2593607052459595,0.17284320082500254,0.11514700855280537,-0.057722112277118105,-0.01452211206852143,0.1584748807612185,0.17301081683040603,0.02917700000000001,0.15898,-0.907014,-0.023901999999999868,-0.19647199999999998,-0.910168,0.053078999999999876,0.355452,0.00315399999999999,0.951956006843584,0.9695843131321988,double,-0.907014
16,0.133333,quasi,0.038281531261272046,0.2460098403936151,-0.01572062882515206,-0.06039565078508251,0.20454031739523498,0.08892738657876954,0.0033601344053928958,-0.003840153606143087,-0.006840273610944611,-0.008280331213260135,0.007200288011520994,0.016080643225728445,-3.4850788007226314,2.332986635197922,-3.3122649758993594,-0.014401152064741948,-0.05760460827635172,0.21601728103687282,0.028802304135879454,0.18721497689839398,0.11520921655290173,0.028885999999999967,0.156898,-0.9069400000000001,-0.024290000000000145,-0.19846199999999997,-0.909903,0.05317600000000011,0.35536,0.002962999999999938,0.9561469137184897,0.9675536717107522,double,-0.9069400000000001
17,0.141667,quasi,0.07835373170143918,0.22546196304295943,0.019318454523634163,-0.3239563112355003,-0.2534603372974965,0.16232572949394983,0.004199664026878729,-0.003599712023038435,-0.007799376049915499,-0.010679145668347247,0.007559395248377716,0.019078473722102206,4.80827939046883,-2.4655480382356267,4.204353653562071,0.10073549573864113,0.028850681918004856,-0.11508308602962448,-0.2878347078338273,0.043089421269105185,0.3597108826942367,0.028268000000000182,0.154989,-0.907166,-0.025031999999999943,-0.200278,-0.909905,0.053300000000000125,0.355267,0.002738999999999936,0.9566738974376956,0.9614435202054931,double,-0.907166
18,0.15,quasi,0.055922236889484826,0.22212888515540502,0.030961238449535612,-0.3193164667867608,0.11322059237516632,0.19066243084072323,0.003240129605184114,-0.0012000480019196105,-0.006120244809792679,-0.009840393615734478,0.005520220808831208,0.024840993639746265,-2.6918870529166368,-0.3999853459203655,1.397189958706521,-0.11514873655281578,0.287971201382314,0.20150380896709696,0.10065427248443147,-0.24471072117442774,0.6915300513193392,0.027829000000000104,0.153128,-0.907475,-0.025579999999999936,-0.202083,-0.909956,0.05340900000000004,0.355211,0.0024809999999999555,0.963476291080166,0.9545277511582688,double,-0.907475
19,0.158333,quasi,0.07128285131405052,0.26305052202088053,-0.033601344053755755,0.029555611478662796,0.14621666247460843,0.12752513361973308,0.003840153606148083,0.0006000240009589726,-0.006240249609983973,-0.012960518420736457,0.004560182407294187,0.031201248049921533,1.8433474648464752,4.910792855571279,-7.747819813187484,0.07200576034609003,0.21601728103667125,-0.014401152069038059,-0.374429953798389,-0.11520921655310448,0.7632610596634181,0.027267000000000152,0.150941,-0.907247,-0.026281999999999917,-0.20423700000000003,-0.909416,0.05354900000000007,0.355178,0.0021689999999999765,0.966057163172527,0.943179420267859,double,-0.907247
20,0.166667,quasi,0.04631629469642393,0.2343412526997817,0.02159827213822388,-0.3673517134409841,0.10859135531306964,0.20445778653943603,0.005879529637624873,0.00035997120230417536,-0.005879529637629036,-0.010439164866804433,0.007199424046076847,0.0305975521958241,-2.9957471343444393,-3.444836731593328,6.623424069112021,0.24470554733342786,-0.028804031516054356,0.043282934047868545,0.30253822341396946,0.3166836619609619,-0.07243770747509388,0.02693000000000012,0.148991,-0.907476,-0.026754999999999862,-0.20613,-0.909341,0.05368499999999998,0.355121,0.0018650000000000055,0.9674788351861019,0.9447978948145057,double,-0.907476
21,0.175,quasi,0.08568342733710611,0.2214088563542563,-0.012480499219967987,-0.21220169816232407,0.005084192113736134,0.1803704307172516,0.008280331213233516,0.005760230409217148,-0.004320172806912445,-0.009120364814615051,0.005880235209410941,0.0334813392535704,4.72424488667734,-1.5519496394486296,-4.089616147628939,0.2881077133815732,0.6480570271106427,0.18713030489818736,0.15826233675619641,-0.15830899275961946,0.3460682896611433,0.026284999999999892,0.147194,-0.907408,-0.027545000000000153,-0.207926,-0.908958,0.053830000000000044,0.35512,0.0015500000000000513,0.9662115676777714,0.9413400027777225,double,-0.907408
22,0.183333,quasi,0.07728309132363691,0.25225009000359905,-0.00792031681267376,-0.07336881623202042,-0.04627503374356449,0.13713284146928376,0.00684027361094128,0.0008400336013432277,-0.0027601104044164366,-0.01428057122284653,0.012600504020163404,0.0424816992679707,-1.0080806448420976,3.7010960817643963,0.5472437786264519,-0.1728138248280613,-0.5904472348342633,0.18721497689859673,-0.6192495389693357,0.8064645158709297,1.0800864051842425,0.025698,0.145099,-0.907365,-0.028308,-0.20992299999999997,-0.908538,0.054006,0.35502199999999995,0.0011729999999999796,0.9758969548156202,0.9224077218062395,double,-0.907365
23,0.191667,quasi,0.09503239740822236,0.213822894168467,0.007319414446841574,-0.22606145428385033,0.2305294693496699,0.16784765002965663,0.0051595872330231825,0.004079673626110657,-0.003719702423805649,-0.013318934485237835,0.0153587712982915,0.04703623710103229,2.1297463504422174,-4.610894628645549,1.8286214614249243,-0.20166623205160739,0.38872570491569786,-0.11514183098022697,0.11538717753884015,0.3309655961276809,0.546500819901798,0.024948999999999888,0.143351,-0.907457,-0.029211000000000098,-0.21157700000000002,-0.908207,0.054159999999999986,0.354928,0.0007500000000000284,0.9799057703433032,0.9145974650350243,double,-0.907457
24,0.2,quasi,0.09684387375495038,0.2432497299891995,-0.00024000960037759357,-0.2857699364046436,-0.025039551223339195,-0.03078703703827088,0.003720148805965948,0.002160086403454966,-0.004200168006720302,-0.01272050882034554,0.02556102244089986,0.05064202568102705,0.21738585704164312,3.531361552950014,-0.9071671723531934,-0.1727395208277011,-0.23035968110592697,-0.05765817627680938,0.0718139523451692,1.2243191098773976,0.4327119380768938,0.024173,0.141342,-0.90749,-0.03012400000000004,-0.213391,-0.907783,0.05429700000000004,0.35473299999999997,0.0002929999999999877,0.9870496191448521,0.9031067027609111,double,-0.90749
25,0.208333,quasi,0.04716188647544302,0.30253210128405156,-0.002760110404415613,0.025742398696443156,-0.0034532641828288004,0.22049593472994256,0.007200288011514356,0.005280211208448636,-0.007680307212288697,-0.006960278411150086,0.030841233649346916,0.058562342493700174,-5.962076956619162,7.114169122147151,-0.30242419345230115,0.4176334100022101,0.37442995379739324,-0.41763341000460863,0.6912552993154288,0.6336506910412898,0.9504760365622401,0.023840000000000083,0.13886500000000002,-0.907531,-0.03057500000000002,-0.21565499999999999,-0.907272,0.0544150000000001,0.35452,0.0002590000000000092,0.980370664192357,0.8864899195751512,double,-0.907272
26,0.216667,quasi,0.09719222462202744,0.25389968802495855,-0.014878809695225927,0.06272819593909289,0.31614978727372456,0.1782584993765367,0.00299976001919147,0.0034797216222703644,-0.0025197984161267296,-0.005759539236840162,0.046556275497960056,0.06467482601391857,6.003160324764143,-5.835422757270574,-1.4541275846904609,-0.504023037235767,-0.21604146702403043,0.6192115186179461,0.14407717474321122,1.885654169500015,0.733439347278424,0.023055000000000048,0.136778,-0.907428,-0.03143299999999982,-0.217383,-0.906609,0.05448799999999987,0.354161,0.0008190000000000142,0.9912668564271331,0.8586487339393686,double,-0.906609
27,0.225,quasi,0.08136325453020256,0.25897035881435154,-0.004440177607098729,-0.12948257190338755,0.20938828201321238,0.017387119416171316,0.003720148805965948,0.002520100804033014,-0.0038401536061447522,-0.020760830433214757,0.03552142085683646,0.07368294731789224,-1.8995523931147085,0.6085048349205556,1.2526859580135832,0.08645011241743396,-0.11515910455266404,-0.158448960760593,-1.8002269526430554,-1.3242355263558845,1.0810177971887274,0.022407999999999983,0.134641,-0.9074230000000001,-0.03228399999999998,-0.21924499999999997,-0.905958,0.05469199999999996,0.353886,0.0014650000000000496,0.9901487176638712,0.8446971556414273,double,-0.905958
28,0.233333,quasi,0.09948397935917053,0.24204968198727822,0.017280691227639727,-0.30299248605867896,0.041379313858523836,-0.07594194668236218,0.004560182407294187,0.0007200288011511002,-0.002640105604223476,-0.030361214448584965,0.03000120004799859,0.07464298571942925,2.1745739624346516,-2.0305624417464667,2.606608524509593,0.10080806448196791,-0.216017281037071,0.14401152069138065,-1.1520921655310452,-0.6624529951803512,0.11520921655310302,0.021616999999999997,0.13263000000000003,-0.907589,-0.03336600000000001,-0.221012,-0.90548,0.054983000000000004,0.353642,0.0021090000000000275,0.9911362375270407,0.8356013716617958,double,-0.90548
29,0.241667,quasi,0.1261099112070933,0.2295416366690701,0.01559875209984099,-0.3493548804519891,0.27105523571560364,-0.025285340134410146,0.003839692824577883,0.0025197984161275705,-0.003119750419967032,-0.033477321814271765,0.024238060955121245,0.09311255099592042,3.194856233252081,-1.5008453705553337,-0.201816550011848,-0.08645183377925439,0.21595507739098568,-0.057552773667333475,-0.37390297164468533,-0.6915213694357282,2.2161705395357827,0.020598000000000116,0.130738,-0.907745,-0.03469600000000006,-0.22272300000000003,-0.904834,0.055294000000000176,0.353461,0.002910999999999997,0.9907465520348241,0.8011012274055367,double,-0.904834
30,0.25,quasi,0.07776311052441874,0.2934117364694555,0.03612144485779377,-0.0946071759560219,0.3163244875938354,0.20187251401563933,0.0015600624025009894,0.002040081603262838,-0.00468018720748798,-0.02208088323532483,0.03672146885875774,0.09396375855034181,-5.801848155847177,7.664718564788834,2.4628216438200843,-0.2735665933129595,-0.0575683202765789,-0.18725990489870947,1.3676273345670136,1.4980688711912256,0.10214899249026638,0.019963000000000175,0.12831,-0.908085,-0.035528000000000004,-0.22486199999999998,-0.904352,0.05549100000000018,0.353172,0.0037329999999999863,0.9911024535303261,0.7905490831961463,double,-0.904352
31,0.258333,quasi,0.09516380655226757,0.28549141965678937,-0.017400696027848567,-0.01092210270908811,0.2793570369020768,-0.06790942537707499,0.007080283211305574,0.001440057602305536,-0.0027601104044164457,-0.04056162246489263,0.03504140165606807,0.1232449297971922,2.0881670500238654,-0.9504760365614016,-6.422913822830009,0.6624529951763589,-0.07200576034529026,0.23041843310590887,-2.217777418644887,-0.20161612896791972,3.513881104866251,0.01922899999999994,0.125943,-0.907963,-0.036659,-0.22694899999999998,-0.90318,0.05588799999999994,0.352892,0.004782999999999982,0.987109177931694,0.7281755942680139,double,-0.90318
32,0.266667,quasi,0.11159107271419445,0.2663786897048233,0.04283657307416023,-0.3951210237986722,0.05781140039753313,-0.0467402860940692,0.010319174466046365,-0.0002399808015361169,-0.004079673626109824,-0.011639068874491678,-0.00923926085913717,0.1763858891288694,1.971114250291201,-2.293344126705788,7.227894060716192,0.3886358597001185,-0.20158848138248756,-0.15833491980962053,3.4704287965443874,-5.313254441469306,6.376405007400666,0.018384999999999874,0.123721,-0.908354,-0.03768600000000011,-0.22924600000000003,-0.9020670000000001,0.05607099999999998,0.35296700000000003,0.0062869999999999315,0.9815017501322283,0.6421120450413693,double,-0.9020670000000001
33,0.275,quasi,0.08808352334093476,0.24684987399495917,0.02412096483859425,-0.2574433442814922,0.17113696035891052,0.07674690132286126,0.0009600384015370176,0.0013200528021117337,-0.0018000720028802425,-0.058562342493704775,0.033721348853957764,0.18504740189607527,-2.8210187655417727,-2.3435516272487775,-2.2459628267809792,-1.1231412533912528,0.18721152089857723,0.27356313731304116,-5.63101807502855,5.15547938474676,1.0394231089890589,0.01765899999999987,0.12167499999999999,-0.9085700000000001,-0.038908000000000165,-0.231022,-0.900726,0.056567000000000034,0.352697,0.007844000000000073,0.9959501466596026,0.5932257433373054,double,-0.900726
34,0.283333,quasi,0.09480379215166787,0.271090843633744,-0.009360374414979321,-0.03787940372192794,0.46452795008906195,-0.13373998193762232,-0.002160086403438319,0.0050402016080643795,-0.002400096003840062,-0.07044281771269587,0.09516380655226091,0.13800552022080897,0.8064645158686096,2.909032717962909,-4.01792142728593,-0.3744299537951931,0.4464357141428843,-0.07200576034559233,-1.425714054841128,7.373389859390771,-5.6452516110964135,0.01685100000000017,0.11945800000000001,-0.908512,-0.040284999999999904,-0.232488,-0.899498,0.057136000000000076,0.351946,0.009013999999999966,0.9900236298145313,0.6068021385635504,double,-0.899498
35,0.291667,quasi,0.11075113990880804,0.2523398128149738,0.016438684905200694,-0.07906421713254307,0.15209901878958335,-0.03241420117781747,-0.0022798176146164232,0.0011999040076789193,-0.006359491240700437,-0.051595872330205184,0.06251499880009517,0.18874490040796693,1.9135286485649334,-2.249943702756204,3.0956394672642173,-0.014366596013691392,-0.4607988481384037,-0.475089421269543,2.261452529696504,-3.917543526777742,6.088238563373879,0.01590899999999995,0.11736500000000001,-0.908702,-0.04163799999999984,-0.23407,-0.8980619999999999,0.05754699999999979,0.351435,0.010640000000000094,0.9885641321050214,0.5512433935754835,double,-0.8980619999999999
36,0.3,quasi,0.10764430577224889,0.27385095403816295,0.007320292811723138,-0.4105320069383759,0.5759519888979184,0.08240001481543124,0.006600264010577032,0.005400216008640764,-0.003600144005760509,-0.07368294731790663,0.06360254410176788,0.2559702388095534,-0.3728350097874911,2.5814402043908795,-1.0942508212501594,1.0656524211200622,0.5040576024195194,0.3311349135893358,-2.650555020725009,0.1305106566269906,8.067363302722503,0.015066999999999942,0.11512800000000001,-0.9087930000000001,-0.043149000000000104,-0.23582199999999998,-0.8959900000000001,0.058216000000000045,0.35095,0.012803000000000009,0.9845721342648088,0.41554907007684433,single,-0.8959900000000001
37,0.308333,quasi,0.10908436337451372,0.2692907716308636,0.022920916836666316,-0.40825000702181546,0.01948761587824809,-0.031411896986072246,0.009120364814588344,0.004920196807872219,-0.004080163206528161,-0.06396255850232718,0.0178807152286103,0.3142925717028672,0.17281382482477184,-0.5472437786270623,1.8721497689839328,0.3024241934490941,-0.05760460827655622,-0.05760460827644911,1.166493317602233,-5.48683893833642,6.998959905593849,0.01423400000000008,0.11292500000000001,-0.909018,-0.044590999999999825,-0.23791699999999996,-0.893562,0.058824999999999905,0.350842,0.015456000000000025,0.9814380075623987,0.34543999999999997,single,-0.893562
38,0.316667,quasi,0.09443244540437937,0.2547396208303367,0.04847612191024265,-0.30682059404633977,0.7794326480193968,0.07445365734357286,0.007679385649155792,0.005159587233021552,-0.002639788816894806,-0.09743220542357085,0.08363330933524737,0.28077753779697723,-1.7580895092553914,-1.745998416189947,3.0663792984852987,-0.17290366755850248,0.028724553053675852,0.1728311002679822,-4.016036347641452,7.889680118387022,-4.021482350118807,0.01351100000000005,0.110845,-0.9094439999999999,-0.04618999999999995,-0.23934300000000003,-0.8916259999999999,0.059701000000000004,0.35018800000000005,0.017818,0.9839650737657674,0.32182,single,-0.8916259999999999
39,0.325,quasi,0.10080403216128025,0.25285011400455887,0.01320052802112733,-0.05216625372753321,0.1458991272422396,0.0007373118726429998,0.011880475218990615,0.005880235209407571,-0.014880595223808784,-0.13824552982119728,0.08604344173767192,0.32245289811592354,0.7646209956679301,-0.22674988908890104,-4.233240596317673,0.5041509144167533,0.08648121641497857,-1.4689555270507533,-4.897794839508731,0.28922745738924005,5.001243288005056,0.012769999999999948,0.108787,-0.909678,-0.04818199999999995,-0.240733,-0.889049,0.060951999999999895,0.34952,0.02062900000000001,0.9667854210489728,0.29371,single,-0.889049
40,0.333333,quasi,0.12252490099603278,0.2570502820112817,0.0427217088683576,-0.29346707707568087,0.1100629058548835,0.16593249184128453,0.00684027361096795,0.005160206408256507,-0.006360254410176122,-0.1776071042841629,0.10260410416416618,0.3770550822032889,2.6066085245112895,0.5040403224196399,3.5426834090040007,-0.6048483868981973,-0.08640691241462449,1.0224817969077984,-4.723577878671033,1.9873589855387377,6.552524191451521,0.011806000000000205,0.10668799999999999,-0.910087,-0.05068299999999981,-0.24202,-0.886263,0.06248900000000002,0.348708,0.023823999999999956,0.982215025894899,0.26176,single,-0.886263
41,0.341667,quasi,0.1054715622750268,0.2495800335973118,0.010319174466033044,-0.26175984438993916,0.6912151342226563,0.250637079722669,0.006599472042226563,0.003359731221502306,-0.0037197024238064817,-0.17182625389969985,0.12479001679865423,0.3707703383729301,-2.04623694756491,-0.896358101028308,-3.887993088831836,-0.028893876738827307,-0.21603973923136544,0.3168408910930691,0.6936465544112123,2.66209654841469,-0.7541089309285832,0.010982000000000047,0.10463599999999999,-0.9102039999999999,-0.052993999999999986,-0.24306000000000003,-0.8832589999999999,0.06397600000000003,0.347696,0.026944999999999997,0.9861880676347367,0.23054999999999998,single,-0.8832589999999999
42,0.35,quasi,0.1334453378135131,0.219248769950798,0.048121924877006686,-0.3163237311356993,0.4120934884509209,0.3439592116339429,0.007200288011514356,0.003720148805952637,-0.0050402016080643795,-0.19380775231008354,0.138965558622351,0.3922956918276734,3.3569873441121274,-3.639897233471002,4.536511509777239,0.07210080034654925,0.04325184020764814,-0.15846624076057855,-2.6378853246590355,1.7011330641661824,2.5831457403988147,0.009929999999999994,0.10284,-0.9106470000000001,-0.05572099999999991,-0.24372899999999997,-0.880391,0.0656509999999999,0.34656899999999996,0.03025600000000006,0.984093390015021,0.19744000000000006,single,-0.880391
43,0.358333,quasi,0.11988479539181182,0.1912876515060609,0.02988119524780303,-0.5585132798237346,0.535690119243536,0.45808459846250493,0.010680427217089328,-0.0013200528021117337,-0.002760110404415595,-0.19992799711990406,0.16044641785671085,0.40153606144245624,-1.6273301838114975,-3.355468432105724,-2.18897511450901,0.4176334100053951,-0.6048483869031981,0.27362188931342557,-0.7344587555286797,2.5778062203719867,1.1088887093223116,0.009020000000000028,0.10123499999999999,-0.910919,-0.05838600000000005,-0.243986,-0.877294,0.06740600000000008,0.345221,0.033625000000000016,0.9814833202531947,0.16375000000000006,single,-0.877294
44,0.366667,quasi,0.12802975761940846,0.18622510199184023,0.04859611231101372,-0.46352695903411784,0.3394937142485162,0.4378028581625925,0.004799616030722338,0.0044396448284131675,-0.005399568034557635,-0.2692584593232434,0.12622990160787093,0.5370770338372934,0.9773172819290418,-0.6074573451188697,2.24561039875338,-0.7056408910927507,0.6911084269888284,-0.3167095788507365,-8.318989945205095,-4.10565349758098,16.2636155981326,0.007992999999999917,0.09971999999999999,-0.911369,-0.06169700000000011,-0.244486,-0.873223,0.06969000000000003,0.344206,0.03814600000000001,0.9858674828061272,0.11853999999999998,single,-0.873223
45,0.375,quasi,0.12900516020640104,0.1455658226329047,0.03708148325933091,-0.46995260414087603,0.729410099335478,0.6680402386906499,0.0007200288011461063,0.004680187207487995,-0.0056402256090241866,-0.3134525381015319,0.33193327733109296,0.43153726149045923,0.11705299255881221,-4.87930869542009,-1.3818107586322859,-0.48957005035116313,0.02886624013858495,-0.028880064138551806,-5.303501593458373,24.685392502486806,-12.665279292791848,0.00692399999999993,0.098546,-0.911725,-0.06538400000000011,-0.242933,-0.869936,0.07230800000000004,0.341479,0.041788999999999965,0.9877259602443582,0.08211000000000007,single,-0.869936
46,0.383333,quasi,0.11388455538219956,0.22512900516020562,0.0648025921036825,-0.6426359784412473,0.45210967830050963,0.5577873126312699,0.004920196807867256,0.0018000720028802544,-0.006960278411136762,-0.30721228849152793,0.20556822272891206,0.5754230169206792,-1.8145451607106107,9.547963821829006,3.3266661279673175,0.504040322419436,-0.3456276496589161,-0.15841267276041987,0.7488599075967818,-15.164413128786896,17.266981330879673,0.006016000000000021,0.09668500000000001,-0.912323,-0.06889299999999987,-0.24309599999999998,-0.8656809999999999,0.07490899999999989,0.339781,0.04664200000000007,0.9854804660883426,0.03358,single,-0.8656809999999999
47,0.391667,quasi,0.12311015118792806,0.14002879769618434,0.05243580513559159,-0.38840187121635583,0.8709390348316681,0.602984088741407,0.0023998080153744905,0.0008399328053764092,-0.0034797216222703644,-0.4150467962563112,0.18910487161026696,0.7163426925845929,1.1069829380523748,-10.21120799904262,-1.4838957245129467,-0.30242246130222733,-0.1152074871014932,0.417633403991648,-12.939105803309713,-1.9754440987095143,16.90900835900091,0.005009999999999959,0.09552500000000001,-0.912789,-0.07337800000000017,-0.242687,-0.860148,0.07838800000000012,0.338212,0.05264099999999994,0.9928172606207081,0.0,single,-0.860148
48,0.4,quasi,0.10596423856953839,0.17820712828513235,0.03816152646106314,-0.5147308074733044,0.46108325239321923,0.5005983509656212,0.003480139205548373,-0.000600024000960636,-0.00444017760710371,-0.42217688707547046,0.3952958118324739,0.6936277451098007,-2.057591817879467,4.581582933991102,-1.7129819602218155,0.1296449286180101,-0.17280172882959788,-0.11525932855314314,-0.8556451241040735,24.743902582768044,-2.725902733084375,0.0041559999999998265,0.094035,-0.9131440000000001,-0.07777900000000004,-0.240878,-0.8546860000000001,0.08193499999999987,0.334913,0.05845800000000001,0.9905444644557408,0.0,single,-0.8546860000000001
49,0.408333,quasi,0.09816392655706077,0.1598463938557546,0.008520340813624433,-0.2161311246253704,0.34711890540885093,0.5142731769341546,0.00480019200768512,0.003120124804991997,-0.0025201008040321897,-0.4138965558622398,0.3469338773550923,0.7154686187447526,-0.9360748844926964,-2.2033762665759977,-3.5570845610750967,0.15841267276332052,0.44643571414288274,0.23041843310590726,0.9936794927673953,-5.803664283857164,2.6210096765812985,0.003377999999999881,0.09272899999999999,-0.9132359999999999,-0.08204600000000006,-0.23931900000000003,-0.848795,0.08542399999999994,0.332048,0.06444099999999997,0.9895746129605747,0.0,single,-0.848795
50,0.416667,quasi,0.09071274298055894,0.15790736741060507,0.025677945764344526,-0.5601398460535938,0.3875462268951263,0.2913336561068759,0.0005999520038436226,0.00011999040076805845,-0.0022798176145906127,-0.4414446844252441,0.3719702423806148,0.7375809935205176,-0.8940705035399359,-0.23266456025312418,2.0587478942548687,-0.5039884813824687,-0.3599873295205106,0.0288316761988933,-3.30551098668158,3.0041234731848463,2.6532727112748953,0.002626999999999935,0.09141400000000001,-0.913469,-0.08648100000000003,-0.23753499999999997,-0.842862,0.08910799999999997,0.328949,0.07060699999999998,0.9960658516172881,0.0,single,-0.842862
51,0.425,quasi,0.08256330253210412,0.134285371414858,0.03996159846394198,-0.3360697878189045,0.689075501124193,0.529806974274814,0.002880115204611072,-0.002880115204607741,-0.002880115204608574,-0.4651386055442218,0.37825513020520773,0.7469098763950569,-0.9779719726934889,-2.83475290960604,1.7141068882272281,0.27363052931326715,-0.36002707372804593,-0.07203859234584936,-2.8433842696481197,0.7542167076194559,1.1195107253737286,0.001962999999999937,0.090271,-0.913826,-0.09104500000000004,-0.235502,-0.836971,0.09300799999999998,0.325773,0.076855,0.991685823556609,0.0,single,-0.836971
52,0.433333,quasi,0.07416296651866133,0.14796591863674627,0.07932317292690615,-0.3277250390535446,0.9033437899836789,0.3321864743466202,0.002280091203647086,-0.0007200288011527632,0.0002400096003842544,-0.4580583223328865,0.3852154086163419,0.764550582023278,-1.0080806448389232,1.6417313358800212,4.7235778786708265,-0.07200576034609187,0.259220737244086,0.3744299537972897,0.849667972079116,0.8352668200088971,2.1169693541606853,0.0013639999999999208,0.08903199999999999,-0.914485,-0.09548000000000001,-0.233525,-0.8312609999999999,0.09684399999999993,0.322557,0.08322400000000008,0.9959948429148178,0.0,single,-0.8312609999999999
53,0.441667,quasi,0.03191744660425713,0.1484281257499394,-0.26085913126948773,0.8412930105229135,-1.7930023126465855,0.03618499743503808,0.0026397888168906425,-0.002639788816893973,-0.0025197984161267465,-0.4756419486441206,0.42104631629469697,0.8092152627789823,-5.069056865179318,0.055460416749837316,-40.818611014686326,0.04316026076836557,-0.23035277366705315,-0.3311504699437265,-2.1098663680386625,4.299364972204856,5.359332944049021,0.0011200000000000099,0.087773,-0.912332,-0.09970999999999997,-0.23125300000000001,-0.822343,0.10082999999999998,0.31902600000000003,0.08998899999999999,0.9924932707866922,0.0,single,-0.822343
54,0.45,quasi,0.04872194887797033,0.11280451218048632,-0.028201128045133236,0.058991024507366395,0.5748794915612774,-0.026738158395862046,0.0006000240009639668,0.0042001680067194555,0.0032401296051841034,-0.4656186247449739,0.45061802472098794,0.8247929917196641,2.0166209376830824,-4.275004628519494,27.920077190010023,-0.24478156917396698,0.8208276519396855,0.6912190113177518,1.2028469817768737,3.5487469610333435,1.8694022489717765,0.0007189999999999142,0.086868,-0.9120699999999999,-0.10399599999999998,-0.228438,-0.8152349999999999,0.10471499999999989,0.315306,0.096835,0.9911024535303276,0.0,single,-0.8152349999999999
55,0.458333,quasi,0.07860314412574725,0.1303252130085211,0.014280571222859901,0.10508607094361316,0.34655825775808,0.16460424975219784,0.002400096003855883,-0.004320172806911612,-0.003480139205568381,-0.4532581303252311,0.4680187207488329,0.8274330973238965,3.585886865207847,2.1025682020922627,5.098007832472488,0.21601728103827203,-1.0224817969076068,-0.8064645158709349,1.4833186631156638,2.088167050023399,0.3168253455217018,8.400000000019503e-05,0.085746,-0.9122180000000001,-0.10842799999999997,-0.225624,-0.808459,0.10851200000000016,0.31137,0.10375900000000005,0.9899258688271728,0.0,single,-0.808459
56,0.466667,quasi,0.04307655387568969,0.10715142788576962,0.027237820974319295,-0.08520846181659418,0.6528531981999113,0.09796644615553085,0.001559875209961447,-0.002159827213823387,-0.0008399328053755765,-0.44300455963523216,0.4667626589872811,0.8104151667866575,-4.262849802022741,-2.7806317641890397,1.5547455905278835,-0.1008184297929488,0.2592207335119058,0.3167994240692107,1.2303300563953596,-0.1507153541578828,-2.0419883054042445,-0.00026199999999998447,0.084835,-0.912452,-0.112479,-0.222627,-0.801932,0.11221700000000001,0.307462,0.11052000000000006,0.9953441937737886,0.0,single,-0.801932
57,0.475,quasi,0.04788191527661577,0.12492499699987868,-0.03240129605184125,0.523004414008031,0.7864539811646819,0.10617638929316481,0.000960038401537024,0.005880235209409276,0.004320172806912445,-0.4996999879995014,0.5040201608064313,0.8483139325573035,0.5766664347685215,2.1329136102375017,-7.156980322352177,-0.07198329634278465,0.9648460846313072,0.619237442972283,-6.8037235526544295,4.471079061460496,4.5480338138300835,-0.0006530000000000147,0.08384300000000001,-0.912146,-0.11704199999999987,-0.219468,-0.794593,0.11638899999999985,0.303311,0.11755300000000002,0.9877341108792641,0.0,single,-0.794593
58,0.483333,quasi,-0.012480499219954581,0.07164286571463,0.009000360014392885,0.05722714881077278,-0.6539959323812928,-0.10577920508238356,0.0010800432017457988,-0.0024000960038408786,0.0001200048001921272,-0.4974198967958776,0.5257410296411863,0.8442337693507688,-7.243779490768042,-6.394111518690563,4.96839746384663,0.014401152071135766,-0.9936794927697251,-0.5040403224193328,0.2736218893104235,2.6066085245115684,-0.4896391703509764,-0.0005399999999999849,0.083226,-0.9122199999999999,-0.12108300000000005,-0.215684,-0.787633,0.12054300000000007,0.29891,0.12458699999999989,0.9956089246769538,0.0,single,-0.787633
59,0.491667,quasi,0.05603551715862668,0.10175185985121032,0.08603311735062132,-0.36796569125672474,0.6342668668204505,0.11152831512845893,-0.0008399328053864003,-0.00383969282457454,-0.0004799616030722338,-0.49712023038156994,0.5421166306695419,0.8459323254139661,8.2212642642886,3.6127902731677826,9.2431914250334,-0.23037869056061883,-0.1727377994640821,-0.07199020917498924,0.035957093149469065,1.9649149302082483,0.2038104227498623,-0.0010140000000000704,0.082346,-0.912941,-0.12569300000000005,-0.212014,-0.7813000000000001,0.12467899999999998,0.29436,0.1316409999999999,0.9934005279577587,0.0,single,-0.7813000000000001
60,0.5,quasi,0.04416176647064981,0.1057242289691615,0.07716308652345504,-0.5109874424136486,0.745161621936337,-0.22592388744415795,-0.00036001440057305316,-0.002760110404415613,-0.0016800672026881264,-0.4992199687987462,0.5532221288851571,0.8702748109924429,-1.424907078840382,0.4767033622886343,-1.0644462771110408,0.05759251227809292,0.12955507262197646,-0.14401843269121511,-0.25197868920871963,1.332713094397608,2.9212151180219363,-0.0013849999999999696,0.08144199999999999,-0.913598,-0.13022099999999992,-0.20828500000000003,-0.774691,0.12883599999999995,0.289727,0.138907,0.9945812963781988,0.0,single,-0.774691
61,0.508333,quasi,0.02004080163206859,0.10440417616704407,0.07116284651385482,-0.4196893181709814,0.8540667817757889,0.005327584853118078,0.0003600144005730508,-0.006720268810752461,-0.004680187207487964,-0.5012600504020257,0.5442217688707539,0.8750750030001155,-2.89463156589237,-0.1584126727610014,-0.7200576034561609,0.08640691241402867,-0.47523801828115103,-0.36002880172804813,-0.2448195851769471,-1.080086405184585,0.5760460827640294,-0.0015490000000000226,0.080516,-0.91423,-0.13456500000000005,-0.20462,-0.767992,0.13301600000000002,0.285136,0.14623799999999998,0.9863378284267872,0.0,single,-0.767992
62,0.516667,quasi,0.05447564194863895,0.0771538276937855,0.034797216222703875,-0.1115769345377553,0.5317803808999116,-0.10775754065758411,-0.0008399328053864059,-0.00311975041996621,-0.00119990400767976,-0.4988000959923194,0.5709143268538531,0.8750899928005802,4.13185028996527,-3.2697802343722984,-4.363526552813913,-0.14398214614344415,0.432027644682778,0.4176005759309124,0.29517091549151964,3.2028507299135316,0.0017986321651859724,-0.0020100000000000673,0.079847,-0.91453,-0.13917599999999997,-0.20050500000000002,-0.7609889999999999,0.1371659999999999,0.28035200000000005,0.15354100000000004,0.9942558968817071,0.0,single,-0.7609889999999999
63,0.525,quasi,0.03708148325934399,0.06816272650906163,0.039121564862600156,-0.15590364694505998,1.0074142334592069,0.02699483832161122,-0.002880115204584406,-0.0034801392055683576,-0.0014400576023038609,-0.49717988719548667,0.5739829593183748,0.8797551902076052,-2.0873825380169073,-1.078975301178906,0.5189425944913312,-0.24483168117100587,-0.04324838420762585,-0.028819584138257522,0.19443283293324326,0.3682506257676349,0.5598460826863026,-0.002342999999999984,0.07924999999999999,-0.914868,-0.1436280000000001,-0.19629,-0.753984,0.1412850000000001,0.27554,0.16088400000000003,0.9920977854053848,0.0,single,-0.753984
64,0.533333,quasi,0.04044161766468412,0.07344293771750954,0.17832713308532352,-1.4625001650637013,1.0496806337995443,0.1288558098908558,0.00012000480018213638,-0.0018000720028802666,0.0001200048001921288,-0.514340573622951,0.5858634345373865,0.8981159246369959,0.40323225793113654,0.633650691041396,16.705336400182965,0.3600288017240573,0.20161612896773148,0.18721497689859642,-2.0593647458855795,1.4257140548436107,2.203376266577565,-0.002678999999999876,0.07862299999999998,-0.916353,-0.1482509999999999,-0.19202,-0.747986,0.14557200000000003,0.27064299999999997,0.16836699999999993,0.996986575628362,0.0,single,-0.747986
65,0.541667,quasi,0.02639788816895936,0.09803215742740319,-0.06839452843771959,0.5863126309282397,-0.08389433698981118,-0.010682445548261829,-0.0009599232061444612,-0.0010799136069108537,-0.0002399808015361153,-0.48872090232780924,0.577033837293013,0.8830093592512503,-1.6851127304685205,2.950470327561011,-29.604231044281406,-0.12958099427964836,0.08641209454876499,-0.0431948166220592,3.074114626246894,-1.0594669119718527,-1.812642834862658,-0.002906999999999993,0.077797,-0.9157850000000001,-0.152544,-0.18802799999999997,-0.7400570000000001,0.14963700000000002,0.265825,0.175728,0.9975588841661196,0.0,single,-0.7400570000000001
66,0.55,quasi,0.0030001200047931873,0.06912276491059531,0.12192487699508132,-0.6855872332467199,0.8666010820106514,0.1719010419987665,-0.0019200768030740352,-0.0015600624024959882,-0.0008400336013440577,-0.5079803192127581,0.5972638905556141,0.8993159726389018,-2.807844493479668,-3.469265872651837,22.83924222162488,-0.11522304055317052,-0.057620160276626975,-0.0720092163456066,-2.311222475092858,2.427703499652105,1.9568718813934265,-0.0029479999999999507,0.07720800000000001,-0.9168080000000001,-0.15680199999999989,-0.183627,-0.7335790000000001,0.15385399999999994,0.26083500000000004,0.18322899999999998,0.9956455176092867,0.0,single,-0.7335790000000001
67,0.558333,quasi,0.10416416656667453,0.1760470418816764,0.3298931957278323,-1.3394695317694012,3.7969743294402094,-0.7822986431150424,-0.0009600384015370304,-0.0008400336013449015,-0.0010800432017274938,-0.4894995799832237,0.5936637465498716,0.8882755310212513,12.140171194273643,12.831426493589593,24.95719653579178,0.11520921655310375,0.08640691241462778,-0.028802304138178126,2.2177774186408956,-0.4320345620715855,-1.3249059903576863,-0.0038240000000000496,0.07573400000000001,-0.9195660000000001,-0.16174900000000014,-0.18014699999999997,-0.7289260000000001,0.1579250000000001,0.25588099999999997,0.19064000000000003,0.9972142109129987,0.0,single,-0.7289260000000001
68,0.566667,quasi,-0.05615550755941102,0.10739140868730503,-0.3449724022078294,1.6974440718828145,-3.268638629270767,0.17984831620641706,0.0007199424046016851,-0.0021598272138217073,-0.0027597792176628283,-0.493040556755446,0.6070314374849942,0.8845692344612351,-19.23682194937417,-8.238016941969146,-80.97739356079393,0.20158157021102743,-0.15836256449205613,-0.2015521977364197,-0.4248832220089139,1.6039945926472854,-0.44472000960117225,-0.003349999999999964,0.07482100000000001,-0.916714,-0.16538999999999993,-0.175983,-0.718679,0.16203999999999996,0.250804,0.19803500000000007,0.9940372564131397,0.0,single,-0.718679
69,0.575,quasi,-0.0999639985599267,0.026641065642625944,0.1840873634945457,-1.2011848465564698,0.5905337369629743,0.12912467475772368,0.0001200048002087828,-0.0032401296051841467,-0.0003600144005763864,-0.49237969518780816,0.6084243369734867,0.8864754590183694,-5.2572292092302995,-9.690428782512878,63.4897114727445,-0.07199539234284265,-0.1296414726223988,0.28798329738227096,0.07930656037895648,0.16715462480409696,0.2287560971000015,-0.0025159999999999627,0.07457200000000001,-0.918251,-0.16866000000000003,-0.17113499999999998,-0.712826,0.16614400000000007,0.245707,0.20542500000000008,0.9945628716272368,0.0,single,-0.712826
70,0.583333,quasi,0.022320892835715672,0.08388335533421364,-0.03000120004799849,0.27201156691892814,0.46371230879603315,-0.1927947344345498,-0.004440177607112037,-0.002040081603264497,-0.0009600384015361848,-0.49045961838472757,0.6029041161646408,0.8767550702028053,14.674773958435361,6.869349536971973,-25.691655291316852,-0.5472437786296412,0.14401152069118503,-0.07200576034558934,0.2304184331069947,-0.6624529951813191,-1.166493317600396,-0.002739000000000047,0.073856,-0.9180090000000001,-0.172933,-0.16681,-0.7052700000000001,0.17019399999999996,0.24066600000000002,0.212739,0.9917002704423072,0.0,single,-0.7052700000000001
71,0.591667,quasi,0.011759059275249667,0.0701943844492438,0.12323014158867199,-0.7599230889724458,0.056464549914234725,0.050480425084092964,0.000479961603058909,-0.006359491240700395,-0.0011999040076789112,-0.5043196544276367,0.5979121670266351,0.8777297816174625,-1.2673186417645697,-1.6425451025881614,18.386290093192862,0.590369475662456,-0.5182876934768256,-0.02878157021151003,-1.6630712794467284,-0.5989859776824664,0.11695601327780261,-0.0028330000000000854,0.073218,-0.919046,-0.1772339999999999,-0.162412,-0.698982,0.1744009999999998,0.23563,0.22006400000000004,0.9891842114366953,0.0,single,-0.698982
72,0.6,quasi,0.04692187687507906,0.08256330253210134,0.05940237609503381,-0.45298841735953727,0.6584797751336863,0.08654724546052105,-0.004080163206512394,-0.0030001200048015543,0.0006000240009598112,-0.49369974798994487,0.5921036841473706,0.8598343933757401,4.219706900255576,1.4843295431246442,-7.659638244766442,-0.5472368666232263,0.4031406739348219,0.21600000103669015,1.274439750113037,-0.69704582734484,-2.1475324903063235,-0.003257999999999983,0.072505,-0.9195359999999999,-0.1817390000000001,-0.158166,-0.692312,0.1784810000000001,0.23067100000000001,0.22722399999999987,0.9915002482656001,0.0,single,-0.692312
73,0.608333,quasi,0.020760830433214687,0.08508340333613491,-0.006120244809781833,-0.1662824197336844,0.3822968919231805,-0.1563993566752387,-0.007920316812687057,-0.0007200288011510978,0.0027601104044164275,-0.501620064802572,0.5940237609504367,0.8492739709588348,-3.1394511510697543,0.3024241934517656,-7.8630290297390335,-0.46083686621560616,0.2736218893136262,0.2592207372442827,-0.9504760365567188,0.23041843310526267,-1.2673013820839076,-0.0034970000000000834,0.07178999999999999,-0.919462,-0.18609199999999992,-0.153925,-0.685184,0.18259499999999984,0.225715,0.234278,0.9859694708529748,0.0,single,-0.685184
74,0.616667,quasi,0.004079673626120675,0.08567314614830772,-0.08051355891529782,0.527115039716907,0.32270123938151696,-0.291645139650228,-0.002159827213805084,-0.013198944084473196,-0.006599472042236598,-0.5103191744660531,0.5950323974082097,0.8488120950324052,-2.001578690556048,0.07076347638262645,-8.926483573976052,0.6912034555893934,-1.4973500459949807,-1.123060048794466,-1.0438096548453486,0.12102669279732944,-0.05542067751735761,-0.0035490000000000244,0.070966,-0.9188459999999999,-0.19037900000000008,-0.14968,-0.6774389999999999,0.18683000000000005,0.220646,0.24140700000000004,0.9751431872867146,0.0,single,-0.6774389999999999
75,0.625,quasi,-0.021120844833814385,0.02196087843513596,0.21804872194888528,-0.7418761246286291,1.224787881551803,0.1368544576985646,-0.006000240009613022,-0.009840393615744437,-0.0015600624024959882,-0.5118204728189062,0.579503180127206,0.8279131165246562,-3.0241831825194954,-7.645777956698847,35.82890685997622,-0.46086797021575926,0.40304217793456676,0.6047533469027468,-0.1801630088627215,-1.863580616945108,-2.5079777400394736,-0.003422999999999954,0.07070100000000001,-0.920676,-0.19446799999999986,-0.14503399999999997,-0.6723570000000001,0.1910449999999999,0.21573499999999998,0.24831899999999996,0.9806157264927478,0.0,single,-0.6723570000000001
76,0.633333,quasi,0.014400576023055263,0.12408496339853628,-0.002040081603269493,-0.45920591093128443,-0.15529645741156256,-0.19088106841478078,-0.012480499219954581,-0.005760230409217109,0.004080163206528161,-0.5185407416296653,0.5894635785431359,0.8201128045121778,4.262741012464839,12.25538041082442,-26.41171289477425,-0.777662211729453,0.4896391703500914,0.676854147248785,-0.8064645158717302,1.1952956217364503,-0.9360748844927751,-0.003646999999999956,0.069619,-0.920625,-0.198909,-0.141156,-0.6655059999999999,0.19526200000000005,0.210775,0.2551190000000001,0.9761026008540642,0.0,single,-0.6655059999999999
77,0.641667,quasi,-0.0033597312215189806,0.04439644828413863,0.016438684905214124,0.16834923895504703,0.8760331237894019,0.03915832860097153,-0.002759779217675354,-0.017398608111350272,-0.009599232061435582,-0.5189584833213534,0.5724742020638411,0.808015358771305,-2.1310663840381983,-9.561856865178557,2.2172745990501226,1.1663930888264078,-1.396493604767606,-1.641396120466021,-0.050124993003128095,-2.03856209254798,-1.451577362715726,-0.003641999999999923,0.069104,-0.920842,-0.203206,-0.136755,-0.658909,0.19956400000000007,0.205859,0.2619330000000001,0.9665637753945436,0.0,single,-0.658909
78,0.65,quasi,0.003000120004819834,0.07368294731789282,-0.033001320052805004,0.0554832938480349,0.449525040687987,-0.1514610463074303,-0.007080283211332174,-0.009840393615746103,-0.0022800912036479186,-0.537021480859233,0.576623064922595,0.7997119884795363,0.7632126756676813,3.5145204648690833,-5.933037916478931,-0.5184812184875557,0.9070220203533107,0.8783320362159646,-2.1676464104019524,0.497883458388792,-0.9964442927839575,-0.003726000000000118,0.06840799999999998,-0.920586,-0.20770600000000017,-0.132564,-0.6519699999999999,0.20398000000000005,0.20097199999999998,0.2686160000000001,0.9794409675998843,0.0,single,-0.6519699999999999
79,0.658333,quasi,-0.0033601344053929296,0.09204368174726953,0.03384135365414701,-0.11153256682385664,0.07334970190180488,0.18548701234321313,-0.012360494419772612,0.003600144005760533,0.007440297611904491,-0.5337813512540293,0.5738629545181804,0.7905916236649517,-0.7632610596679253,2.2033762665758876,8.021441702502415,-0.6336506910405,1.6129290317420808,1.1664933175990038,0.3888311058686824,-0.33122649758965805,-1.094487557252447,-0.0038009999999999433,0.067671,-0.920806,-0.21212599999999981,-0.12854900000000002,-0.645664,0.20832499999999987,0.19622,0.275142,0.9752175640312004,0.0,single,-0.645664
80,0.666667,quasi,-0.009959203263718812,0.03983681305495518,0.05303575713942153,0.07065090272643919,0.5376804189171331,0.08608332008037076,-0.00455963522917953,-0.003599712023038399,0.00011999040076805765,-0.5476361891048689,0.5715142788576891,0.7831773458123297,-0.7918249170057393,-6.264323097229895,2.303144166699589,0.9360282206135137,-0.863913610367036,-0.8783665960086845,-1.6624475462970392,-0.2818185337762445,-0.8896421709409643,-0.0037560000000000926,0.067309,-0.9212469999999999,-0.216607,-0.124118,-0.6395789999999999,0.2128509999999999,0.191427,0.28166800000000003,0.9903157347309814,0.0,single,-0.6395789999999999
81,0.675,quasi,-0.0019200768030740352,0.10224408976358912,0.01824072962919001,-0.5945310319195906,0.6146685882701269,-0.1805569819871,-0.004680187207476307,-0.004800192007680092,-0.0016800672026881154,-0.544341773670956,0.5697827913116537,0.7753510140405577,0.9647337646279542,7.48917277194692,-4.175570324040727,-0.0144668160682559,-0.1440633606914302,-0.21601555303686132,0.3953456658961756,-0.2077868169969355,-0.9391973805078496,-0.003778999999999977,0.066417,-0.921413,-0.22112700000000007,-0.12022199999999997,-0.63327,0.2173480000000001,0.18663899999999997,0.28814300000000004,0.9884808587543784,0.0,single,-0.63327
82,0.683333,quasi,-0.019920796831886717,0.09372374894995933,0.015840633625347676,0.20431761049797634,0.5228450932905119,0.1304145236039774,-0.0020400816032828434,-0.0064802592103682935,-0.002280091203647949,-0.5496219848794036,0.5682227289091603,0.7635905436217527,-2.1601728103699567,-1.0224817969074604,-0.288023041382738,0.31682534551703917,-0.20161612896774475,-0.07200576034559451,-0.6336506910413561,-0.18721497689828573,-1.4113129027727254,-0.003630000000000022,0.065582,-0.921564,-0.225541,-0.11626799999999998,-0.627039,0.22191099999999997,0.18184999999999998,0.29452500000000004,0.9880563233514585,0.0,single,-0.627039
83,0.691667,quasi,-0.016918646508272815,0.07535397168226693,0.11015118790496368,-0.43833742443766416,-0.7604276824821105,0.0810256132051903,0.004439644828421464,-0.011039116870649648,-0.0037197024238064566,-0.5585553155747588,0.5599952003839622,0.7598992080633464,0.36022922049602574,-2.2041969363681617,11.316361204657463,0.7775049714067984,-0.5470191577011423,-0.17273952725683905,-1.071913930328187,-0.9872244450681513,-0.4429248330221089,-0.0034520000000000106,0.06486199999999999,-0.922513,-0.23005500000000012,-0.11222900000000002,-0.621624,0.2266030000000001,0.177091,0.3008890000000001,0.9792228267878168,0.0,single,-0.621624
84,0.7,quasi,-0.08676347053882585,0.07716308652345888,-0.32569302772111114,2.2782679243844224,-0.7503517208515985,-0.3498064882008662,-0.0055202208088312625,-0.007680307212289581,-0.0014400576023038802,-0.5820232809312185,0.5413416536661501,0.7705508220328896,-8.38171415223253,0.21710246504163766,-52.3033980110499,-1.1952316857377676,0.4030732819344891,0.2735683213131642,-2.816268493514927,-2.23851514674335,1.2782448061374379,-0.002774999999999972,0.064155,-0.919811,-0.2341819999999999,-0.10836100000000001,-0.6124890000000001,0.23140699999999992,0.172516,0.307322,0.9840544570358853,0.0,single,-0.6124890000000001
85,0.708333,quasi,-0.025441017640690997,0.08664346573862923,0.10452418096723287,-0.5428838669918202,-0.22978015902742344,0.1705135149910476,-0.018360734429385468,-0.0024000960038392132,0.005640225609024149,-0.5580223208928385,0.5581423256930274,0.7381495259810382,7.358988707324445,1.137691013460976,51.628130167807775,-1.5409232713973542,0.6336506910416831,0.8496679720782431,2.880230413822132,2.016161289676854,-3.888311058664496,-0.0027160000000001627,0.06341300000000001,-0.920635,-0.23862000000000005,-0.104432,-0.6072089999999999,0.2359039999999999,0.16784500000000002,0.3134260000000001,0.967738517352785,0.0,single,-0.6072089999999999
86,0.716667,quasi,0.000479961603058909,0.06371490280777534,0.07859371250300783,-0.7206039836079062,0.9339631157305064,-0.04163376788028354,-0.005759539236866767,-0.006959443244540683,0.0,-0.5655147588192863,0.5524358051355845,0.7390208783297244,3.1102686877549446,-2.7512074551060377,-3.111407303122732,1.5120224613053281,-0.54707790265196,-0.6767729312483929,-0.899020629523357,-0.6847276886780373,0.10455391752893883,-0.0027680000000001037,0.062824,-0.92129,-0.24333699999999991,-0.100359,-0.601705,0.2405689999999998,0.16318300000000002,0.319585,0.9849439803017945,0.0,single,-0.601705
87,0.725,quasi,-0.025561022440900118,0.08436337453498327,-0.049441977679117094,0.5399975980371053,0.49408996921427006,-0.14209063300042749,-0.0037201488059393386,-0.006000240009599778,-0.0002400096003842576,-0.5657026281051423,0.5399015960638478,0.7400696027841221,-3.1250430869985917,2.4779157238939304,-15.36489741775184,0.2447366411769407,0.11510899255261174,-0.028802304138276707,-0.022545216111366184,-1.504165255218632,0.12585196860647452,-0.002585999999999977,0.062071,-0.9208799999999999,-0.247838,-0.09656300000000001,-0.5951259999999999,0.24525200000000003,0.158634,0.325754,0.9882266789449607,0.0,single,-0.5951259999999999
88,0.733333,quasi,-0.014040561622455566,0.13548541941677503,-0.03252130085202317,-0.10941778931821788,-0.26518660652263454,-0.1282765432992439,-0.005640225609013324,-0.006480259210368207,0.000600024000960636,-0.5309012360494377,0.569422776911074,0.6965078603144068,1.3825105986372859,6.134890781446243,2.0305624417489323,-0.2304184331062015,-0.05760460827654227,0.10080806448396618,4.176334100048529,3.542683409003491,-5.227618201093862,-0.0025159999999999627,0.06088800000000001,-0.920604,-0.25214500000000006,-0.092947,-0.589051,0.2496290000000001,0.153835,0.331553,0.985646725774636,0.0,single,-0.589051
89,0.741667,quasi,-0.013558915286780705,0.1316294696424311,-0.059035277177831864,0.14896640866322916,-0.8437634784850735,-0.3442105219258282,-0.010679145668347281,-0.006479481641470204,0.005159587233021552,-0.5436765058795403,0.5577153827693833,0.7087832973362166,0.05779293684603605,-0.4626769587645718,-3.1814226452854384,-0.6046220373570897,9.330080369605374e-05,0.5471038195417497,-1.5329097468325712,-1.4047749150096975,1.4729346078485537,-0.0024919999999999387,0.059736999999999985,-0.920069,-0.2565630000000001,-0.089396,-0.582652,0.25407100000000016,0.149133,0.3374170000000001,0.9774753730476637,0.0,single,-0.582652
90,0.75,quasi,-0.006960278411150039,0.11196447857914142,0.12168486739469041,-0.8662151085457551,1.192292348061476,-0.22219663829860925,-0.002880115204611053,-0.00636025441017608,-0.0001200048001921272,-0.5385815432617073,0.5388215528621115,0.7112684507380285,0.7918680997996685,-2.3598933233276855,21.687284840096186,0.9359210924920431,0.014307840068897577,-0.6335763870411204,0.6114199709388002,-2.2673502828839136,0.2982303374309215,-0.002457999999999849,0.058751,-0.9210839999999999,-0.2609929999999998,-0.085839,-0.577739,0.25853499999999996,0.14459,0.3433449999999999,0.9883616652458274,0.0,single,-0.577739
91,0.758333,quasi,-0.01764070562821272,0.058562342493698114,0.03288131525262287,0.7220383323963353,1.2755297275264574,-0.18028499527317499,-0.000720028801172748,-0.007200288011519305,0.019320772830912495,-0.5277811112444625,0.5409816392655697,0.6933877355094181,-1.2817025341488826,-6.40851267076,-10.656852531149305,0.25922073724208516,-0.1008080644837659,2.332986635197953,1.2961036862168178,0.2592207372444747,-2.1457716582995645,-0.0023170000000001245,0.05820300000000002,-0.921197,-0.26524400000000004,-0.08181899999999998,-0.572235,0.2629269999999999,0.14002199999999998,0.348962,0.9656143258307299,0.0,single,-0.572235
92,0.766667,quasi,-0.02183825293975348,0.10031197504199763,-0.15634749220063132,1.6502891111244133,-1.2427075315201224,-0.0513738605837942,-0.0007199424046016947,0.0014398848092150459,0.002039836813055342,-0.51091912646987,0.5352771778257761,0.6796256299496082,-0.5036653841541615,5.009555141384659,-22.70564044315518,1.0366759185659332e-05,1.0367377994641709,-2.073546438427796,2.023276310846237,-0.6844806143260946,-1.6513205615322801,-0.0021410000000001705,0.05737900000000001,-0.9198770000000001,-0.26932,-0.07819399999999999,-0.565268,0.26717899999999983,0.135573,0.35460900000000006,0.9956690649092681,0.0,single,-0.565268
93,0.775,quasi,-0.017160686427457536,0.010320412816512947,-0.27373094923796565,1.9414666001609766,-1.534474337711054,-0.01626294035333732,-0.004920196807867223,-0.006960278411136715,0.0007200288011519304,-0.5017400696028075,0.5399015960638407,0.6674666986679453,0.5613304346928986,-10.79941944383587,-14.086578307612365,-0.504050690419478,-1.0080599088385607,-0.15838329676027912,1.1015308852829129,0.5549523866632147,-1.459130119004302,-0.002039000000000124,0.05723500000000001,-0.91759,-0.2733580000000002,-0.07378099999999999,-0.5574250000000001,0.2713190000000001,0.131016,0.36016499999999996,0.9857432030183679,0.0,single,-0.5574250000000001
94,0.783333,quasi,-0.06636265450618394,0.1221648865954672,0.029521180847230374,-0.3070860380263088,-0.16008609127842688,-0.42941164217737793,-0.007920316812660515,-0.006360254410176165,-0.012120484819392518,-0.46609864394576195,0.5322212888515583,0.644905796231854,-5.904472348341155,13.42187372842377,36.391711278675004,-0.36002880172726753,0.07200576034568054,-1.5409232713962038,4.277142164532084,-0.9216737324231947,-2.707416588994543,-0.0015519999999999978,0.05616399999999999,-0.917937,-0.2766890000000002,-0.07036400000000001,-0.552297,0.2751370000000002,0.126528,0.36563999999999997,0.9736429217375313,0.0,single,-0.552297
95,0.791667,quasi,-0.025797936165115744,0.10967122630189478,-0.02843772498200635,0.2136929089651503,0.45216652680204183,-0.15371696725273518,-0.00863930885530015,-0.008639308855291825,-0.008759299256059883,-0.502159827213805,0.5160787137028997,0.6443484521238235,4.867376810783282,-1.4991193056842242,-6.954512338521273,-0.08627214334528789,-0.27346465624137783,0.40331000279968915,-4.326995832498537,-1.9369540615140934,-0.06687594288822041,-0.0014089999999999936,0.05517799999999999,-0.917773,-0.280659,-0.06697700000000001,-0.5466899999999999,0.27925,0.122155,0.37108300000000005,0.974944470645096,0.0,single,-0.5466899999999999
96,0.8,quasi,-0.10332413296531825,0.04848193927756943,-0.4821792871714808,1.8540686020561072,-4.919151129824961,0.23985936595508575,-0.004680187207476307,-0.004200168006721121,0.0007200288011519304,-0.4645385815432547,0.47437897515900584,0.6086643465738629,-9.303515756654528,-7.343008163245542,-54.451165509357075,0.4751136022829506,0.5327182105569046,1.1375648694601914,4.514730069668805,-5.004168792018923,-4.282263956553516,-0.0005869999999998932,0.054738999999999996,-0.913749,-0.28366899999999995,-0.06342799999999998,-0.5376,0.28308200000000006,0.11816699999999998,0.37614900000000007,0.9894506444303985,0.0,single,-0.5376
97,0.808333,quasi,-0.02640105604225501,0.14976599063962684,0.09768390735629291,-0.40503262266194157,1.3793961833366557,-0.5591644162916313,-0.004680187207503015,-0.003840153606143125,-0.0001200048001921288,-0.4572182887315644,0.552502100084008,0.589343573742955,9.231138476306725,12.154572346340855,69.5863667980054,-3.205168606489518e-12,0.04320345620760819,-0.10080806448386738,0.8784702762138964,9.375149997000227,-2.3185854831282993,-0.00040599999999990644,0.053459000000000007,-0.9145639999999999,-0.28725899999999993,-0.060071999999999987,-0.533503,0.286853,0.11353099999999999,0.381061,0.9899080156713748,0.0,single,-0.533503
98,0.816667,quasi,-0.0525557955363493,0.07475401967842665,0.0002399808015427761,0.08032709901075101,0.22735791291853227,-0.24924762578048343,-0.0028797696184333834,-0.005279577633789541,-0.00035997120230334037,-0.40028797696184065,0.4982001439884758,0.5562754979601557,-3.138317673877381,-9.000716458027311,-11.692335799705951,0.21603282806210922,-0.17271706595229247,-0.028793664760164355,6.83109092509279,-6.515713474385867,-3.967851665802615,8.000000000008e-06,0.05279199999999999,-0.914569,-0.290157,-0.05654300000000001,-0.528869,0.290165,0.109335,0.38569999999999993,0.9899588911202013,0.0,single,-0.528869
99,0.825,quasi,-0.03168126725069535,0.07644305772230943,-0.01656066242649379,0.14922742491045604,-0.047967957749778786,-0.03705920724170515,-0.005400216008649127,-0.0032401296051841467,-0.0003600144005763864,-0.48877955118205096,0.5227409096363901,0.5775831033241396,2.5050435960223374,0.20269267297285393,-2.0161578336777533,-0.3024656654525101,0.24474355317477658,-5.184000125526451e-06,-10.619413682972654,2.945009678136868,2.5570149242750633,0.00022699999999997722,0.052127999999999994,-0.9144340000000001,-0.29396599999999995,-0.05282400000000001,-0.5239180000000001,0.2941929999999999,0.104952,0.390516,0.9894867301884338,0.0,single,-0.5239180000000001
100,0.833333,quasi,-0.04884195367812582,0.07932317292691614,0.01644065762629811,-0.09685950773093212,-0.020345200337467256,-0.055894257742413446,-0.004200168006694475,-0.0034801392055683576,0.0,-0.47017880715226806,0.5097803912156467,0.53798151926077,-2.0593647458814828,0.34562764965879,3.9603168190077715,0.14401152069538548,-0.02880230413827072,0.04320345620741448,2.2321785707167674,-1.555324423466142,-4.7523801828116525,0.0005990000000000162,0.051438,-0.914571,-0.297477,-0.049237,-0.5195719999999999,0.298076,0.100675,0.3949990000000001,0.9909089818174148,0.0,single,-0.5195719999999999
101,0.841667,quasi,-0.04259659227263049,0.13438924886009135,0.036357091432691495,-0.12826721608835176,1.02569972193403,-0.4011872347661116,-0.005159587233023149,-0.0037197024238064566,-0.000839932805375571,-0.41300695944326143,0.4512838972882119,0.5377969762418948,0.749383417985995,6.60740051993938,2.389780874297244,-0.11512109747164229,-0.028745286565646403,-0.10078387393515294,6.860072919247203,-7.0190177498721305,-0.022143390793755612,0.0009110000000001062,0.050286999999999984,-0.914881,-0.30056400000000005,-0.046596000000000026,-0.515393,0.30147500000000016,0.09688300000000001,0.39948800000000007,0.9893069319372063,0.0,single,-0.515393
102,0.85,quasi,-0.04128165126603901,0.06792271690867495,0.019560782431287015,-0.010194880806891857,0.2504984831664953,-0.16919015845296953,0.004920196807867288,-0.007920316812672173,-0.006000240009599778,-0.41701668066721786,0.4560182407296364,0.5102604104164187,0.15779923276028915,-7.9763028862854926,-2.015637705676783,1.2096224698056557,-0.5040938904195073,-0.6192616349723095,-0.48118579430654834,0.5681439387284989,-3.304520079860362,0.0012959999999999638,0.049655000000000005,-0.915094,-0.30369500000000005,-0.043361999999999984,-0.511304,0.304991,0.09301699999999999,0.40379,0.9815200833324655,0.0,single,-0.511304
103,0.858333,quasi,-0.04308172326893036,0.07824312972519032,-0.0067202688107458,0.12102181446045511,-0.018764025375950268,-0.012324099067001696,-0.0037201488059659354,-0.0014400576023038609,0.0008400336013440577,-0.47053882155286775,0.493699747989915,0.4986199447977922,-0.21601728103820222,1.238499077944957,-3.15385230313605,-1.0368829489779414,0.7776622117326635,0.8208656679399744,-6.422913822830872,4.521961749703399,-1.3969117507051991,0.0016239999999998478,0.04899099999999999,-0.915031,-0.3072570000000001,-0.03990000000000002,-0.507093,0.30888099999999996,0.08889100000000001,0.407938,0.9932056131239191,0.0,single,-0.507093
104,0.866667,quasi,-0.08027357811375505,0.09407247420206187,-0.038876889848811234,0.3550260635078416,-0.26127708295927893,-0.07861638833111717,-0.0026397888168906425,-0.001559875209983105,-0.0007199424046083555,-0.40004799616030323,0.43796496280298,0.4893208543316594,-4.462665568133537,1.899369387673583,-3.8584858457002182,0.12963282806279086,-0.014376962764488214,-0.18718214614259926,8.458222389316644,-6.6876392112953384,-1.1158015918085988,0.002270999999999912,0.048194000000000015,-0.914713,-0.30992200000000003,-0.037033999999999984,-0.502691,0.31219299999999994,0.085228,0.412022,0.9947506580479989,0.0,single,-0.502691
105,0.875,quasi,-0.04368174726989433,0.1334453378135122,0.16212648505940064,-0.7127857472237982,1.661402688550871,-0.5659320687784183,-0.004800192007685088,-0.0004800192007685088,0.0002400096003842544,-0.449057962318507,0.4482179287171454,0.45037801512059705,4.391195349077231,4.7249326306792465,24.121369843779075,-0.25925875324546216,0.1295879046219359,0.11519884855305483,-5.881431196232274,1.2304051259048805,-4.6733276384329985,0.002594999999999903,0.04707800000000001,-0.916062,-0.31330000000000013,-0.034411,-0.500289,0.31589500000000004,0.081489,0.41577300000000006,0.9919498332743237,0.0,single,-0.500289
106,0.883333,quasi,-0.022920916836679642,0.06924276971079077,0.06564262570502363,-0.24903344007614162,0.48933487345009435,-0.08120245658885344,-0.0018000720028652538,-0.0010800432017274793,-0.0003600144005755489,-0.38821552862112846,0.4240969638785545,0.4372974918996785,2.4913993079580705,-7.704616356980819,-11.578526263575736,0.36002880173044777,-0.07200576034548999,-0.07200576034558992,7.301384099049353,-2.8946315658935298,-1.5697255755332433,0.002771000000000079,0.04649199999999999,-0.916612,-0.31634399999999996,-0.03145400000000001,-0.49719199999999997,0.31911500000000004,0.077946,0.41942,0.9964502101385673,0.0,single,-0.49719199999999997
107,0.891667,quasi,-0.0586753059755177,0.03215742740580658,-0.1723062155027599,0.48692210115101725,-1.3119495297869321,0.16963352519293767,-0.002879769618433422,0.0013198944084469866,0.001079913606910868,-0.46520278377728946,0.4358051355891549,0.4228461723062145,-4.290183481982033,-4.449885085791265,-28.551576818788682,-0.1295533496002129,0.28796947566288456,0.1727775386952754,-9.237731600211356,1.404868215814791,-1.7340196296453139,0.0032360000000000166,0.046235,-0.915167,-0.3197319999999999,-0.028090000000000004,-0.492232,0.3229679999999999,0.074325,0.42293499999999995,0.9944219159743259,0.0,single,-0.492232
108,0.9,quasi,-0.06864274570983014,0.12792511700467935,0.04116164646585633,-0.11676841081560885,0.45467314746187343,-0.16437081842679394,-0.000240009600390916,0.0001200048001921272,-0.0001200048001921272,-0.39277571102844927,0.37357494299771893,0.37789511580463214,-1.196140613742038,11.492582455162891,25.61716812295876,0.31678387352004017,-0.14399251269109017,-0.14399596869110645,8.691596393716535,-7.4679218278454,-5.394342553892018,0.003805999999999976,0.04517,-0.915511,-0.32243299999999997,-0.026042999999999997,-0.48942599999999997,0.32623899999999995,0.071213,0.426085,0.999510082454732,0.0,single,-0.48942599999999997
109,0.908333,quasi,-0.06732269290772097,0.11568462738509558,0.06804272170886708,-0.25623020737449664,1.0552979657919463,-0.3396716003918088,-0.0019200768030740608,0.0010800432017274938,-0.00012000480019129609,-0.3927757110284545,0.3914556582263311,0.3369734789391579,0.15841267276001259,-1.4689175110505075,3.2258580634838587,-0.2016161289671379,0.11520921655290715,9.973703682298417e-14,-6.261908335219349e-13,2.1457716582998128,-4.9107928555711755,0.004350999999999994,0.044215000000000004,-0.916079,-0.325145,-0.023745000000000002,-0.487185,0.329496,0.06796,0.428894,0.9963228976537338,0.0,single,-0.487185
110,0.916667,quasi,-0.04727621790256809,0.07415406767458636,0.03707703383729318,-0.17964046924486107,0.5733792623889153,-0.13093452198354183,-0.00155987520998808,-0.0007199424046066807,-0.0005999520038402883,-0.40544756419486383,0.3468922486201083,0.31449484041276937,2.405384569852739,-4.983268503780765,-3.715585297765018,0.04322073351163644,-0.21598099428055686,-0.05758905731329356,-1.5205007399099166,-5.347181378236435,-2.6972208454989643,0.0047319999999999585,0.043591000000000005,-0.916393,-0.32813000000000003,-0.021472000000000005,-0.48487299999999994,0.332862,0.06506300000000001,0.43152000000000007,0.9969670924549763,0.0,single,-0.48487299999999994
111,0.925,quasi,-0.05760230409216776,0.0865234609384371,-0.007680307212282817,0.2697238046176165,0.2472313187289174,-0.04832967967203392,-0.0019200768030740352,0.0014400576023038609,0.0004800192007685088,-0.41713668546739446,0.413296531861273,0.30505220208808087,-1.239179909948353,1.4843865671247676,-5.371095769779889,-0.04322592020712273,0.2592103692440337,0.12960172862219999,-1.4027506627301793,7.968832742249422,-1.133161925439633,0.005195999999999978,0.042882,-0.9163250000000001,-0.3311259999999998,-0.018749000000000002,-0.482267,0.3363219999999998,0.061631000000000005,0.43405800000000005,0.995920621213972,0.0,single,-0.482267
112,0.933333,quasi,-0.06636265450618394,0.09888395535821587,0.030841233649340462,-0.10450232998019005,0.21448762433206225,-0.11144708367497946,-0.0015600624024743586,-0.0019200768030723952,0.00024000960038342487,-0.4036961478459349,0.37597503900156315,0.25825033001320136,-1.0512841010459926,1.4833186631199904,4.622769814187404,0.04320345621020999,-0.4032322579354718,-0.028802304138375867,1.612929031736434,-4.478758293496965,-5.616449306957871,0.005736000000000185,0.042041999999999996,-0.91658,-0.33393699999999993,-0.01644000000000001,-0.48037199999999997,0.3396730000000001,0.058482000000000006,0.436208,0.9958573712594312,0.0,single,-0.48037199999999997
113,0.941667,quasi,-0.059155267578575824,0.13030957523397907,0.051115910727145934,-0.3281540170137014,0.9693402614616097,-0.2888752735068718,-0.0028797696184333834,-0.0010799136069108537,-0.000959923206142796,-0.3993280537556962,0.3729301655867502,0.21214302855771278,0.8648172459332921,3.7707727232736934,2.4327666280063975,-0.15835219773926262,0.10081151861789478,-0.14398041834967745,0.524129360479801,-0.36535558133104656,-5.5324335799721895,0.006205000000000016,0.04094700000000001,-0.917014,-0.33677200000000007,-0.014418,-0.47903,0.3429770000000001,0.05536500000000001,0.437984,0.9946301409558809,0.0,single,-0.47903
114,0.95,quasi,-0.07356294251769833,0.0745229809192387,-0.003960158406330258,0.32589532795745957,0.24692043502539804,-0.10088456270405574,-0.0022800912036471162,-0.0018000720028802666,0.00048001920076768247,-0.419296771870865,0.3776551062042529,0.1976479059162396,-1.728990152300809,-6.694659104133071,-6.6093926717240725,0.07196428834588656,-0.08642246441490693,0.17280000082929217,-2.3963420275013796,0.5670155547225213,-1.7394842963486514,0.0067989999999999995,0.040311,-0.916977,-0.339653,-0.011892,-0.47735000000000005,0.346452,0.052203,0.439627,0.995092666048089,0.0,single,-0.47735000000000005
115,0.958333,quasi,-0.05940237609505966,0.09372374894995641,0.0789631585263331,0.1403803996615533,0.37339278272394627,-0.10667345831264086,-0.0034801392055750194,-0.002880115204609387,0.0,-0.4080163206528328,0.35869434777390846,0.15096603864154945,1.6993359441543998,2.3041843310593584,9.95119607976275,-0.14401152069217546,-0.12961036862223882,-0.057604608276452716,1.3537082944956416,-2.275382026922401,-5.6020481548889896,0.007265000000000077,0.039506,-0.917635,-0.3425579999999999,-0.009683999999999998,-0.47674999999999995,0.349823,0.04919,0.440885,0.9924710867535727,0.0,single,-0.47674999999999995
116,0.966667,quasi,-0.04859611231101339,0.08255339572834207,0.04367650587953302,-0.2780979181402611,0.6120742997626804,-0.17490798250966438,-0.0004799616030855522,0.00011999040076805765,-0.0019198464122872573,-0.4103671706263442,0.34557235421165966,0.11819054475641357,1.2966479222517622,-1.3403351597809288,-4.234059592848548,0.3599925128977015,0.3599838739353758,-0.23036314042323525,-0.2820794304669317,-1.5745132664085315,-3.9327446466445446,0.007665999999999951,0.03881899999999999,-0.918015,-0.3455729999999999,-0.0074920000000000125,-0.476129,0.35323899999999986,0.046311000000000005,0.441886,0.9966957220138613,0.0,single,-0.476129
117,0.975,quasi,-0.04992199687987228,0.07344293771750954,-0.07848313932557895,0.5977470395327197,-0.0651590497455092,0.09135919731942746,-0.005160206408231561,-0.003960158406335254,0.0024000960038400776,-0.41917676707068285,0.3326533061322496,0.09048361934477851,-0.1591125127635788,-1.0932986932476436,-14.659743814366145,-0.5616518426912339,-0.4896374423500959,0.5184138264883444,-1.0571938610750908,-1.5503477834405612,-3.3249640479581553,0.00803900000000013,0.038174,-0.917341,-0.3486499999999999,-0.005332000000000003,-0.47472099999999995,0.35668900000000003,0.043506,0.44262,0.988444452317601,0.0,single,-0.47472099999999995
118,0.983333,quasi,-0.0674426977079022,0.08076323052921999,0.05244209768390962,-0.34172204916914534,0.39318354037145264,-0.2091395346462976,-0.0012000480019279335,-0.0009600384015370176,-0.004320172806911582,-0.4210968438737513,0.32809312372494764,0.06420256810272476,-2.1025682020916654,0.8784702762162996,15.71165690741486,0.47523801827716444,0.36002880172785595,-0.8064645158708307,-0.2304184331055358,-0.5472437786273754,-3.153852303138563,0.008591000000000015,0.037493,-0.917814,-0.35159699999999994,-0.003270999999999996,-0.47462299999999996,0.36018799999999995,0.040763999999999995,0.44319100000000006,0.9923577050383817,0.0,single,-0.47462299999999996
119,0.991667,quasi,-0.07739380849532161,0.10127189824814042,0.050635949124074375,0.08997525043864733,0.4107104888160318,-0.15670190065915718,-0.006239500839925759,-0.003599712023038447,0.0014398848092150459,-0.41804655627550547,0.34665226781857683,0.011519078473720367,-1.1940377714686181,2.460843258809761,-0.2167204895410677,-0.6046859656824879,-0.31673549574051413,0.6911516218054549,0.3660052313709916,2.226919137704499,-6.321513034437808,0.009184000000000081,0.036619,-0.918224,-0.354436,-0.001225999999999991,-0.474949,0.36362000000000005,0.03784499999999999,0.44327500000000003,0.9877567971642255,0.0,single,-0.474949
120,1.0,quasi,-0.0468018720748963,0.09804392175686966,0.058202328093118406,-0.5367541520864558,0.9510669164905399,-0.20706519766048043,0.0009600384015370176,-0.0007200288011510978,-0.002040081603264497,-0.4299771990879754,0.30745229809192176,-0.021840873634947165,3.671179217619727,-0.38737267385944485,0.9080017963571342,0.8639792681462555,0.3455758096588668,-0.4176126740045036,-1.4317344068726587,-4.704184534579972,-4.003354387215576,0.009582000000000201,0.03579600000000001,-0.9187259999999999,-0.357629,0.0005190000000000056,-0.475616,0.3672110000000002,0.035277,0.44310999999999995,0.9960552256243611,0.0,single,-0.475616
121,1.008333,quasi,-0.07836313452535684,0.07620304812192684,-0.0703228129125142,0.5331244490683759,-0.5030503261810142,0.13300138943636688,-0.003480139205575066,-0.004560182407295898,-0.0008400336013440688,-0.417736709468364,0.30277211088443784,-0.0520820832833306,-3.7875029941750666,-2.621009676580225,-15.423633866030697,-0.5328426265585172,-0.4608368662120287,0.14401152069128034,1.4689175110538215,-0.5616449306953035,-3.6290903214189028,0.010205999999999937,0.035123,-0.918147,-0.360457,0.0024069999999999925,-0.475464,0.37066299999999996,0.03271600000000001,0.44268300000000005,0.9903373156292739,0.0,single,-0.475464
122,1.016667,quasi,-0.07391408687307023,0.09395248380129423,-0.0052795776337945365,-0.21553296040310926,0.2541524804226228,-0.14186110081252185,0.0007199424046016851,-0.008519318454523767,-0.006839452843771793,-0.4358051355891591,0.284617230621548,-0.06443484521238368,0.5338430108335226,2.1297619005720247,7.8045638683368335,0.5039694756631532,-0.47505832100166057,-0.7198727192737795,-2.16803769148008,-2.178411358638076,-1.4822128544580018,0.01082800000000006,0.03426900000000001,-0.91816,-0.36347299999999994,0.0039959999999999996,-0.47595699999999996,0.374301,0.030273000000000008,0.442203,0.9817520762826659,0.0,single,-0.47595699999999996
123,1.025,quasi,-0.08340333613343291,0.07836313452538182,-0.021480859234361077,-0.02229104218852701,0.21855769521262766,-0.11201881679728853,0.0,0.0021600864034549876,-0.0003600144005763864,-0.4632185287411508,0.2736109444377805,-0.08460338413536753,-1.1387554614619906,-1.870796744979305,-1.9442315613304557,-0.08639654441397955,1.2815798461513082,0.7775637157320852,-3.2897387677897463,-1.320807174339083,-2.420321483617428,0.01152299999999995,0.033634,-0.917984,-0.366638,0.005623000000000003,-0.47648300000000005,0.37816099999999997,0.028010999999999994,0.441501,0.9963501964896824,0.0,single,-0.47648300000000005
124,1.033333,quasi,-0.057122284891411815,0.061202448097922434,-0.009720388815552181,0.4507882727485723,-0.4135979817735871,0.04637818952767066,-0.0015600624025009636,-0.00024000960038258578,-0.0007200288011519209,-0.37429497179886334,0.272410896435852,-0.18996759870394497,3.153852303134602,-2.059364745884926,1.4113129027731537,-0.18721497689918834,-0.28802304138215906,-0.043203456207311676,10.671253683221641,-0.14401152069224782,-12.64421151668974,0.011986000000000052,0.03312200000000001,-0.9179090000000001,-0.36928099999999986,0.007383000000000001,-0.47798500000000005,0.3812669999999999,0.025739000000000012,0.43992400000000004,0.9971085178817483,0.0,single,-0.47798500000000005
125,1.041667,quasi,-0.07991360691142861,0.054955603551716914,-0.05735541156707314,-0.26455917312688954,-0.5454567455758904,0.0938708944695685,-0.0002399808015427825,-0.0017998560115192474,0.0002399808015361217,-0.4155267578593784,0.21646268298536528,-0.18106551475882066,-2.7347398632130107,-0.7495613806342258,-5.71574547054498,0.1583971203453571,-0.18716659600872226,0.1151919369676099,-4.947418533779202,-6.713248554174197,1.0681646202453188,0.012649999999999828,0.03264900000000001,-0.917429,-0.372078,0.008729,-0.47901600000000005,0.38472799999999985,0.02392000000000001,0.438413,0.9969473767053669,0.0,single,-0.47901600000000005
126,1.05,quasi,-0.06540261610464516,0.10224408976358942,-0.03744149765991654,0.05871788873283136,0.5103274407619711,-0.019376260461801385,-0.0015600624024743172,-0.0015600624024959674,-0.0018000720028802186,-0.4298571942877742,0.23508940357613922,-0.20316812672506546,1.7413885523560775,5.674845339238171,2.3897652594691285,-0.15841612875693167,0.028776384138158626,-0.24481612917512358,-1.7197211602538718,2.2352958827281433,-2.652419532730639,0.013182000000000027,0.03178400000000001,-0.917132,-0.3751150000000001,0.009835999999999998,-0.48039699999999996,0.3882970000000001,0.02194800000000001,0.436735,0.9952542859643766,0.0,single,-0.48039699999999996
127,1.058333,quasi,-0.07680307212288248,0.05868234729389269,-0.09468378735148636,0.5048525751616787,-1.0289183902699,0.12750473783601657,-0.001680067202709788,-0.002160086403456653,-0.0007200288011519401,-0.4082563302532158,0.25189007560302684,-0.23688947557902243,-1.3681094465663532,-5.227618201091699,-6.86934953696992,-0.01440115207433959,-0.07200576034569675,0.12961036862213948,2.5922073724419303,2.01616128967812,-4.046723731424131,0.01380799999999982,0.031277,-0.9163490000000001,-0.37787700000000013,0.011445999999999998,-0.481582,0.39168499999999995,0.019831,0.43476700000000007,0.9952838809061936,0.0,single,-0.481582
128,1.066667,quasi,-0.09035277177825748,0.14506839452843684,0.11507079433644406,-0.421938771469477,1.2653423200369573,-0.5328422880261701,-0.0014398848092033701,-0.0031197504199661683,-0.0007199424046083459,-0.4000479961602979,0.25557955363570634,-0.26001919846412447,-1.6258338919336333,10.365496428430944,25.168536319645888,0.028819581654237578,-0.11515046994354548,1.0366755890837223e-05,0.9849212974463423,0.44270194776571464,-2.7753447186347326,0.014548999999999923,0.030042,-0.917314,-0.3804580000000001,0.012366999999999989,-0.48470799999999997,0.395007,0.01767500000000001,0.432606,0.9941489725468733,0.0,single,-0.48470799999999997
129,1.075,quasi,-0.043561742469712776,0.05124204968198737,-0.07272290891635677,0.176455173259781,-0.8126248806537747,0.26387769327003946,-0.0018000720028919243,-0.003480139205568404,-0.0008400336013440688,-0.3822152886115472,0.25333013320533077,-0.28225129005160715,5.615148122950334,-11.259611766044682,-22.53614583616975,-0.043224192210315315,-0.043248384207636985,-0.014411520069089655,2.140010506270356,-0.2699412492950427,-2.6679577088062985,0.014896999999999938,0.029586,-0.916715,-0.38327999999999995,0.014050999999999994,-0.486454,0.3981769999999999,0.015535000000000007,0.43026099999999995,0.9933214097135539,0.0,single,-0.486454
130,1.083333,quasi,-0.05880235209406826,0.0717628705148195,-0.08328333133324856,0.22132845262086975,-0.5686868828515349,0.10345281986447616,-0.0037201488059392393,0.0007200288011510881,0.005520220808832781,-0.37669506780270584,0.254290171606861,-0.28501140045600853,-1.8289463127751373,2.4625970038199654,-1.2673013820822754,-0.2304184331029979,0.504040322419227,0.7632610596635951,0.6624529951807573,0.11520921655229006,-0.3312264975880638,0.015355999999999925,0.028993999999999992,-0.915975,-0.3859290000000001,0.015572000000000003,-0.488135,0.401285,0.01342199999999999,0.42784,0.9888407006403865,0.0,single,-0.488135
131,1.091667,quasi,-0.08807295416367007,0.10271178305735684,-0.09083273338133215,0.32156238928655995,-0.4940967460405987,-0.06718540816503114,-0.0010799136069025565,-0.0026397888168940083,-0.0013198944084478368,-0.3412526997840187,0.306455483561321,-0.3164146868250601,-3.51219127305044,3.713572419311007,-0.9058557773078634,0.31680287965403564,-0.4031458624964195,-0.8207481662203922,4.252743942727123,6.259336687600311,-3.7680929168529085,0.016081000000000012,0.028116000000000002,-0.915229,-0.388039,0.017270000000000008,-0.490015,0.40412000000000003,0.010845999999999995,0.425214,0.9947620986906269,0.0,single,-0.490015
132,1.1,quasi,-0.0476419056762239,0.08460338413536361,0.0135605424217002,0.35554926278506177,0.002511732598520379,-0.03315351525291457,0.0006000240009373124,-0.003360134405376186,0.0,-0.3867754710188444,0.22044881795271323,-0.2793711748469886,4.851919895289267,-2.1730947944309267,12.527694204131826,0.2016005769638593,-0.08644492841499642,0.15839366476032807,-5.462951066221641,-10.321212721541615,4.445399253338634,0.016482999999999803,0.027383000000000005,-0.915342,-0.39086500000000013,0.018402,-0.492456,0.40734799999999993,0.008981000000000003,0.422886,0.994311187386171,0.0,single,-0.492456
133,1.108333,quasi,-0.1023640945637826,0.1266050642025693,0.003360134405379606,-0.4758441101902789,-0.06991646205582755,-0.24403221940524847,0.0002400096003909192,-0.0031201248049920177,-0.00048001920076768247,-0.3140525621024846,0.24792991719668994,-0.31669266770671145,-6.566925343520846,5.040403224193698,-1.2240979258755174,-0.043203456203815736,0.028802304138266,-0.05760460827645348,8.727098153889411,3.2978638238301885,-4.478758293498524,0.017337999999999854,0.026302000000000006,-0.915374,-0.3926290000000001,0.019413,-0.49512300000000004,0.40996699999999997,0.006889000000000006,0.420251,0.9947234265537526,0.0,single,-0.49512300000000004
134,1.116667,quasi,-0.044036477081833864,0.10883129349652006,0.008159347252214599,0.2444952598673961,0.19568752027975744,-0.06477196794901253,0.0013198944084453037,-0.001679865610751142,0.0003599712023041729,-0.31617470602350883,0.23074154067674507,-0.3231341492680562,6.998754197497996,-2.13268187017628,0.5758594728623658,0.12957581090165302,0.17281727792666962,0.10079078510581341,-0.25463689957093905,-2.0624401871783946,-0.7729159540850403,0.017715999999999843,0.025381,-0.915439,-0.39489700000000005,0.020429000000000003,-0.497884,0.4126129999999999,0.004951999999999998,0.417555,0.9963891948473607,0.0,single,-0.497884
135,1.125,quasi,-0.08964358574343693,0.11940477619104824,-0.06120244809792573,0.18886607877817432,-0.2623082089493725,-0.14378240971987824,0.001320052802110086,-0.0012000480019196224,-0.0014400576023047128,-0.2376095043801752,0.24684987399496078,-0.39409576383055794,-5.473071962270909,1.2688686780905167,-8.323748391952593,1.9008000093879736e-05,0.05758041627643392,-0.21601209703694974,9.428201325253132,1.9330773212787535,-8.51573437687536,0.01847399999999988,0.02437600000000001,-0.914941,-0.39613,0.021490999999999996,-0.500658,0.41460399999999986,0.0028850000000000126,0.41428299999999996,0.9961788525191939,0.0,single,-0.500658
136,1.133333,quasi,-0.06636265450618394,0.11772470898836176,0.054002160086398,-0.028228172901985975,-0.04901853304813445,-0.13527112688236587,0.001320052802110086,-0.0016800672026881377,0.0,-0.2882515300612069,0.16824672986919637,-0.34369374774991046,2.793823501410442,-0.2016161289675372,13.825105986358428,0.0,-0.05760460827655342,0.17281382482956031,-6.077286173170788,-9.432754605276028,6.0484838690325144,0.01903799999999989,0.023381,-0.915391,-0.39797899999999997,0.021911999999999987,-0.5039719999999999,0.41701699999999986,0.001469000000000012,0.4114190000000001,0.9964389587954008,0.0,single,-0.5039719999999999
137,1.141667,quasi,-0.0861531077513788,0.12251019918406364,-0.051595872330204844,0.00864192084985044,0.07965127193203411,-0.038323446066154794,0.00155987520998808,-0.0002399808015361153,-0.000479961603071398,-0.25137988960883767,0.19894408447324144,-0.4598032157427373,-2.374664416270064,0.5742128864533044,-12.670750229973846,0.028776386834412304,0.1727965444146882,-0.05759078510575886,4.424242914851087,3.6833878814548644,-13.932021597411321,0.019768999999999926,0.022358000000000003,-0.914965,-0.39935600000000004,0.022549,-0.507374,0.41912499999999997,0.00019099999999999673,0.40759100000000004,0.9972506745290566,0.0,single,-0.507374
138,1.15,quasi,-0.05340213608544735,0.12528501140045756,0.020040801632068856,0.40360583097057434,0.36775562260676287,-0.09998195930760675,-0.001320052802110086,-0.0018000720028802666,-0.0008400336013440688,-0.2871714868594744,0.21756870274811133,-0.35893435737430085,3.930273810864244,0.33299078559869716,8.596744745262734,-0.3456051856592094,-0.1872184328986158,-0.043210368207449196,-4.295163476615513,2.235043594728196,12.104747194100248,0.02020299999999997,0.021299,-0.915139,-0.401304,0.02331799999999999,-0.510532,0.42150699999999997,0.002018999999999993,0.40460700000000005,0.9960249196139158,0.0,single,-0.510532
139,1.158333,quasi,-0.11916476659066413,0.15288611544461478,0.03792151686067172,-0.9911305457897887,1.1014752075264942,-0.3672959846150139,-0.0013200528021100508,-0.0015600624024959674,0.0,-0.2872914916596622,0.22944917796711597,-0.39997599903995157,-7.89183133387923,3.3122649758978446,2.1457716582986377,4.2155466684903074e-15,0.028802304138280926,0.10080806448386585,-0.014401152068619907,1.4257140548427267,-4.925194007638305,0.02118500000000001,0.020012000000000002,-0.915455,-0.402705,0.023956000000000005,-0.514181,0.42389,0.003944000000000003,0.401274,0.9965939864862765,0.0,single,-0.514181
140,1.166667,quasi,-0.0760739140868773,0.054475641948644675,-0.19846412287017948,1.3455232562304358,-1.7937303675366345,0.45650660087421424,-0.0010799136069025565,-0.0002399808015361217,-0.00011999040076806085,-0.2872570194384513,0.1909047276217933,-0.39596832253420783,5.170488661361609,-11.808312154544273,-28.364007647090915,0.02881439827303803,0.15839712034555686,-0.014397696276465458,0.004136335638462529,-4.624964044315263,0.4808827100724522,0.021810000000000107,0.019556000000000004,-0.913802,-0.40446499999999996,0.025093000000000004,-0.515827,0.42627500000000007,0.005537,0.39797499999999997,0.9981454246669418,0.0,single,-0.515827
141,1.175,quasi,-0.09876395055802277,0.1588863554542161,0.049201968078724866,-0.1676473401255359,0.40208405612402226,-0.06597306159257307,-0.0013200528021100508,0.001080043201727465,-0.0007200288011519209,-0.3040921636865332,0.17220688827552702,-0.4159366374654943,-2.7229132930691313,12.529786812140834,29.721119758658347,-0.028817856139144386,0.15840921676029804,-0.07200748834559577,-2.020298121694662,-2.243830474770906,-2.3962936435000755,0.022622000000000142,0.018240999999999993,-0.914218,-0.40617599999999987,0.02520399999999999,-0.519703,0.428798,0.006962999999999997,0.39451499999999995,0.9969144268529688,0.0,single,-0.519703
142,1.183333,quasi,-0.1072842913716499,0.09720388815552607,-0.11616464658586076,0.6928928540537177,-0.818298233827511,0.15760286039808444,-0.0010800432017458131,0.0001200048001921288,0.0013200528021117513,-0.3025321012840536,0.14328573142925854,-0.4242169686787456,-1.0224817969071407,-7.402192163529412,-19.84478755125251,0.028802304135874226,-0.11520921655290352,0.2448195851750499,0.18721497689662697,-3.470677648658195,-0.9936794927698734,0.023506999999999945,0.017432000000000003,-0.913239,-0.4078029999999999,0.025588,-0.52227,0.43130999999999986,0.008155999999999997,0.390969,0.9971503246432125,0.0,single,-0.52227
143,1.191667,quasi,-0.10775137988961586,0.18526517878569618,0.10487161027116915,-0.5462249819170141,1.8053403709690683,-0.24455130531616068,-0.0031197504199495167,0.0020398368130553146,-0.0011999040076789112,-0.3208543316534731,0.13738900887928945,-0.43304535637149044,-0.05604613846483833,10.566509554855944,26.522229044519825,-0.24474528656151762,0.23036141263057008,-0.30237062752467525,-2.198491764989123,-0.7075501019881265,-1.0593217773871835,0.02437900000000015,0.015905000000000002,-0.914123,-0.4095789999999999,0.025189000000000003,-0.526753,0.43395800000000007,0.009284,0.38737,0.9934736545588254,0.0,single,-0.526753
144,1.2,quasi,-0.0943237729509133,0.08004320172806996,-0.15348613944556952,0.5480980934373416,-1.2137610324542243,0.5351368802202235,-0.002760110404428955,0.000600024000960644,0.0016800672026881377,-0.3229329173166955,0.12288491539661664,-0.4357374294971833,1.6113772877358308,-12.627142332608566,-31.00417013281423,0.04315852820359596,-0.1727844488293152,0.34561036965883535,-0.24944025719697666,-1.7405608403543678,-0.32306169755104847,0.025141999999999998,0.015243000000000007,-0.91283,-0.41148399999999996,0.025546,-0.529105,0.43662599999999996,0.010302999999999993,0.383725,0.9945225553271433,0.0,single,-0.529105
145,1.208333,quasi,-0.13332533301330166,0.14208568342733516,-0.015720628825151798,0.017101405873230068,0.1262917646550933,-0.047897268874771116,-0.003840153606148019,0.003000120004799809,0.0037201488059517298,-0.34213368534740035,0.10548421936877347,-0.4563782551301973,-4.6803744224634185,7.445395619736483,16.532522575352854,-0.1296103686210303,0.2880230413823501,0.24481958517503374,-2.3041843310577854,-2.088167050023144,-2.4769981558878724,0.026220999999999828,0.014084,-0.912668,-0.41322400000000004,0.025241,-0.5327770000000001,0.43944499999999986,0.011157,0.379891,0.9897819594588194,0.0,single,-0.5327770000000001
146,1.216667,quasi,-0.0739140868730722,0.1162706983441344,0.004319654427636869,0.7012848107800183,0.23322096205858697,0.14947759936753124,-0.003959683225336017,0.0015598752099831258,-0.0008399328053755933,-0.35913126949844976,0.12335013198944332,-0.4746820254379758,7.128779234488911,-3.0975504059516745,2.4046416190051656,-0.014342406910007169,-0.17281555013399458,-0.5471660200776829,-2.039546934371218,2.143738015439187,-2.196276734794674,0.02680400000000005,0.013128,-0.9127109999999999,-0.4156009999999999,0.025300000000000003,-0.536769,0.44240499999999994,0.012172000000000002,0.3759419999999999,0.9927700874000069,0.0,single,-0.536769
147,1.225,quasi,-0.16056642265688417,0.15600624024960671,-0.06204248169926565,0.07481522681007084,-0.037253482157110766,-0.0032457016020375883,-0.005520220808831116,0.0,-0.005040201608064279,-0.3792151686067438,0.07608304332173102,-0.49093963758548953,-10.398696241906931,4.7684557668872705,-7.963774886223612,-0.18727200089944462,-0.18719251289848776,-0.5040524184193702,-2.4101642995672274,-5.672277531226626,-1.950991497361511,0.0280959999999999,0.011828000000000005,-0.912236,-0.4174230000000001,0.024634000000000003,-0.540343,0.445519,0.012805999999999998,0.37189300000000003,0.9875415724609821,0.0,single,-0.540343
148,1.233333,quasi,-0.10068402736109947,0.08520340813632651,-0.10380415216608815,0.5954703685540571,-0.4835608044747454,0.17166218960397533,-0.0032401296051841467,0.003600144005760533,0.0002400096003842576,-0.3831753270130842,0.04356174246969945,-0.518900756030252,7.18617488248953,-8.496679720782533,-5.011600920055549,0.27362188931321135,0.43203456207375085,0.6336506910414718,-0.4752380182815833,-3.9027122107322527,-3.3554684321088097,0.028907999999999934,0.011148000000000005,-0.911369,-0.41977700000000007,0.024287000000000003,-0.543802,0.448685,0.013138999999999998,0.367567,0.9919175977634396,0.0,single,-0.543802
149,1.241667,quasi,-0.11723062155027576,0.13318934485241077,0.016318694504442517,0.07276065156673396,0.564089266352395,0.050799845255585695,-0.0029997600191914503,-0.0013198944084486341,-0.0022798176145905976,-0.4102471802255728,0.057835373170145504,-0.5253179745620302,-1.9854324681036923,5.7578517777878435,14.4135885133825,0.0288420429556869,-0.5903573811146063,-0.30235507739078904,-3.2483625164972896,1.7126986681600602,-0.7700046234435068,0.029859999999999998,0.010026999999999994,-0.911524,-0.422219,0.023659,-0.548316,0.452079,0.013632000000000005,0.363208,0.9933462103993307,0.0,single,-0.548316
150,1.25,quasi,-0.12300492019681543,0.11112444497779968,-0.045841833673346565,0.5549603113568254,-0.24688085694414327,-0.03702386823691627,-0.002880115204611091,0.0001200048001921288,-0.006960278411136808,-0.4192967718708783,0.03768150726029014,-0.5395415816632715,-0.6929435553269794,-2.6478939007093834,-7.45956176380531,0.01435795206772595,0.17279481682956632,-0.5616777626960582,-1.0859944372141583,-2.4185606516087303,-1.7069011281940951,0.030861000000000027,0.009101999999999999,-0.9112,-0.42468799999999995,0.023046999999999998,-0.55243,0.455549,0.013944999999999999,0.35877000000000003,0.9874440208682567,0.0,single,-0.55243
151,1.258333,quasi,-0.15936637465498715,0.10188407536301576,-0.09660386415457374,0.042585365212955355,0.04164586314548466,0.11191160053017682,-0.013680547221882697,0.013320532821312972,0.019080763230529325,-0.4362174486979585,0.018600744029761643,-0.5678627145085805,-4.363549076943724,-1.108888709322453,-6.0916873252403265,-1.2961036862200535,1.5841267276036197,3.1250499989999247,-2.0305624417473065,-2.2897831789906,-3.3986718883126454,0.032075000000000076,0.008363999999999996,-0.9102359999999999,-0.426995,0.022352999999999998,-0.556357,0.4590700000000001,0.013989000000000001,0.35387899999999994,0.9550102020085122,0.0,single,-0.556357
152,1.266667,quasi,-0.12287017038635782,0.14146868250539843,-0.04283657307414662,0.4530705717944331,-0.31610775423830295,-0.04023429433941076,-0.00311975041997616,0.003359731221502284,0.005279577633789541,-0.49832013438924055,0.0647948164146862,-0.4913606911447065,4.3791941767013505,4.7497728752558634,6.451558804946809,1.2671942406895198,-1.195200575931199,-1.6560097908254954,-7.451726144862204,5.542845258570218,9.179508442989373,0.03307299999999991,0.007212999999999997,-0.9098350000000001,-0.43012400000000006,0.021713999999999997,-0.560095,0.46319699999999997,0.014501,0.34974000000000005,0.9883458905012856,0.0,single,-0.560095
153,1.275,quasi,-0.09336373454940293,0.10368414736589603,0.03780151206047727,0.2285490623753745,0.9066882477842108,-0.016822098403355502,-0.004320172806903313,0.0014400576023055455,0.0025201008040322066,-0.4819392775711096,0.02052082083283404,-0.5870634825393078,3.540913936992099,-4.53432558976392,9.676957294446733,-0.14405644868920725,-0.23037004910557493,-0.3311504655895068,1.9657814494337094,-5.313091993502047,-11.484794359126633,0.03381500000000015,0.0063610000000000055,-0.910129,-0.4333619999999999,0.021020999999999998,-0.565302,0.46717700000000006,0.014659999999999992,0.344827,0.991325553645277,0.0,single,-0.565302
154,1.283333,quasi,-0.17376695067801134,0.09636385455418026,-0.15000600024000377,-0.16632990586400198,-0.4715647945925177,0.1466422401558081,-0.0046801872075028905,-0.0001200048001921256,-0.0001200048001921256,-0.492379695187795,0.004080163206528939,-0.6162246489859488,-9.648771886308293,-0.8784702762169257,-22.537802988176857,-0.043203456210196944,-0.1872149768987932,-0.31682534552073516,-1.2529002300114271,-1.9729578334699165,-3.4994799527949594,0.03522399999999992,0.005557000000000006,-0.90888,-0.436017,0.020252000000000006,-0.569187,0.4712409999999999,0.014695,0.339693,0.992194561261991,0.0,single,-0.569187
155,1.291667,quasi,-0.09791216702663108,0.06887449004079865,-0.1445884329253701,1.0667035124265956,-0.8389993518739579,0.20523034596715334,-0.005159587233023286,0.0025197984161259472,-0.0003599712023041825,-0.5014398848092301,0.012598992080633068,-0.6357091432685535,9.101845890494566,-3.2984598648166696,0.6500560732701904,-0.057523401190353304,0.3167510458745048,-0.028793664760266555,-1.087135783709532,1.0221776906772606,-2.337952277730401,0.035996999999999835,0.0050039999999999946,-0.907678,-0.4393800000000001,0.019782999999999995,-0.57328,0.47537699999999994,0.014779,0.334398,0.9904111894290538,0.0,single,-0.57328
156,1.3,quasi,-0.16284651386055787,0.17052682107283892,0.05940237609504555,-0.07155020378421059,0.5933791130759808,-0.12162783438918255,-0.0038401536061213725,0.0003600144005763768,0.0024000960038408465,-0.5205808232329145,-0.02328093123724905,-0.6745469818792618,-7.792433317403775,12.1987676745516,24.47987627750055,0.15833836876297733,-0.25918444924391365,0.3312213135899413,-2.2970044910217373,-4.3057630286669255,-4.6607270623674,0.03732200000000008,0.003586000000000006,-0.908153,-0.442361,0.018168000000000004,-0.579396,0.4796830000000001,0.014581999999999998,0.32875699999999997,0.9924286998557268,0.0,single,-0.579396
157,1.308333,quasi,-0.16260650426017131,0.10164406576263149,-0.11484459378375067,-0.10183656642704046,-0.13339955523708993,-0.0013946114689382242,-0.006120244809795237,0.0015600624024960088,-0.0042001680067203446,-0.5323412936517504,-0.008640345613824946,-0.6793471738869583,0.02880230413855292,-8.266261287676475,-20.910472804367913,-0.27362188931643894,0.1440115206911848,-0.7920633638019022,-1.4113129027764293,1.756940552433006,-0.5760460827669015,0.03862600000000005,0.0027520000000000044,-0.907231,-0.445442,0.017249,-0.5841000000000001,0.48406800000000005,0.014496999999999996,0.32313099999999995,0.987358291857222,0.0,single,-0.5841000000000001
158,1.316667,quasi,-0.17674586033117906,0.08051355891528675,-0.20542356611471488,0.3075968295807539,-0.6757058171984153,0.3242342707792276,-0.003359731221518936,-0.0017998560115191995,-0.0014398848092158593,-0.5482361411087125,-0.023878089752818493,-0.7019438444924379,-1.6965870015607918,-2.5354579850425463,-10.868607191140331,0.33123513178261105,-0.4031579570452583,0.3312074871015676,-1.90722911650612,-1.8283830260371288,-2.7113835619725664,0.04007099999999997,0.0020659999999999984,-0.905531,-0.448538,0.016379000000000005,-0.588238,0.48860899999999996,0.014313000000000006,0.31729299999999994,0.9932093725116359,0.0,single,-0.588238
159,1.325,quasi,-0.14484579383174956,0.09672386895475922,-0.15696627865114457,-0.38892107464333286,-0.11593179847091459,0.13815733783047981,-0.006360254410159511,0.000600024000960644,-0.0016800672026881377,-0.5579023160926505,-0.022320892835714305,-0.7104284171366897,3.8281611063758305,1.945315017337408,5.8151070999124865,-0.36007718572430125,0.28799712138243916,-0.02882304013827921,-1.1599873975684685,0.18687110489670014,-1.018189444888026,0.04122500000000007,0.0012650000000000022,-0.904237,-0.45198000000000005,0.015386999999999998,-0.59285,0.4932050000000001,0.014121999999999996,0.31138699999999997,0.9889904724633072,0.0,single,-0.59285
160,1.333333,quasi,-0.18324732989319925,0.09372374894995683,-0.05244209768390892,-0.2509651220035379,0.43498408150578066,0.08506811159586389,-0.008880355214223956,0.013920556822271581,0.027721108844353533,-0.5418216728668975,-0.0350414016560657,-0.729509180367202,-4.608368662120367,-0.3600288017283496,12.543403452206146,-0.30242419345546634,1.5985278796724713,3.528282256935216,1.9297543772654142,-1.5265221193269138,-2.2897831789885994,0.042677999999999994,0.0005999999999999894,-0.903569,-0.45496799999999993,0.014313999999999993,-0.598492,0.4976459999999999,0.013714000000000004,0.30507699999999993,0.9462231336773737,0.0,single,-0.598492
161,1.341667,quasi,-0.2565394768418543,0.16162706983441477,-0.12742980561555406,0.3074377842412817,-1.5452396978296443,-0.14525501705516425,0.04163666906648714,0.005759539236861925,-0.021358291336693182,-0.5865130789536953,-0.021838252939765428,-0.7056635469162631,-8.794354085511932,8.147746686400195,-8.997805127387396,6.061557989046324,-0.9792437707475176,-5.889056897173944,-5.362539727237657,1.5842511058675937,2.8612471143435787,0.045163000000000064,-0.0006989999999999913,-0.902685,-0.45771799999999996,0.012785000000000005,-0.6033109999999999,0.502881,0.013483999999999996,0.29937400000000003,0.9214195191045055,0.0,single,-0.6033109999999999
162,1.35,quasi,-0.28849153966159014,0.1324852994119751,-0.14496579863194117,0.5269010364507739,-1.5371794511126768,0.1935708442782031,0.011160446417844364,0.006840273610944497,0.006960278411135791,-0.548061922476888,-0.05940237609504222,-0.7525501020040635,-3.8344009144048097,-3.4971523367861717,-2.104403338099941,-3.657293009557452,0.12969331262241127,3.39836430431159,4.614323350150801,-4.507875093636882,-5.6266116750029465,0.047660000000000036,-0.0017459999999999976,-0.901419,-0.4598809999999999,0.011186000000000001,-0.608374,0.5075409999999999,0.012931999999999999,0.293045,0.975291118169175,0.0,single,-0.608374
163,1.358333,quasi,-0.1659666386655376,0.13824552982119415,0.07620304812193184,-0.47866207333479166,0.6536581279126458,-0.36165697141635184,-0.003600144005757202,0.0031201248049920177,0.0042001680067203446,-0.5895835833433458,-0.03456138245529812,-0.731549261970491,14.703576262576942,0.6912552993182653,26.541323263395537,-1.771341704500384,-0.44643571414286737,-0.33122649758976014,-4.982798615919619,2.9810384783084514,2.5202016120932065,0.04901299999999997,-0.0028719999999999996,-0.902019,-0.463411,0.009746000000000005,-0.615105,0.512424,0.012618000000000004,0.286914,0.9894146816893511,0.0,single,-0.615105
164,1.366667,quasi,-0.16786657067433614,0.1033117350611944,-0.0875929925605955,0.45878772814103336,-0.36046536763605885,-0.09917822388426628,-0.0017998560115042128,0.0005999520038402883,0.0003599712023041729,-0.5868730501559805,-0.041756659467242434,-0.7553395728341669,-0.22797360316756946,-4.1917200335972495,-19.653952565697875,0.2160172779281228,-0.302396544414652,-0.4607867535896499,0.32523796344676503,-0.8633641722995271,-2.854608934926291,0.050397000000000025,-0.003727999999999995,-0.901286,-0.46690300000000007,0.008537000000000003,-0.62067,0.5173000000000001,0.012264999999999998,0.280616,0.9967815620871695,0.0,single,-0.62067
165,1.375,quasi,-0.1603264130565242,0.03744149765990588,-0.12660506420257264,0.2865878549281312,-1.0704161008057247,0.28592027140647713,-0.0036001440057838487,0.00336013440537461,0.0009600384015361976,-0.5820232809312451,-0.06984279371174901,-0.8000720028801199,0.9048551083417739,-7.904744677941814,-4.6816358624718,-0.21604320104159994,0.33123513758962525,0.07201094434561744,0.5819955867917184,-3.3704709281779466,-5.368106329767608,0.05170299999999983,-0.004012000000000002,-0.900223,-0.4704170000000001,0.007643000000000011,-0.626282,0.5221199999999999,0.011655000000000013,0.273941,0.991637847529728,0.0,single,-0.626282
166,1.383333,quasi,-0.2216488659546587,0.20700828033121565,0.019080763230531823,0.08121320529043567,-0.2505960196267104,-0.6071784591470043,-0.004080163206512394,0.0007200288011527728,-0.0012000480019204553,-0.5895835833433325,-0.062042481699268966,-0.778951158046332,-7.358988707324501,20.348827873672306,17.48299861191717,-0.05760460827175688,-0.31682534552044417,-0.2592207372442905,-0.9072725803537084,0.9360748844929933,2.5346027641651445,0.05351600000000012,-0.005731,-0.9003920000000001,-0.4734829999999999,0.005401000000000003,-0.632932,0.526999,0.011132000000000003,0.26746000000000003,0.9928108321310654,0.0,single,-0.632932
167,1.391667,quasi,0.011999040076792443,0.04463642908567249,0.0157187425005989,-0.10159054751158707,1.515631720281162,0.07243928193825219,-0.0035997120230350688,-0.0011999040076789112,0.0037197024238064566,-0.6025917926565927,-0.0647948164146862,-0.7554595632349317,28.035505883303262,-19.483063504384678,-0.40341021477476574,0.05764953005487424,-0.23037350717922597,0.590322825261204,-1.560860248771309,-0.33025374555042075,2.818765876097925,0.053386000000000156,-0.0061129999999999934,-0.9004920000000001,-0.47860499999999995,0.004489000000000007,-0.639359,0.5319910000000001,0.010602,0.26113300000000006,0.9911440725440059,0.0,single,-0.639359
168,1.4,quasi,-0.09420376815070453,0.07608304332173471,-0.003120124804988687,0.08396899592902689,0.49173787965089805,-0.09860919077337935,-0.0007200288011727575,0.0018000720028802666,0.0,-0.5841833673346968,-0.05400216008640466,-0.7611904476179102,-12.744846781171,3.773744658113826,-2.260754506850805,0.3455758096558667,0.36001152172797374,-0.44638214614262456,2.209099402603633,1.2951705662164443,-0.6877336353028419,0.0541649999999998,-0.006732000000000002,-0.900466,-0.4826880000000001,0.0034049999999999914,-0.645676,0.5368529999999999,0.010136999999999993,0.25478999999999996,0.996768771866581,0.0,single,-0.645676
169,1.408333,quasi,-0.1966878675147173,0.1648865954638157,-0.03396135845434157,0.07549623862612814,0.29146411086001656,-0.29065994682713486,-0.007080283211305433,-0.008880355214208968,-0.012240489619585153,-0.577703108124313,-0.06672266890675521,-0.7716308652345948,-12.298583867036001,10.65685253115078,-3.7010960817655514,-0.763261059658294,-1.2817025341520518,-1.4689175110506347,0.7776622117345062,-1.5265221193268124,-1.2529002300113272,0.055745000000000156,-0.008180000000000007,-0.900285,-0.48586299999999993,0.0014749999999999902,-0.651823,0.5416080000000001,0.009654999999999997,0.24846199999999996,0.9721701247053343,0.0,single,-0.651823
170,1.416667,quasi,-0.1411087113030797,0.06971442284617341,-0.020998320134393997,-0.18842157967450787,-0.06410205328462529,-0.11029803777247826,-0.005639548836108851,0.0011999040076789433,0.002279817614591491,-0.48860091192705085,-0.06083513318934524,-0.8449724022078452,6.668965228178386,-11.419747134346546,1.5554401631806838,0.17287429507998675,1.209534343879062,1.742297484302486,10.691408231013183,0.7064477702675885,-8.800280414357069,0.05687399999999987,-0.008751000000000009,-0.900091,-0.48875900000000005,0.00038699999999999846,-0.65869,0.5456329999999999,0.009138000000000007,0.24140099999999998,0.9896664181403136,0.0,single,-0.65869
171,1.425,quasi,-0.20016800672026563,0.12516500660026209,-0.04128165126605123,0.2229615343649869,3.976145326654338e-05,-0.2898454517701532,-0.0033601344053661936,-0.00216008640345493,-0.0015600624024959674,-0.5556222248889886,-0.06084243369734772,-0.7548301932077106,-7.087398946020029,6.654336223939483,-2.434097099682813,0.2735406733160467,-0.40321497793517513,-0.46080403421185545,-8.042879270603214,-0.0008760960041380032,10.817497779927159,0.058513999999999955,-0.009812000000000001,-0.89976,-0.4917210000000001,-0.0011630000000000112,-0.664636,0.550235,0.00864899999999999,0.235124,0.992852686753402,0.0,single,-0.664636
172,1.433333,quasi,-0.22284891395656,0.1008040321612866,-0.10608424336973526,0.5484340051844692,-0.8763116824444779,-0.18072205556288143,-0.003960158406330258,-0.004080163206529049,-0.0033601344053762754,-0.5154206168246835,-0.06960278411136475,-0.7613104524181057,-2.721817741064992,-2.9234338700318867,-7.7766221173268475,-0.07200576034610219,-0.2304184331062206,-0.21601728103688042,4.824385943154377,-1.051284101046095,-0.777662211735886,0.060338,-0.010686000000000001,-0.8989039999999999,-0.4941590000000001,-0.002583000000000002,-0.670096,0.5544970000000001,0.008102999999999999,0.2288079999999999,0.9889922893669262,0.0,single,-0.670096
173,1.441667,quasi,-0.13594912407007942,0.096952243820494,-0.0004799616030722306,-0.29286175858391655,0.021093581411311218,-0.003207476919571422,-0.004199664026878687,0.002639788816893938,0.002399808015358655,-0.5191984641228626,-0.041156707463402144,-0.7654187664986771,10.427140615128382,-0.46217762668497336,12.671500091992108,-0.02873837539577967,0.8063297364318377,0.6911377994642292,-0.4533054113485799,3.4132561372645056,-0.4929582530083284,0.061436000000000046,-0.01147200000000001,-0.89888,-0.49735300000000005,-0.003734000000000001,-0.676471,0.5587890000000001,0.007738000000000009,0.22240899999999997,0.9908159647202579,0.0,single,-0.676471
174,1.45,quasi,-0.19164766590664647,0.09552382095283793,-0.050642025681018395,0.0752557049778772,-0.10851887189634736,-0.24033943346839565,-0.0019200768030740608,0.0028801152046094257,0.0031201248049920177,-0.47653906156246045,-0.059642385695428055,-0.771270850834039,-6.684092384083471,-0.17141760082276294,-6.019688476892671,0.27356140931293016,0.02884032013866433,0.0864414724149009,5.119333080571532,-2.2183701226480355,-0.7022782113718874,0.0630170000000001,-0.012243999999999991,-0.898432,-0.4997269999999999,-0.00502699999999999,-0.6824760000000001,0.562744,0.007217000000000001,0.21595599999999993,0.9922330941881861,0.0,single,-0.6824760000000001
175,1.458333,quasi,-0.2248889955598102,0.10536421456858135,-0.01608064322573817,-0.04116570139095119,-0.04790896257397524,-0.526782011550747,-0.0031201248050019273,0.001920076803072344,0.0015600624024959674,-0.47101884075363,-0.03612144485779483,-0.7260290411616337,-3.9891191231445036,1.1808944696679762,4.14753179590539,-0.14401152069216916,-0.11520921655310991,-0.1872149768985987,0.6624529951794517,2.8226258055481592,5.429234330061746,0.06486499999999995,-0.013105999999999993,-0.898285,-0.5017780000000001,-0.006206000000000003,-0.688392,0.566643,0.0068999999999999895,0.209893,0.9933634705295935,0.0,single,-0.688392
176,1.466667,quasi,-0.20794336453083964,0.10679145668346758,-0.08879289656827177,0.2910458501440266,-0.7995743137682287,-0.1397351457556958,-0.0027597792176487475,0.0023998080153578866,0.0013198944084470041,-0.4692824574034164,-0.10607151427885922,-0.7156227501799989,2.033313058431832,0.17125535335808276,-8.724772419310654,0.04323801144146707,0.057563140423032365,-0.028817853857567535,0.20834933407890827,-8.3933368635788,1.24865502539417,0.06657500000000005,-0.013976000000000002,-0.897534,-0.5039560000000001,-0.007980000000000001,-0.693616,0.5705310000000001,0.005996000000000001,0.20391800000000004,0.993519777719392,0.0,single,-0.693616
177,1.475,quasi,-0.21252850114003793,0.10032401296051707,-0.07308292331692788,0.2863817736839249,-0.33378990931255387,-0.21313654337923957,-0.002760110404428881,0.001680067202688093,0.000960038401536172,-0.4542181687267324,-0.060482419296771346,-0.7092283691347528,-0.5502384026398911,-0.7761242917257164,1.885272201049276,-3.974400337616353e-05,-0.0863723524144703,-0.04318444820722739,1.8077869526801584,5.4709102342598195,0.7673564196862981,0.06832299999999991,-0.014798000000000006,-0.8969170000000001,-0.50597,-0.009320000000000009,-0.698917,0.5742929999999999,0.005477999999999997,0.19800000000000006,0.994381946515768,0.0,single,-0.698917
178,1.483333,quasi,-0.17976719068762906,0.08052322092883682,0.0055202208088312625,-0.27224808512421655,-0.16000271658536225,-0.26189329205681083,-0.0038401536061481215,0.000600024000960644,0.0002400096003842576,-0.4189367574703053,-0.07056282251290012,-0.7062282491299718,3.9315145148696957,-2.3761900914053085,9.432754605275393,-0.12961036862105488,-0.12961036862203995,-0.0864069124147271,4.233938708319622,-1.2096967738064164,0.36002880172579277,0.06978899999999988,-0.015463999999999992,-0.896961,-0.507963,-0.010578999999999991,-0.704848,0.5777519999999999,0.0048850000000000005,0.19211299999999998,0.993509748094082,0.0,single,-0.704848
179,1.491667,quasi,-0.1881449484041279,0.06647468202543733,-0.09695224382049733,0.8173782273840597,-0.3267905335338578,0.020389642556112655,-0.004919606431480372,0.0008399328053747383,-0.000839932805375571,-0.41084713222941643,-0.06083513318934528,-0.6913846892248554,-1.0052505059393786,-1.6856898132228686,-12.295712098551453,-0.12952397712169936,0.028786753589403944,-0.12958272207341257,0.9706773747166777,1.1672293404793337,1.7810847018378113,0.07131599999999993,-0.016010999999999997,-0.89616,-0.509819,-0.011639999999999998,-0.709802,0.581135,0.004371,0.1863579999999999,0.9915650361135342,0.0,single,-0.709802
180,1.5,quasi,-0.17160686427457764,0.11616464658586576,0.050162006480263206,-0.25933163446817703,0.5116544222279713,-0.4796359344569968,-0.008280331213260217,0.008520340813632817,0.0019200768030723952,-0.3676947077883229,-0.05352214088563615,-0.6882275291011691,1.9846494815253113,5.963034268622211,17.654416212739935,-0.40330310593782254,0.9216858284241148,0.33121440158982257,5.178498072854183,0.8775941802123123,0.3788743698171492,0.07267699999999988,-0.016908000000000006,-0.896562,-0.511453,-0.01305400000000001,-0.715955,0.5841299999999999,0.0038539999999999963,0.18060699999999996,0.9799412815082371,0.0,single,-0.715955
181,1.508333,quasi,-0.1639265570622814,0.036361454458178386,0.27241089643585925,-1.5310245072790634,3.080152662155147,-0.13357293242197166,-0.0016800672026831415,-0.008880355214209204,0.0036001440057597004,-0.32773310932436733,-0.05388215528621087,-0.713548541941685,0.9216737324248534,-9.57676612596761,26.67093363201705,0.7920633638038085,-2.0881670500230625,0.20161612896763717,4.795583639020275,-0.043203456207214844,-3.0386430865854006,0.0740289999999999,-0.01728500000000001,-0.898802,-0.512818,-0.013805999999999999,-0.724171,0.5868469999999999,0.00347900000000001,0.17463099999999998,0.9837857768714666,0.0,single,-0.724171
182,1.516667,quasi,-0.293616510679154,0.13378929685625024,-0.39704823614110646,1.5589782434609352,-3.6560828745820872,-0.5667220041930633,0.004079673626120621,-0.0002399808015344501,-0.003359731221502284,-0.33477321814255445,-0.034557235421165636,-0.6613870890328744,-15.561549510063788,11.69040585530011,-80.32866961566602,0.6911136103676169,1.0367619885618775,-0.8351182178140066,-0.8447454785441643,2.318804879415057,6.258873639166102,0.07651000000000008,-0.018401999999999995,-0.895521,-0.513161,-0.015208999999999993,-0.7263740000000001,0.5896710000000001,0.0031930000000000014,0.16914699999999994,0.9911825423225811,0.0,single,-0.7263740000000001
183,1.525,quasi,-0.17412696507858902,0.060842433697348514,-0.020880835233410427,-0.011627572579927345,0.053791641774040805,-0.26387187461047007,0.0,0.005040201608064413,0.006000240009600611,-0.30157206288251653,-0.06876275051002152,-0.6872674906996321,14.339319044829724,-8.753973738017807,45.14189378467532,-0.4895804183512131,0.633647235041271,1.1232414773914534,3.9842980031247115,-4.104826003702892,-3.1057724309081958,0.07796099999999995,-0.018866999999999995,-0.895297,-0.5142230000000001,-0.016288999999999998,-0.731927,0.592184,0.002577999999999997,0.16337000000000002,0.9869396154107644,0.0,single,-0.731927
184,1.533333,quasi,-0.26053042121686154,0.07968318732749145,-0.04896195847833395,0.05534635645324012,-0.6135003807376067,-0.4224118474480425,-0.00336013440539284,0.0018000720028802186,0.010080403216128558,-0.29065162606504175,-0.03240129605184227,-0.6519860794431656,-10.368829489772112,2.260980874852107,-3.3698695841741304,-0.4032322579374512,-0.38883110586633124,0.4896391703501591,1.3105048382904831,4.363549076944512,4.233938708324246,0.08010399999999995,-0.01951599999999999,-0.8948050000000001,-0.514474,-0.017223000000000002,-0.736952,0.5945779999999999,0.0022929999999999895,0.15785300000000002,0.9820382125179906,0.0,single,-0.736952
