frame_id,timestamp,gait_type,root_linear_velocity_x,root_linear_velocity_y,root_linear_velocity_z,root_angular_velocity_x,root_angular_velocity_y,root_angular_velocity_z,left_linear_velocity_x,left_linear_velocity_y,left_linear_velocity_z,right_linear_velocity_x,right_linear_velocity_y,right_linear_velocity_z,root_acceleration_x,root_acceleration_y,root_acceleration_z,left_acceleration_x,left_acceleration_y,left_acceleration_z,right_acceleration_x,right_acceleration_y,right_acceleration_z,left_pos_rel_x,left_pos_rel_y,left_pos_rel_z,right_pos_rel_x,right_pos_rel_y,right_pos_rel_z,step_length,step_width,step_height,left_contact_prob,right_contact_prob,support_type,max_foot_height
<<<<<<< HEAD
<<<<<<< HEAD
1,0.008333,quasi,0.012960518420736467,-0.012600504020163416,-0.002400096003842554,-0.047753155285632835,0.026671023323275568,0.01536348472543978,-0.0019200768030740432,0.0038401536061480864,0.0036001440057605,0.00024000960039091698,-0.00024000960039091698,-0.0007200288011519335,0.0,0.0,0.0,0.0,0.0,0.0,0.0,0.0,0.0,0.009815000000000018,0.13011700000000004,-0.9106879999999999,0.039854000000000056,-0.12505900000000003,-0.9124169999999999,0.030039000000000038,0.25517600000000007,0.0017289999999999806,0.9733715324373486,0.9986732970157317,double,-0.9106879999999999
2,0.016667,quasi,0.006359491240697112,-0.027117830573534608,0.0010799136069158573,0.007829115183738007,-0.02137737362235611,-0.012866040766690403,0.0014398848092167025,-0.0029997600191914724,-0.003599712023038426,-0.0004799616030722342,-0.0005999520038169799,0.0022798176145906145,-0.7920598968129775,-1.7419398312180452,0.41756774787117956,0.40316314042365553,-0.8207239771225772,-0.8639136103670416,-0.08638963324491854,-0.0431896332404683,0.35995277366721234,0.00977400000000006,0.13031799999999993,-0.9107270000000001,0.03979700000000008,-0.124838,-0.912407,0.030023000000000022,0.25515599999999994,0.0016799999999999038,0.9750299743157347,0.9959903332421975,double,-0.9107270000000001
3,0.025,quasi,0.0019200768030740432,-0.021720868834778445,-0.004560182407294191,0.011235201553736925,0.029915672816159793,0.004892169587822586,-0.0006000240009639692,0.003480139205575034,0.0025201008040321837,0.0012000480019146154,0.0003600144005730523,-0.001920076803071545,-0.5327510425564705,0.6476613151033437,-0.6768385952490157,-0.24479884917564762,0.7776190117324501,0.7344069155250942,0.20160921696710063,0.11520057654986585,-0.5040074904190759,0.009753000000000012,0.1305280000000002,-0.910668,0.03979100000000002,-0.12465399999999982,-0.912385,0.03003800000000001,0.255182,0.0017169999999999686,0.975599219775771,0.9961788525191986,double,-0.910668
4,0.033333,quasi,0.004800192007685108,-0.023160926437044007,-0.009480379215174757,-0.018017133450190435,0.06524898109325813,0.003845981173894166,0.0015600624025009907,-0.0027601104044289292,-0.004320172806912433,-0.0004800192007685108,0.00024000960036427057,-0.00036001440057638307,0.34562764965931414,-0.1728138248248604,-0.5904472348350613,0.259220737245285,-0.7488599075967796,-0.8208656679400717,-0.20161612896713385,-0.014401152071136653,0.18721497689849537,0.009726000000000012,0.13069799999999998,-0.910625,0.03974699999999998,-0.1244590000000001,-0.9123089999999999,0.030020999999999964,0.2551570000000001,0.0016839999999999078,0.9742287973271732,0.9989229239555426,double,-0.910625
5,0.041667,quasi,0.0045596352291795645,-0.04403647708183419,0.010439164866817764,0.05531969451464957,-0.12478814729827929,0.019132312880634043,0.0004799616030722342,0.0,0.0008399328053755773,-0.0005999520038436232,-0.0007199424046016905,0.0015598752099830959,-0.028864504260324365,-2.504865688119772,2.3901540775129013,-0.12960172779322732,0.33118675359118416,0.6191631404233273,-0.014390785106204987,-0.1151850257938518,0.23036832380123334,0.009692000000000034,0.131065,-0.910705,0.03970399999999996,-0.12409800000000004,-0.912383,0.030011999999999928,0.25516300000000003,0.0016780000000000683,0.981607677436145,0.9969670924549849,double,-0.910705
6,0.05,quasi,0.012240489619590364,-0.03312132485298727,-0.0037201488059526275,-0.035712372578769365,-0.02122623622808308,0.03084022777672481,-0.0006000240009639692,-0.0003600144005730523,-0.0006000240009598058,0.00108004320173248,-0.0008400336013282398,-0.0010800432017283165,0.9217393964251529,1.3098706622881218,-1.699185608156773,-0.1296034566226093,-0.04320345620701455,-0.17280172882939915,0.20160748896869113,-0.014411520067988641,-0.3168028815206303,0.009584999999999955,0.13133799999999995,-0.910679,0.03961099999999995,-0.12382899999999997,-0.912361,0.030025999999999997,0.2551669999999999,0.0016819999999999613,0.9816437093988001,0.9970947159793803,double,-0.910679
7,0.058333,quasi,0.016560662426493636,-0.0351614064562701,-0.0025201008040380123,-0.018996873143144764,0.0555565357032093,0.07244173603410804,0.0,0.004080163206539003,0.0019200768030723776,-0.0007200288011461046,-0.000720028801172751,0.0025201008040321837,0.5184414744873721,-0.24481958517734617,0.14401152069058143,0.07200576034609016,0.532842626558509,0.3024241934516001,-0.21601728103667164,0.014401152064741244,0.43203456207374297,0.009446999999999983,0.13166500000000014,-0.910642,0.03946700000000003,-0.12354200000000004,-0.912319,0.030020000000000047,0.2552070000000002,0.0016770000000000396,0.9757143816840286,0.9954699181355564,double,-0.910642
8,0.066667,quasi,0.0230381569474406,-0.03671706263497929,0.0034797216222770284,-0.05072005093707826,-0.038090704464673046,0.07387379364786888,-0.0004799616030722342,0.0005999520038169799,0.0009599232061436358,0.001679865610746159,-0.00035997120230084524,-0.0013198944084469788,0.7772371635405522,-0.18666380834043622,0.7199210974700072,-0.057590785105859625,-0.41759193697168506,-0.11520921489425746,0.28796429228368886,0.04320345558818164,-0.46076256449234004,0.00925100000000001,0.13197599999999987,-0.910663,0.03928900000000002,-0.1232390000000001,-0.912359,0.03003800000000001,0.25521499999999997,0.0016960000000000308,0.9809907737849233,0.9963891948473662,double,-0.910663
9,0.075,quasi,0.02328093123725281,-0.038641545661818516,0.010800432017271516,-0.056343896379484656,-0.07702121167312358,0.09542025865996272,0.0007200288011594283,-0.00012000480018213538,-0.001440057602304701,0.0009600384015370224,-0.001560062402500992,0.00048001920076767846,0.029134080140670864,-0.2309472011087513,0.8785203882148679,0.14400460869214732,-0.08639827241079033,-0.28800921738249596,-0.08638272041391303,-0.14401670469220543,0.2159982730366805,0.009063000000000043,0.1322969999999999,-0.9107649999999999,0.039103,-0.1229300000000002,-0.912445,0.030039999999999956,0.2552270000000001,0.0016800000000000148,0.9805091675572823,0.9968439269894602,double,-0.9107649999999999
=======
=======
>>>>>>> 3b0d06690e55fb02323d988053aa126fb7c3a6e7
1,0.008333,stand,0.012960518420736467,-0.012600504020163416,-0.002400096003842554,-0.047753155285632835,0.026671023323275568,0.01536348472543978,-0.0019200768030740432,0.0038401536061480864,0.0036001440057605,0.00024000960039091698,-0.00024000960039091698,-0.0007200288011519335,0.0,0.0,0.0,0.0,0.0,0.0,0.0,0.0,0.0,0.009815000000000018,0.13011700000000004,-0.9106879999999999,0.039854000000000056,-0.12505900000000003,-0.9124169999999999,0.030039000000000038,0.25517600000000007,0.0017289999999999806,0.9733715324373486,0.9986732970157317,double,-0.9106879999999999
2,0.016667,stand,0.006359491240697112,-0.027117830573534608,0.0010799136069158573,0.007829115183738007,-0.02137737362235611,-0.012866040766690403,0.0014398848092167025,-0.0029997600191914724,-0.003599712023038426,-0.0004799616030722342,-0.0005999520038169799,0.0022798176145906145,-0.7920598968129775,-1.7419398312180452,0.41756774787117956,0.40316314042365553,-0.8207239771225772,-0.8639136103670416,-0.08638963324491854,-0.0431896332404683,0.35995277366721234,0.00977400000000006,0.13031799999999993,-0.9107270000000001,0.03979700000000008,-0.124838,-0.912407,0.030023000000000022,0.25515599999999994,0.0016799999999999038,0.9750299743157347,0.9959903332421975,double,-0.9107270000000001
3,0.025,stand,0.0019200768030740432,-0.021720868834778445,-0.004560182407294191,0.011235201553736925,0.029915672816159793,0.004892169587822586,-0.0006000240009639692,0.003480139205575034,0.0025201008040321837,0.0012000480019146154,0.0003600144005730523,-0.001920076803071545,-0.5327510425564705,0.6476613151033437,-0.6768385952490157,-0.24479884917564762,0.7776190117324501,0.7344069155250942,0.20160921696710063,0.11520057654986585,-0.5040074904190759,0.009753000000000012,0.1305280000000002,-0.910668,0.03979100000000002,-0.12465399999999982,-0.912385,0.03003800000000001,0.255182,0.0017169999999999686,0.975599219775771,0.9961788525191986,double,-0.910668
4,0.033333,stand,0.004800192007685108,-0.023160926437044007,-0.009480379215174757,-0.018017133450190435,0.06524898109325813,0.003845981173894166,0.0015600624025009907,-0.0027601104044289292,-0.004320172806912433,-0.0004800192007685108,0.00024000960036427057,-0.00036001440057638307,0.34562764965931414,-0.1728138248248604,-0.5904472348350613,0.259220737245285,-0.7488599075967796,-0.8208656679400717,-0.20161612896713385,-0.014401152071136653,0.18721497689849537,0.009726000000000012,0.13069799999999998,-0.910625,0.03974699999999998,-0.1244590000000001,-0.9123089999999999,0.030020999999999964,0.2551570000000001,0.0016839999999999078,0.9742287973271732,0.9989229239555426,double,-0.910625
5,0.041667,stand,0.0045596352291795645,-0.04403647708183419,0.010439164866817764,0.05531969451464957,-0.12478814729827929,0.019132312880634043,0.0004799616030722342,0.0,0.0008399328053755773,-0.0005999520038436232,-0.0007199424046016905,0.0015598752099830959,-0.028864504260324365,-2.504865688119772,2.3901540775129013,-0.12960172779322732,0.33118675359118416,0.6191631404233273,-0.014390785106204987,-0.1151850257938518,0.23036832380123334,0.009692000000000034,0.131065,-0.910705,0.03970399999999996,-0.12409800000000004,-0.912383,0.030011999999999928,0.25516300000000003,0.0016780000000000683,0.981607677436145,0.9969670924549849,double,-0.910705
6,0.05,stand,0.012240489619590364,-0.03312132485298727,-0.0037201488059526275,-0.035712372578769365,-0.02122623622808308,0.03084022777672481,-0.0006000240009639692,-0.0003600144005730523,-0.0006000240009598058,0.00108004320173248,-0.0008400336013282398,-0.0010800432017283165,0.9217393964251529,1.3098706622881218,-1.699185608156773,-0.1296034566226093,-0.04320345620701455,-0.17280172882939915,0.20160748896869113,-0.014411520067988641,-0.3168028815206303,0.009584999999999955,0.13133799999999995,-0.910679,0.03961099999999995,-0.12382899999999997,-0.912361,0.030025999999999997,0.2551669999999999,0.0016819999999999613,0.9816437093988001,0.9970947159793803,double,-0.910679
7,0.058333,stand,0.016560662426493636,-0.0351614064562701,-0.0025201008040380123,-0.018996873143144764,0.0555565357032093,0.07244173603410804,0.0,0.004080163206539003,0.0019200768030723776,-0.0007200288011461046,-0.000720028801172751,0.0025201008040321837,0.5184414744873721,-0.24481958517734617,0.14401152069058143,0.07200576034609016,0.532842626558509,0.3024241934516001,-0.21601728103667164,0.014401152064741244,0.43203456207374297,0.009446999999999983,0.13166500000000014,-0.910642,0.03946700000000003,-0.12354200000000004,-0.912319,0.030020000000000047,0.2552070000000002,0.0016770000000000396,0.9757143816840286,0.9954699181355564,double,-0.910642
8,0.066667,stand,0.0230381569474406,-0.03671706263497929,0.0034797216222770284,-0.05072005093707826,-0.038090704464673046,0.07387379364786888,-0.0004799616030722342,0.0005999520038169799,0.0009599232061436358,0.001679865610746159,-0.00035997120230084524,-0.0013198944084469788,0.7772371635405522,-0.18666380834043622,0.7199210974700072,-0.057590785105859625,-0.41759193697168506,-0.11520921489425746,0.28796429228368886,0.04320345558818164,-0.46076256449234004,0.00925100000000001,0.13197599999999987,-0.910663,0.03928900000000002,-0.1232390000000001,-0.912359,0.03003800000000001,0.25521499999999997,0.0016960000000000308,0.9809907737849233,0.9963891948473662,double,-0.910663
9,0.075,stand,0.02328093123725281,-0.038641545661818516,0.010800432017271516,-0.056343896379484656,-0.07702121167312358,0.09542025865996272,0.0007200288011594283,-0.00012000480018213538,-0.001440057602304701,0.0009600384015370224,-0.001560062402500992,0.00048001920076767846,0.029134080140670864,-0.2309472011087513,0.8785203882148679,0.14400460869214732,-0.08639827241079033,-0.28800921738249596,-0.08638272041391303,-0.14401670469220543,0.2159982730366805,0.009063000000000043,0.1322969999999999,-0.9107649999999999,0.039103,-0.1229300000000002,-0.912445,0.030039999999999956,0.2552270000000001,0.0016800000000000148,0.9805091675572823,0.9968439269894602,double,-0.9107649999999999
<<<<<<< HEAD
>>>>>>> 3b0d06690e55fb02323d988053aa126fb7c3a6e7
=======
>>>>>>> 3b0d06690e55fb02323d988053aa126fb7c3a6e7
10,0.083333,quasi,0.02016080643225079,-0.04452178087124936,0.0021600864034649584,-0.016180541193722628,0.0025706952966295105,0.05141043587250817,-0.0006000240009639688,0.00252010080403801,0.0018000720028802486,-0.0006000240009639688,-0.00024000960036427038,-0.0002400096003834225,-0.37442995379839383,-0.7056564513897564,-1.036882948974745,-0.158412672761718,0.316825345520238,0.3888311058664283,-0.18721497689919475,0.158412672763317,-0.08640691241462863,0.008890000000000065,0.13268900000000006,-0.910768,0.03893000000000002,-0.12256099999999992,-0.9124650000000001,0.030039999999999956,0.25525,0.0016970000000000596,0.9777724139253099,0.998851041512359,double,-0.910768
11,0.091667,quasi,0.018718502519803826,-0.041756659467244446,0.0009599232061444692,-0.028740366684146135,-0.0053428487586231355,0.10107200764929386,0.001559875209988093,-0.0002399808015427781,-0.0017998560115192145,0.002279817614589784,0.00047996160305891297,-0.0011999040076797539,-0.17306262448367712,0.33178802543855496,-0.14400806303341612,0.2591671719404923,-0.3311832980058544,-0.4319568051835212,0.34555334959848266,0.08638963324012286,-0.11517811462638974,0.00874700000000006,0.13303500000000001,-0.910791,0.038792999999999966,-0.12220900000000001,-0.912483,0.030045999999999906,0.255244,0.0016920000000000268,0.979090331704805,0.9956322834837581,double,-0.910791
12,0.1,quasi,0.013920556822273477,-0.04320172806911264,-0.003480139205575031,0.0119360641659303,0.02972460009534136,0.08251358113331694,-0.0019200768030740415,0.0014400576023188543,0.0024000960038400537,-0.00024000960037759357,-0.0014400576022922079,-0.0004800192007676777,-0.575776514764232,-0.17341516883093647,-0.5328288025584419,-0.41761094600529597,0.20161267297031454,0.5040144024192086,-0.3023913614505431,-0.23041152110297844,0.08638963241474566,0.00861500000000004,0.13340700000000005,-0.9107419999999999,0.038675000000000015,-0.121861,-0.912458,0.030059999999999976,0.25526800000000005,0.0017160000000000508,0.9771829194672742,0.9974386478509614,double,-0.9107419999999999
13,0.108333,quasi,0.007080283211332209,-0.04152166086642958,-0.00900036001439293,-0.011441419406117568,-0.01953904271280231,0.010861509109422983,0.0006000240009506466,-0.0002400096003909172,-0.0012000480019196125,0.001080043201732481,0.00036001440057305256,-0.0001200048001921278,-0.8208656679396704,0.20161612896712583,-0.6624529951779555,0.3024241934507008,-0.20161612897033154,-0.4320345620736432,0.15841267276011947,0.2160172810350728,0.04320345620731432,0.00856099999999993,0.13375099999999995,-0.9106770000000001,0.03862500000000002,-0.12151200000000006,-0.9123840000000001,0.03006400000000009,0.255263,0.001707000000000014,0.9806583457955173,0.9980920452789719,double,-0.9106770000000001
14,0.116667,quasi,0.028437724981993217,-0.07151427885769623,0.014998800095983993,-0.12375447814015769,-0.12531805707470206,0.11575683372822863,0.0002399808015427777,0.0004799616030589122,0.0007199424046075181,0.000959923206131146,-0.0016798656107461574,0.000959923206143635,2.5626879974395234,-3.5988262528517665,2.8796688397380485,-0.04320172779072097,0.08638963324331998,0.23038041834978745,-0.014413246412447178,-0.24476602007669881,0.12958099428074896,0.008326000000000056,0.1343509999999999,-0.9107959999999999,0.038395999999999986,-0.12092999999999998,-0.912501,0.03006999999999993,0.25528099999999987,0.0017050000000000676,0.9814534567687574,0.9964002879769773,double,-0.9107959999999999
15,0.125,quasi,0.01512060482420144,-0.05604224168966706,0.004200168006721142,-0.041093525965417516,0.044452096798144096,0.08529367664500245,-0.00036001440057305256,-0.00024000960036427076,-0.000720028801151934,0.000840033601354887,-0.0007200288011727516,-0.0004800192007685112,-1.5981183436687612,1.856718728912659,-1.295887686218992,-0.07200230434607353,-0.08640000041079846,-0.17280345682940756,-0.014387328066273743,0.1151850245497908,-0.17280000082949087,0.00819700000000001,0.13481600000000005,-0.910837,0.038277000000000005,-0.12046900000000016,-0.91254,0.030079999999999996,0.2552850000000002,0.00170300000000001,0.9815699439977715,0.9979899444735212,double,-0.910837
16,0.133333,quasi,0.02028081123244625,-0.05808232329294979,0.00888035521421078,-0.04863341465492834,-0.019115060738949308,0.1279504138016824,0.00024000960037759357,-0.0003600144005996984,-0.0006000240009598053,0.001800072002878583,-0.0013200528021100728,-0.0004800192007676777,0.6192495389709353,-0.2448195851773343,0.561644930695984,0.07200576034449126,-0.014401152074334279,0.014401152069138204,0.11520921655150548,-0.0720057603428922,1.0002165127783882e-13,0.008029999999999982,0.135297,-0.9109160000000001,0.03812300000000002,-0.11999599999999999,-0.912618,0.030093000000000036,0.255293,0.0017019999999999813,0.9817470678821061,0.9961945882654466,double,-0.9109160000000001
17,0.141667,quasi,0.008039356851456613,-0.03383729301654597,-0.017158627309815763,0.08301549937358331,0.10520774492627122,-0.034358225570413535,0.00107991360691586,0.0002399808015427785,-0.0023998080153595116,0.0014398848092167062,-0.0004799616030589138,-0.001439884809215041,-1.4688570171573871,2.9091708994965053,-3.1244279486473006,0.10078041835112413,0.07199366476391629,-0.21595680518355057,-0.0432190057189678,0.10080287965576686,-0.11517465904096058,0.007971999999999979,0.13558099999999995,-0.910793,0.03806799999999999,-0.11971799999999999,-0.912487,0.03009600000000001,0.25529899999999994,0.0016940000000000843,0.9786558092261477,0.9965131597923875,double,-0.910793
18,0.15,quasi,-0.0007200288011594272,-0.03996159846392853,-0.010080403216125395,0.03007120964756661,3.878314668149624e-05,0.025057205927811264,0.0007200288011461039,-0.00048001920075518715,-0.0018000720028794159,-0.0012000480019279376,-0.0010800432017191559,0.0014400576023038656,-1.0511683250469257,-0.7349460515279674,0.8494208680775664,-0.04318790420853904,-0.08640345641401237,0.07197120034562525,-0.3168046095217379,-0.07201267234612284,0.34560691365881485,0.007983999999999991,0.13590999999999998,-0.910724,0.03806399999999999,-0.119394,-0.9123910000000001,0.030079999999999996,0.255304,0.001667000000000085,0.9800012034527292,0.9963943044967163,double,-0.910724
19,0.158333,quasi,0.004080163206525676,-0.0434417376695302,-0.006000240009599718,-0.03244202342338087,-0.01326328182510314,0.1141384145427806,-0.002040081603256177,-0.0007200288011727504,0.0022800912036479264,0.0006000240009639688,-0.0004800192007818336,-0.00048001920076851036,0.5760460827655225,-0.41763341000860094,0.48963917034989485,-0.33122649758817696,-0.028802304142273253,0.4896391703500947,0.21601728103827014,0.07200576034289233,-0.23041843310600918,0.007933000000000079,0.136266,-0.910655,0.03803500000000004,-0.11903599999999992,-0.9123450000000001,0.030101999999999962,0.2553019999999999,0.0016900000000000803,0.977861470117322,0.9984899727118374,double,-0.910655
20,0.166667,quasi,0.013318934485251158,-0.06587473002158749,0.0011999040076739237,-0.04740599537812733,0.00200581480227813,0.07605403693494564,0.0010799136069025348,0.0019198464122889352,-0.00035997120230417536,0.002879769618433403,-0.005519558435324028,0.0022798176145914454,1.1085638683375898,-2.6917437427474518,0.8639481662195386,0.37436947566099216,0.31675968484061473,-0.3167821461425605,0.2735475902891087,-0.6046963324384675,0.331153925529152,0.007830999999999921,0.13683099999999992,-0.910668,0.03794799999999998,-0.118533,-0.912336,0.03011700000000006,0.2553639999999999,0.0016680000000000028,0.9796000825458531,0.9889500921657928,double,-0.910668
21,0.175,quasi,0.0223208928357025,-0.07572302892116281,0.0075603024121007325,-0.018006655168677204,-0.02987128545188317,0.058711654962636875,0.0002400096003909176,-0.001920076803074048,-0.002640105604224318,-0.0002400096003909176,0.0018000720028919124,-0.00312012480499283,1.080278213182691,-1.1818431416747086,0.7632783396648055,-0.1007925124818936,-0.4608092182122876,-0.27362707331335034,-0.37438848179819134,0.8783907882174437,-0.648019011110559,0.00764700000000007,0.13744599999999996,-0.910753,0.037760000000000016,-0.11788699999999985,-0.912425,0.030112999999999945,0.2553329999999998,0.0016720000000000068,0.9778245091015667,0.9939831157420217,double,-0.910753
22,0.183333,quasi,0.029521180847243405,-0.06504260170407321,0.0028801152046110624,0.039930905633479986,-0.0219712076310079,0.09011298728633006,-0.0010800432017324792,-0.0030001200047931973,-0.004440177607103725,0.0010800432017324792,-0.004320172806929917,0.0013200528021125708,0.864069124149874,1.2817025341521173,-0.5616449306959878,-0.15841267276171794,-0.12961036862104267,-0.21601728103677012,0.15841267276171794,-0.73445875552884,0.53284262655771,0.007391999999999954,0.13796300000000006,-0.910814,0.03752299999999997,-0.11738099999999996,-0.9124380000000001,0.03013100000000002,0.255344,0.0016240000000000698,0.974649201988941,0.9922588893633998,double,-0.910814
23,0.191667,quasi,0.00839932805375743,-0.05675545956322837,-0.011639068874491678,0.004795439614644208,0.030908704949752494,0.07562036124892087,0.002759779217662014,-0.006959443244527408,-0.00635949124070127,0.00011999040077138885,-0.001199904007660602,0.0007199424046075181,-2.5344195816517825,0.9943775067008438,-1.742162716475009,0.46074183098086025,-0.47508078230552037,-0.23029921209473758,-0.11519712034570306,0.37440230372801914,-0.07200748710163812,0.007344999999999935,0.1383780000000001,-0.9107700000000001,0.03745399999999999,-0.11691799999999986,-0.912335,0.030109000000000052,0.25529599999999997,0.0015649999999999276,0.9679781609968185,0.9976592472781002,double,-0.9107700000000001
24,0.2,quasi,0.020400816032641707,-0.0625225009000352,0.002880115204597739,-0.11647385939114828,0.0020929183452861795,0.2281253565648932,0.005040201608062698,-0.010200408016334176,-0.006360254410176101,0.0012000480019146143,-0.0008400336013548856,-0.0010800432017283156,1.4402361669127886,-0.6920726433225515,1.742371784362103,0.27366163331341437,-0.38893132987000667,-9.158400033971542e-05,0.12961209662105178,0.04318617620373409,-0.21600691303682132,0.007216999999999918,0.138814,-0.910847,0.03729399999999994,-0.11640399999999995,-0.912368,0.03007700000000002,0.25521799999999994,0.0015209999999999946,0.9630654112612909,0.9969667284915165,double,-0.910847
25,0.208333,quasi,0.02100084003359242,-0.07332293291730693,0.009000360014406268,-0.08677517612192306,0.01423556253710697,0.20907259355000876,0.003600144005757178,-0.004200168006721149,-0.006000240009600571,0.0008400336013415652,-0.0010800432017191595,-0.0010800432017274866,0.0720057603444995,-1.2961036862200606,0.7344587555272465,-0.17281382482965596,0.7200576034577034,0.04320345620731198,-0.04320345620701428,-0.02880230413587838,9.948169699777016e-14,0.007071999999999967,0.1393899999999999,-0.910972,0.03712599999999999,-0.11580199999999996,-0.912452,0.030054000000000025,0.25519199999999986,0.0014800000000000368,0.9715979854106823,0.9970947159793841,double,-0.910972
26,0.216667,quasi,0.023038156947440578,-0.08303335733142984,0.00839932805375743,-0.016760378417500985,-0.006949488435316532,0.2081535755765536,0.0004799616030722338,-0.007319414446828253,-0.0034797216222703644,-0.00011999040075806724,-0.001439884809230023,0.0007199424046075181,0.24445847298393997,-1.1651577170773821,-0.07211806583259393,-0.3743919369672356,-0.3742796304424168,0.30243801143870935,-0.11519366475877507,-0.04317753869820772,0.21598099428065792,0.006884000000000001,0.14002100000000017,-0.911071,0.036933000000000105,-0.11512199999999995,-0.912516,0.030049000000000103,0.2551430000000001,0.0014450000000000296,0.9720188986289038,0.9973094904313301,double,-0.911071
27,0.225,quasi,0.028561142445706383,-0.08688347533900712,-0.0037201488059526245,-0.021420959592781612,0.027400990015594987,0.03785025405170989,-0.00036001440057305197,-0.0013200528021100728,-0.0024000960038400537,0.0015600624024876663,0.0002400096003909168,0.0002400096003834225,0.6627847711827433,-0.4620326422149608,-1.4543953989811644,-0.10080115248353355,0.7199521954539991,0.12956025662190204,0.2016144009655265,0.20159539297023144,-0.057594240276502486,0.0066429999999999545,0.14073400000000014,-0.91106,0.03670799999999996,-0.11439599999999994,-0.912483,0.03006500000000001,0.2551300000000001,0.001423000000000063,0.9811654700455157,0.9973390666235471,double,-0.91106
28,0.233333,quasi,0.008160326413051353,-0.08940357614304513,0.002760110404415604,0.06083915047997039,-0.07657537633007767,0.10458469610123915,0.00048001920076851036,-0.0016800672027097712,-0.001680067202688121,-0.0001200048001954584,-0.0013200528021100728,0.0,-2.4481958517526716,-0.30242419345229954,0.777662211732656,0.10080806448356673,-0.04320345621021219,0.08640691241472845,-0.2016161289671335,-0.18721497689919456,-0.0288023041381762,0.0065790000000000015,0.14146499999999995,-0.911097,0.03663899999999998,-0.11366199999999993,-0.912506,0.030059999999999976,0.2551269999999999,0.0014089999999999936,0.9818700364260871,0.9977908394301426,double,-0.911097
29,0.241667,quasi,0.006479481641468517,-0.07703383729302052,-0.00107991360691586,-0.05714857696598496,-0.010300032794681039,0.17398262053487046,0.0004799616030722354,0.0007199424046283355,-0.0002399808015352851,0.0016798656107594847,0.0002399808015427785,-0.0022798176145906205,-0.2016852377709191,1.484249922009196,-0.4607660200781705,-6.911170659346105e-06,0.287978114631403,0.17279654441478753,0.21596717194083842,0.18718905731375748,-0.2735562292525349,0.006529000000000007,0.14211300000000016,-0.91109,0.03659900000000005,-0.11301799999999984,-0.912516,0.03007000000000004,0.255131,0.0014260000000000383,0.984243456768721,0.9952632912237624,double,-0.91109
30,0.25,quasi,0.015000600024005956,-0.08472338893554215,0.0015600624025009894,-0.009549819563529967,-0.02286710350947641,0.18434644772297787,-0.0024000960038425517,-0.0026401056042467917,0.0024000960038400537,0.0010800432017191559,-0.002040081603282823,-0.00012000480019212759,1.0225751089088484,-0.9227831084269326,0.3168097935217626,-0.34562073765928053,-0.40322188994061253,0.31682188952062124,-0.0719815683475733,-0.2736184333164046,0.2591879052440287,0.006383999999999945,0.14279699999999984,-0.911083,0.03648299999999993,-0.11232900000000012,-0.9125300000000001,0.030098999999999987,0.25512599999999996,0.001447000000000087,0.9783631241780743,0.9961475738460817,double,-0.911083
31,0.258333,quasi,0.026281051242046053,-0.06948277931118549,-0.008400336013442297,-0.05578225735850256,0.06358943005546105,0.15072778079064997,-0.002640105604220154,0.00540021600864909,0.0018000720028802544,0.0013200528021234004,-0.0010800432017191595,-0.0016800672026881264,1.3537082944965948,1.8289463127753154,-1.195295621738067,-0.028802304137477867,0.9648771886350538,-0.07200576034558992,0.028802304140675045,0.11520921655630216,-0.18721497689859626,0.0061430000000000096,0.14342100000000002,-0.910998,0.03627500000000006,-0.11175899999999994,-0.912474,0.030132000000000048,0.25517999999999996,0.0014760000000000328,0.9747820485120096,0.9960098529254613,double,-0.910998
32,0.266667,quasi,0.009719222462202743,-0.11063114950802333,0.00683945284376934,0.02757425296811482,-0.02529720057286196,0.09560865608031319,-0.0015598752099880903,0.0013198944084453126,0.0013198944084469777,0.00035997120230084497,-0.0008399328053864003,0.000959923206143635,-1.9872604727433756,-4.937409430866067,1.828628372595587,0.12961727792561348,-0.4895994240705272,-0.057616701995833484,-0.11520057593263193,0.028810942684516318,0.31677350717923675,0.006048999999999971,0.14435399999999987,-0.911044,0.036197000000000035,-0.11084400000000016,-0.912523,0.030148000000000064,0.25519800000000004,0.001479000000000008,0.9811556973576656,0.9977911045081916,double,-0.911044
33,0.275,quasi,0.010680427217089328,-0.09228369134765588,-0.0008400336013415596,-0.03719910015340053,0.018697645447471517,0.16935964005640214,-0.0012000480019146104,0.0019200768030740352,0.0006000240009598033,0.0008400336013415596,-0.001200048001901287,-0.0012000480019196066,0.11534918455377197,2.2017830505661076,-0.9215752364227611,0.043180992208505756,0.07202476834618025,-0.08638790441463715,0.057609792276576574,-0.04321555220387439,-0.25920691324411765,0.005950000000000011,0.1451389999999999,-0.911032,0.03611500000000001,-0.11008499999999999,-0.912526,0.030164999999999997,0.2552239999999999,0.0014939999999999953,0.9811559995807968,0.9968439269894899,double,-0.911032
34,0.283333,quasi,0.02184087363494731,-0.09000360014400939,0.003120124804988666,-0.03136121031863625,-0.10052292622182861,0.08011209459815578,-0.0015600624025009946,-0.002880115204611072,0.0019200768030723824,0.002280091203647101,-0.0007200288011727528,-0.00060002400096064,1.3393071424286582,0.27362188931315157,0.47523801828035944,-0.04320345620861456,-0.5760460827655248,0.1584126727604203,0.1728138248296586,0.057604608271755134,0.07200576034549,0.005754999999999955,0.1458649999999999,-0.9110419999999999,0.035951999999999984,-0.10934100000000013,-0.912557,0.03019700000000003,0.25520600000000004,0.001515000000000044,0.9785220300733732,0.9958913079354739,double,-0.9110419999999999
35,0.291667,quasi,0.004679625629950949,-0.09623230141588296,-0.007679385649142419,0.030570700606158477,0.11693353565051193,0.08625104254926949,-0.0016798656107461574,0.001079913606929178,0.0020398368130553285,0.002399808015361169,-0.00011999040075806724,-0.0021598272138225543,-2.0591850257974977,-0.7473843618758774,-1.2958375874887298,-0.014375234970621872,0.47516544414929757,0.014370051593826014,0.01436486821623086,0.07199884814191085,-0.1871614126304191,0.005701999999999985,0.14667600000000003,-0.910961,0.03593299999999999,-0.10854000000000008,-0.912511,0.030231000000000008,0.2552160000000001,0.0015499999999999403,0.9797422297202675,0.9946152659715858,double,-0.910961
36,0.3,quasi,0.007680307212282868,-0.1090843633745411,0.003600144005757178,0.045041496440280326,-0.014328338984879825,0.044390547307327236,-0.000480019200768512,0.00036001440057305316,-0.0016800672026881264,0.000960038401537024,-0.0007200288011461063,-0.0014400576023038704,0.36009619372758034,-1.5423091274040763,1.3535977024960548,0.14398732869046543,-0.08639136041715188,-0.4464063381427414,-0.17277926482949102,-0.07200748834609871,0.08637580841457886,0.005634000000000028,0.14758800000000005,-0.911005,0.03587700000000005,-0.10763699999999998,-0.912553,0.03024300000000002,0.25522500000000004,0.0015479999999999938,0.9815466673172297,0.996875775160647,double,-0.911005
37,0.308333,quasi,0.028321132845315372,-0.09564382575302212,-0.006960278411136715,-0.018059398700722023,0.11845975912593985,0.13394489279625954,-0.000120004800195458,-0.002520100804038002,-0.0014400576023046935,0.0032401296051841034,-0.00204008160325617,-0.0015600624024959882,2.4769981558901257,1.6129290317435403,-1.2673013820825454,0.04320345620701458,-0.34562764965931153,0.028802304138177352,0.2736218893132209,-0.1584126727601174,-0.014401152069136842,0.005396999999999985,0.14836399999999994,-0.910959,0.03566800000000003,-0.10685699999999998,-0.912508,0.030271000000000048,0.2552209999999999,0.0015490000000000226,0.9796683189579851,0.9931091510952696,double,-0.910959
38,0.316667,quasi,0.008279337652986097,-0.09035277177825869,-0.003839692824564574,-0.012415013823448688,-0.061992310834535255,0.14351235296797463,-0.0008399328053730844,-0.0011999040076872533,-0.0004799616030714044,-0.0007199424046150163,-0.0003599712023274906,0.0005999520038394636,-2.404823037236548,0.6348756869166615,0.374440315163446,-0.08638444986532642,0.1584109426866758,0.11520230372369747,-0.47517062752569506,0.20159712034181532,0.25918099428071323,0.00532100000000002,0.14910699999999988,-0.910931,0.035592999999999986,-0.10610700000000017,-0.912471,0.030271999999999966,0.25521400000000005,0.0015399999999999858,0.9820311589915399,0.9983268138018049,double,-0.910931
39,0.325,quasi,0.00264010560423346,-0.10632425297013809,-0.0012000480019279335,0.0678501976810879,0.008560848130172419,0.01065685568725627,-0.002040081603269493,-0.0034801392055750194,0.0014400576023038609,0.0032401296051841034,-0.001440057602292203,-0.0014400576023038609,-0.6767349152469234,-1.9166544092018878,0.3167700495183763,-0.1440236166922361,-0.27363916931330334,0.2304115211058751,0.4752276502819037,-0.12961555261786967,-0.24481094517500493,0.005281999999999898,0.149964,-0.910909,0.03559799999999991,-0.10523299999999991,-0.912473,0.03031600000000001,0.2551969999999999,0.0015640000000000098,0.9772210871244418,0.993621657378662,double,-0.910909
40,0.333333,quasi,0.008880355214197487,-0.11496459858394537,-0.006360254410172792,0.033125790410934226,0.04735898423191387,0.00010913070005139238,0.0003600144005863764,-0.0020400816032561833,-0.0006000240009598073,0.0016800672026964535,-0.0016800672026831304,-0.0016800672026881264,0.7488599075919887,-1.0368829489748348,-0.6192495389709434,0.2880230413843604,0.17281382483125401,-0.2448195851750478,-0.18721497689759434,-0.02880230413907691,-0.028802304138277467,0.005211000000000077,0.15090500000000007,-0.910861,0.03553800000000007,-0.10428899999999985,-0.912434,0.030326999999999993,0.2551939999999999,0.0015729999999999356,0.9806754160655301,0.9951500637413535,double,-0.910861
41,0.341667,quasi,0.00623950083993904,-0.10811135109189078,-0.0021598272138317128,0.03448383848899593,-0.0400433409464653,0.06263977622734412,-0.001679865610759479,-0.003119750419949537,0.0010799136069116935,0.0016798656107461574,-0.0015598752099880903,-0.00011999040076805845,-0.3168771747370345,0.8223239131334986,0.504010942685514,-0.244766020079896,-0.1295498940116814,0.20157638683363321,-2.41890989076185e-05,0.014421885372574987,0.18719424069115267,0.005144999999999955,0.15178000000000003,-0.9108339999999999,0.035499999999999976,-0.10340100000000008,-0.9124169999999999,0.03035500000000002,0.2551810000000001,0.001583000000000001,0.9779963542755019,0.9961740807795963,double,-0.9108339999999999
42,0.35,quasi,0.019200768030713834,-0.1120844833793343,-0.0016800672026831304,-0.0716335595984833,0.038227717977664506,0.05101433711181863,-0.001440057602305536,-0.002400096003855883,-0.000480019200768512,0.0016800672026964535,-0.001920076803074048,-0.0016800672026881264,1.5554142794641577,-0.47679494629107494,0.05757350427800115,0.028778112138958797,0.08636198441061511,-0.18719942489862107,2.4192001715599818e-05,-0.043225920207123306,-0.18721670489860456,0.004973000000000005,0.15269399999999989,-0.910824,0.03535400000000011,-0.1024830000000001,-0.912417,0.030381000000000102,0.255177,0.0015930000000000666,0.9793369468513708,0.994908627520548,double,-0.910824
43,0.358333,quasi,0.006960278411136715,-0.12888515540621803,0.0004800192007685088,0.033560673291256594,0.007537304510310162,0.01868248450394106,-0.0008400336013415596,-0.0006000240009639668,-0.0003600144005755489,0.0019200768030607118,-0.0018000720028919003,-0.0009600384015361848,-1.4689175110496901,-2.0161612896776266,0.2592207372436854,0.07200576034609071,0.2160172810382706,0.014401152069238282,0.028802304135876314,0.014401152067940381,0.08640691241472923,0.0049080000000000235,0.15376299999999987,-0.910831,0.03531200000000001,-0.10142400000000018,-0.9124289999999999,0.030403999999999987,0.25518700000000005,0.0015979999999999883,0.9821978403977869,0.9953307662186777,double,-0.910831
44,0.366667,quasi,-0.002759779217662014,-0.09623230141588296,-0.01679865610751486,0.08681498157894897,0.04622847837022366,0.07092884359425296,-0.0013198944084453126,-0.0019198464122889352,-0.0008399328053755765,0.002519798416132558,-0.0009599232061178244,-0.0022798176145906127,-1.166313610367017,3.9180290365172836,-2.0732751749800036,-0.05757869055720573,-0.15836602007738987,-0.057585601727865025,0.07196083670168532,0.10080979082962263,-0.15836083669959522,0.0049200000000000355,0.15454899999999983,-0.910698,0.035356000000000054,-0.10063,-0.912308,0.03043600000000002,0.2551789999999998,0.0016100000000000003,0.9797723767217514,0.9941148952205624,double,-0.910698
45,0.375,quasi,0.016920676827080056,-0.10728429137167582,-0.004320172806903284,-0.1189807480835729,-0.04221255621806607,0.06017530022052453,-0.002280091203647101,-0.002640105604220154,0.0008400336013440632,0.001320052802110077,-0.002760110404428936,-0.000360014400576384,2.3617491953368677,-1.3262918463690012,1.4974778951892005,-0.11522822455319703,-0.08643456041416306,0.20160403296767598,-0.14397523269200574,-0.2160311050415356,0.23038560110575226,0.0047599999999999865,0.15542100000000003,-0.910655,0.03522599999999998,-0.09975899999999993,-0.9122750000000001,0.030465999999999993,0.25517999999999996,0.0016200000000000658,0.9778197942366851,0.9948655955626075,double,-0.910655
46,0.383333,quasi,0.0,-0.14280571222849242,-0.003240129605184125,0.06927626490846185,0.06503169976104156,0.010760006150475475,-0.0012000480019146184,-0.002280091203647101,0.0,0.000480019200768512,-0.002280091203647101,-0.0006000240009598073,-2.0305624417472816,-4.262741012458501,0.12961036862104428,0.12961036862264314,0.04320345620701476,-0.10080806448386719,-0.10080806448356741,0.05760460827815148,-0.028802304138176398,0.004750000000000032,0.15659200000000006,-0.910628,0.035229999999999984,-0.0985879999999999,-0.912253,0.03047999999999995,0.25517999999999996,0.0016249999999999876,0.9794556461151336,0.9959898520629314,double,-0.910628
47,0.391667,quasi,0.011879049676021134,-0.12682985361169458,-0.006959443244540729,0.10824436798429128,0.016648930583924033,0.00900478723635512,-0.001679865610759479,-0.0017998560115042247,0.00035997120230334275,0.0037197024238064817,-0.0019198464122889352,-0.002399808015358671,1.4253719313680253,1.916949678041496,-0.44628193416805856,-0.05757350718080875,0.057623613168091656,0.04319308882929474,0.3887308882934925,0.04322591688962869,-0.21595680518344879,0.004637000000000002,0.15763400000000005,-0.910567,0.03516200000000003,-0.09754700000000005,-0.912215,0.030525000000000024,0.2551810000000001,0.0016479999999999828,0.9793730434858643,0.9919582556343943,double,-0.910567
48,0.4,quasi,0.013560542421700381,-0.12036481459259366,-0.004920196807880545,-0.12113094826716116,0.024061326600448792,0.10795434997197208,-0.0003600144005730508,-0.002280091203647086,0.0001200048001921272,0.002880115204611053,-0.002280091203647086,-0.0032401296051841034,0.2017872009695476,0.7758357157207361,0.24471936117366794,0.1583884807616012,-0.05763052827827423,-0.028797120138151274,-0.10075449648331038,-0.04323110420714619,-0.10084262448403081,0.004520999999999997,0.15861800000000015,-0.9105249999999999,0.03507300000000002,-0.09656299999999995,-0.9122009999999999,0.030552000000000024,0.2551810000000001,0.0016760000000000108,0.9793875738461046,0.9918363408008468,double,-0.9105249999999999
49,0.408333,quasi,0.0213608544341788,-0.13836553462138035,-0.002640105604220154,-0.019111545287381095,0.04057179924879882,0.0171502423744232,-0.0007200288011461063,-0.001920076803074048,-0.0012000480019204473,0.0025201008040246953,-0.0021600864034649653,-0.0009600384015361912,0.9360748844927922,-2.160172810366823,0.27362188931482023,-0.04320345620701505,0.043203456207012936,-0.15841267276041973,-0.04320345620861136,0.014401152067937224,0.27362188931332265,0.004337000000000035,0.1597550000000001,-0.910513,0.03491599999999995,-0.09542800000000007,-0.912187,0.030578999999999912,0.25518300000000016,0.0016739999999999533,0.9793000436271005,0.9942412976323499,double,-0.910513
50,0.416667,quasi,-0.008999280057601053,-0.1261099112070929,-0.010439164866804433,0.15776857162855074,-0.018075437520400067,0.007998511578623812,0.0002399808015294561,0.001559875209961447,-0.0025197984161267296,0.0009599232061444676,-0.0021598272138050696,-0.0013198944084478104,-3.6429247050371756,1.4705571651412823,-0.9358122465303901,0.11519193696611009,0.41756083669732325,-0.1583573811142646,-0.18720633523880806,3.110027116579202e-05,-0.04317926648807521,0.004414000000000029,0.16081899999999982,-0.910447,0.034999,-0.094395,-0.912111,0.030584999999999973,0.25521399999999983,0.0016639999999999988,0.9784045917553339,0.9954881552785291,double,-0.910447
51,0.425,quasi,0.008520340813637757,-0.14460578423138434,-0.0002400096003909176,-0.08303562182607267,-0.002325022782081715,0.04804594664572323,0.0002400096003909176,-0.003960158406330232,0.000120004800192128,0.002280091203647101,-0.003360134405392907,-0.0008400336013440632,2.102438602092746,-2.219593546656846,1.22394758987322,3.4560016154445776e-06,-0.6624305311762502,0.3167890575205645,0.15842649676018683,-0.14404262469552867,0.05758560027646086,0.004345000000000043,0.161991,-0.910444,0.03494699999999995,-0.09321800000000002,-0.912116,0.030601999999999907,0.255209,0.0016720000000000068,0.9766646012206417,0.9930888625372115,double,-0.910444
52,0.433333,quasi,0.013080523220931872,-0.14136565462617262,0.0013200528021100684,0.04956305027309257,0.0016726681216267141,0.13993349629385438,0.0,-0.0019200768030740352,-0.0018000720028802425,0.002280091203647086,-0.0030001200047931873,-0.0006000240009598033,0.5472437786264365,0.3888311058696398,0.1872149768991935,-0.028802304139075554,0.24481958517414956,-0.23041843310600774,-1.821532511076083e-15,0.04320345621021459,0.0288023041382766,0.0042360000000000175,0.16315299999999988,-0.91047,0.034856999999999916,-0.09206500000000006,-0.9121319999999999,0.0306209999999999,0.25521799999999994,0.0016619999999999413,0.9789934820993893,0.9936405003817916,double,-0.91047
53,0.441667,quasi,0.014758819294454635,-0.1528677705783543,-0.00767938564914247,0.027967432451857753,0.06742367686793282,0.00984601737262433,-0.0007199424046150163,-0.00299976001919149,-0.0008399328053755821,0.002879769618433422,-0.0034797216222770488,-0.002639788816894806,0.20137941846925522,-1.3801435027815863,-1.0798462264521946,-0.08638617765958968,-0.12955162180435098,0.11520748710159177,0.07195565332209497,-0.05754759029084043,-0.2447521977363828,0.004106999999999972,0.16440199999999994,-0.910413,0.034757999999999956,-0.09082000000000012,-0.9120900000000001,0.030650999999999984,0.25522200000000006,0.0016770000000000396,0.9779012612613176,0.9912806058088883,double,-0.910413
54,0.45,quasi,0.008400336013442242,-0.15012600504021456,0.005760230409208782,-0.013314993480834236,-0.05057549478781896,0.051822213600790264,0.0010800432017324755,-0.0019200768030740352,-0.00048001920076767607,0.0015600624025009842,-0.003720148805939289,0.0,-0.7630485156621105,0.32902502557778984,1.6128184397397332,0.21600691303821964,0.1295671686208389,0.043191360207356845,-0.15837120075992225,-0.028852416136114178,0.3167873295205562,0.004045999999999994,0.16563700000000003,-0.910465,0.03470099999999998,-0.0895999999999999,-0.912138,0.030654999999999988,0.25523699999999994,0.0016730000000000356,0.9795121908420164,0.9932766365398897,double,-0.910465
55,0.458333,quasi,0.0008400336013415652,-0.14748589943596876,-0.021720868834751852,0.06571709232209422,0.24349125064196947,0.030430292503057236,0.001440057602305536,-0.003240129605184125,-0.0015600624024959984,0.003600144005757178,-0.005160206408258173,0.0006000240009598073,-0.9072725803552976,0.31682534552331726,-3.2978638238282376,0.04320345620701564,-0.15841267276012158,-0.1296103686221439,0.24481958517415087,-0.17281382483125968,0.07200576034559088,0.004051000000000027,0.16683899999999996,-0.910297,0.03472399999999998,-0.08841399999999999,-0.911952,0.03067299999999995,0.25525299999999995,0.001654999999999962,0.9769937367928434,0.9894658233671241,double,-0.910297
56,0.466667,quasi,0.019558435325176874,-0.16942644588432534,0.011279097672190834,-0.026424537637443287,-0.08283679765972397,0.07478453222062374,0.0008399328053730787,-0.0002399808015427777,-0.0002399808015361169,0.0038396928245778704,-0.0031197504199761807,-0.0011999040076789193,2.2460285245782687,-2.6326549614058745,3.959679206496599,-0.07200921489470323,0.35998905731237635,0.15839712034555797,0.028743558773781142,0.24483513178329613,-0.2159740831099982,0.003894999999999982,0.16824899999999987,-0.910393,0.034592999999999985,-0.0870280000000001,-0.912056,0.030698000000000003,0.255277,0.00166299999999997,0.9818601539006345,0.9915153973939552,double,-0.910393
57,0.475,quasi,0.01824072962917681,-0.14580583223328564,0.004560182407294202,-0.07310474684504172,0.09120607054825078,0.21526041493209133,0.0,-0.0020400816032561833,0.0006000240009598073,0.002760110404415613,-0.005400216008622444,0.000240009600384256,-0.15813100876035865,2.834587021605636,-0.8063020838709527,-0.10079596848350904,-0.21602073703509062,0.1008046084838505,-0.1295550726223761,-0.2736668173102447,0.17279654482937462,0.003743000000000052,0.1694469999999999,-0.910426,0.03446400000000005,-0.08585799999999999,-0.912092,0.030721,0.2553049999999999,0.0016660000000000563,0.9797958492046472,0.9898842604773246,double,-0.910426
58,0.483333,quasi,0.012000480019199396,-0.1825273010920556,-0.002160086403451628,0.06928996963327957,-0.010559379642799632,-0.043687915358566316,0.0002400096003775928,-0.0032401296051841034,0.0012000480019204393,0.0031201248049886453,-0.004200168006721121,0.00024000960038342167,-0.7488599075935901,-4.406752533153702,-0.806464515870131,0.028802304137476514,-0.14401152069217749,0.07200576034568937,0.04320345620701198,0.14401152068898576,-1.0012248611327304e-13,0.0036450000000000093,0.170941,-0.910398,0.03439000000000003,-0.08437199999999989,-0.912072,0.030745000000000022,0.2553129999999999,0.0016739999999999533,0.9774874212209848,0.9912703896784715,double,-0.910398
59,0.491667,quasi,0.025317974562043682,-0.15298776097911132,-0.005999520038396261,-0.03637705244644327,0.16610376740939792,0.15231017259380386,-0.00227981761458978,-0.0032397408207342476,0.00191984641228727,0.004439644828421493,-0.006719462443011273,-0.0019198464122864374,1.597971507420719,3.5444612566527764,-0.46069518057890924,-0.30235507738989326,4.6650401950540515e-05,0.08636889973204105,0.15832973643302695,-0.30229114906289295,-0.2591619885612979,0.003414999999999946,0.17218899999999993,-0.910332,0.034216000000000024,-0.08315300000000003,-0.912038,0.03080100000000008,0.25534199999999996,0.0017059999999999853,0.975603012427869,0.9862011039116713,double,-0.910332
60,0.5,quasi,0.021960878435129446,-0.15540621624865586,-0.0006000240009639708,-0.08736784445765063,0.08337230181496565,0.1967526732760926,-0.002160086403451642,-0.003720148805939314,0.0016800672026881264,0.003720148805952637,-0.004920196807867256,0.0010800432017274866,-0.4028676499357068,-0.29022624139500125,0.6479654431096009,0.014368320069379357,-0.057651264275179116,-0.028774656138142837,-0.08634297641531957,0.21592051303780416,0.36000115372782093,0.00321400000000005,0.17345300000000008,-0.910313,0.034064000000000094,-0.08189899999999994,-0.9120240000000001,0.030850000000000044,0.255352,0.001711000000000018,0.9751929395556455,0.9895631080238075,double,-0.910313
61,0.508333,quasi,0.017520700828043908,-0.17604704188168738,-0.008880355214210751,0.031857305478440956,0.06251190203829222,0.017463767867438175,-0.002640105604220137,-0.0020400816032828165,0.0015600624024959882,0.004320172806903256,-0.004920196807893869,-0.0008400336013440577,-0.5328426265553245,-2.476998155890007,-0.9936794927693202,-0.05760460827655018,0.2016161289639374,-0.014401152069139288,0.07200576034448772,-3.1937189735627115e-12,-0.2304184331059086,0.003045999999999993,0.17490300000000003,-0.910226,0.03395399999999993,-0.08047300000000002,-0.911957,0.030907999999999936,0.25537600000000005,0.001731000000000038,0.9765513507527286,0.9889977418780782,double,-0.910226
62,0.516667,quasi,0.004079673626107353,-0.1964242860571032,0.008759299256058334,-0.1552695255610955,0.33994151508940457,0.25781858333940605,-0.0011999040076872533,-0.00011999040075806804,0.0013198944084469866,0.019318454523634225,-0.02015838732900731,-0.0056395488360929565,-1.6127942406931404,-2.445073695154299,2.1165892092955585,0.17281036675460665,0.230392512901939,-0.028817853857571758,1.7996498340210048,-1.828436587606615,-0.5758957565093504,0.003001999999999949,0.176539,-0.910288,0.03408099999999992,-0.07900400000000007,-0.912077,0.031078999999999968,0.2555430000000001,0.0017890000000000406,0.9791303054904033,0.9525258030328672,double,-0.910288
63,0.525,quasi,0.02016080643225072,-0.1737669506780403,-0.0038401536061480703,0.006420052725189714,0.068934260668344,0.10018869105510897,-0.004440177607098714,-0.0031201248050019685,0.003600144005760485,0.007680307212296141,-0.008160326413051327,-0.0031201248049919765,1.9298131292623666,2.718989005047738,-1.5119948232576925,-0.38884838586480824,-0.36003052973045574,0.2736408973135112,-1.3966335427022725,1.4398249029108285,0.3023429774512144,0.0027970000000000494,0.17796100000000004,-0.910226,0.033977000000000035,-0.07762399999999992,-0.912071,0.031179999999999986,0.25558499999999995,0.0018449999999999855,0.9706959949988262,0.9806126311995615,double,-0.910226
64,0.533333,quasi,0.023520940837630597,-0.16968678747147692,-0.006600264010550429,0.014463280492683,0.13490718468936228,0.17971451157215348,-0.0038401536061481215,-0.0032401296051841467,0.005280211208448671,0.007200288011514404,-0.014880595223810647,0.0006000240009598112,0.4032322579359063,0.48963917035442367,-0.3312264975881896,0.07200576034448557,-0.014401152067944243,0.20161612896774284,-0.057604608278140054,-0.8064645158717607,0.44643571414278427,0.0025690000000000435,0.17934799999999984,-0.910127,0.03384100000000001,-0.07633400000000012,-0.912011,0.031271999999999966,0.25568199999999996,0.0018839999999999968,0.9690120863722029,0.9724300742320862,double,-0.910127
65,0.541667,quasi,0.03851691864650987,-0.1705063594912534,-0.006719462443011228,-0.06316478499495731,0.10510117778257402,0.1779582877891595,-0.006479481641468453,-0.0026397888168906074,0.006239500839932337,0.008039356851456533,-0.005159587233023149,-0.0037197024238056244,1.7993733871945234,-0.09834077511116755,-0.01430266768188122,-0.31669402871614005,0.0720351317846814,0.11510554733425231,0.10068020637654458,1.1664276446829163,-0.5183257049154552,0.0021940000000000293,0.180747,-0.910019,0.033587000000000033,-0.07495600000000002,-0.911986,0.031393000000000004,0.255703,0.001966999999999941,0.9647056299619061,0.9829145297985311,double,-0.910019
66,0.55,quasi,0.03516140645625663,-0.18132725309012765,-0.006120244809795156,0.002550193859815405,0.1747464182522942,0.21953089974784015,-0.00900036001440621,-0.0036001440057571543,0.007680307212288646,-0.010200408016320819,-0.015840633625347468,0.01500060002400091,-0.40267756993318465,-1.2985591742318743,0.07190899234562222,-0.3025175054527477,-0.11524723255328728,0.17290368082998958,-2.1888593385068136,-1.281776838152439,2.2465261547829662,0.0018259999999999943,0.18222800000000006,-0.9099039999999999,0.033209000000000044,-0.073577,-0.9118099999999999,0.03138300000000005,0.25580500000000006,0.0019059999999999633,0.960327528308338,0.9598616282775043,double,-0.9099039999999999
67,0.558333,quasi,0.02244089763591143,-0.17136685467418672,-0.02208088323532505,0.014965466807449278,0.24050990790300558,0.14058884070007233,-0.00960038401535698,-0.003960158406330258,0.008760350414016242,-0.012720508820358991,-0.009840393615734576,0.016080643225728605,-1.526522119326211,1.195295621737792,-1.9153532251926126,-0.07200576034450684,-0.04320345620702109,0.12961036862205755,-0.30242419345232147,0.720057603457692,0.12961036862206943,0.001558999999999977,0.1836230000000001,-0.909647,0.032915999999999945,-0.07223099999999993,-0.911492,0.03135699999999997,0.255854,0.0018449999999999855,0.9589057729197739,0.9620954496386505,double,-0.909647
68,0.566667,quasi,0.06179505639549307,-0.1744660427165893,0.008159347252214599,-0.04494269240808316,0.08914664475249234,0.20424901228780837,-0.014398848092153596,-0.002279817614589765,0.015238780897528335,-0.005159587233009827,-0.006839452843769295,0.007199424046076798,4.7221212814472455,-0.37187281526308624,3.628537375514689,-0.575769627645378,0.2016247650276554,0.7773494700638401,0.9072380114409775,0.3600840859089582,-1.0656610486743148,0.0009239999999999249,0.18505800000000017,-0.909588,0.032358,-0.07083399999999984,-0.9115,0.03143400000000007,0.255892,0.0019120000000000248,0.9457317094623214,0.9813488783318827,double,-0.909588
69,0.575,quasi,0.03684147365894024,-0.18612744509778859,-0.026761070442814745,0.03484162221347932,0.21601818032059703,0.11863389169461554,-0.016920676827066845,0.002520100804011389,0.016680667226689247,-0.002640105604233495,-0.007200288011514404,0.003720148805951829,-2.994549710374782,-1.399424262714435,-4.190617748113484,-0.30263155345173065,0.5760132507621742,0.17303328083054423,0.3023498894487405,-0.043301952207501763,-0.41752973000420024,0.00047600000000003195,0.18662999999999985,-0.909226,0.032028999999999974,-0.06934299999999993,-0.911246,0.03155299999999994,0.2559729999999998,0.0020200000000000218,0.9399773071577147,0.9857937990663028,double,-0.909226
70,0.583333,quasi,0.05640225609023983,-0.17472698907957732,-0.024240969638776384,-0.009875873733359694,0.2674337666522401,0.10121219724097529,-0.01944077763110462,0.006600264010576988,0.027961118444737323,-0.005400216008635731,0.006960278411123393,-0.0027601104044164275,2.347387787267431,1.368109446563209,0.3024241934523402,-0.3024241934522698,0.489639170354684,1.3537082944975434,-0.33122649758817047,1.6993359441542946,-0.7776622117326568,-0.00015599999999993397,0.1881410000000001,-0.908791,0.03151400000000004,-0.06782899999999992,-0.9110670000000001,0.031669999999999976,0.25597000000000003,0.0022760000000000558,0.9194248860448718,0.9846136768935629,double,-0.908791
71,0.591667,quasi,0.047996160307183094,-0.171706263498914,-0.01991840652747759,-0.005851178237681636,0.2204621860273926,0.15358012756994188,-0.04223662107031633,0.00911927045835906,0.040196784257259345,-0.0026397888168906074,0.0026397888168906074,-0.001799856011518367,-1.008650801902648,0.3624580730337535,0.5186660800694458,-2.7352823901141754,0.3022565932063898,1.468162444507071,0.3312247650282101,-0.5184172779256961,0.11522130944301093,-0.0009080000000000199,0.18964800000000004,-0.90829,0.03109200000000001,-0.06637599999999999,-0.9109160000000001,0.03200000000000003,0.25602400000000003,0.002626000000000017,0.875380191166496,0.9930925861774467,double,-0.90829
72,0.6,quasi,0.05328213128525189,-0.17844713788551897,-0.028921156846279723,-0.0030972231998825507,0.3297912440534463,0.11552901366603328,-0.04596183847354203,-0.015960638425529815,0.06732269290771681,0.0030001200047932272,-0.004440177607112096,-0.0020400816032645243,0.6343418910439028,-0.8089372838839601,-1.0803732531863934,-0.44704397014589375,-3.0097094544448706,3.2552392476248304,0.6768161312473162,-0.8496299560785753,-0.028828224138504673,-0.001735000000000042,0.19100200000000012,-0.907488,0.03067299999999995,-0.06492600000000004,-0.9106920000000001,0.03240799999999999,0.25592800000000016,0.0032040000000000957,0.8295205070480528,0.9904434678863909,double,-0.907488
73,0.608333,quasi,0.07236289451578275,-0.1796471858874179,-0.022200888035520214,-0.0043696720219735434,0.187650740652945,0.11942588626490037,-0.05472218888755671,0.042121684867393344,0.076203048121925,0.00264010560423346,-0.008640345613806511,0.0022800912036479186,2.289783178990853,-0.1440115206886991,0.8064645158717727,-1.0512841010457987,6.970157601454809,1.0656852531151024,-0.04320345620542011,-0.5040403224162244,0.5184414744884706,-0.002794000000000074,0.19284999999999997,-0.906668,0.030092000000000008,-0.06350100000000003,-0.910488,0.03288600000000008,0.256351,0.0038199999999999346,0.7904032961244437,0.9844700517078486,double,-0.906668
74,0.616667,quasi,0.05231581473482055,-0.16954643628511118,-0.03263738900888547,0.10211324073390944,0.32187232256159876,-0.003648736692003474,-0.036117110631149196,0.028677705783522866,0.06551475881929457,0.001079913606902542,-0.005639548836108776,0.0010799136069117006,-2.405457137144506,1.211992992837387,-1.2522799344090854,2.2324307963052097,-1.6131484381894114,-1.2824921169463026,-0.18720806303466844,0.36006680797909196,-0.14400979082508097,-0.003531000000000062,0.19450199999999995,-0.9058499999999999,0.02966499999999994,-0.06213500000000005,-0.910207,0.033196,0.256637,0.004357000000000055,0.8228984794546069,0.9902621959651483,double,-0.9058499999999999
75,0.625,quasi,0.08628345133804285,-0.16752670106803635,-0.0019200768030607118,0.001363100892035832,0.23691751312643505,0.21700869247032606,-0.03636145445817124,-0.03564142565702514,0.1057242289691583,0.004200168006721121,-0.00408016320651234,-0.0016800672026881154,4.0762794435644025,0.24237792116582463,3.6862249136955034,-0.029322432139930535,-7.71860451704641,4.825329431160874,0.3744455057984598,0.18713376090200767,-0.33121094558980013,-0.004552999999999918,0.1956009999999999,-0.904953,0.028981000000000035,-0.060772999999999966,-0.910205,0.03353399999999995,0.2563739999999999,0.005252000000000034,0.7519033655152174,0.9898467617532893,double,-0.904953
76,0.633333,quasi,0.06732269290772007,-0.18420736829473872,-0.034801392055683576,0.17250180278012478,0.45236479681550884,-0.10434213299220171,-0.06324252970119441,-0.0067202688107324765,0.14964598583943273,0.004800192007685088,-0.004080163206538986,-0.0032401296051841034,-2.2753820269198015,-2.0017601376097796,-3.9459156669414046,-3.225858063485307,3.4706776486610518,5.2708216572992015,0.07200576034608958,-3.197674301301048e-12,-0.18721497689859373,-0.005641000000000007,0.19708000000000014,-0.903416,0.02846000000000004,-0.05927199999999999,-0.909942,0.03410100000000005,0.25635200000000014,0.006526000000000032,0.6637403041527401,0.9881927499954679,double,-0.903416
77,0.641667,quasi,0.08771298296136805,-0.1617470602351707,0.007079433645298843,0.11411166147844047,0.3318941562237514,0.20689876233103485,-0.05111591072713329,0.006599472042226607,0.15778737700984055,0.00299976001919149,-0.001919846412288948,-0.004079673626109851,2.446639075311747,2.6950213654389437,5.025297060353091,1.4550778706576903,1.5982410430716534,0.9768887893457968,-0.21603455585476455,0.2592172779277718,-0.10073722353320766,-0.006797999999999971,0.19848299999999997,-0.90216,0.027753999999999945,-0.0579400000000001,-0.9100349999999999,0.034551999999999916,0.25642300000000007,0.007874999999999965,0.6445971604642685,0.9909740947953043,double,-0.90216
78,0.65,quasi,0.08520340813632371,-0.17244689787593023,-0.0031201248049886453,0.2458513359244615,0.3714190494854437,0.03938689769723592,-0.05400216008641061,0.025561022440899778,0.20640825633025225,0.0036001440057704774,-0.0036001440057571543,-0.0028801152046085544,-0.30116102544633727,-1.2840318781662667,-1.2239959738734485,-0.34636377766438314,2.275477066923448,5.834738908005701,0.07204896034789209,-0.2016437769672626,0.14395276869090265,-0.00795800000000002,0.20013300000000012,-0.900414,0.027074000000000042,-0.056532999999999944,-0.910033,0.03503200000000006,0.25666600000000006,0.009618999999999933,0.5456745218964786,0.990250763944987,double,-0.900414
79,0.658333,quasi,0.10716428657146776,-0.1848073922956785,0.007800312012478379,0.24062314415245822,0.42790998712210737,-0.01706740440184018,-0.07056282251290512,0.03228129125165933,0.24792991719668994,0.004440177607098773,-0.0019200768030740608,-0.0032401296051841467,2.635410828650456,-1.4833186631163298,1.3105048382895863,-1.987358985538781,0.8064645158717884,4.982798615917205,0.1008080644819757,0.20161612896713174,-0.04320345620731977,-0.009439000000000086,0.20194200000000007,-0.898413,0.026217999999999964,-0.055009000000000086,-0.910125,0.03565700000000005,0.25695100000000015,0.011711999999999945,0.4498979708405269,0.99029600426361,single,-0.898413
80,0.666667,quasi,0.11807055435564884,-0.16738660907127723,0.005759539236866767,0.3711216353862974,0.16561175092177938,0.04347872391799223,-0.09071274298055833,0.0197984161267062,0.2762179025677923,0.020998320134393438,-0.05363570914325183,0.005879529637628997,1.308647442306335,2.0903267607872738,-0.24487314322193382,-2.4177970323557783,-1.4978251889792458,3.394286701596126,1.9868181578227186,-6.205379450465248,1.094271567412176,-0.01117900000000005,0.20350200000000007,-0.896159,0.025409000000000015,-0.054060999999999915,-0.910124,0.036588000000000065,0.257563,0.013965000000000005,0.3746743288436733,0.9035017614938298,single,-0.896159
81,0.675,quasi,0.11004440177606406,-0.15228609144365285,0.02784111364454686,0.2797005592372543,0.34079106554140076,0.0961990400129526,-0.12168486739469041,0.022320892835715672,0.30757230289211557,-0.006360254410186072,0.008160326413051327,0.01836073442937714,-0.9631768366236343,1.8121346006989456,2.649894924718589,-3.7168036018399078,0.3027093134536735,3.7626785460606222,-3.283160271760398,7.415820899592331,1.4978044871892588,-0.013109999999999955,0.20495700000000006,-0.8938280000000001,0.02443899999999999,-0.05272399999999999,-0.910203,0.037548999999999944,0.25768100000000005,0.016374999999999917,0.33624999999999994,0.9648748138749119,single,-0.8938280000000001
82,0.683333,quasi,0.10848433937357785,-0.17796711868476378,0.015240609624383703,0.37981166217113904,0.33167788396275255,-0.0614097789527671,-0.13956558262330923,0.026881075243010203,0.3478939157566333,-0.003960158406330258,0.004680187207476369,0.00828033121324856,-0.18721497689742306,-3.0818465427950517,-1.5121209672582832,-2.1457716583006103,0.5472437786264938,4.838787095225983,0.2880230413843557,-0.41763341000539894,-1.209696773806393,-0.015176999999999996,0.20666400000000018,-0.8910560000000001,0.023502000000000023,-0.05120199999999997,-0.910261,0.03867900000000002,0.25786600000000015,0.019204999999999917,0.30794999999999995,0.9828284075108082,single,-0.8910560000000001
83,0.691667,quasi,0.10751139908807308,-0.1693064554835395,0.025077993760500735,0.36629819958007104,0.5274107681546941,-0.051684953905960423,-0.163426925845928,0.033717302615787564,0.3879289656827424,-0.011159107271419371,-0.00455963522917953,0.005159587233021483,-0.11674349478098833,1.0391964484310303,1.1803916650008348,-2.863132136143338,0.8202816622003011,4.803821685398219,-0.8638047594299326,-1.1086899971989235,-0.37445932088157574,-0.01743499999999998,0.20835599999999999,-0.888032,0.022513000000000005,-0.04982900000000012,-0.910427,0.039947999999999984,0.2581850000000001,0.022394999999999943,0.27604999999999996,0.9781458566772684,single,-0.888032
84,0.7,quasi,0.1186847473898988,-0.15120604824193573,0.023880955238203654,0.3258419451033946,0.13802746080224257,0.005004341477315401,-0.20484819392776066,0.02772110884433845,0.41245649825993363,-0.003960158406330258,-0.0074402976119053235,-0.010080403216128827,1.3408554304363158,2.17213575442265,-0.1436503686903987,-4.970750999859959,-0.7195720354553183,2.943421646128823,0.8639084201475073,-0.3456933136596448,-1.828872008778405,-0.02013100000000001,0.2098469999999999,-0.884794,0.021491000000000038,-0.04863100000000009,-0.91071,0.04162200000000005,0.258478,0.02591600000000005,0.24084,0.9781002655928908,single,-0.884794
85,0.708333,quasi,0.12480499219967905,-0.15516620664826392,0.037081483259330666,0.2372842238602108,0.3940063972861911,0.03512592780358318,-0.2269290771630827,0.02052082083285042,0.42733709348373694,-0.0016800672026964422,-0.006840273610941258,-0.007320292811712264,0.7344587555238483,-0.47523801828011136,1.5841267276043391,-2.6498119807178617,-0.864069124143526,1.7857428565706521,0.2736218893116292,0.07200576034610144,0.3312264975898897,-0.023061999999999916,0.21131100000000003,-0.881542,0.02043700000000004,-0.047395000000000076,-0.91108,0.043498999999999954,0.2587060000000001,0.029537999999999953,0.20462000000000008,0.9830688768070192,single,-0.881542
86,0.716667,quasi,0.1238300935925156,-0.15442764578834034,0.03179745620349864,0.3576074537254789,0.5701177210162688,-0.07627233062065711,-0.23770098392128575,0.022558195344354874,0.4595632349412012,0.0027597792176619956,-0.006719462443011228,-0.007199424046075965,-0.1169784745816478,0.08862021357374254,-0.6340325240979101,-1.2925254089516405,0.24446538414980074,3.8668276286853884,0.5327389513269023,0.014496180457166849,0.014503091629025426,-0.02607499999999996,0.21278599999999992,-0.877977,0.019428,-0.046164000000000094,-0.9114049999999999,0.04550299999999996,0.25895,0.0334279999999999,0.1657200000000001,0.982954369780523,single,-0.877977
87,0.725,quasi,0.11676467058682474,-0.14052562102484625,0.037321492859722076,0.22992916320911966,0.4280329348823211,0.041030025544007684,-0.28645145805832833,0.03516140645627042,0.5204608184327429,0.00108004320173249,-0.004200168006721177,-0.007080283211328938,-0.8478846760699528,1.668309704007466,0.6629109151834254,-5.8502909080814876,1.5124458312631304,7.308002339078637,-0.2015763849669412,0.30232742545182695,0.014297472068526208,-0.02943499999999999,0.21425000000000005,-0.873951,0.018464000000000036,-0.04502800000000007,-0.911775,0.047899000000000025,0.2592780000000001,0.03782399999999997,0.12175999999999998,0.9861618166178063,single,-0.873951
88,0.733333,quasi,0.10416416656665982,-0.11292451698068844,0.0364814592583667,0.37249111170590005,0.4383813199149672,0.04942430910578907,-0.32005280211208015,0.01008040321612536,0.5645025801032018,0.0019200768030740352,-0.0032401296051841034,-0.0066002640105603345,-1.5121209672584748,3.31226497589796,-0.10080806448522449,-4.032322579353375,-3.0098407824486926,5.2852228093674105,0.10080806448356434,0.1152092165531105,0.05760460827656319,-0.032969999999999944,0.2152750000000001,-0.869551,0.017612000000000072,-0.04411399999999999,-0.912134,0.050582000000000016,0.2593890000000001,0.04258300000000004,0.07417000000000001,0.9873345812240584,single,-0.869551
89,0.741667,quasi,0.10451163906888303,-0.13318934485240588,0.029157667386608424,0.29348549755421205,0.6215979523110381,0.017249065533340404,-0.3560115190784821,-0.013678905687538772,0.5920326373890116,0.0037197024238065065,-0.001919846412288948,-0.0025197984161267465,0.041693364797601495,-2.431584817820682,-0.8787847218332511,-4.314700859899467,-2.8508889973199265,3.303342606888646,0.21593779946394068,0.15842130944266414,0.48961670199587365,-0.03680800000000006,0.2162710000000001,-0.86486,0.01677200000000001,-0.04302000000000006,-0.9123979999999999,0.05358000000000007,0.25929100000000016,0.04753799999999997,0.02462000000000003,0.9918569422160199,single,-0.86486
90,0.75,quasi,0.09612384495379063,-0.13032521300851024,0.021360854434178657,0.31678086389673177,0.66581263033508,0.09496959512835114,-0.37705508220328393,0.006240249609977291,0.6530661226449034,-0.000120004800195458,-0.001560062402474338,-0.010080403216128691,-1.006575556833357,0.34370956965026134,-0.9356549804907878,-2.525328588119733,2.3903942514719763,7.324311203155112,-0.4607832982121623,0.04317580821008142,-0.9073088683549638,-0.04075099999999998,0.21740899999999996,-0.859596,0.01597000000000004,-0.04194699999999996,-0.91266,0.05672100000000002,0.2593559999999999,0.053064,0.0,0.9829981434958626,single,-0.859596
91,0.758333,quasi,0.03996159846394172,-0.07344293771751523,0.037201488059526125,0.7496991309290444,-0.09721226725553825,0.4779790452842508,-0.44365774630984456,-0.04668186727468752,0.6881075243009696,0.002040081603269493,0.0,-0.0066002640105603345,-6.739739168348575,6.826146080762604,1.9009520731246132,-7.992639398363177,-6.350908062482249,4.20513640418409,0.25922073724528283,0.18721497689599562,0.41763341000460125,-0.04478099999999996,0.21763200000000005,-0.854172,0.015654000000000057,-0.0413349999999999,-0.913025,0.060435000000000016,0.25896699999999995,0.05885299999999993,0.0,0.988486069071061,single,-0.854172
92,0.766667,quasi,0.07667386609071992,-0.1112311015118677,0.033357331413487165,0.5426734174058527,0.485356905670925,0.11069780542164932,-0.48068154547637243,-0.06755459563236074,0.7425005999520079,0.004919606431480438,-0.0017998560115308798,-0.0033597312215023285,4.405119705636959,-4.534216917968885,-0.46126189657295197,-4.442500499943375,-2.5045270407575404,6.526646946368929,0.34551533815826274,-0.21596544414817495,0.38883282806071806,-0.04942600000000008,0.21799599999999986,-0.8482620000000001,0.015055999999999958,-0.0404230000000001,-0.913331,0.06448200000000004,0.25841899999999995,0.06506899999999993,0.0,0.9896277877930655,single,-0.8482620000000001
93,0.775,quasi,0.07176287051481879,-0.10944437777511341,0.034081363254524155,0.781587335320745,0.2608607032307775,0.19566374599322814,-0.5192607704308114,-0.0692427697107941,0.7633505340213567,0.01104044161766238,0.005040201608076004,-0.008040321612864195,-0.5893430428298467,0.2144154250275146,0.0868872964162951,-4.629692182219949,-0.20258899297172095,2.5020921720087217,0.734529603525971,0.8208397479427403,-0.5616933146960095,-0.05435100000000004,0.21833099999999983,-0.842185,0.014549999999999952,-0.039468999999999976,-0.913682,0.06890099999999999,0.2577999999999998,0.07149700000000003,0.0,0.9757363008338386,single,-0.842185
94,0.783333,quasi,0.06120244809792573,-0.09576383055323218,0.0799231969278845,0.5480346910284418,0.6366700979814637,0.1921073235946668,-0.523220928837162,-0.0876035041401541,0.8359534381375348,-0.0006000240009639748,-0.005640225609040045,0.0014400576023038802,-1.2673013820824623,1.6417313358791985,5.501240090406907,-0.4752380182828023,-2.2033762665738825,8.712697001821523,-1.3969117507052036,-1.2817025341553039,1.1376910134607179,-0.05922100000000008,0.218399,-0.835885,0.014034999999999909,-0.03871800000000003,-0.914336,0.07325599999999999,0.25711700000000004,0.07845100000000005,0.0,0.9902466615942487,single,-0.835885
95,0.791667,quasi,0.05075593952483177,-0.10091192704584656,0.06239500839932337,0.5638206816451332,0.5677664932992211,0.2975541558952415,-0.53191744660427,-0.11123110151186621,0.8560115190784674,-0.00455963522917953,-0.009599232061417969,0.005879529637628997,-1.2534807503112408,-0.6177221613408141,-2.1032143662780167,-1.0434986521607796,-2.8350848778152073,2.40677717073824,-0.4751153381588103,-0.4750427708636781,0.5326940287167126,-0.06407700000000005,0.2183130000000002,-0.829271,0.013573999999999975,-0.037956999999999796,-0.914807,0.07765100000000003,0.25627,0.08553600000000006,0.0,0.979758101870962,single,-0.829271
96,0.8,quasi,0.06852274090963469,-0.10356414256568253,0.08232329293171266,0.5430815519438663,0.34973581563499484,0.2918059010500456,-0.5109804392175646,-0.13152526101046483,0.8768750750029941,0.015480619224774415,0.007680307212269494,-0.011280451218049131,2.1321014502343507,-0.31827859352405546,2.391489803478844,2.512541388060153,-2.435396555694051,2.5037268600175957,2.404926731543725,2.073627657948805,-2.059280073884322,-0.06890600000000002,0.21807999999999983,-0.82265,0.013132000000000033,-0.03703000000000012,-0.9155869999999999,0.08203800000000006,0.25510999999999995,0.09293699999999994,0.0,0.965605020144242,single,-0.82265
97,0.808333,quasi,0.05088203528140932,-0.094683787351513,0.07968318732749358,0.5851419008943711,0.17772367654471072,0.2719720503434699,-0.5258610344413821,-0.16416656666264567,0.8772350894035855,-0.0045601824072942325,-0.014760590423601864,0.009360374414976886,-2.1169693541612298,1.0656852531104768,-0.31682534552011343,-1.7857428565723745,-3.917113362796249,0.043203456209218324,-2.4049923955440815,-2.6930154369220642,2.47699815588938,-0.073712,0.21750100000000017,-0.816004,0.01267000000000007,-0.03636399999999984,-0.9161729999999999,0.08638200000000007,0.253865,0.10016899999999995,0.0,0.9698943110567271,single,-0.816004
98,0.816667,quasi,0.05291576673866347,-0.11591072714180381,0.0884329253659819,0.508359109494999,0.4524741932772074,0.24078075261351276,-0.5340772738180884,-0.19498440124789718,0.8780897528197666,0.005279577633781215,0.0059995200383829005,0.00803935685145237,0.2440282526102871,-2.547029012513876,1.0498845738526819,-0.9858698556163048,-3.6978443226843374,0.10255140582926761,1.1806767507889817,2.4910139743202073,-0.15850942686879121,-0.07860400000000001,0.21684199999999998,-0.809423,0.012272999999999978,-0.03534800000000016,-0.9168430000000001,0.09087699999999999,0.25219000000000014,0.10742000000000007,0.0,0.9811070678069023,single,-0.809423
99,0.825,quasi,0.043921756870272506,-0.09216368654747498,0.07176287051481973,0.4677610586491056,0.08463861292418043,0.27207889728239704,-0.5442217688707545,-0.20748829953199416,0.8717148685947542,0.006720268810759212,0.004800192007685152,0.007320292811712362,-1.0793243571812123,2.849758861673953,-2.0004866016035416,-1.2173881018440065,-1.5005278152042596,-0.7650167076698046,0.17288985683163452,-0.14392512068855867,-0.08629113641425826,-0.08350499999999994,0.215881,-0.802757,0.011963000000000057,-0.034540000000000015,-0.9173800000000001,0.095468,0.250421,0.11462300000000003,0.0,0.9816068745444335,single,-0.802757
100,0.833333,quasi,0.0567622704908262,-0.08676347053882469,0.08724348973957988,0.6096960109796689,0.026235185123671602,0.1896521613173991,-0.5676227049081954,-0.27433097323892963,0.8784351374054917,0.002160086403451628,-0.004320172806903256,0.004560182407295837,1.5409232713972931,0.6480518431117563,1.8577486169158859,-2.8082246534790447,-8.021441702500324,0.8064645158691321,-0.547243778628053,-1.0944875572528945,-0.3312264975898852,-0.08870800000000001,0.214318,-0.796164,0.011507999999999963,-0.03385299999999991,-0.9180689999999999,0.10021599999999997,0.24817099999999992,0.12190499999999993,0.0,0.9889288751525405,single,-0.796164
101,0.841667,quasi,0.03695704343652179,-0.10703143748498753,0.07415406767458636,0.4270152292790234,0.2976599432257315,0.16372513514612538,-0.5871130309575233,-0.3138948884089191,0.8508519318454442,0.0008399328053730732,-0.012718982481420772,-0.0039596832253417395,-2.3764371315459876,-2.431961476621393,-1.5706049993992577,-2.338652033756627,-4.747290037195725,-3.309719889614513,-0.15840575930868067,-1.0077765388189885,-1.0223020917491614,-0.09390900000000002,0.21259399999999995,-0.7896909999999999,0.011206999999999967,-0.03306700000000018,-0.91872,0.10511599999999999,0.24566100000000013,0.12902900000000006,0.0,0.9777540831633407,single,-0.7896909999999999
102,0.85,quasi,0.04848193927756674,-0.10536421456860248,0.09468378735149968,0.49602531275735345,0.048421256597912896,0.1461233794896711,-0.5805832233289395,-0.3235329413176595,0.8337933517340782,-0.00024000960037759599,-0.008280331213233572,0.006000240009600611,1.383042822638312,0.20007475295632574,2.4636649078259336,0.7836082597604529,-1.156612613553397,-2.047111497823847,-0.12959827262098633,0.5326594585608113,1.1952385977370024,-0.09915099999999999,0.21077600000000007,-0.783532,0.01080100000000006,-0.0322579999999999,-0.919459,0.10995200000000005,0.24303399999999997,0.13592700000000002,0.0,0.9829523242231011,single,-0.783532
103,0.858333,quasi,0.04536181447257745,-0.10308412336492734,0.08220328813153052,0.26824612999986414,0.4929703316855152,0.20525378685766357,-0.6163446537861524,-0.3373334933397198,0.8480739229569135,-0.005640225609026647,-0.01008040321612536,0.009600384015360184,-0.3744299537968654,0.2736218893165888,-1.4977198151889004,-4.291543316598196,-1.6561324879467494,1.7137370962240808,-0.6480518431116079,-0.21601728103825532,0.4320345620736299,-0.10466500000000001,0.20882400000000012,-0.77715,0.010376000000000052,-0.03148299999999993,-0.9200640000000001,0.11504100000000006,0.24030700000000005,0.1429140000000001,0.0,0.9749670191345956,single,-0.77715
104,0.866667,quasi,0.04907607391408628,-0.10031197504200429,0.09587233021358275,0.5664596257432959,0.31134126190597305,0.10871978443472587,-0.628629709623233,-0.33645308375330507,0.8225341972642235,-0.0017998560115175582,-0.009719222462202809,0.003959683225342625,0.44567547894274634,0.3326311882557076,1.6401538375392741,-1.4740887733478012,0.10564069911383801,-3.0645219213691113,0.4608074871021251,0.04333822341283346,-0.6768299484062383,-0.110313,0.20685600000000015,-0.7710940000000001,0.009952000000000072,-0.030727999999999867,-0.92083,0.12026500000000007,0.23758400000000002,0.14973599999999998,0.0,0.9822531803962697,single,-0.7710940000000001
105,0.875,quasi,0.021840873634947165,-0.09372374894994809,0.05808232329292295,0.35385652999763784,0.3943857250972778,0.2034127400129031,-0.6395055802231963,-0.351974078963166,0.7862714508580313,0.0003600144005730508,-0.003000120004819834,0.002760110404415595,-3.2683547676873874,0.7906187557969724,-4.534982229768349,-1.3051566782627224,-1.8625939289404632,-4.351703636888522,0.25919481724356175,0.8063245478678683,-0.14395449669111066,-0.11582399999999993,0.204704,-0.765026,0.009773000000000032,-0.02997200000000011,-0.921291,0.12559699999999996,0.2346760000000001,0.156265,0.0,0.9931791700047853,single,-0.765026
106,0.883333,quasi,0.03252130085203649,-0.07476299051962529,0.1165246609864456,0.5088909935504162,0.7694140478608239,0.20160081001524296,-0.6687867514700621,-0.36481459258369364,0.7658706348253896,0.0006000240009639668,-0.005280211208440274,0.0037201488059526123,1.2817025341520802,2.2753820269198033,7.013361057664995,-3.513881104868076,-1.5409232713941645,-2.4481958517510582,0.02880230413907536,-0.273621889310024,0.11520921655310375,-0.121668,0.2022870000000001,-0.759615,0.009507000000000043,-0.029393000000000002,-0.922231,0.13117500000000004,0.2316800000000001,0.16261599999999998,0.0,0.9891884621371039,single,-0.759615
107,0.891667,quasi,0.034677225821932486,-0.09179265658746208,0.08783297336212612,0.7710244394924141,0.3517647676388823,0.07366342586106576,-0.6713462922966221,-0.3666906647468427,0.7538996880249635,0.00011999040077138965,-0.0034797216222770488,0.001559875209983105,0.2586903011634276,-2.0433964564239124,-3.442727096750617,-0.30712032956084523,-0.22511065072582997,-1.4363987041548074,-0.057599424069184044,0.21604146702222643,-0.2592120945487784,-0.127552,0.19999599999999984,-0.754064,0.009219000000000088,-0.028657000000000155,-0.9229499999999999,0.1367710000000001,0.228653,0.16888599999999998,0.0,0.9936412634606788,single,-0.754064
108,0.9,quasi,0.01896075843033611,-0.08148325933038442,0.051842073682945654,0.5377119750642414,0.5211840704683656,0.18640267207382882,-0.680427217088675,-0.40729629185166,0.7400696027841089,-0.000360014400586374,-0.0036001440057571543,0.0026401056042243,-1.8860515290527191,1.2371771579356319,-4.319080724730626,-1.0897545652289542,-4.872870167384751,-1.6596766159671845,-0.057602880278142525,-0.014451264068175332,0.12963283262224778,-0.13337999999999994,0.19728100000000004,-0.748329,0.00905800000000001,-0.028008000000000033,-0.92336,0.14243799999999995,0.22528900000000007,0.17503099999999994,0.0,0.9925351183621285,single,-0.748329
109,0.908333,quasi,0.022080883235338376,-0.09372374894994934,0.10176407056283196,0.7395765571052851,0.6489470005238772,0.22932667291216627,-0.7199087963518579,-0.3570142805712201,0.674786991479664,-0.0007200288011461112,-0.002040081603256197,0.0016800672026881377,0.37442995379842714,-1.4689175110482457,5.9908792607568415,-4.737979030743215,6.034082716961523,-7.834226725602484,-0.04320345620541707,0.18721497689919253,-0.11520921655300267,-0.139563,0.195087,-0.743554,0.008867999999999987,-0.027244000000000046,-0.9241940000000001,0.14843099999999998,0.22233100000000006,0.18064000000000002,0.0,0.9954347325051073,single,-0.743554
110,0.916667,quasi,-0.016558675305985295,-0.09395248380129256,0.021118310535151504,0.38382305193370003,1.2875359967430386,0.4094258653261197,-0.6936645068394519,-0.386489080873544,0.7033837293016513,-0.0004799616030722306,-0.0035997120230350688,0.0035997120230375663,-4.636376114869615,-0.027445986482268373,-9.676717065956304,3.1490628164633767,-3.536693100830776,3.431334031915889,0.028805759308120803,-0.18714067911913362,0.2303389513258236,-0.14520599999999995,0.19264899999999985,-0.737868,0.009002000000000066,-0.026491000000000042,-0.92434,0.154208,0.2191399999999999,0.18647200000000008,0.0,0.991477771477221,single,-0.737868
111,0.925,quasi,0.0010800432017324755,-0.0812432497299935,0.062042481699266475,0.7501937662451105,0.47912062321948484,0.2305366802366026,-0.6968678747149865,-0.36601464058562155,0.6770670826833055,0.011280451218053295,0.00552022080883119,-0.010320412816512114,2.1167308901617297,1.5251690953196941,4.911096983573119,-0.38441952184501776,2.4570311157953153,-3.158123919158245,1.411305990774688,1.0944357172526367,-1.6704818000179553,-0.151022,0.1902759999999999,-0.7327429999999999,0.009087000000000067,-0.025768000000000013,-0.924943,0.16010900000000006,0.2160439999999999,0.19220000000000004,0.0,0.9729079584172173,single,-0.7327429999999999
112,0.933333,quasi,0.009120364814588465,-0.0775231009240286,0.07632305292211397,0.5368086547078764,-0.05354737596903368,0.25966934914115464,-0.7041881675267057,-0.36181447257890526,0.684987399495985,0.0010800432017191667,0.000840033601354894,-0.002160086403456653,0.9648771886302727,0.4464357141443577,1.7137370962255642,-0.8784702762173605,0.5040403224188572,0.9504760365630066,-1.2240979258771416,-0.5616449306943884,0.9792783407002922,-0.15696599999999994,0.18790699999999982,-0.727671,0.009020000000000028,-0.025115,-0.925597,0.16598599999999997,0.21302199999999982,0.19792600000000005,0.0,0.9957383743844425,single,-0.727671
113,0.941667,quasi,-0.14026877849771618,-0.19654427645788528,0.25965922726182367,0.9662112565143666,2.739017256849696,1.848817676547766,-0.7077033837292913,-0.3562514998800068,0.6610271178305669,-0.005159587233023149,-0.004079673626120621,0.006119510439165112,-17.92526317642231,-14.281398552178517,21.998581034282253,-0.421792200934201,0.6675033236019193,-2.8750037995461843,-0.7486957565085515,-0.5903176418857065,0.9934721433431367,-0.16169499999999992,0.18657599999999985,-0.724326,0.010145999999999988,-0.02351100000000006,-0.92771,0.1718409999999999,0.2100869999999999,0.203384,0.0,0.985026552637911,single,-0.724326
114,0.95,quasi,0.006960278411136808,-0.06480259210368293,0.044881795271809535,-0.12182415221984175,0.15299108646794363,0.156067084276518,-0.7207488299532128,-0.32509300372013383,0.6439457578303236,0.0007200288011594343,-0.0012000480019279496,0.0,17.66819355680479,15.809634507884743,-25.774322811714402,-1.5655161675172893,3.7391691059490304,-2.0498451938369677,0.7055821473878119,0.34556889765903015,-0.7343706275249212,-0.167759,0.184407,-0.7193339999999999,0.010094000000000047,-0.02298100000000014,-0.928084,0.17785300000000004,0.20738800000000013,0.2087500000000001,0.0,0.9976675259430821,single,-0.7193339999999999
115,0.958333,quasi,0.016440657626311434,-0.06144245769831583,0.10884435377414944,1.0833514993651652,0.13066562422491107,0.24000273920181173,-0.7087483499339904,-0.32185287411497204,0.6443057722308814,0.0012000480019146104,-0.00204008160325617,0.00048001920076767607,1.1376910134614888,0.4032322579343679,7.67581405284287,1.4401152069149563,0.3888311058636477,0.04320345620518081,0.05760460827495189,-0.10080806448196529,0.057604608276451946,-0.173802,0.18223699999999998,-0.714872,0.009966999999999948,-0.022486000000000006,-0.928987,0.18376899999999996,0.204723,0.21411500000000006,0.0,0.9959749166371817,single,-0.714872
116,0.966667,quasi,-0.02171826253899512,-0.012359011279093286,-0.04055675545955686,0.09954394727939694,-0.4479804775613472,0.11048744802509725,-0.7065034797216174,-0.3058555315574626,0.6192704583633294,0.0004799616030722306,-0.0009599232061444612,0.0,-4.5787041235068715,5.8895424069141065,-17.92669897212685,0.2693628764546371,1.919527544697544,-3.003997344318669,-0.08640345558463815,0.12960863896228705,-0.05759769627641857,-0.17950900000000003,0.17979100000000003,-0.709373,0.010151999999999939,-0.02239100000000005,-0.9286490000000001,0.18966099999999997,0.20218200000000008,0.21927600000000003,0.0,0.9982112887149013,single,-0.709373
117,0.975,quasi,0.06804272170886708,-0.11004440177607885,0.2674906996279786,1.2992654900375293,-0.8478482123830359,-0.07846188190484181,-0.7113884555382334,-0.29125165006602677,0.6155046201848123,-0.0001200048001954596,-0.0012000480019279496,0.0020400816032645243,10.77174897970275,-11.722715768269106,36.96717329743649,-0.5862205468157926,1.7525358804075308,-0.45191865816837756,-0.07199884834605733,-0.028816128139144432,0.24481958517515215,-0.18600400000000006,0.1782809999999999,-0.7064729999999999,0.009583999999999926,-0.02148400000000006,-0.9308609999999999,0.19558799999999998,0.19976499999999997,0.22438800000000003,0.0,0.9960501584747052,single,-0.7064729999999999
118,0.983333,quasi,-0.03600144005761151,-0.08268330733228571,-0.02148085923436079,0.3644610393550352,1.590600934677596,0.3660623119533233,-0.7065882635305388,-0.2786511460458329,0.594623784951394,0.0009600384015370176,0.000240009600390916,-0.0008400336013440577,-12.485798843931136,3.283462671762034,-34.677974182447876,0.576046082766654,1.5121209672619473,-2.5058004600285897,0.12961036862264164,0.1728138248312564,-0.3456276496590147,-0.19159199999999998,0.17664799999999992,-0.701339,0.009892000000000012,-0.02079300000000006,-0.930689,0.201484,0.19744099999999998,0.22934999999999994,0.0,0.9978365826980262,single,-0.701339
119,0.991667,quasi,-0.012838972882165688,-0.02999760019199483,-0.08291336693064569,0.19913982033890182,-0.988066188031247,-0.3340779391362635,-0.6930645548356175,-0.2703383729301744,0.5776337892968577,0.0,-0.0005999520038436266,0.0002399808015361185,2.7792737191559818,6.321779114505781,-7.3713112186567376,1.6227152261724793,0.9974529776408185,-2.0386363876333564,-0.11519539255303853,-0.10078732952178396,0.12959136103673893,-0.19726100000000002,0.17464499999999994,-0.6958340000000001,0.00999899999999998,-0.02054800000000001,-0.929996,0.20726,0.19519299999999995,0.23416199999999998,0.0,0.9989230531943113,single,-0.6958340000000001
120,1.0,quasi,-0.05076203048121318,-0.09060362414497276,0.03456138245529266,1.0017037822846835,0.9479303839359368,0.2240649861536284,-0.705748229929184,-0.26293051722066757,0.5777031081243275,0.000360014400586374,0.0019200768030740352,-0.0008400336013440577,-4.550948949843673,-7.273013794909118,14.09753382766565,-1.522101895303785,0.8889782442705838,0.008318592040050879,0.043203456208613045,0.30241555345225624,-0.12960691262212548,-0.20271899999999998,0.17320900000000017,-0.691308,0.010425000000000018,-0.019776999999999934,-0.930291,0.213144,0.1929860000000001,0.23898299999999995,0.0,0.9964558492046285,single,-0.691308
121,1.008333,quasi,-0.15624624984999846,-0.07284291371655223,-0.13860554422177218,-0.3992530084604627,2.516992533598324,0.8344347556952875,-0.7056282251290111,-0.2358094323772966,0.5553822152886125,0.0006000240009506516,0.00312012480500201,-0.0022800912036487816,-12.6586126687611,2.131370506230733,-20.7808624357454,0.014401152066821658,3.2546603676192514,-2.6786142848572094,0.028802304135879007,0.144011520692186,-0.17281382482956162,-0.20729699999999995,0.1718510000000002,-0.6855249999999999,0.011731999999999965,-0.019143999999999828,-0.929155,0.21902899999999992,0.19099500000000003,0.24363,0.0,0.9934820709881081,single,-0.6855249999999999
122,1.016667,quasi,0.039356851451882946,-0.044276457883349996,0.09491240700743701,0.6155826750350403,-1.1785585800217855,-0.2703836124840234,-0.6876649868010557,-0.24094072474201997,0.5394768418526477,-0.000599952003830297,0.0032397408207342263,-0.0020398368130544824,23.470494516664257,3.427700483945526,28.019912554500532,2.1554161660613507,-0.615705827300616,-1.908492132945135,-0.14398560172557467,0.01435277366597256,0.028828220613666588,-0.213356,0.17021200000000003,-0.68182,0.011399000000000048,-0.018747999999999987,-0.929963,0.22475500000000004,0.18896000000000002,0.248143,0.0,0.9935414145820544,single,-0.68182
123,1.025,quasi,-0.05160206408256875,-0.06096243849753481,0.018240729629190253,0.3777705691022913,0.5083849140881316,0.13148250722281926,-0.6965078603144227,-0.21168846753871534,0.5280211208448404,0.003120124804988687,0.0092403696147706,-0.0014400576023038802,-10.91550648439368,-2.002397769612981,-9.200969324162662,-1.061187269094812,3.5104112808478214,-1.374741510597304,0.4464270741412478,0.7201042594547497,0.07197638434544675,-0.21872999999999998,0.16895599999999988,-0.6775720000000001,0.01185500000000006,-0.01816300000000015,-0.930127,0.23058500000000004,0.18711900000000004,0.252555,0.0,0.9835688832365206,single,-0.6775720000000001
124,1.033333,quasi,-0.04872194887794304,-0.053522140885654705,0.029881195247802635,0.27349220438317023,0.5745519602132516,0.17831666770337526,-0.7082683307332125,-0.21828873154925996,0.5241809672386784,0.0002400096003775896,0.006240249609977207,-0.004680187207488735,0.34562764966106535,0.8928714282827286,1.3969117507034896,-1.4113129027708626,-0.792063363799892,-0.4608368662140898,-0.34562764965931203,-0.36002880172727,-0.38883110586641045,-0.22422600000000004,0.16758300000000004,-0.673453,0.012262999999999913,-0.017665000000000042,-0.930415,0.23648899999999995,0.18524800000000008,0.256962,0.0,0.9869933273427919,single,-0.673453
125,1.041667,quasi,-0.0069594432445408685,-0.09587233021358403,0.14062874970003408,1.0885378795153788,0.30262109806200677,-0.02225509781303275,-0.6790256779457736,-0.18670506359490285,0.49532037437006227,-0.0007199424046017042,0.0037197024238198773,-0.0013198944084470041,5.011099788025313,-5.081616190056411,13.288643442792603,3.508837627482533,3.789736975564879,-3.46299410470562,-0.11518502579545381,-0.30244146702152364,0.403202879654643,-0.229827,0.16682600000000014,-0.670497,0.012314999999999965,-0.016834999999999933,-0.931598,0.24214199999999997,0.18366100000000007,0.261101,0.0,0.9933132335423771,single,-0.670497
126,1.05,quasi,0.004080163206525609,-0.08556342253689561,0.15180607224288234,0.6154064706721936,-0.829279483139955,-0.15108152293369315,-0.6854674186967419,-0.20136805472219357,0.4650186007440237,0.0,0.0028801152046110143,-0.001680067202688093,1.3248057663586084,1.2371184059388263,1.3413323584361048,-0.7730398117086461,-1.7596293204476734,-3.636358289456145,0.08639654441397955,-0.1007544964849212,-0.04322246420749821,-0.23557300000000003,0.16586100000000004,-0.6678869999999999,0.012280999999999986,-0.016097999999999946,-0.932877,0.24785400000000002,0.18195899999999998,0.26499000000000006,0.0,0.9944428001162207,single,-0.6678869999999999
127,1.058333,quasi,-0.029401176047048238,-0.08052322092882183,0.09372374894996266,0.5230881961201473,0.0886945907700679,0.06702620496875379,-0.6865474618984794,-0.1966878675146959,0.4976599063962552,0.0004800192007685152,0.0022800912036471162,-0.0025201008040322066,-4.01792142728599,0.6048483869043353,-6.970157601454483,-0.129610368623245,0.5616449306969522,3.917113362802328,0.057604608276553414,-0.07200576034608226,-0.10080806448387392,-0.24104899999999996,0.16489299999999996,-0.664521,0.012530000000000041,-0.015408000000000088,-0.933679,0.253579,0.18030100000000004,0.269158,0.0,0.9942796313268241,single,-0.664521
128,1.066667,quasi,-0.0533957283417357,-0.04499640028797832,0.024958003359729346,0.14382018281798054,-0.23562321076183912,0.033833439905352584,-0.6811855051595872,-0.19594432445404164,0.450803935685143,0.0004799616030722306,0.0007199424046016851,-0.0004799616030722306,-2.8791159460867863,4.262877446705453,-8.251229372478136,0.6433833380000156,0.08921802983612513,-5.6222667039971,-6.911170660497366e-06,-0.18720287965507793,0.2447971203455676,-0.24628099999999997,0.16363499999999997,-0.660972,0.012979000000000074,-0.015027000000000124,-0.933891,0.25926000000000005,0.1786620000000001,0.272919,0.0,0.9983508896785851,single,-0.660972
129,1.075,quasi,-0.05904236169446075,-0.0349213968558795,0.010080403216125496,0.1186902797345829,-0.0937242675973744,0.04005828009652392,-0.6836673466938683,-0.20184807392295412,0.4304572182887363,0.0004800192007685152,0.0018000720028919243,-0.0019200768030715625,-0.677623107251302,1.2090487738028217,-1.7853834325697813,-0.29783289742963237,-0.7084782754005199,-2.441703755719055,6.9120000341516875e-06,0.12962073662429488,-0.17282073682939458,-0.251486,0.16224400000000005,-0.657469,0.013475000000000015,-0.014720999999999984,-0.933991,0.264961,0.17696500000000004,0.27652200000000005,0.0,0.995541122282957,single,-0.657469
130,1.083333,quasi,-0.07296291851674575,-0.05088203528140796,0.0039601584063434754,-0.035156053622324775,0.6615229653816913,0.23783630607921286,-0.6841473658946319,-0.20412816512662244,0.4064562582503264,0.000720028801146092,0.0016800672026830968,-0.0025201008040321394,-1.6705336400197712,-1.9153532251923893,-0.7344587555240506,-0.05760460827595851,-0.2736218893157658,-2.8802304138256907,0.028802304137474213,-0.014401152071141897,-0.07200576034568179,-0.256579,0.16096699999999986,-0.654115,0.014089000000000018,-0.014283000000000046,-0.934045,0.270668,0.1752499999999999,0.27993,0.0,0.9948113437453274,single,-0.654115
131,1.091667,quasi,-0.060115190784735206,-0.0353971682265613,0.0025197984161192868,-0.09137933841298476,-0.4071949781342427,-0.0500899046891076,-0.6911447084233378,-0.2006239500839846,0.39416846652268356,0.00011999040077139125,0.001319894408445339,0.0,1.5416039995213322,1.8580354037493347,-0.17282937247710775,-0.8396139343299744,0.4204721673431617,-1.4744170539528512,-0.07199884813711449,-0.04321727792629765,0.30238790545142635,-0.261838,0.15959000000000012,-0.650851,0.01459100000000002,-0.013976999999999906,-0.934066,0.27642900000000004,0.17356700000000003,0.283215,0.0,0.9977911045082046,single,-0.650851
132,1.1,quasi,-0.06864274570982923,-0.035161406456242834,0.007440297611905125,0.0038758090321912423,0.5981160429363843,0.1411534718509489,-0.6969878795151593,-0.18732749309973817,0.3597743909756328,0.0001200048001954564,0.0006000240009639587,-0.0012000480019204232,-1.0233475249122612,0.02829254413998064,0.5904835228352037,-0.7012085793617459,1.5956386636560886,-4.127454163812572,1.728000007819021e-06,-0.08638790441394067,-0.14401152069127593,-0.2670739999999999,0.15832199999999985,-0.647915,0.015164000000000066,-0.013678999999999997,-0.9341379999999999,0.282238,0.17200099999999985,0.2862229999999999,0.0,0.9977549157645622,single,-0.647915
133,1.108333,quasi,-0.08004320172806663,-0.044521780871249805,0.022080883235338376,0.1909579384433888,0.5154557762793872,0.23167854919747413,-0.6945877835113486,-0.1622464898595716,0.3741749669986845,-0.0007200288011594343,0.002760110404402308,-0.0024000960038400776,-1.3681094465663632,-1.1232898613953026,1.7569405524341035,0.2880230413789342,3.009840782451314,1.7281382482961547,-0.10080806448516721,0.259220737242094,-0.14401152069118747,-0.27219499999999996,0.15734100000000018,-0.644981,0.015824999999999978,-0.013284999999999991,-0.934342,0.28801999999999994,0.17062600000000017,0.289361,0.0,0.993786861647677,single,-0.644981
134,1.116667,quasi,-0.08147348212142788,-0.0430765538756894,0.0011999040076739157,0.14591941450754525,0.5340120629767844,0.1827184150784901,-0.6670266378689631,-0.14626829853612572,0.3766498680105566,-0.00011999040075806644,0.0023998080153744745,-0.0014398848092150266,-0.17161991760994016,0.17341336639793553,-2.50551706595444,3.3070729112533397,1.9172295804470556,0.29696436427550627,0.07199884814031238,-0.04323282805709514,0.11521612606492004,-0.27707499999999996,0.1564810000000001,-0.641852,0.016503000000000045,-0.012905999999999862,-0.934364,0.293578,0.16938699999999995,0.292512,0.0,0.9953313264818884,single,-0.641852
135,1.125,quasi,-0.13104524180967142,-0.030481219248767406,-0.07632305292211397,-0.006188567860778915,1.1048195385225905,0.4395498351475956,-0.6609864394575925,-0.17748709948398195,0.305412216488658,-0.0006000240009639748,0.002880115204611091,-0.0019200768030723952,-5.948849116553941,1.5115006152552632,-9.303126956652898,0.7248528034766178,-3.746405969981581,-8.54886013703339,-0.057606336278160655,0.05763916827512552,-0.057625344276655825,-0.28149100000000005,0.15525600000000006,-0.638671,0.017589999999999995,-0.012627999999999862,-0.933744,0.29908100000000004,0.16788399999999992,0.29507300000000003,0.0,0.994144853326806,single,-0.638671
136,1.133333,quasi,-0.11676467058682474,-0.038041521660854866,-0.038281531261259105,-0.22360109652958032,0.8471410537438774,0.35418941334598203,-0.6757470298812011,-0.17484699387976177,0.2749309972398973,-0.0016800672026964648,0.003960158406330258,-0.00048001920076768247,1.7137370962254659,-0.9072725803537176,4.565165205910862,-1.7713417045012227,0.316825345520245,-3.6578926255563444,-0.12961036862264488,0.12961036862104602,0.17281382482956031,-0.28614900000000004,0.15411599999999992,-0.636061,0.018548999999999927,-0.012278000000000011,-0.933429,0.30469799999999997,0.16639399999999993,0.29736799999999997,0.0,0.9927858359146918,single,-0.636061
137,1.141667,quasi,-0.12970962323014043,-0.0417566594672441,-0.02543796496280158,-0.20101337689526716,0.38650861663071495,0.35723613636262214,-0.6747060235181122,-0.1763858891288516,0.2566594672426189,-0.0007199424046016851,0.003719702423793135,-0.0019198464122872573,-1.5532700555934233,-0.4457808742967609,1.541104667441496,0.12491077070901072,-0.18465265767816233,-2.1924082070168276,0.11520575931062783,-0.028852409711677546,-0.1727654441468159,-0.29069100000000003,0.15299400000000007,-0.63371,0.019623999999999975,-0.011899000000000104,-0.933233,0.310315,0.16489300000000018,0.299523,0.0,0.9929210183103845,single,-0.63371
138,1.15,quasi,-0.11112444497779801,-0.05844233769352342,0.008520340813637813,0.08616846209320028,0.17983874111352877,0.16694071960858203,-0.6888275531021265,-0.17988719548783785,0.22452898115924314,-0.0020400816032695203,0.0045601824072942325,-0.003600144005760533,2.230310602705219,-2.0023614816128017,4.075159699560746,-1.6946513361351838,-0.42017357002115674,-3.8558125625076274,-0.15842304076177216,0.100861632485432,-0.20164377696787367,-0.295505,0.15198200000000006,-0.63191,0.020532999999999912,-0.011373999999999995,-0.933334,0.31603799999999993,0.16335600000000006,0.301424,0.0,0.989737036192913,single,-0.63191
139,1.158333,quasi,-0.1350054002160114,-0.0357614304572068,-0.0612024480979241,-0.08018574468147399,0.16458683977379363,0.2102190127293253,-0.6840273610944364,-0.16224648985959392,0.1927277091083605,-0.0022800912036470555,0.0062402496100038545,-0.0028801152046076836,-2.865829261756027,2.72181774106759,-8.36706935216137,0.5760460827661135,2.116969354163402,-3.8163052983177805,-0.028802304137469224,0.20161612897030992,0.08640691241483703,-0.30008,0.15092799999999995,-0.629794,0.021638999999999964,-0.011023999999999923,-0.932848,0.321719,0.16195199999999987,0.30305400000000005,0.0,0.9879313773818318,single,-0.629794
140,1.166667,quasi,-0.3983681305495624,0.27309815214782673,-1.337293016558696,-8.930143608368297,-8.315095315669668,-0.08512239483612355,-0.704703623710112,-0.18946484281257825,0.16750659947204644,-0.002879769618420139,-0.003479721622277095,0.013198944084473372,-31.60099956006191,37.060185097796904,-153.1186187257975,-2.480953037638104,-3.265941079071856,-3.0262910530735008,-0.07195565332050571,-1.1663032436142469,1.9293327680683177,-0.302633,0.147073,-0.617253,0.02493500000000004,-0.013328999999999924,-0.921593,0.327568,0.16040199999999993,0.30433999999999994,0.0,0.9767493333089151,single,-0.617253
141,1.175,quasi,-0.09084363374534915,0.06468258730349907,-0.441137645505814,-4.405340900262471,-2.3396982053819033,-0.371749992707524,-0.7105484219368662,-0.17832713308530546,0.13284531381255313,-0.0039601584063434754,0.016440657626311216,-0.012000480019200902,36.904415793136664,-25.010868216047523,107.54294624419373,-0.7014038433642276,1.3365786304179286,-4.159520659965523,-0.12965184062442311,2.3905411314758145,-3.0240518545150405,-0.307797,0.14504800000000007,-0.6124700000000001,0.025658999999999987,-0.013730999999999938,-0.9180170000000001,0.333456,0.158779,0.305547,0.0,0.9654396824185053,single,-0.6124700000000001
142,1.183333,quasi,0.06372254890195045,0.0646825873035008,-0.04620184807393295,-0.5745640469276582,-1.3006023732313092,-0.6769771539907746,-0.7128285131405322,-0.19020760830435426,0.1023640945637826,-0.005640225609026723,0.007080283211332268,-0.014040561622464913,18.54868386503072,2.065097429699998e-13,47.39419145948454,-0.27362188931549664,-1.425714054848064,-3.6578926255575186,-0.2016161289671502,-1.1232898613919398,-0.24481958517509053,-0.31426799999999994,0.14292399999999983,-0.611232,0.02508100000000002,-0.014210999999999974,-0.9177489999999999,0.33934899999999996,0.1571349999999998,0.30651699999999993,0.0,0.9721571909369549,single,-0.611232
143,1.191667,quasi,-0.14686825053995603,-0.02783777297816273,-0.03251739860810033,0.3097027264156971,0.7057158418265185,-0.1201324710639445,-0.7167026637868923,-0.16342692584591467,0.06275497960163087,-0.003959683225335912,0.011519078473706892,-0.006839452843772625,-25.268874423074738,-11.101555109390787,1.642002575693846,-0.46486088869211273,3.2134248210270444,-4.752713578371902,0.20164895412656567,0.532612822459154,0.8640639283288016,-0.31901699999999994,0.14179399999999998,-0.610438,0.026272000000000073,-0.01388300000000009,-0.917535,0.345289,0.15567700000000007,0.30709699999999995,0.0,0.9767175331030566,single,-0.610438
144,1.2,quasi,-0.0876035041401541,-0.019920796831886717,-0.04788191527661609,-0.08758351041410527,-0.2612449742526427,-0.1247046465131343,-0.7233889355574329,-0.17304692187686985,0.047041881675267856,-0.007920316812673838,0.006240249609977374,-0.007800312012480044,7.112054050138303,0.9500751405587529,-1.843815752852022,-0.8023847078531932,-1.1544457015426932,-1.8856471770506613,-0.4752950422822468,-0.6334848030396695,-0.1153077125533935,-0.3243150000000001,0.14051800000000014,-0.609647,0.02693599999999996,-0.013665000000000038,-0.917201,0.35125100000000004,0.15418300000000018,0.307554,0.0,0.9787529739924234,single,-0.609647
145,1.208333,quasi,-0.22656906276250663,-0.10752430097203795,-0.17040681627264515,-0.5814076673153076,-1.5118429744319406,0.7094987212312105,-0.7218288731549126,-0.1676467058682429,0.0013200528021100508,-0.007320292811709669,0.004560182407294111,-0.000960038401536172,-16.676534096045856,-10.512841010458382,-14.703576262573732,0.18721497690150496,0.6480518431089465,-5.486838938336374,0.07200576034611288,-0.2016161289671467,0.8208656679399678,-0.32844200000000007,0.14001700000000006,-0.6082160000000001,0.028762999999999983,-0.012731000000000048,-0.915789,0.35720500000000005,0.1527480000000001,0.3075729999999999,0.0,0.9855370565304342,single,-0.6082160000000001
146,1.216667,quasi,-0.09191264698824801,-0.05135589152866343,0.039596832253413455,0.37465192860594776,0.14338639551651106,-0.0011098633638382078,-0.7213822894168558,-0.15658747300214956,-0.03743700503959502,-0.004919606431493825,0.010199184065288502,-0.004079673626109906,16.157477294727766,6.739669959608302,25.19842194937156,0.05358576170588514,1.3270017837885226,-4.650474903012456,0.28805932088023634,0.6766260688738299,-0.37432628084638747,-0.333688,0.13914000000000004,-0.6088579999999999,0.02948799999999996,-0.012218000000000062,-0.916153,0.36317599999999994,0.1513580000000001,0.3072950000000001,0.0,0.9799397006271642,single,-0.6088579999999999
147,1.225,quasi,-0.16464658586343645,0.015480619224747564,-0.1136445457818197,-0.06144322488440285,-0.12184661158540025,-0.13642919145419902,-0.7253090123604876,-0.1495259810392486,-0.07452298091923339,-0.009000360014392765,0.007080283211332079,-0.008880355214208135,-8.728421801894536,8.02070211849392,-18.38970095226575,-0.4712256022599021,0.8474129320653826,-4.450495125361541,-0.48971001834859823,-0.3742830737977161,-0.576104834765168,-0.33836,0.13776500000000014,-0.6085320000000001,0.030785000000000062,-0.012287999999999855,-0.9152800000000001,0.36914500000000006,0.150053,0.306748,0.0,0.9758478434668947,single,-0.6085320000000001
148,1.233333,quasi,-0.1599663986559378,-0.0730829233169165,0.03828153126124578,0.5666133791685002,0.9514869959344312,0.3003908583169618,-0.7283091323653001,-0.13020520820832984,-0.100564022560904,-0.006960278411136808,0.009360374414979384,-0.0024000960038409107,0.5616449306970688,-10.628050227008865,18.231858519508805,-0.3600288017295766,2.3185854831295982,-3.125049999000463,0.24481958517412408,0.27362188931325154,0.7776622117325432,-0.34309600000000007,0.137289,-0.6096889999999999,0.03205999999999998,-0.011600999999999972,-0.915619,0.37515600000000004,0.14888999999999997,0.30593000000000004,0.0,0.9801517881034314,single,-0.6096889999999999
149,1.241667,quasi,-0.18394528437724922,-0.09191264698824557,-0.025197984161272124,-0.07305202710363701,-0.08745358508564541,0.36540056968817625,-0.7246220302375708,-0.1252699784017323,-0.1409887209023312,-0.007079433645312071,0.010319174466046297,-0.0011999040076789112,-2.877236107668733,-2.2593860896722973,-7.616932496102403,0.44241686197856395,0.5921802023755117,-4.850575754910833,-0.014297484302287226,0.11504680238383808,0.1440115186179494,-0.347602,0.137011,-0.610654,0.03353399999999995,-0.010748999999999898,-0.915419,0.381136,0.1477599999999999,0.30476499999999995,0.0,0.9790474403561334,single,-0.610654
150,1.25,quasi,-0.17412696507861566,-0.08868354734189991,0.015240609624397026,0.15771830428743827,0.17692171985136915,0.2363379325711874,-0.7223088923557004,-0.10992439697587006,-0.18240729629184924,-0.005760230409222182,0.009960398415916713,-0.001320052802112584,1.1782454456538634,0.38750745785979673,4.8528253672950346,0.2775876493304208,1.8415434328407982,-4.970427863856765,0.15831072075961847,-0.0430548482094789,-0.014418432069323635,-0.3521699999999999,0.13683400000000012,-0.612301,0.034936999999999996,-0.00992700000000002,-0.9155570000000001,0.3871069999999999,0.14676100000000014,0.3032560000000001,0.0,0.9806974145102925,single,-0.612301
151,1.258333,quasi,-0.14160566422656543,-0.024120964838581248,-0.0546021840873753,-0.22538543464122562,-0.029763796062734795,0.17838943344270855,-0.7331093243729854,-0.13644545781833387,-0.21900876035041855,-0.005400216008635803,0.007680307212296243,-0.0028801152046077604,3.9027122107344936,7.747819813190839,-8.381470504232924,-1.296103686221658,-3.182654607279977,-4.392351381083602,0.0432034562086142,-0.2736218893100313,-0.1872149768984988,-0.357099,0.13589799999999985,-0.613671,0.03607199999999999,-0.00966200000000006,-0.915126,0.393171,0.1455599999999999,0.30145500000000003,0.0,0.9836323052421521,single,-0.613671
152,1.266667,quasi,-0.11171106311495177,-0.00611951043916761,-0.04163666906647271,-0.41421434328064494,-0.44091078861390315,0.09373080107765745,-0.7273818094552394,-0.12035037197022527,-0.2727381809455186,-0.005519558435323991,0.010679145668347139,-0.0003599712023041729,3.587065168180157,2.1600017277913968,1.555737343520817,0.6872468103846748,1.9312558013089116,-6.4470147102351385,-0.014319945606933893,0.3598318281798504,0.3023930888293218,-0.36223,0.134946,-0.615597,0.03695700000000002,-0.00952200000000003,-0.914782,0.399187,0.14446800000000004,0.29918500000000003,0.0,0.9799556563261727,single,-0.615597
153,1.275,quasi,-0.08352334093364171,-0.09060362414497397,0.08112324492979912,0.28519685246415843,0.5342839301807405,0.25802610614256455,-0.7221888875555049,-0.10200408016320955,-0.3006120244809862,-0.0043201728069166365,0.008280331213260217,-0.0034801392055675714,3.382661968235968,-10.138499184664242,14.731778950710783,0.6231755549903485,2.201643082565209,-3.344995024057101,0.14393203269019147,-0.2878692493804085,-0.3744351377971232,-0.36755199999999993,0.13485100000000005,-0.618778,0.03761700000000001,-0.008697999999999873,-0.9154869999999999,0.40516899999999995,0.14354899999999993,0.2967089999999999,0.0,0.9833884957055323,single,-0.618778
154,1.283333,quasi,-0.09984399375974191,-0.008760350414015176,-0.005280211208440203,-0.2018861916516899,-0.015936644877931058,0.038802661179418364,-0.7374294971798757,-0.11184447377894115,-0.3211328453138083,-0.004680187207489568,0.009600384015343402,-0.0012000480019204232,-1.9585566813992465,9.821585711143328,-10.368829489768128,-1.8289463127769743,-1.1808944696665573,-2.4625970038187663,-0.04320345620699927,0.1584126727568897,0.27362188931322556,-0.372865,0.1339920000000001,-0.62141,0.038409999999999944,-0.008545000000000025,-0.9154530000000001,0.41127499999999995,0.14253700000000014,0.29404300000000005,0.0,0.9820872763450326,single,-0.62141
155,1.291667,quasi,-0.12323014158867526,-0.015358771298285145,-0.052555795536364025,-0.27984659128150907,-0.07723457164244146,-0.025058405885951877,-0.721022318214555,-0.08771298296136922,-0.38564914806816125,-0.005279577633781356,0.006239500839925843,-0.001439884809215065,-2.806113250412022,-0.7917471663391041,-5.672616310046163,1.968703979520164,2.8955472543283407,-7.741337023560615,-0.07192109746721859,-0.4032737191525826,-0.02877811462618746,-0.377847,0.13338899999999998,-0.624186,0.03939300000000001,-0.008365000000000178,-0.915027,0.41724,0.14175400000000016,0.290841,0.0,0.9861678134023126,single,-0.624186
156,1.3,quasi,-0.08832353294131118,-0.019680787231495276,0.010800432017284641,0.08999082689635282,0.08055988009393111,-0.13303339364285932,-0.7263890555622134,-0.08220328813152943,-0.4035761430457154,0.0008400336013415484,0.012720508820371975,-0.0034801392055683117,4.188960596107461,-0.5186626584915462,7.603051428494847,-0.6440342430887285,0.6611898271738501,-2.15132545032447,0.7343827235236766,0.7777520677362317,-0.24484032117523233,-0.38316400000000006,0.13286799999999999,-0.6276390000000001,0.04013599999999995,-0.008094999999999963,-0.915146,0.4233,0.14096299999999995,0.28750699999999996,0.0,0.9779754953397435,single,-0.6276390000000001
157,1.308333,quasi,-0.11244449777992142,-0.017520700828030818,-0.055682227289094464,-0.3325282004471911,-0.0782268063796283,-0.032303630099954427,-0.7314292571702888,-0.0879635185407538,-0.45853834153366113,0.0,0.005280211208440344,-0.005760230409216353,-2.894631565895892,0.25922073724522715,-7.978238246295417,-0.6048483869045285,-0.6912552993189032,-6.595727647659458,-0.10080806448356608,-0.8928714282889355,-0.27362188931334,-0.38832199999999994,0.13228099999999987,-0.630996,0.041073000000000026,-0.007905000000000051,-0.91473,0.42939499999999997,0.14018599999999992,0.28373400000000004,0.0,0.9869764225800324,single,-0.630996
158,1.316667,quasi,-0.1387089032877281,-0.02999760019199443,-0.04427645788337664,-0.05980871350567788,0.1435331966461098,-0.07621758293399052,-0.7277417806575469,-0.07931365490758287,-0.4485241180705532,-0.003359731221505614,0.002759779217675317,-0.0009599232061436286,-3.1514765428133535,-1.4971081550232201,1.3685828420587638,0.442461784586261,1.0379006039321887,1.201610686718005,-0.4031354957410113,-0.3024276446802265,0.5759907851059141,-0.39323100000000005,0.13187000000000015,-0.634365,0.04220099999999993,-0.007631999999999861,-0.914369,0.435432,0.13950200000000001,0.28000400000000003,0.0,0.9925790035535865,single,-0.634365
159,1.325,quasi,-0.1231249249970109,-0.024720988839545224,-0.031081243249718057,-0.14441164877091592,-0.09727784538480617,-0.09068994849472989,-0.7175087003480153,-0.07884315372616534,-0.4953798151926147,-0.0021600864034516565,0.001800072002865278,-0.0025201008040322066,1.8701522009741216,0.6332186910415522,1.5834890956028687,1.2280187578941224,0.056462400266114994,-5.622908570990271,0.1439631366919439,-0.11516947255610799,-0.187228800898667,-0.3981839999999999,0.13141899999999995,-0.6382340000000001,0.04320900000000005,-0.007411000000000056,-0.914131,0.441393,0.13883,0.27589699999999995,0.0,0.9937068951868026,single,-0.6382340000000001
160,1.333333,quasi,-0.14424576983078174,-0.036961478459134715,-0.048361934477383316,-0.18082380638461934,0.19736393015104794,0.017516624957640965,-0.7235089403576024,-0.0810032401296015,-0.5053402136085313,-0.001800072002878553,0.002400096003855835,-0.0018000720028802186,-2.5346027641630235,-1.4689175110511552,-2.073765897955713,-0.7200576034545775,-0.25922073724182493,-1.1952956217348423,0.04320345620701994,0.07200576034927955,0.08640691241473364,-0.403011,0.13105199999999995,-0.642042,0.04439599999999999,-0.0070829999999999504,-0.913743,0.447407,0.1381349999999999,0.27170099999999997,0.0,0.9941688148577323,single,-0.642042
161,1.341667,quasi,-0.16774658027358255,-0.0525557955363507,-0.06107511399087969,-0.2770450249710139,-0.08740768636490695,0.11944930718309348,-0.7236621070314523,-0.0861531077513811,-0.5363570914326992,-0.001319894408445339,0.0027597792176487475,-0.0027597792176629016,-2.8198716634030783,-1.8711683557974903,-1.5254595048592052,-0.018378530579542307,-0.6179346798391769,-3.7217276006921565,0.057616701995827115,0.04315853297251253,-0.1151556533216584,-0.407644,0.1307719999999999,-0.6460030000000001,0.04578300000000002,-0.006622000000000128,-0.913257,0.453427,0.13739400000000002,0.2672539999999999,0.0,0.993133235455824,single,-0.6460030000000001
162,1.35,quasi,-0.15732629305172677,-0.04860194407778755,-0.0459618384735408,-0.25958087779327094,-0.35676211448975137,0.11896077303288838,-0.7133085323412818,-0.07536301452058826,-0.5433817352693985,-0.0021600864034649224,0.0030001200047931474,-0.00012000480019129289,1.2504844860021123,0.4744811542737411,1.8136656087049832,1.242478661966918,1.294862982214407,-0.8429909800431051,-0.10082707248524765,0.028842048139253056,0.31678560152064833,-0.41227699999999995,0.13054900000000003,-0.650148,0.04707600000000001,-0.006191999999999975,-0.912875,0.45935299999999996,0.136741,0.26272700000000004,0.0,0.9938353394106085,single,-0.650148
163,1.358333,quasi,-0.17664706588262705,-0.05112204488177359,-0.05004200168006775,-0.11879391799629589,0.10179310747120532,0.10255322030847873,-0.719428777151096,-0.06924276971076838,-0.5292211688467617,-0.001560062402487682,0.003720148805965985,-0.0014400576023047128,-2.31858548312738,-0.30242419344606564,-0.489639170350052,-0.7344587555279334,0.7344587555286128,1.699335944154191,0.07200576034768341,0.08640691241723797,-0.15841267276052226,-0.41680000000000006,0.13039800000000001,-0.6541410000000001,0.048534999999999995,-0.005735000000000046,-0.91247,0.46533500000000005,0.13613300000000006,0.2583289999999999,0.0,0.9928610871244399,single,-0.6541410000000001
164,1.366667,quasi,-0.17218622510199955,-0.06023518118550499,-0.0533957283417357,-0.1681804479130116,-0.20340679342516935,0.125927361936682,-0.7006239500839859,-0.08543316534677711,-0.577393808495314,-0.0017998560115175344,0.004799616030722306,-0.001679865610751142,0.5352580730294536,-1.0934888773375728,-0.4024150061996551,2.256398736154298,-1.942692060956156,-5.780254337479225,-0.02877293124908215,0.12952570491436444,-0.028774659040848003,-0.42120399999999997,0.13018799999999997,-0.658508,0.04995500000000008,-0.005193000000000003,-0.9120389999999999,0.47115900000000005,0.13538099999999997,0.25353099999999995,0.0,0.991009612513797,single,-0.658508
165,1.375,quasi,-0.16656666266650155,-0.06516260650428263,-0.042121684867393906,-0.14521743099929244,-0.05755776675002948,0.11612320379058341,-0.6926677067082746,-0.0778831153246283,-0.5628225129005178,-0.0036001440057705256,0.005760230409195536,0.0016800672026881377,0.674374467238455,-0.5913146908409553,1.3529393344944072,0.954787396581231,0.9060422443476398,1.7486254163922152,-0.21604320103840244,0.11527833655025062,0.4032080659353547,-0.425588,0.13008200000000003,-0.662847,0.05131299999999994,-0.004601999999999995,-0.911674,0.47690099999999996,0.13468400000000003,0.24882700000000002,0.0,0.9883376297155178,single,-0.662847
166,1.383333,quasi,-0.17928717148686055,-0.05940237609503381,-0.054842193687752894,-0.2639514494165782,-0.45630954573308985,0.16987790460569394,-0.6847473898956008,-0.07716308652345555,-0.5502220088803609,-0.0004800192007685152,0.002880115204611091,-0.0012000480019196224,-1.5265221193278664,0.6912552993218376,-1.5265221193278655,0.9504760365623272,0.08640691241722756,1.5121209672575306,0.3744299537983966,-0.3456276496561228,-0.34562764965892073,-0.4298,0.129934,-0.6669749999999999,0.05280299999999993,-0.004083000000000059,-0.9112269999999999,0.48260299999999995,0.13401700000000005,0.24425200000000002,0.0,0.9947386109692482,single,-0.6669749999999999
167,1.391667,quasi,-0.18982481401487403,-0.06467482601392646,-0.08171346292295734,-0.41486151951041134,-0.30063769784109645,0.13422397652531828,-0.6773458123350093,-0.06719462443003235,-0.5557955363570902,-0.0004799616030722306,0.0016798656107727896,0.0,-1.2644159500856011,-0.63264337879681,-3.2242943646753344,0.8881182578103429,1.1961197616298442,-0.6687697956238664,6.911170660497366e-06,-0.14401842978621218,0.1439942406910983,-0.43386300000000005,0.12991300000000017,-0.670926,0.0543809999999999,-0.003529999999999811,-0.910546,0.48824399999999996,0.13344299999999998,0.23961999999999994,0.0,0.9970881889891338,single,-0.670926
168,1.4,quasi,-0.18756750270012076,-0.05436217448695774,-0.05532221288852141,-0.2183099382480099,-0.23966527019246625,0.14375370442914062,-0.6662666506660329,-0.0807632305292394,-0.5733829353174185,-0.0004800192007685152,0.0003600144005730556,0.0008400336013440688,0.27088819329812597,1.237567685943696,3.167076687199828,1.3295525823804861,-1.6282978638194128,-2.1105722981313333,-6.9120000341516875e-06,-0.15838848076320003,0.10080806448386853,-0.43785199999999996,0.12969299999999984,-0.675243,0.05593999999999999,-0.003074000000000021,-0.9100779999999999,0.49379199999999995,0.13276699999999986,0.2348349999999999,0.0,0.9982794661252379,single,-0.675243
169,1.408333,quasi,-0.1862474498979924,-0.04356174246971162,-0.05604224168966603,-0.2356013854753331,-0.2523449705816211,0.11188894455009381,-0.6512660506420161,-0.0817232689307476,-0.5877835113404449,0.0006000240009639587,0.0009600384015370048,0.0001200048001921256,0.15841267276230997,1.2961036862169604,-0.0864069124138495,1.8001440086423193,-0.1152092165496454,-1.7281382482930776,0.12961036862263953,0.07200576034608648,-0.08640691241472827,-0.441727,0.12937500000000002,-0.679674,0.05749700000000002,-0.0027029999999999,-0.90961,0.499224,0.13207799999999992,0.22993600000000003,0.0,0.9981025575061944,single,-0.679674
170,1.416667,quasi,-0.192944564434842,-0.050755939524846444,-0.06107511399087969,-0.25836871044848925,-0.12865116536822407,0.09454617896231718,-0.6426685865130878,-0.08579313654908025,-0.6021118310535232,-0.0009599232061444868,0.0004799616030589218,-0.000719942404608365,-0.8035894572653857,-0.8632345878491677,-0.6038963644364956,1.0316131664181103,-0.4883450465961984,-1.7192608247034453,-0.1871786905577724,-0.05760460744877515,-0.10078560172792256,-0.445475,0.12908300000000006,-0.684183,0.059096999999999955,-0.0022759999999999447,-0.909107,0.504572,0.131359,0.224924,0.0,0.9978461063886412,single,-0.684183
171,1.425,quasi,-0.19056762270490893,-0.049201968078724866,-0.06540261610464516,-0.11680494807641793,-0.1638960963045747,0.12243462317159012,-0.6336253450137903,-0.06972278891154836,-0.5702628105124146,-0.000360014400573046,0.0016800672026830968,0.0004800192007685024,0.2852444173686593,0.18648403289590199,-0.5193210264929075,1.085232389211246,1.928518857258083,3.8220353463468197,0.07199193634602548,0.14401843269220616,0.1440011526913292,-0.449167,0.12891200000000014,-0.6883900000000001,0.060682000000000014,-0.0018519999999999648,-0.908558,0.509849,0.1307640000000001,0.22016799999999992,0.0,0.9970266673172377,single,-0.6883900000000001
172,1.433333,quasi,-0.1983679347173924,-0.05640225609024058,-0.0584423376935101,0.006506075352525153,-0.28981561150255136,0.031835756425187864,-0.6176647065882707,-0.07800312012481043,-0.588383535341418,-0.0016800672026831415,0.001560062402501005,0.0010800432017283265,-0.9360748844934038,-0.8640691241468591,0.8352668200090156,1.9153532251913827,-0.9936794927711691,-2.174573962438925,-0.1584126727601233,-0.01440115206793386,0.07200576034559336,-0.452661,0.12873200000000007,-0.692806,0.06232100000000007,-0.0013689999999999536,-0.9080619999999999,0.514982,0.13010100000000002,0.2152559999999999,0.0,0.9957760886271567,single,-0.692806
173,1.441667,quasi,-0.22894168466522752,-0.05735541156707161,-0.04487640988720694,-0.30011893182759897,-0.3462354388219456,-0.06330286966017921,-0.5945524358051295,-0.07691384689226168,-0.590832733381323,-0.007199424046083459,-0.00611951043916761,0.0031197504199661683,-3.66855650921945,-0.11436950765911003,1.6277811142672256,2.773250633926203,0.13070233171931261,-0.2938802543682561,-0.6622698396208634,-0.9214750229983869,0.2447452865656139,-0.45570799999999995,0.12856899999999993,-0.697356,0.06416900000000003,-0.0009419999999999984,-0.907662,0.5198769999999999,0.12951099999999993,0.210306,0.0,0.9834157908695847,single,-0.697356
