frame_id,timestamp,gait_type,root_linear_velocity_x,root_linear_velocity_y,root_linear_velocity_z,root_angular_velocity_x,root_angular_velocity_y,root_angular_velocity_z,left_linear_velocity_x,left_linear_velocity_y,left_linear_velocity_z,right_linear_velocity_x,right_linear_velocity_y,right_linear_velocity_z,root_acceleration_x,root_acceleration_y,root_acceleration_z,left_acceleration_x,left_acceleration_y,left_acceleration_z,right_acceleration_x,right_acceleration_y,right_acceleration_z,left_pos_rel_x,left_pos_rel_y,left_pos_rel_z,right_pos_rel_x,right_pos_rel_y,right_pos_rel_z,step_length,step_width,step_height,left_contact_prob,right_contact_prob,support_type,max_foot_height
1,0.008333,stair_decsent,0.00948037921518808,0.0012000480019146154,0.001080043201719157,0.008389834081250441,0.015655273611226206,0.01671019521028713,-0.00012000480020878171,0.0,-0.0012000480019146154,-0.0006000240009639692,-0.0004800192007618492,-0.001680067202683126,0.0,0.0,0.0,0.0,0.0,0.0,0.0,0.0,0.0,-0.1803380000000001,0.015266000000000002,-0.92547,0.038812999999999986,-0.03666499999999995,-0.920967,0.2191510000000001,0.05193099999999995,0.004503000000000035,0.997989944473561,0.9518909159729785,double,-0.920967
2,0.016667,stair_decsent,0.008759299256058282,-0.00035997120230084524,-0.0009599232061444684,0.014821948046968627,0.005304802562542085,0.025738078406418553,-0.00023998080154277791,0.0004799616030722342,-0.00035997120230084524,-0.00035997120230084524,-0.0004799616030722342,0.0013198944084453137,-0.08652267328171316,-0.18718732951949368,-0.2447763868326884,-0.014395968482600935,0.057590785105859625,0.10080115186150347,0.028804031517053512,6.91116986021207e-06,0.3599665960077321,-0.18041300000000016,0.015272999999999981,-0.925465,0.03873700000000002,-0.036665999999999976,-0.920948,0.21915000000000018,0.05193899999999996,0.004516999999999993,0.9989230531943154,0.9524135841185557,double,-0.920948
3,0.025,stair_decsent,0.009360374414979299,0.004920196807873905,-0.014760590423628376,-0.145927000309077,0.10662874207452087,0.07059624132257061,-0.0004800192007551876,-0.0009600384015303599,0.0004800192007685108,0.00024000960036427057,-0.002400096003842554,-0.0006000240009639692,0.07213190434669585,0.6336455070412517,-1.656146311950547,-0.028805760135894594,-0.17280691282882446,0.10080288048354205,0.0720005763428676,-0.2304253451062426,-0.2303994251061182,-0.18049500000000007,0.015224000000000015,-0.9253379999999999,0.038660999999999834,-0.03672700000000001,-0.9208299999999999,0.2191559999999999,0.051951000000000025,0.0045079999999999565,0.9980403298189824,0.950777371259407,double,-0.9208299999999999
4,0.033333,stair_decsent,0.006840273610941286,-0.00108004320173248,0.00012000480020878171,0.03641876923462907,-0.008944994579695045,0.04843163048605277,-0.0008400336013548863,-0.0004800192007685108,-0.000840033601341563,0.0003600144005730523,0.0,0.0,-0.3024241934522996,-0.7200576034569044,1.7857428565747218,-0.04320345621021225,0.05760460827575292,-0.15841267276011925,0.014401152071136653,0.28802304138276175,0.07200576034609016,-0.18055900000000014,0.015229000000000048,-0.925346,0.038606999999999836,-0.03671799999999997,-0.9208310000000001,0.21916599999999997,0.05194700000000002,0.004514999999999936,0.9978644989295415,0.9542499759990455,double,-0.9208310000000001
5,0.041667,stair_decsent,0.008639308855273573,0.002879769618433405,-0.00047996160308555583,0.01350202056889549,0.00595572754844153,0.03579865137022776,-0.0013198944084453137,0.0,0.0,0.00011999040078471056,-0.00035997120230084524,0.0005999520038436232,0.21586695996307728,0.4751395272577255,-0.07199020917858621,-0.05757869055560683,0.057597696276519166,0.10079596848350887,-0.028800575928526723,-0.043193088828995106,0.07198848138272415,-0.18064199999999997,0.015205000000000024,-0.9253419999999999,0.038536000000000126,-0.03674499999999997,-0.9208219999999999,0.2191780000000001,0.051949999999999996,0.0045199999999999685,0.9978001759859245,0.9536168786930772,double,-0.9208219999999999
6,0.05,stair_decsent,0.00732029281172312,-0.005400216008642415,0.0031201248050019815,0.15046389234668517,-0.015324833682434563,0.05150514207292115,-0.001080043201719157,-0.0004800192007685108,0.0004800192007551876,0.0013200528021100738,0.0009600384015303599,0.0007200288011461046,-0.15828825675632455,-0.9936380207699292,0.43202765007650756,0.028783296138984366,-0.05760460827655236,0.057604608274953506,0.14401324868899115,0.15840748875929497,0.014409792067980489,-0.18071199999999998,0.015246000000000037,-0.9253640000000001,0.03848600000000002,-0.036692,-0.920842,0.219198,0.05193800000000004,0.004522000000000026,0.997873885792905,0.9518066673172403,double,-0.920842
7,0.058333,stair_decsent,0.008520340813624412,0.0018000720028852463,-0.0022800912036470954,-0.014629949960303925,0.016223590864393275,0.047308734052766206,0.00012000480018213529,0.0,0.0003600144005863755,0.00024000960039091698,-0.0009600384015303599,0.0006000240009639692,0.1440115206889826,0.8640691241482853,-0.6480518431116137,0.14401152068898262,0.05760460827655236,-0.014401152066340102,-0.12961036862104366,-0.23041843310461058,-0.014401152067938959,-0.180782,0.015230999999999995,-0.925342,0.038417000000000145,-0.036715,-0.920818,0.21919900000000014,0.05194599999999999,0.0045239999999999725,0.9993675191687219,0.9528311926955115,double,-0.920818
8,0.066667,stair_decsent,0.006599472042253212,0.0015598752099814307,-0.0035997120230350957,-0.00968208940713197,-0.005554144435682258,0.06466977775522097,-0.0007199424046016905,0.0,0.0,0.0007199424046016905,0.0011999040076739248,-0.0008399328053730795,-0.23048581369944807,-0.028821309443702366,-0.1583418309800816,-0.10078560172592099,0.0,-0.04319827220858837,0.05758732951893129,0.25917235531608884,-0.17278099428090338,-0.1808430000000001,0.01521800000000001,-0.925312,0.03836799999999996,-0.03671800000000003,-0.920795,0.21921100000000004,0.05193600000000004,0.004516999999999993,0.9988000959923304,0.9521099235043858,double,-0.920795
9,0.075,stair_decsent,0.006600264010550375,0.0015600624024943305,-0.0019200768030740447,-0.009394215007872055,0.003738096700149421,0.07376515575428083,-0.0009600384015370224,-0.0004800192007685112,-0.0002400096003909172,0.0010800432017191578,-0.0004800192007685112,-0.0001200048001954586,9.503999725944124e-05,2.2464000107972632e-05,0.20156428896688497,-0.028812672139125414,-0.05760460827655245,-0.02880230413907565,0.0432138242070644,-0.20159884896705116,0.08639481641397113,-0.180906,0.01520100000000002,-0.9252980000000001,0.03832199999999997,-0.03673500000000002,-0.92078,0.21922799999999998,0.05193600000000004,0.004518000000000022,0.9981668963978694,0.9528400218135626,double,-0.92078
10,0.083333,stair_decsent,-0.0022800912036470937,0.0037201488059526245,0.006960278411123416,0.08051524534076678,-0.04797047788131512,0.1952287091401475,-0.0016800672026831248,-0.0006000240009639688,-0.0010800432017191559,-0.00036001440057305197,-0.0008400336013415624,0.0010800432017324792,-1.06568525311382,0.25922073724448486,1.065685253113819,-0.08640691241402877,-0.014401152069537685,-0.10080806448196783,-0.17281382482805815,-0.043203456207014386,0.1440115206921801,-0.18090099999999998,0.015164999999999984,-0.9253649999999999,0.03833799999999998,-0.036773,-0.9208289999999999,0.21923899999999996,0.051937999999999984,0.0045359999999999845,0.9965242315298771,0.9522819404531061,double,-0.9208289999999999
11,0.091667,stair_decsent,0.003839692824577877,0.0021598272138250558,-0.0010799136069025367,0.02054725835172885,-0.01612267674712726,0.11300845993019389,-0.0005999520038436236,0.0004799616030722346,0.0004799616030722346,0.0007199424046016911,0.0008399328053730801,-0.0007199424046150127,0.7343153381599442,-0.18722361316625508,-0.9647458624941154,0.1296034555842935,0.12958790545190835,0.18718560172682883,0.12958444986498005,0.2015798424183638,-0.21598099428215659,-0.18093800000000004,0.01515099999999997,-0.925352,0.0383119999999999,-0.03678400000000004,-0.920826,0.21924999999999994,0.05193500000000001,0.004525999999999919,0.9984901539006286,0.9525401759859233,double,-0.920826
12,0.1,stair_decsent,-0.006120244809795177,-0.0021600864034582966,0.0033601344053662495,0.13024896101573663,-0.015578755677430958,0.27939210141748794,-0.0006000240009639688,-0.00024000960038425518,-0.0012000480019279376,-0.00036001440057305197,0.002280091203653755,0.00036001440057305197,-1.1952403257377948,-0.5184103704888214,0.532827074555236,-8.640000041425836e-06,-0.08640000041479529,-0.20160921696869924,-0.1296000006209939,0.17282592083051407,0.12960000062259255,-0.18089200000000005,0.015166999999999986,-0.9253899999999999,0.03835999999999995,-0.036746999999999974,-0.920851,0.219252,0.05191399999999996,0.00453899999999996,0.9977283457954973,0.9507162597835979,double,-0.920851
13,0.108333,stair_decsent,-0.0024000960038292325,0.0001200048001954586,0.002280091203647097,0.005211726295344997,-0.035252562369537895,0.20088003929940723,-0.0009600384015370224,0.0,0.0006000240009639698,0.0009600384015370224,0.0,-0.00012000480018213538,0.4464357141444794,0.27362188931402337,-0.12961036862104322,-0.04320345620701474,0.028802304138276176,0.2160172810382706,0.15841267276011944,-0.27362188931402337,-0.05760460827495353,-0.18088000000000015,0.015165999999999957,-0.9254039999999999,0.03838799999999987,-0.036748,-0.9208709999999999,0.21926800000000002,0.05191399999999996,0.004533000000000009,0.9981131282987158,0.9530574839496986,double,-0.9208709999999999
14,0.116667,stair_decsent,0.004799616030695695,0.002879769618426742,-0.00983921286296081,-0.10781258302912522,0.024693663758112154,0.1383187996124448,0.0015598752099880903,0.00035997120230750576,-0.00035997120230084497,0.0,0.0010799136069091957,-0.0009599232061444676,0.8638963324363955,0.3311452865648285,-1.454200151980789,0.3023654441474814,0.043193088829794266,-0.11519020917504366,-0.11519539255303833,0.12957926648778434,-0.10078214614378828,-0.18090699999999993,0.01514500000000002,-0.925325,0.03834800000000005,-0.03676299999999999,-0.920797,0.21925499999999998,0.05190800000000001,0.0045279999999999765,0.9972652599129634,0.9523118737343448,double,-0.920797
15,0.125,stair_decsent,0.0025201008040380145,-0.0002400096003842556,-0.007320292811723126,-0.07762326027346114,0.007908378181914928,0.16322600660171208,-0.001560062402500992,-0.001080043201732481,-0.001560062402500992,0.000840033601354887,-0.0001200048001954586,-0.0002400096003909172,-0.27355276930969424,-0.3743884817965919,0.3022824974484203,-0.37440748979828214,-0.17280864083043176,-0.14401670469220546,0.10080806448516592,-0.1439959686913063,0.08639308841396268,-0.18094100000000002,0.015137999999999985,-0.9252769999999999,0.03833400000000009,-0.03676200000000002,-0.920738,0.2192750000000001,0.0519,0.00453899999999996,0.9959059383394282,0.9531402473642039,double,-0.920738
16,0.133333,stair_decsent,0.0022800912036470937,0.0001200048001954584,-0.003960158406330218,-0.016799810131291167,-0.00959847630354244,0.16636078634402385,0.00036001440057305197,0.0,0.00024000960037759357,0.0015600624025009894,0.0003600144005797136,0.00048001920076851036,-0.028802304139076036,0.043203456207813955,0.40323225793746614,0.23041843310620935,0.1296103686226425,0.21601728103667156,0.08640691241402877,0.057604608277351706,0.08640691241562787,-0.18095700000000003,0.015136999999999956,-0.925242,0.03832800000000014,-0.036760000000000015,-0.920701,0.21928500000000017,0.05189699999999997,0.004541000000000017,0.9992788608993532,0.9518042109129904,double,-0.920701
17,0.141667,stair_decsent,-0.0010799136069025385,0.002639788816890634,-0.003959683225335951,-0.048320893459588975,-0.017639680025365274,0.20917131058356375,0.00011999040078471086,0.001679865610752824,-0.0004799616030722354,0.0020398368130470092,0.0008399328053730815,0.0,-0.40316832380005285,0.3023498940119008,5.7017157939416726e-05,-0.02880057592852672,0.2015677478705097,-0.08638963324332022,0.05756832379961854,0.05758560172706612,-0.057597696276519256,-0.18094699999999997,0.015129000000000004,-0.9252130000000001,0.038354,-0.036775,-0.920668,0.21930099999999997,0.051904000000000006,0.004545000000000021,0.9970813295897627,0.9508733388707339,double,-0.920668
18,0.15,stair_decsent,-0.0118804752190173,0.0037201488059526245,0.0062402496099773115,0.09967359859721033,-0.09378102910089255,0.34667882377907977,0.0007200288011461039,0.00024000960038425518,-0.0007200288011461039,0.0019200768030740415,0.0007200288011527656,0.0008400336013415624,-1.2961192382232993,0.1296483846228237,1.2240409018736653,0.07200748834290083,-0.1727896328295413,-0.028809216137509704,-0.014371776067798832,-0.014389056068680647,0.10080806448356674,-0.18084199999999995,0.015100000000000002,-0.925271,0.038469000000000086,-0.0368,-0.920713,0.21931100000000003,0.0519,0.004557999999999951,0.9982563706774243,0.9507266152020831,double,-0.920713
19,0.158333,stair_decsent,0.002760110404428927,0.0040801632065323385,-0.016080643225711788,-0.1961253545971277,0.06629258989848257,0.20614001253899972,0.00012000480018213519,0.0013200528021100728,0.0001200048001954584,0.00180007200286526,0.0024000960038425517,0.0,1.7569405524356434,0.043203456207813955,-2.678614284854084,-0.07200576034609003,0.1296103686218429,0.10080806448356673,-0.01440115207113662,0.20161612896793288,-0.10080806448356674,-0.18086400000000014,0.015076999999999952,-0.9251360000000001,0.038460999999999856,-0.03681400000000001,-0.9205790000000001,0.219325,0.051890999999999965,0.004556999999999922,0.9977818039708812,0.949429799992012,double,-0.9205790000000001
20,0.166667,stair_decsent,0.0023998080153478474,0.002639788816890625,-0.006719462443011273,-0.10422441026752488,0.027467772922146506,0.1945031502413508,-0.00011999040075806724,0.0014398848092167015,-0.0008399328053730787,0.0019198464122889352,0.0010799136069091957,0.0004799616030722338,-0.04323282806348444,-0.1728311002689839,1.1232518337773587,-0.028797120343196807,0.014378690557550826,-0.11518329800438398,0.014371779388489945,-0.158409214894811,0.057590785105859535,-0.18088499999999996,0.015066999999999997,-0.925087,0.03845699999999996,-0.036827,-0.9205190000000001,0.21934199999999993,0.051893999999999996,0.0045679999999999055,0.99721454518095,0.9505626417430493,double,-0.9205190000000001
21,0.175,stair_decsent,0.003240129605184125,0.009960398415936631,-0.013800552022091388,-0.2607347741176738,0.06558840261693873,0.2034416353530882,0.0,0.002040081603262845,0.000480019200768512,0.0021600864034649653,0.001680067202689792,-0.000480019200768512,0.10084262448533299,0.8785082922172116,-0.8497647400792191,0.014399424067930822,0.07202649634539122,0.1584005767600617,0.02882995213920925,0.07202131234616557,-0.1152023045530719,-0.18091199999999996,0.015000999999999987,-0.9249679999999999,0.03844800000000004,-0.036895999999999984,-0.920408,0.21936,0.05189699999999997,0.0045599999999998975,0.9965070104411049,0.9497694800180724,double,-0.920408
22,0.183333,stair_decsent,0.0030001200047931973,-0.0010800432017258176,-0.003480139205575031,-0.04130667970964081,0.0462876694212534,0.21174304355911616,-0.0004800192007818336,-0.0008400336013415624,-0.0008400336013548856,0.0009600384015370207,0.0008400336013415624,0.0002400096003909168,-0.02880230413907687,-1.3249059903591072,1.2384990779450795,-0.05760460827815111,-0.34562764965851495,-0.15841267276171805,-0.1440115206921809,-0.10080806448436684,0.086406912415628,-0.18094100000000002,0.015002999999999989,-0.9249459999999999,0.038431000000000104,-0.036880000000000024,-0.9203769999999999,0.21937200000000012,0.05188300000000001,0.004569000000000045,0.9978644989295331,0.9521465826980284,double,-0.9203769999999999
23,0.191667,stair_decsent,-0.014278857691382303,0.00227981761458978,0.010439164866831076,0.16080864207313472,-0.09717750268922999,0.3969405094859859,0.0013198944084719558,0.008159347252221314,-0.0021598272138183914,0.0011999040076872453,0.0005999520038436226,0.0009599232061444676,-2.073311458624368,0.4031510458742014,1.6701828740588065,0.21597235532202874,1.0798393152823216,-0.1583625644904613,0.028781570212409926,-0.02880748710078468,0.0863827220726602,-0.18081099999999983,0.01505200000000001,-0.9250510000000001,0.03856000000000015,-0.03689399999999998,-0.920456,0.21937099999999998,0.05194599999999999,0.004595000000000016,0.9857617570503672,0.9513006745290511,double,-0.920456
24,0.2,stair_decsent,0.003120124805001979,-0.0012000480019212759,-0.005640225609039989,-0.11653593732636558,0.043054313004899834,0.20864477429916184,-0.0024000960038558753,-0.005520220808831208,-0.0016800672026831248,0.0009600384015370207,-0.0008400336013482239,-0.0010800432017324792,2.0879614180228327,-0.41760057800444655,-1.9296040412661766,-0.4464167061475852,-1.6416138318795763,0.057573504276403,-0.02878502413899248,-0.17280518483041468,-0.24480576117568045,-0.18085700000000005,0.01501600000000003,-0.9250179999999999,0.038542000000000076,-0.03689100000000001,-0.920418,0.21939900000000012,0.051907000000000036,0.0045999999999999375,0.9895842101153652,0.9512142109129912,double,-0.920418
25,0.208333,stair_decsent,0.010440417616698481,0.0152406096243836,-0.026281051242046053,-0.5087753385207167,0.22955814000613417,0.20141093211573352,0.000960038401537024,0.0006000240009573092,-0.0012000480019279415,0.0015600624024743482,0.0006000240009639708,0.0002400096003909176,0.878470276214631,1.972957833469929,-2.4769981558869696,0.4032322579374664,0.7344587555248449,0.05760460827495313,0.07200576034289319,0.172813824830457,0.15841267276171847,-0.18093599999999999,0.014894000000000018,-0.924809,0.03846799999999995,-0.03701299999999996,-0.9201969999999999,0.21940399999999993,0.05190699999999998,0.0046120000000000605,0.9972503445968015,0.9510656379696536,double,-0.9201969999999999
26,0.216667,stair_decsent,0.005639548836108738,0.009239260859130509,-0.0105591552675625,-0.2199952608231063,0.06331111094926616,0.18746515170973682,0.00035997120230084497,-0.0005999520038369618,-0.00035997120230084497,0.0005999520038436226,0.0009599232061444676,0.0013198944084453126,-0.5760581690172472,-0.7201042434908911,1.8864765988101198,-0.07200230372404348,-0.1439856017271742,0.10080115186310244,-0.1152040315131659,0.04318444986567033,0.12957581090165515,-0.18098000000000014,0.014812000000000047,-0.9247240000000001,0.03842599999999985,-0.03708199999999995,-0.9200980000000001,0.219406,0.051893999999999996,0.004626000000000019,0.9986886172057712,0.9508419564942419,double,-0.9200980000000001
27,0.225,stair_decsent,-0.003840153606148083,-0.014880595223803837,0.01020040801630753,0.26963960485452204,-0.0972817058514339,0.24379159163134118,0.0009600384015370207,0.00024000960038425518,0.0024000960038425517,0.0002400096003909168,0.0013200528021100728,0.00024000960037759357,-1.137609797462716,-2.894498509892515,2.4912472439541595,0.07201094434611488,0.1007994244835253,0.33122131358975093,-0.04319481620697294,0.04321728020708086,-0.12959136062255108,-0.1809400000000001,0.014938000000000007,-0.924789,0.03845999999999994,-0.03694700000000001,-0.920181,0.21940000000000004,0.051885000000000014,0.0046079999999999455,0.9956731653960547,0.9516483457955154,double,-0.920181
28,0.233333,stair_decsent,-0.007320292811723114,0.00888035521420412,0.0006000240009639688,-0.1044974229117489,0.006715833084786805,0.36841625699500535,0.0010800432017458023,-0.0014400576023055312,0.0,0.0013200528021100728,0.00024000960038425518,-0.00048001920076851036,-0.4176334100054036,2.8514281096853398,-1.1520921655278473,0.01440115207113662,-0.2016161289679329,-0.28802304138276125,0.12961036862104344,-0.1296103686218429,-0.08640691241402897,-0.18086999999999986,0.014852000000000032,-0.924794,0.03853200000000001,-0.03701899999999997,-0.9201900000000001,0.21940199999999987,0.051871,0.0046039999999999415,0.9969998799951801,0.9515850365840591,double,-0.9201900000000001
29,0.241667,stair_decsent,0.0008399328053864031,0.0004799616030722354,-0.006359491240710449,-0.181281141690423,0.04863340340361537,0.2526207725215481,0.0009599232061178276,-0.0009599232061444707,0.0020398368130470092,0.0005999520038436247,-0.0008399328053797423,0.00035997120231416775,0.979148742153772,-1.0079665960081479,-0.8350750229990922,-0.01441324641564375,0.05761151861783796,0.2447608366987058,-0.08640518337730378,-0.12958272207391408,0.10079078510711305,-0.18086900000000017,0.01484000000000002,-0.924724,0.03852999999999995,-0.03703000000000001,-0.9201339999999999,0.21939900000000012,0.05187000000000003,0.004590000000000094,0.9959162111318042,0.9522780590394324,double,-0.9201339999999999
30,0.25,stair_decsent,-0.003480139205575031,0.005640225609026666,-0.006720268810732499,-0.17912910662884657,0.07433815076629317,0.36062098651879104,0.0006000240009639688,-0.0013200528021100728,0.0010800432017324792,0.0,0.0010800432017324792,-0.0006000240009639688,-0.5184293784905113,0.6192564509725701,-0.043295040204254134,-0.04318963220375116,-0.04321728020708049,-0.11517984055136556,-0.07199712034604874,0.23040633710695066,-0.11520403255467848,-0.18083500000000008,0.014782000000000017,-0.9246590000000001,0.03855900000000001,-0.03706799999999999,-0.9200830000000001,0.2193940000000001,0.05185000000000001,0.0045760000000000245,0.9969865756283571,0.9521807916034568,double,-0.9200830000000001
31,0.258333,stair_decsent,0.006600264010550386,0.000480019200768512,-0.018720748829958642,-0.3372505438771557,0.10879263391127206,0.21559137781677115,0.00012000480020878201,-0.00120004800192128,0.0002400096003909176,0.00012000480018213558,-0.001440057602305536,0.001320052802110077,1.2096967738060054,-0.619249538972539,-1.4401152069154173,-0.05760460827495356,0.014401152068737919,-0.100808064483567,0.014401152067939023,-0.30242419345230065,0.23041843310621032,-0.18088899999999986,0.014768000000000003,-0.924501,0.03850500000000001,-0.037084000000000006,-0.9199160000000001,0.21939399999999987,0.05185200000000001,0.00458499999999995,0.9979505278679159,0.9508879682326713,double,-0.9199160000000001
32,0.266667,stair_decsent,0.008759299256058275,0.04955603551715818,-0.06671466282697389,-1.2814403132162733,0.41052426908852957,0.3405764840520191,-0.0007199424046283331,-0.0009599232061444676,0.0009599232061444676,0.00011999040078471047,0.0011999040076805846,-0.0011999040076739237,0.259063504380596,5.888650865897483,-5.75880897492383,-0.10078560173231513,0.02881267047957909,0.0863827220726601,-1.7277894678565083e-06,0.31677005159420657,-0.3023706275238779,-0.18096800000000002,0.014346999999999999,-0.923937,0.03843300000000016,-0.03748699999999999,-0.91937,0.21940100000000018,0.05183399999999999,0.004566999999999988,0.9974389551885936,0.951494737445256,double,-0.91937
33,0.275,stair_decsent,-0.018360734429358823,-0.0846033841353664,0.07236289451576942,1.4665208889847043,-0.5013390156102722,0.23405094258387066,-0.0003600144005730508,-0.0007200288011527632,-0.0004800192007685088,0.00012000480018213478,0.0,0.0010800432017191524,-3.254534223618983,-16.099774349276856,16.68997448010833,0.04319308821016211,0.028788480138209935,-0.17280000082958963,1.727996810790411e-06,-0.1439942406912972,0.2736046093115404,-0.18081800000000015,0.015046000000000004,-0.9245439999999999,0.03858699999999993,-0.03678199999999998,-0.919964,0.21940500000000007,0.051827999999999985,0.0045799999999999175,0.9984378875803225,0.952388850526411,double,-0.919964
34,0.283333,stair_decsent,-0.001320052802110077,-0.005160206408258173,-0.000960038401537024,-0.08785553545188649,-0.01706189043723695,0.24937900487000628,0.0,0.0001200048001954588,0.0,-0.00048001920075518877,0.0006000240009573092,-0.00024000960037759439,2.044963593813607,9.533562669759801,-8.799103914233365,0.04320345620701448,0.10080806448436626,0.05760460827655226,-0.07200576034289272,0.07200576034529109,-0.15841267275852036,-0.18080700000000016,0.015090000000000048,-0.9245359999999999,0.03859400000000002,-0.03673399999999999,-0.9199579999999999,0.21940100000000018,0.05182400000000004,0.004577999999999971,0.9997999919996743,0.9528783055457416,double,-0.9199579999999999
35,0.291667,stair_decsent,0.008639308855273566,-0.01907847372209798,-0.011639068874491678,-0.07096843976474475,0.13015288156059332,0.21565601978052087,0.0002399808015427777,0.00011999040076472805,-0.0005999520038436226,0.0007199424046016899,0.0014398848092167015,-0.0004799616030722338,1.1950277966623029,-1.6700584729829366,-1.2813811462628562,0.028795392553728996,-1.727793464212837e-06,-0.07198848138272403,0.14398387393291065,0.10077523497232918,-0.02879193696839923,-0.18087699999999995,0.015249999999999986,-0.9244439999999999,0.03852800000000012,-0.03656300000000001,-0.9198649999999999,0.21940500000000007,0.051813,0.004579,0.9989046425135794,0.9514102239820834,double,-0.9198649999999999
36,0.3,stair_decsent,0.00480019200768512,-0.0070802832113322205,-0.013800552022064741,-0.2429736118617351,0.09012902296897304,0.25337735082375884,-0.0002400096003909176,0.001440057602305536,-0.000480019200768512,0.000840033601328242,0.000960038401537024,0.0006000240009639708,-0.46071245020862295,1.4398404549100912,-0.259388353242898,-0.057601152278134705,0.15841440076092778,0.014392512069496093,0.014411520067989002,-0.0575838722764525,0.12960345662260978,-0.18091900000000005,0.015321000000000029,-0.9243330000000001,0.038494999999999946,-0.03649599999999997,-0.919745,0.219414,0.051817,0.0045880000000000365,0.9974386478509366,0.951770437992637,double,-0.919745
37,0.308333,stair_decsent,0.005760230409222106,-0.004920196807867223,-0.021120844833814385,-0.25236855668094327,0.08555441869984244,0.24976881206397916,0.000720028801172748,-0.000120004800195458,-0.0006000240009639668,0.0006000240009639668,0.0015600624024943227,-0.0014400576023055264,0.11520921655309994,0.2592207372452885,-0.8784702762210025,0.11520921655630165,-0.18721497689919447,-0.014401152069537293,-0.028802304135878344,0.07200576034528935,-0.24481958517574567,-0.18096099999999993,0.015360999999999958,-0.9241619999999999,0.03845199999999993,-0.03644200000000003,-0.9195809999999999,0.21941299999999986,0.05180299999999999,0.004581000000000057,0.9984251354305838,0.9505128976537343,double,-0.9195809999999999
38,0.316667,stair_decsent,0.0025197984161325748,-0.004919606431487099,-0.016198704103671347,-0.2699816202773885,0.07916792335106822,0.3038744791317034,0.000959923206144474,-0.000479961603072237,0.0,0.003119750419976201,-0.00035997120230084735,0.0008399328053730844,-0.388820733512065,7.08394984550138e-05,0.5906096388460602,0.02878502579454372,-0.04319136103633082,0.07199712034604874,0.30234298284284244,-0.2303856017272835,0.27357696276441373,-0.18097399999999997,0.015397999999999967,-0.9240269999999999,0.03845699999999996,-0.03640399999999999,-0.9194389999999999,0.21943099999999993,0.05180199999999996,0.0045880000000000365,0.9982112887149012,0.9487019465706024,double,-0.9194389999999999
39,0.325,stair_decsent,0.0016800672026831191,-0.01704068162726874,-0.003960158406330205,0.012328848172767696,-0.009075918311546026,0.27457129379359985,0.0009600384015370176,0.0008400336013482211,-0.0002400096003775928,0.0003600144005730508,-0.0004800192007685088,-0.0009600384015370176,-0.10077177648499365,-1.45458720698207,1.468684231050173,1.3824000065232608e-05,0.15840576076088472,-0.028802304137476514,-0.3311815695911603,-0.014406336069562094,-0.21600518503661278,-0.18097999999999992,0.015547000000000033,-0.9239959999999999,0.03844599999999998,-0.036265999999999965,-0.919414,0.2194259999999999,0.051813,0.004581999999999975,0.9978365826980258,0.9522931282987208,double,-0.919414
40,0.333333,stair_decsent,0.006600264010550386,-0.000480019200768512,-0.026881075243010023,-0.38629865788043416,0.15123202046590276,0.3226464578494343,0.0006000240009373243,-0.0013200528021167386,-0.000480019200768512,0.0007200288011461063,-0.000480019200768512,0.0010800432017324826,0.5904472348334668,1.9873589855394538,-2.750620045203393,-0.0432034562102117,-0.2592207372452856,-0.02880230413907594,0.04320345620701505,-3.8382292197674857e-16,0.24481958517574767,-0.18103000000000002,0.015539999999999998,-0.9237759999999999,0.038397000000000014,-0.036265999999999965,-0.9191809999999999,0.21942700000000004,0.05180599999999996,0.004595000000000016,0.9974543137602867,0.9517433952168735,double,-0.9191809999999999
41,0.341667,stair_decsent,0.003959683225335938,0.011159107271419444,-0.04475641948643585,-0.633312014757157,0.22675872916831047,0.4109097043278964,0.0015598752099880903,-0.0017998560115175463,0.0004799616030722338,-0.0002399808015427777,0.0005999520038369618,0.0002399808015294561,-0.3168443466779992,1.3965834499865544,-2.1448697196335265,0.11517293125159168,-0.05757177938574601,0.11518848138237879,-0.11519193696770855,0.12958617765844407,-0.10079942407043746,-0.18104999999999993,0.015432000000000001,-0.923399,0.03836200000000001,-0.036354,-0.918806,0.21941199999999994,0.051786,0.004592999999999958,0.9959506326031249,0.9529211793763464,double,-0.918806
42,0.35,stair_decsent,0.008400336013442297,0.003720148805952637,-0.0366014640585624,-0.5357719337872173,0.20888422798174117,0.3491441000892264,0.0002400096003909176,0.0,-0.000960038401537024,-0.00012000480018213558,0.001680067202689792,-0.0012000480019146184,0.5328996505587869,-0.8927107242849904,0.9786337966966844,-0.15839020876001153,0.21599136103654756,-0.17280691282962454,0.014397696071119934,0.12961900862268483,-0.17281036882804252,-0.1811179999999999,0.015400999999999998,-0.923102,0.038291000000000075,-0.03637099999999999,-0.918511,0.21940899999999997,0.051771999999999985,0.004591000000000012,0.9983506917774196,0.9506431245370626,double,-0.918511
43,0.358333,stair_decsent,0.023040921636888423,0.010320412816516277,-0.04344173766950341,-0.5472142992724222,0.24875201611820086,0.1772870124053588,0.0007200288011461016,-0.0001200048001887964,0.0007200288011461016,-0.000240009600390916,0.0014400576023055264,0.0003600144005730508,1.7569405524356252,0.7920633638021856,-0.8208656679396358,0.05760460827495283,-0.014401152068738257,0.2016161289671329,-0.014401152071136436,-0.028802304138277276,0.18721497689759542,-0.18130400000000013,0.015313999999999994,-0.922734,0.038096999999999825,-0.036445000000000005,-0.918146,0.21940099999999996,0.051759,0.0045880000000000365,0.9982911308961868,0.9516139069390459,double,-0.918146
44,0.366667,stair_decsent,0.013318934485237835,-0.0021598272138250523,-0.02915766738660823,-0.4340166089611327,0.15682436790627224,0.28079100627031045,0.0010799136069025348,-0.0015598752099814294,-0.00011999040077138885,0.0002399808015427777,-0.0007199424046083507,-0.0011999040076872453,-1.1665451345873024,-1.4975090029207245,1.713951317841993,0.04318272207300611,-0.1727706275249138,-0.10079424069084349,0.05759424069278776,-0.25917926648834594,-0.18717523497243754,-0.18140600000000018,0.015319000000000027,-0.9224920000000001,0.03798799999999991,-0.03643299999999999,-0.9179130000000001,0.2193940000000001,0.05175200000000002,0.004579,0.9968316575638545,0.9518437573861556,double,-0.9179130000000001
45,0.375,stair_decsent,0.02388095523819017,-0.019800792031684465,-0.013680547221882607,-0.13415580307157504,0.06657680614599328,0.07963470808967156,0.001080043201745806,0.00012000480018879719,0.0,-0.000960038401537024,0.00120004800192128,-0.00036001440057305316,1.2674931900818867,-2.117000458161461,1.857328712915596,1.555200327267282e-05,0.20159366496702638,0.014399424069529479,-0.14400806469216426,0.2304080651061605,0.10079078448508272,-0.18159599999999987,0.015485000000000027,-0.9223780000000001,0.037781000000000065,-0.03625799999999996,-0.9178020000000001,0.21937699999999993,0.05174299999999998,0.0045760000000000245,0.9981888505263647,0.9516093054846246,double,-0.9178020000000001
46,0.383333,stair_decsent,0.023520940837643764,-0.022680907236288874,0.0030001200047932073,0.08765808230955499,-0.002339433951493384,0.0629464927490223,0.001320052802110077,-0.001080043201725821,0.0007200288011594295,-0.000840033601328242,0.001080043201725821,-0.001320052802110077,-0.04320345620381714,-0.3456276496585163,2.001760137606607,0.02880230413587804,-0.14401152069058218,0.08640691241562838,0.01440115207113672,-0.014401152069537883,-0.11520921655310529,-0.18178099999999997,0.01566500000000004,-0.922397,0.03757800000000011,-0.03605999999999998,-0.917838,0.21935900000000008,0.05172500000000002,0.00455899999999998,0.9969144268529656,0.9512412773475591,double,-0.917838
47,0.391667,stair_decsent,0.018478521718261018,-0.020878329733615527,0.0010799136069025348,0.09655302081875689,0.004037644399616166,0.16777066884243363,0.00011999040075806724,-0.0011999040076805846,0.00035997120230084497,-0.0011999040076872453,-0.00035997120230084497,-0.0008399328053730787,-0.605041890974651,0.21629199696104456,-0.23040633524006127,-0.14399596848476226,-0.014382146142880175,-0.04320345558658318,-0.04318099428353767,-0.17278790545076372,0.057609790825173736,-0.18193400000000004,0.015828999999999982,-0.922403,0.03741400000000006,-0.035889000000000004,-0.917854,0.2193480000000001,0.051717999999999986,0.004549000000000025,0.9979025500996528,0.9519962400827908,double,-0.917854
48,0.4,stair_decsent,0.020400816032641638,-0.006120244809795156,-0.008400336013442242,0.06271451945837454,0.09283911341239023,0.23589956068710596,0.0016800672026831191,-0.0009600384015370176,0.0008400336013415596,-0.0016800672026831191,-0.0006000240009639668,-0.0015600624025009842,0.23068454510747777,1.7710410324997372,-1.1376754614598268,0.18721670489920142,0.02878502413819345,0.057609792276576574,-0.05762188827503562,-0.028807488139100057,-0.08641900841568492,-0.18209000000000009,0.015871999999999997,-0.922326,0.037230000000000096,-0.035843000000000014,-0.917797,0.21932000000000018,0.05171500000000001,0.004529000000000005,0.9964841802009662,0.9507601584747115,double,-0.917797
49,0.408333,stair_decsent,0.03288131525262308,-0.015720628825152114,-0.04824192967718882,-0.26451877970706345,0.3990066837688794,0.06030325905792192,-0.0007200288011461063,-0.001920076803074048,-0.0010800432017191595,-0.0012000480019279415,-0.002040081603262845,-0.0015600624024876715,1.4977198151903848,-1.1520921655294591,-4.7811824869490795,-0.288023041381163,-0.11520921655310605,-0.23041843310461108,0.05760460827495245,-0.172813824828859,1.5975880997857967e-12,-0.18237000000000014,0.015986999999999973,-0.9219329999999999,0.03694599999999992,-0.03572900000000001,-0.9174079999999999,0.21931600000000007,0.051715999999999984,0.004525000000000001,0.9961372039049979,0.9500254062918483,double,-0.9174079999999999
50,0.416667,stair_decsent,-0.025317974562057,0.4797216222702181,-1.0931125509959134,-13.142424855093644,6.81376318415692,2.8877170265454346,0.0009599232061444676,-0.0007199424046083507,0.0016798656107461574,-0.0023998080153478474,0.0008399328053730787,-0.0032397408207342476,-6.983356109272862,59.448314266303065,-125.37444460267862,0.2015781146256986,0.14400460744728777,0.33116256449067843,-0.1439596848356017,0.34557408310966176,-0.2015452865666636,-0.18215099999999995,0.011982999999999966,-0.912809,0.0371370000000002,-0.03972000000000003,-0.9083249999999999,0.21928800000000015,0.051703,0.0044840000000000435,0.996559345145577,0.9482961481874639,double,-0.9083249999999999
51,0.425,stair_decsent,0.010320412816516345,-0.10152406096244036,-0.1573262930517299,-2.0321706399498183,1.2147886173362863,0.6114712254222537,-0.0002400096003909176,-0.001080043201725821,-0.0010800432017324826,-0.0021600864034649653,-0.000240009600384256,0.0016800672026831304,4.276777556531074,-69.75227207880233,112.29884290701858,-0.14399769669211426,-0.043213824207064835,-0.33120230558966124,0.028767744135711346,-0.12959827262178536,0.5904005788332402,-0.18223900000000004,0.012819999999999998,-0.911507,0.037033000000000094,-0.03887600000000002,-0.9069999999999999,0.21927200000000013,0.05169600000000002,0.004507000000000039,0.9974230771777377,0.9503516076073936,double,-0.9069999999999999
52,0.433333,stair_decsent,0.010680427217089328,-0.02148085923436745,-0.007200288011514309,-0.11156276764726046,0.07309315258112517,0.08598253601906385,0.0003600144005996972,-0.0015600624024943227,0.002160086403464951,-0.0019200768030740352,0.0014400576023055264,-0.002640105604220137,0.043203456207006094,9.605568430105913,18.015841238475335,0.07200576034928745,-0.05760460827655101,0.3888311058679251,0.028802304139077056,0.20161612896793177,-0.5184414744873693,-0.18232499999999985,0.012985999999999998,-0.9114289999999999,0.03692800000000007,-0.038685000000000025,-0.9069619999999999,0.21925299999999992,0.05167100000000002,0.004466999999999999,0.995518749449481,0.9493833346344602,double,-0.9069619999999999
53,0.441667,stair_decsent,0.005759539236866844,-0.02003839692824924,-0.0047996160307223696,-0.05960883499520128,-0.020248994082857377,0.11499409555640738,0.0004799616030589154,-0.0010799136069158635,-0.0008399328053730844,-0.0011999040076872533,-0.00035997120230084735,-0.002159827213831727,-0.590459320881031,0.1730816302037698,0.2880575930875873,0.01439251289407474,0.05761324640970265,-0.3599735071799919,0.08641382234062707,-0.21598617765855338,0.057628796542886065,-0.182369,0.013143999999999989,-0.9113959999999999,0.03686999999999996,-0.03852099999999997,-0.90694,0.21923899999999996,0.05166499999999996,0.0044559999999999045,0.9975835841185556,0.9512786025024454,double,-0.90694
54,0.45,stair_decsent,0.0,-0.022920916836672977,-0.007680307212269494,0.13504283345156853,-0.25486178836254814,0.1255664881650737,0.000240009600390916,-0.0018000720028785772,0.0007200288011461016,-0.0016800672026831191,0.0003600144005730508,-0.0015600624024876611,-0.6911723553182311,-0.34591622565987323,-0.3456967696564397,-0.02879539213584524,-0.08642246441410184,0.18720288089753742,-0.057621888275034665,0.08640172841400398,0.07197465634754152,-0.18236699999999995,0.013319999999999999,-0.9113260000000001,0.036856,-0.038327,-0.9068890000000001,0.21922299999999995,0.051647,0.004437000000000024,0.9967441056450105,0.9517620293600277,double,-0.9068890000000001
55,0.458333,stair_decsent,-0.018000720028812537,-0.08088323532941433,0.05964238569542433,0.6900415866112601,-0.7146382076208295,-0.04104073201205113,0.00048001920075518877,-0.000480019200768512,-0.0015600624025009946,-0.001320052802110077,-0.002400096003835898,-0.0001200048001954588,-2.1601728103699247,-6.955756449386954,8.079046310775711,0.02880230413587824,0.1584126727601186,-0.2736218893132248,0.043203456207013435,-0.33122649758897826,0.17281382482805782,-0.18221299999999996,0.013990000000000002,-0.9118360000000001,0.03699500000000011,-0.037672999999999957,-0.907387,0.21920800000000007,0.05166299999999996,0.004449000000000036,0.9971643972001347,0.9509403533506229,double,-0.907387
56,0.466667,stair_decsent,-0.006119510439141007,-0.02291816654667585,0.006239500839925718,0.008171786335849073,-0.07682576817726655,0.15639537009061746,0.00011999040078471047,-0.0011999040076805846,0.0010799136069158564,-0.00035997120230084497,-0.0007199424046083507,-0.0015598752099880903,1.4256311002725606,6.955251833781908,-6.407833555975349,-0.043199999996457634,-0.08637926648812957,0.3167717793876708,0.11520057593103326,0.20160230372300766,-0.17277062752491362,-0.18216100000000002,0.01417099999999999,-0.911879,0.03704299999999994,-0.037487999999999966,-0.907452,0.21920399999999995,0.051658999999999955,0.004426999999999959,0.9973020683218794,0.9528044862734263,double,-0.907452
57,0.475,stair_decsent,-0.01188047521901734,-0.018360734429372267,0.0020400816032561833,-0.011430414866656394,-0.04373348266162252,0.17168852104172197,0.0007200288011461063,-0.002640105604220154,-0.0001200048001954588,-0.001320052802110077,-0.0001200048001954588,-0.002280091203647101,-0.6913434273222546,0.5469137306256564,-0.5039504664190021,0.0720074883429014,-0.17283110482894193,-0.14399596869210587,-0.11521440055313027,0.07199539234524102,-0.08642937641413807,-0.182056,0.014301999999999981,-0.911897,0.037131000000000025,-0.037336000000000036,-0.907488,0.21918700000000002,0.05163800000000002,0.004408999999999996,0.9954347325051036,0.951514371979715,double,-0.907488
58,0.483333,stair_decsent,-0.0152406096243835,-0.0178807152286103,0.012600504020163363,-0.005682970770197882,-0.05017361958872283,0.1713190126161283,0.0,-0.0004800192007685088,0.0010800432017324755,-0.0015600624025009842,0.0003600144005797124,-0.0014400576023055264,-0.4032322579342549,0.05760460827576692,1.2673013820841394,-0.08640691241402895,0.2592207372436861,0.1440115206921792,-0.028802304139074298,0.05760460827735139,0.10080806448356788,-0.181929,0.014446999999999988,-0.9119929999999999,0.03724499999999997,-0.037183999999999995,-0.907605,0.21917399999999998,0.05163099999999998,0.0043879999999999475,0.9980301496456196,0.9525309847503968,double,-0.907605
59,0.491667,stair_decsent,-0.019798416126706332,-0.01787856971442406,0.005879529637624873,-0.03225698869630695,-0.03850158874475939,0.18091944212571298,0.0004799616030589122,-0.002039836813053663,0.0010799136069158564,-0.001799856011530868,-0.00011999040077138885,-0.000599952003830301,-0.5468930288364324,0.0002574411070603228,-0.8064524097118411,0.05759078510426107,-0.18716314042298451,-1.5550133983574217e-05,-0.028772931249086087,-0.05759596848465332,0.10080460744843107,-0.18176000000000014,0.014579000000000009,-0.9120329999999999,0.037394999999999845,-0.03703600000000001,-0.9076589999999999,0.219155,0.05161500000000002,0.004373999999999989,0.9960709377841024,0.95309165756383,double,-0.9076589999999999
60,0.5,stair_decsent,-0.022080883235324904,-0.017520700828030703,0.006600264010577032,-0.07703379209383433,-0.0025478646265972025,0.18177960213111724,0.00012000480020878201,-0.001680067202689792,0.000480019200768512,-0.0014400576022922126,-0.002040081603262845,-0.0001200048001954588,-0.27390700931460193,0.04294598420657101,0.08649158441763605,-0.04319654420378388,0.04317408020687293,-0.07199020834601534,0.043177536210087145,-0.23042016110541952,0.05759596827491221,-0.18157500000000004,0.014710999999999974,-0.912084,0.037566999999999906,-0.03690700000000002,-0.907715,0.21914199999999995,0.051618,0.004368999999999956,0.9970809793353033,0.9521433000008135,double,-0.907715
61,0.508333,stair_decsent,-0.02460098403936276,-0.01812072482899455,0.005160206408258139,-0.0842539056793019,0.01283501358274447,0.18468827114154107,0.00012000480018213478,-0.0020400816032628316,0.0,-0.002160086403464951,0.0006000240009573052,-0.002640105604220137,-0.3024241934522794,-0.07200576034607532,-0.17281382483125973,-3.1977946525562443e-12,-0.04320345620701286,-0.05760460827655226,-0.08640691241722492,0.3168253455202375,-0.3024241934506981,-0.1813690000000001,0.014844999999999997,-0.912127,0.03775399999999984,-0.036751000000000034,-0.90778,0.21912299999999996,0.05159600000000003,0.00434699999999999,0.9965939864862773,0.950757421220981,double,-0.90778
62,0.516667,stair_decsent,-0.02651787856971778,-0.022558195344375156,0.0027597792176487107,-0.13272111959767274,0.02206099844988608,0.1914444363981714,-0.001079913606902542,0.00011999040076472885,0.0016798656107461687,-0.0004799616030589154,-0.0008399328053730844,0.00035997120230084735,-0.23000894292716986,-0.5324538655364327,-0.2880282206154838,-0.14397869055491763,0.2591879054508726,0.20156774786971182,0.20159884814087414,-0.17278099428010532,0.3599804183490522,-0.181157,0.015033999999999992,-0.912136,0.03797099999999998,-0.03656999999999999,-0.9077999999999999,0.219128,0.05160399999999998,0.0043360000000000065,0.9966656003518806,0.9549196725728006,double,-0.9077999999999999
63,0.525,stair_decsent,-0.028561142445692963,-0.017040681627262078,0.0032401296051841034,-0.11711814349363892,0.007936282258579579,0.18258284911528308,0.0006000240009639668,-0.0016800672026831191,-0.0007200288011594248,-0.0012000480019279335,0.0003600144005730508,-0.0014400576023055264,-0.24520147317594776,0.6621281311788139,0.057644352278338015,0.20160057696705888,-0.21601555303586228,-0.2879988493826453,-0.0864138244172585,0.14399942469052324,-0.2160120970366454,-0.18091400000000002,0.015162000000000009,-0.912169,0.03819899999999987,-0.03642500000000004,-0.907839,0.2191129999999999,0.05158700000000005,0.004330000000000056,0.9967936278367378,0.9535186780029931,double,-0.907839
64,0.533333,stair_decsent,-0.030601224048976187,-0.015720628825152218,0.005400216008649127,-0.1099329743313863,0.011695894267309924,0.19700910794364096,0.0003600144005730556,0.00012000480018879799,0.00036001440058637876,-0.0003600144005730556,-0.0003600144005730556,-0.0009600384015370304,-0.2448195851773963,0.15841267276009502,0.259220737245295,-0.028802304139075165,0.21601728103587348,0.12961036862424258,0.10080806448516567,-0.08640691241403012,0.05760460827655112,-0.18065599999999993,0.015293999999999974,-0.912211,0.03845100000000001,-0.036297000000000024,-0.907892,0.21910699999999994,0.051591,0.004318999999999962,0.9991281853386982,0.9549988505263958,double,-0.907892
65,0.541667,stair_decsent,-0.03167746580274058,-0.017878569714423937,0.0016798656107461464,-0.10593541967619528,0.031078708759045122,0.192843425660076,-0.00011999040078470967,-0.00011999040076472725,-0.0003599712023141642,-0.00011999040075806644,0.00035997120230084253,-0.0008399328053730732,-0.1291386793573772,-0.25893219213723334,-0.44640633524153495,-0.05759596848545256,-0.028797120344795226,-0.08639136103918135,0.028800575931723943,0.08639136103598424,0.014411518618185298,-0.18039300000000003,0.015442000000000011,-0.912228,0.03871400000000014,-0.03614500000000004,-0.907913,0.21910700000000016,0.05158700000000005,0.004315000000000069,0.9993367281036583,0.9553138937389343,double,-0.907913
66,0.55,stair_decsent,-0.033001320052805004,-0.019560782431300078,0.0036001440057571543,-0.07507683712086462,0.015430148461378206,0.19556971645164825,0.000480019200781832,-0.0009600384015370176,0.0,0.0004800192007551856,0.0,0.000120004800195458,-0.15886886476232104,-0.2018736009691748,0.23044262510632424,0.07200403234927867,-0.1008097924843738,0.043198272208587865,0.07200403234288366,-0.0431982722069892,0.11519712055304539,-0.18011399999999989,0.015597000000000028,-0.912258,0.038993000000000055,-0.035982000000000014,-0.9079419999999999,0.21910699999999994,0.05157900000000004,0.0043160000000000975,0.9982110740609509,0.9560153458887304,double,-0.9079419999999999
67,0.558333,stair_decsent,-0.0345613824552798,-0.020160806432257653,0.00432017280692996,-0.08995883219972146,-0.007962382263332969,0.2115974062097434,0.0010800432017191667,0.0008400336013415707,0.001320052802123409,-0.0006000240009639748,0.00108004320173249,-0.0009600384015370304,-0.18721497689605326,-0.07200576034532352,0.08640691241723417,0.07200576034289453,0.21601728103667403,0.158412672761721,-0.12961036862104527,0.12961036862264488,-0.1296103686226447,-0.17981700000000012,0.015772000000000008,-0.9122830000000001,0.03927599999999987,-0.035804999999999976,-0.9079860000000001,0.21909299999999998,0.051576999999999984,0.004296999999999995,0.9968312773475401,0.9544222147264995,double,-0.9079860000000001
68,0.566667,stair_decsent,-0.034917206623474806,-0.022198224142067353,0.005639548836082057,-0.08062728548677332,-0.006022070601379387,0.21916132328554394,0.0008399328053863948,-0.0005999520038369578,0.002039836813046989,0.0,-0.0003599712023075034,-0.00011999040077138805,-0.042695484544636605,-0.24447056753175964,0.15831245850157033,-0.02881094268451765,-0.17278444986543287,0.08636717193707394,0.07199712034604874,-0.1727879054523617,0.10079769627617421,-0.17951899999999998,0.01595200000000002,-0.912313,0.03956699999999991,-0.035623000000000016,-0.908034,0.2190859999999999,0.05157500000000004,0.004279000000000033,0.9961897930399117,0.9565775950603534,double,-0.908034
69,0.575,stair_decsent,-0.03600144005759867,-0.02232089283571597,0.004680187207476369,-0.04022055442384153,-0.03728077134379892,0.22437124498646185,-0.0003600144005730556,-0.0009600384015370304,-0.0003600144005730556,0.0001200048002087828,0.0002400096003842576,-0.0004800192007685152,-0.13011321662353,-0.014720832071117032,-0.11512800055270572,-0.14399942469212304,-0.04321209620785742,-0.2879936653810232,0.014401152071136914,0.07200057634606583,-0.043205184207023926,-0.179222,0.016130000000000033,-0.9123549999999999,0.039868000000000015,-0.035434999999999994,-0.9080769999999999,0.21909,0.05156500000000003,0.004278000000000004,0.9981888505263954,0.9563034481989298,double,-0.9080769999999999
70,0.583333,stair_decsent,-0.03540141605666087,-0.02364094563782574,0.007200288011540955,-0.05073148929506988,0.0023037082591597672,0.24095138310524666,-0.000480019200781832,-0.0004800192007685088,-0.0006000240009639668,0.002400096003829221,-0.0003600144005730508,0.0009600384015370176,0.07200576034294978,-0.15841267276008208,0.3024241934554872,-0.014401152071135955,0.057604608276553414,-0.02880230413907478,0.2736218893100238,-0.0720057603452905,0.1728138248296564,-0.17893099999999995,0.016323000000000032,-0.9124200000000001,0.04018300000000008,-0.03524099999999997,-0.9081290000000001,0.21911400000000003,0.051564,0.004291000000000045,0.9984899727118374,0.9527401133703649,double,-0.9081290000000001
71,0.591667,stair_decsent,-0.03515718742499094,-0.021238300935922893,0.00611951043916761,-0.03813035747611072,-0.0038200300374586892,0.23976891570044762,0.0005999520038436186,-0.001679865610752807,0.00011999040077138805,0.0008399328053863948,0.0010799136069091885,-0.0017998560115175344,0.029305091393080022,0.28829430068428474,-0.12968293405007636,0.1295861776608402,-0.14397005159398718,0.08639481662291208,-0.18720460744454212,0.1727775386947718,-0.3311608366996078,-0.17863300000000004,0.016486,-0.9124700000000001,0.04048300000000005,-0.035055,-0.9081950000000001,0.2191160000000001,0.051541000000000003,0.004275000000000029,0.9970203054904053,0.9534820127026973,double,-0.9081950000000001
72,0.6,stair_decsent,-0.05640225609024058,-0.1024840993639714,-0.014640585623446374,0.038892576084332615,-0.09577314364666048,0.06899223514071257,0.0,-0.001320052802110086,-0.0004800192007685152,0.0016800672026831415,0.0001200048001954596,0.0010800432017191667,-2.5495102202387896,-9.749885806798183,-2.491311179960899,-0.07199712034604873,0.04317926420769523,-0.0720040323460829,0.10082016048202981,-0.11519366455223061,0.34560172965759356,-0.17816300000000007,0.017328999999999983,-0.9123519999999999,0.040966999999999976,-0.03420000000000001,-0.908064,0.21913000000000005,0.05152899999999999,0.0042879999999999585,0.997658966376514,0.9537852002079168,double,-0.908064
73,0.608333,stair_decsent,-0.03696147845913521,-0.01608064322573172,0.007800312012478276,-0.03261062909744587,0.04196965744774871,0.23308322171813278,0.0,0.0,0.0006000240009639668,-0.000480019200781832,0.0004800192007685088,0.0010800432017324755,2.3329866351980426,10.36882948976831,2.6930154369284236,0.0,0.15841267276012005,0.1296103686226422,-0.25922073724528555,0.043203456207014004,1.5971197057115095e-12,-0.1778550000000001,0.017463000000000006,-0.9124119999999999,0.041270999999999836,-0.03406199999999998,-0.9081199999999999,0.21912599999999993,0.05152499999999999,0.0042919999999999625,0.9989999599983934,0.95495388579287,double,-0.9081199999999999
74,0.616667,stair_decsent,-0.037676985841150624,-0.01703863690905109,0.009479241660686671,-0.03514164630468486,0.06509732196833393,0.20608582074830545,0.0005999520038436266,-0.000479961603072237,-0.00035997120230084735,0.002159827213831727,-0.0002399808015361185,-0.0002399808015294577,-0.08585401752044883,-0.11495004599464555,0.20145544134970067,0.07198848138272498,-0.0575907851058603,-0.11519020917504434,0.31675622925528846,-0.08639308882944942,-0.1583902091746989,-0.17753599999999992,0.017601000000000033,-0.912494,0.04160300000000006,-0.03392199999999995,-0.908201,0.21913899999999997,0.051522999999999985,0.004292999999999991,0.9985858995656587,0.9534261180788827,double,-0.908201
75,0.625,stair_decsent,-0.03756150246009917,-0.018720748829951856,0.0067202688107324765,-0.03991131534065807,0.06891556977304664,0.20930799604063607,0.0010800432017191524,-0.0004800192007685088,-0.000360014400586374,0.0019200768030740352,0.0020400816032628316,-0.0018000720028785772,0.013858560068577146,-0.20186150496828972,-0.3310899855939258,0.057613248274993846,-6.912000032616304e-06,-5.184001623261972e-06,-0.028771200138928466,0.2736184333132054,-0.18721843289920953,-0.17721399999999998,0.01775300000000002,-0.912553,0.04193200000000008,-0.03374899999999997,-0.9082719999999999,0.21914600000000006,0.05150199999999999,0.00428100000000009,0.9979407916034744,0.9516400032299246,double,-0.9082719999999999
76,0.633333,stair_decsent,-0.034921396855879035,-0.020400816032641638,0.00912036481461499,-0.0435356858051058,0.08523494650893446,0.21334752029476378,0.0007200288011461016,-0.000120004800195458,0.0004800192007685088,0.002520100804038002,0.0007200288011527632,0.001440057602292203,0.3168253455202358,-0.2016161289679317,0.28802304138755597,-0.0432034562070142,0.04320345620701419,0.10080806448516492,0.07200576034608955,-0.15841267276011795,0.3888311058647266,-0.176917,0.017921999999999993,-0.9126250000000001,0.04224400000000017,-0.033572999999999964,-0.9083360000000001,0.21916100000000016,0.05149499999999996,0.004288999999999987,0.998543919778942,0.952125826315303,double,-0.9083360000000001
77,0.641667,stair_decsent,-0.03407727381808886,-0.015118790496755482,-0.0011999040076872533,-0.000338511721904209,0.04995832002019733,0.20858464455789028,0.0008399328053864059,0.0021598272138250666,-0.00035997120230084735,0.0,0.0032397408207342692,0.0007199424046150163,0.10128666160189354,0.6337923609174689,-1.2383331920209146,0.01438732952247481,0.27355795704590086,-0.10079078510551488,-0.3023879054521258,0.3023412550493785,-0.08640691116836943,-0.17662599999999995,0.01806599999999997,-0.912618,0.04252800000000012,-0.033420000000000005,-0.90832,0.21915400000000007,0.051485999999999976,0.004298000000000024,0.9960913486349617,0.9514887158283551,double,-0.90832
78,0.65,stair_decsent,-0.033001320052805004,-0.010920436817473582,-0.007440297611905225,0.06522316020042895,0.030221205293398657,0.23926154515311782,0.0008400336013548828,0.0009600384015370176,0.0007200288011594248,0.001200048001901287,0.00252010080403134,-0.0009600384015370176,0.12911961661872676,0.5038225944176026,-0.7488771875936572,1.2096000057223278e-05,-0.14398041669123293,0.12960518462261703,0.1440115206889814,-0.08636025641460772,-0.20160576096868196,-0.17634399999999983,0.018164999999999987,-0.91255,0.04281299999999999,-0.033308000000000004,-0.908266,0.21915699999999982,0.05147299999999999,0.0042839999999999545,0.9975585912204846,0.952240453667661,double,-0.908266
79,0.658333,stair_decsent,-0.02868114724587548,-0.006720268810752551,0.009120364814588465,-0.06630628659575288,0.08563722953891226,0.29305093774356833,0.0003600144005730556,-0.0020400816032628585,-0.0036001440057705256,0.0004800192007818384,0.0022800912036471162,0.0006000240009639748,0.5184414744905272,0.5040403224194252,1.9873589855386826,-0.057604608278150914,-0.3600288017280575,-0.5184414744905784,-0.08640691241083107,-0.02880230413827266,0.18721497689919675,-0.17610199999999998,0.018203999999999998,-0.912656,0.04305599999999998,-0.03323300000000001,-0.908337,0.21915799999999996,0.05143700000000001,0.004319000000000073,0.9930772957718668,0.9527998520629245,double,-0.908337
80,0.666667,stair_decsent,-0.027477801775861888,-0.009119270458365721,0.0021598272138316985,-0.036985605219398636,0.06786547529266533,0.29924859719266306,0.001199904007660594,0.0013198944084453037,0.0,0.0010799136069025276,0.0007199424046083459,0.0002399808015294545,0.14438990520921322,-0.287857169140047,-0.8351976962751037,0.10077869055525943,0.4031648682155191,0.4319827220746938,0.07198157020886546,-0.18720287965427868,-0.04320172779391859,-0.1758630000000001,0.018291,-0.9126740000000001,0.043293999999999944,-0.033150999999999986,-0.9083530000000001,0.21915700000000005,0.05144199999999999,0.004321000000000019,0.9970270240886328,0.9545901759859343,double,-0.9083530000000001
81,0.675,stair_decsent,-0.025201008040326725,-0.006840273610941258,0.0006000240009639668,-0.017382381278362974,0.08688838304158769,0.3254037051078264,0.0015600624025009842,-0.0016800672026897807,-0.0019200768030740352,0.0,0.003000120004799849,-0.0014400576023055264,0.2732261773113109,0.273490561313387,-0.18718387289904298,0.04322073621029505,-0.3600097937279577,-0.2304184331062075,-0.1295948166209676,0.2736322573132718,-0.20161267296711555,-0.17564000000000002,0.01833399999999996,-0.9126950000000001,0.04350399999999999,-0.033069000000000015,-0.9083700000000001,0.219144,0.051402999999999976,0.004325000000000023,0.995015826315294,0.9512036082947862,double,-0.9083700000000001
82,0.683333,stair_decsent,-0.021960878435142914,-0.025081003240131603,-0.059162366494669535,0.4894746241960151,0.19667942796889523,0.2560015737853552,0.0009600384015370304,-0.0002400096003842576,0.002400096003842576,0.0001200048002087828,0.002400096003842576,-0.0001200048001954596,0.3888311058662955,-2.188975114507442,-7.171773730425303,-0.07200576034608897,0.17281382482965754,0.5184414744889777,0.014401152071136914,-0.07200576034528725,0.1584126727601199,-0.17544899999999997,0.018540999999999974,-0.912182,0.04368800000000017,-0.03283999999999998,-0.9078780000000001,0.21913700000000014,0.051380999999999954,0.0043039999999999745,0.9956731653960547,0.9529498520629244,double,-0.9078780000000001
83,0.691667,stair_decsent,-0.017878569714417276,-0.006359491240703725,0.0002399808015427761,0.00554895714189481,0.07457103561580787,0.3344681412755551,0.00155987520998808,-0.002279817614589765,-0.0034797216222636805,-0.0007199424046283283,0.0004799616030722306,-0.0011999040076739157,0.48983785945831626,2.2464017277931045,7.127711458628733,0.07197465904140209,-0.24475738111416986,-0.7055216733988734,-0.10078560173231399,-0.23039769627673753,-0.1295775386943182,-0.17528699999999997,0.018575000000000008,-0.912213,0.04383099999999995,-0.03278299999999995,-0.9078900000000001,0.21911799999999992,0.05135799999999996,0.004322999999999966,0.992595188952261,0.9543044316442715,double,-0.9078900000000001
84,0.7,stair_decsent,-0.013920556822273616,-0.004320172806909975,0.00012000480018213638,0.007611221967232826,0.08181380055124436,0.35199184892563107,0.0003600144005730556,0.0001200048001954596,0.0007200288011461112,-0.0003600144005730556,0.0016800672026831415,0.0007200288011594343,0.47498054627909464,0.24472800117529925,-0.014397696071119742,-0.1439890566920719,0.2879902093826049,0.5039902104175964,0.04319308821016153,0.14401843269061823,0.23040115310612835,-0.175168,0.018612000000000017,-0.912208,0.04394399999999998,-0.03273300000000001,-0.9078849999999999,0.21911199999999997,0.05134500000000003,0.004323000000000077,0.9986434797425747,0.9536650408623855,double,-0.9078849999999999
85,0.708333,stair_decsent,-0.19932797311891343,-0.05040201608064013,0.14556582263289375,-1.1895633775547567,0.6977962691846686,-0.5809359238882279,0.000240009600390916,-0.0019200768030740352,-0.0013200528021100684,-0.001440057602292203,0.0019200768030740352,-0.0013200528021233915,-22.249779946794558,-5.530042394543377,17.45419630777763,-0.014401152067939408,-0.24481958517574537,-0.24481958517414748,-0.12961036862104203,0.028802304139072685,-0.24481958517734514,-0.17350500000000002,0.019015999999999977,-0.9134319999999999,0.045592999999999995,-0.03229700000000002,-0.909109,0.21909800000000001,0.051313,0.004322999999999966,0.9960959995807928,0.9522047325050943,double,-0.909109
86,0.716667,stair_decsent,-0.008279337652999309,-0.0701943844492438,0.05267578593713401,-0.42051628056261403,-0.6884766039924616,0.3372940526466376,0.0002399808015427761,-0.00011999040076472725,-0.0011999040076739157,-0.0010799136069291708,0.00011999040076472725,-0.0013198944084453037,22.924002335722662,-2.374894212695406,-11.145912730472645,-3.4555853299624764e-06,0.2159930888300089,0.014416701996178526,0.04321382233777652,-0.2159930888300089,1.900572091286814e-05,-0.17343399999999987,0.019600000000000006,-0.9138809999999999,0.045652999999999944,-0.031711000000000045,-0.909559,0.2190869999999998,0.05131100000000005,0.004321999999999937,0.9979507737849125,0.9539306665769038,double,-0.909559
87,0.725,stair_decsent,-0.02604104164165531,-0.15696627865115123,0.0956438257530234,-1.474112866877752,-0.8445026371585113,0.39683500682733486,-0.0001200048002087828,0.00012000480018879799,0.0006000240009506516,-0.0014400576022922224,0.0004800192007685152,0.0008400336013415707,-2.131489738228269,-10.413043825982028,5.156371032748083,-0.04320000021019587,0.028800576137468795,0.21600000103499145,-0.04321900820389474,0.04320518420782326,0.2592017292435971,-0.1732180000000001,0.02090900000000001,-0.914673,0.045857999999999954,-0.03039900000000001,-0.910349,0.21907600000000005,0.05130800000000002,0.0043239999999999945,0.9989607279445871,0.9538685178817734,double,-0.910349
88,0.733333,stair_decsent,-0.30433217328694145,0.11724468978759169,-0.030001200047985167,0.9076379307073675,0.6413104739156277,-1.396594868623238,-0.001200048001901287,-0.0004800192007685088,-0.0006000240009506435,-0.0008400336013548828,0.0,-0.002400096003829221,-33.39627164830013,32.90663247794813,-15.07800621636962,-0.12961036861784467,-0.07200576034529033,-0.14401152068898238,0.07200576034289417,-0.057604608276552643,-0.38883110586472797,-0.17069199999999984,0.019928,-0.914428,0.04838699999999996,-0.031376000000000015,-0.910119,0.2190789999999998,0.051304000000000016,0.004309000000000007,0.9976250365840884,0.9526719064561859,double,-0.910119
89,0.741667,stair_decsent,-0.03911687065035401,-0.020158387329013972,0.0027597792176487107,-0.23282637175639884,-0.018386633989023567,0.3428791508824965,0.00011999040075806804,-0.0008399328053730844,0.001079913606902542,-0.0015598752099614574,-0.0002399808015361185,-0.0008399328053864059,31.82329045315442,-16.487050289969574,3.931003031633557,0.15839193696416637,-0.04318617765833665,0.20157638683143692,-0.08637408310614095,-0.02879539255293015,0.1872046074445433,-0.17036499999999988,0.020089000000000024,-0.914442,0.04870000000000019,-0.031210000000000016,-0.910149,0.21906500000000007,0.05129900000000004,0.004292999999999991,0.997711078485285,0.9540903054904337,double,-0.910149
90,0.75,stair_decsent,-0.042121684867393344,-0.00804032161286253,-0.0008400336013282363,-0.007849087788341811,0.17369625442204176,0.37492288663523,-0.000480019200781832,-0.0020400816032628316,-0.0019200768030740352,-0.002520100804038002,-0.0004800192007685088,-0.0007200288011461016,-0.36059212972990756,1.4542260549803663,-0.43199481806995466,-0.07200403234608155,-0.1440236166914367,-0.36001324972717685,-0.11523168055640712,-0.028805760138292245,0.01438905607107931,-0.170018,0.020139000000000018,-0.9144510000000001,0.04903000000000013,-0.031147000000000036,-0.9101480000000001,0.21904800000000013,0.051286000000000054,0.004303000000000057,0.9952627227959765,0.9525291017018259,double,-0.9101480000000001
91,0.758333,stair_decsent,-0.061922476899071016,0.03564142565702514,0.01728069122763967,0.027625133755739474,0.021533015581721777,0.3784523280941332,-0.001440057602292203,0.0006000240009573052,0.002040081603269493,-0.0006000240009639668,-0.0014400576022988647,-0.000240009600390916,-2.376190091404967,5.242019353160624,2.174573962434637,-0.11520921654990604,0.3168253455202359,0.47523801828195267,0.2304184331062075,-0.11520921655230432,0.05760460827495302,-0.16951399999999994,0.019847000000000004,-0.914578,0.04954100000000006,-0.031455999999999984,-0.910294,0.219055,0.05130299999999999,0.0042839999999999545,0.9957196418738735,0.9545293054846304,double,-0.910294
92,0.766667,stair_decsent,-0.06611471082313071,0.010439164866811164,-0.016678665706730263,0.00030896422264930275,-0.0928024565484509,0.406642856361447,-0.0016798656107461687,0.001439884809216711,0.00011999040077138965,-0.0035997120230351165,0.0016798656107461687,-0.0011999040076739317,-0.5030278286608733,-3.024029372475896,-4.074796848376545,-0.028774659041752696,0.10077523497233148,-0.23039251289874182,-0.3599337679471043,0.37436083669847026,-0.11517811462479255,-0.16897699999999993,0.019772000000000012,-0.9144380000000001,0.05006200000000005,-0.03152900000000003,-0.9101650000000001,0.21903899999999998,0.05130100000000004,0.004272999999999971,0.9963070583728106,0.9503539067011584,double,-0.9101650000000001
93,0.775,stair_decsent,-0.04176167046682029,0.007440297611905225,0.0016800672026831191,-0.19767433561476058,-0.04685551322354174,0.5673025054450449,-0.00204008160325617,-0.0008400336013482211,0.000120004800195458,-0.0012000480019279335,0.0003600144005797124,-0.0015600624025009842,2.922481742026919,-0.3598784657273403,2.20313607457258,-0.043227648207128246,-0.27360115331392326,1.728000008202867e-06,0.287971201380916,-0.15838848075920445,-0.04322073620869447,-0.16864599999999985,0.01970299999999997,-0.914451,0.0504,-0.031588000000000005,-0.9101920000000001,0.21904599999999985,0.051290999999999976,0.004258999999999902,0.9963174621705917,0.9540752002078874,double,-0.9101920000000001
94,0.783333,stair_decsent,-0.032401296051841465,-0.0038401536061481215,-0.0429617184687488,0.23088687479641862,0.43116845525252584,0.49603461896427964,-0.000840033601354894,0.0019200768030740608,-0.00036001440058637876,-0.0032401296051841467,0.0027601104044156313,-0.0004800192007685152,1.123289861391925,-1.353708294498194,-5.357228569714668,0.144011520688982,0.3312264975905805,-0.057604608278152065,-0.24481958517415478,0.2880230413819682,0.12961036862264236,-0.16838299999999995,0.01975100000000002,-0.914096,0.050642999999999994,-0.03153299999999998,-0.909838,0.21902599999999994,0.051283999999999996,0.004257999999999984,0.9964558492046214,0.9502810871244558,double,-0.909838
95,0.791667,stair_decsent,-0.020398368130549818,0.012119030477563832,-0.02831773458122164,0.05203719123943735,0.20393858384180316,0.6467855842829673,-0.0021598272138316985,0.0010799136069091885,-0.00035997120230084253,0.00011999040078470967,-0.0027597792176619956,0.0,1.4402361316644534,1.9149488941338888,1.7571374955036054,-0.158362564492056,-0.10081151861829443,5.183379593980928e-06,0.4031821461445681,-0.6623337679478744,0.05759769627651926,-0.16823100000000002,0.019658999999999982,-0.9138630000000001,0.05081400000000014,-0.03165699999999999,-0.9096020000000001,0.21904500000000016,0.05131599999999997,0.004260999999999959,0.9959309275359114,0.9527860225449081,double,-0.9096020000000001
96,0.8,stair_decsent,-0.02328093123725269,0.016680667226689025,-0.016920676827093264,-0.13512326292254948,0.0516449022222314,0.6290099453197341,-0.0013200528021100684,0.001200048001921272,-0.000120004800195458,-0.0020400816032828165,0.0021600864034582896,-0.0018000720028785772,-0.3459214096607298,0.547418306627286,1.367701638560942,0.10077696048501458,0.014416704069612733,0.028797120137451518,-0.25921900924847197,0.5904074908340651,-0.2160172810366698,-0.16804799999999998,0.019529999999999992,-0.913723,0.05099100000000001,-0.03177799999999997,-0.909476,0.21903899999999998,0.051307999999999965,0.004247000000000001,0.997019947912767,0.9517401224744277,double,-0.909476
97,0.808333,stair_decsent,-0.03348133925356063,0.02436097443897883,-0.016680667226675924,-0.18123749939257683,0.14685094680605254,0.5245607790060012,-0.0009600384015370304,0.0,0.000840033601354894,-0.0024000960038292525,-0.0002400096003842576,-0.0009600384015370304,-1.2240979258739988,0.9216737324240819,0.028802304142246778,0.04320345620701324,-0.1440115206913816,0.11520921655470548,-0.043203456203820864,-0.28802304138276363,0.10080806448356587,-0.16777700000000006,0.019326999999999983,-0.913577,0.05125000000000002,-0.031982999999999984,-0.9093450000000001,0.21902700000000008,0.05130999999999997,0.0042319999999999025,0.9978738857928717,0.9533531653960762,double,-0.9093450000000001
98,0.816667,stair_decsent,-0.05483561315093907,-0.0029997600191981107,-0.014878809695225826,-0.3534887252549849,-0.2070117484349499,0.3931842964560078,-0.0023998080153478313,0.0003599712023075034,-0.0009599232061444612,-0.002279817614589765,0.00011999040076472725,0.0003599712023141642,-2.562307883054749,-3.283025492941772,0.21620560732542407,-0.17275853297465682,0.04319308882979369,-0.21597753869682523,0.014432252128568112,0.0431965444143247,0.15838848138363146,-0.16734000000000004,0.01935500000000001,-0.913461,0.051687999999999956,-0.03195700000000001,-0.909218,0.219028,0.051312000000000024,0.004242999999999997,0.9956506353150039,0.9537180361002597,double,-0.909218
99,0.825,stair_decsent,-0.03456138245530645,0.006000240009599778,-0.02868114724590213,-0.10301323934226428,0.07146080700621944,0.4994378205885451,-0.000840033601354894,-0.0001200048001954596,-0.0019200768030740608,-0.0007200288011461112,-0.0006000240009573131,-0.002400096003842576,2.4330050036760844,1.080043205183964,-1.6563467599515695,0.18718041689583004,-0.05759942427732718,-0.11522304055317513,0.18718214489903612,-0.08640518441402219,-0.33122131359135554,-0.16705900000000007,0.019303999999999988,-0.9132379999999999,0.05197000000000007,-0.032011999999999985,-0.9089989999999999,0.21902900000000014,0.05131599999999997,0.004238999999999993,0.996501288914639,0.953315646115128,double,-0.9089989999999999
100,0.833333,stair_decsent,-0.026161046441863744,0.004320172806909917,-0.022320892835715672,-0.12244016253805014,0.09660725058427942,0.5388017672488322,-0.002280091203647086,-0.0009600384015370176,0.000120004800195458,-0.0003600144005996972,0.0002400096003842544,-0.0003600144005730508,1.0080806448389137,-0.20161612896794118,0.7632610596647582,-0.17281382482805543,-0.10080806448356587,0.24481958517574823,0.04320345620381765,0.10080806448356702,0.244819585175749,-0.16686,0.01926,-0.9130509999999998,0.052184999999999926,-0.03204599999999996,-0.9088159999999998,0.21904499999999993,0.05130599999999996,0.004234999999999989,0.9958718813871461,0.9567118793231861,double,-0.9088159999999998
101,0.841667,stair_decsent,-0.026997840172776337,-0.004199664026878687,-0.017518598512116436,-0.14654530360961762,0.03686183237824474,0.5202641615070016,-0.0005999520038436186,0.0002399808015361153,-0.0005999520038436186,0.0,0.0013198944084453037,0.00011999040075806644,-0.10040721513229983,-1.0222986361637316,0.5762292204942644,0.20160057593034011,0.14399078510596636,-0.08638790545225236,0.043198272210186524,0.1295758109024527,0.057595968482255046,-0.16664000000000012,0.01929700000000001,-0.9129099999999999,0.052409999999999846,-0.03199999999999997,-0.908669,0.21904999999999997,0.05129699999999998,0.004240999999999939,0.9985304237204234,0.9553811045082073,double,-0.908669
102,0.85,stair_decsent,-0.018840753630140906,-0.0010800432017258282,-0.011760470418808637,-0.1781755094605997,0.010485229615801773,0.5567704623118622,-0.002520100804011389,0.001560062402501005,0.0009600384015370304,-0.0010800432017191667,0.0027601104044156313,-0.0003600144005730556,0.9788895406978886,0.3743694737972984,0.6910030113173948,-0.2304270731030587,0.15841612876093866,0.18720633689915556,-0.12961036862104602,0.1728328328297541,-0.057602880274946165,-0.16650399999999999,0.01931900000000003,-0.912804,0.05255799999999988,-0.031967999999999996,-0.908574,0.21906199999999987,0.05128700000000003,0.004229999999999956,0.9948074903053368,0.9527238588325107,double,-0.908574
103,0.858333,stair_decsent,-0.013440537621518246,-0.005160206408258139,-0.00828033121323346,-0.2573411874054399,-0.035752874206494686,0.5650231061035457,-0.0010800432017457988,0.0019200768030673734,-0.0004800192007685088,0.0009600384015370176,0.005400216008642393,0.0008400336013415596,0.648051843108441,-0.48963917035068927,0.4176334100054197,0.1728138248248631,0.04320345620621227,-0.17281382482965718,0.24481958517414804,0.31682534552103087,0.14401152069058085,-0.16640100000000002,0.019378000000000006,-0.9127390000000001,0.052678,-0.031879999999999964,-0.9084980000000001,0.21907900000000002,0.05125799999999997,0.004240999999999939,0.9962421908420149,0.9483419276597465,double,-0.9084980000000001
104,0.866667,stair_decsent,-0.00779937604991386,-0.003479721622270388,-0.015478761699069652,-0.1315275295868934,0.05807692639682169,0.5659424055860748,-0.0002399808015427793,-0.000479961603072237,-0.000479961603072237,0.0014398848092300326,0.0015598752099814399,0.001439884809216711,0.6768852377735083,0.20164204295509486,-0.8637425588956362,0.10079942407043728,-0.287981570211138,6.911170658962351e-06,0.05757696276614084,-0.4608040315167956,0.07197638683407186,-0.1663380000000001,0.019403000000000004,-0.912614,0.05275500000000011,-0.03183799999999998,-0.9083570000000001,0.2190930000000002,0.05124099999999998,0.004256999999999955,0.9988000959923158,0.9531548303482729,double,-0.9083570000000001
105,0.875,stair_decsent,-0.002640105604220137,-0.007320292811709766,-0.0163206528261293,-0.09847013744323362,0.10897338349684821,0.5698351870085904,-0.0007200288011461016,0.0003600144005797124,-0.000120004800195458,0.001560062402474338,0.005280211208446935,-0.002280091203647086,0.619137218972003,-0.4608869782118519,-0.10103097648621663,-0.05760806427496943,0.10080115248433288,0.043196544206981574,0.014421888064839183,0.4464581781429833,-0.4464149781427795,-0.16632200000000008,0.019467000000000012,-0.9124789999999999,0.05278999999999989,-0.03173300000000001,-0.9082399999999999,0.21911199999999997,0.05120000000000002,0.004238999999999993,0.9986434797425698,0.9476778354990842,double,-0.9082399999999999
106,0.883333,stair_decsent,-0.0019200768030740352,-0.01476059042361499,-0.02004080163206859,-0.09560581139432818,0.03983696997711319,0.5510267929551343,0.000240009600390916,-0.0010800432017324755,0.0004800192007685088,0.002640105604246783,0.005280211208446935,-0.0002400096003775928,0.0864069124140284,-0.8928714282857546,-0.44643571414127864,0.11520921655310375,-0.17281382483045502,0.07200576034608955,0.12961036862743797,0.0,0.24481958517574517,-0.166304,0.01958099999999996,-0.9123079999999999,0.0528280000000001,-0.03156600000000004,-0.9080749999999999,0.2191320000000001,0.051147,0.004233000000000042,0.9979899444735456,0.9478227792110807,double,-0.9080749999999999
107,0.891667,stair_decsent,0.0014398848092033894,-0.017398608111351938,-0.015958723302128566,-0.10556816232027923,0.027340750679752973,0.5501010656708676,0.0,-0.00035997120230084735,-0.0011999040076739317,0.0041996640268521,0.004439644828414861,-0.0015598752099881005,0.40316314042205953,-0.3165367995844687,0.4898102147756235,-0.02879884813905896,0.08640172779357239,-0.20157465904037078,0.18713204014942716,-0.10085989681210443,-0.15837120345698527,-0.1663159999999999,0.01972299999999999,-0.9121849999999999,0.05285099999999998,-0.03138400000000002,-0.907955,0.2191669999999999,0.051107000000000014,0.004229999999999956,0.9979121057297696,0.9471879916799302,double,-0.907955
108,0.9,stair_decsent,0.011280451218053295,-0.014160566422657686,-0.02364094563782574,0.02180908048126077,0.1291074669934807,0.5870678056728382,0.0003600144005730508,-0.0003600144005730508,-0.0004800192007685088,0.00528021120846692,0.00504020160806268,-0.0036001440057571543,1.1809152056702106,0.3885805458651432,-0.921903556425914,0.04320345620701419,-5.18400002441181e-06,0.08638963241394695,0.12967084862772293,0.0720696963455918,-0.24484204917425237,-0.16640699999999997,0.019838000000000022,-0.9119919999999999,0.0528010000000001,-0.03122400000000003,-0.9077879999999999,0.21920800000000007,0.05106200000000005,0.0042039999999999855,0.9988337629715544,0.9443947974256305,double,-0.9077879999999999
109,0.908333,stair_decsent,0.00900036001440633,-0.01944077763110488,-0.023640945637826056,-0.05684386661199976,0.06412861186346179,0.5146217876047213,-0.0002400096003909192,-0.0037201488059526618,-0.0014400576023055455,0.0025201008040380353,0.001680067202689803,-0.0006000240009639748,-0.27362188931321085,-0.6336506910413107,-3.788787623038303e-14,-0.07200576034609091,-0.4032322579358744,-0.11520921655310759,-0.33122649759137285,-0.4032322579350664,0.36002880172725393,-0.16648400000000008,0.019969000000000015,-0.9118069999999999,0.0527470000000001,-0.03104800000000002,-0.907596,0.21923100000000018,0.051017000000000035,0.004210999999999965,0.9933394032539893,0.9527439220247631,double,-0.907596
110,0.916667,stair_decsent,0.009959203263745454,-0.03227741780657754,-0.019078473722104514,-0.2210041495101912,-0.0051185521451576855,0.45525127754227235,0.0004799616030855522,-0.001799856011524195,0.0004799616030722306,0.0033597312214922927,-0.001679865610752807,0.0007199424046150068,0.11505198576183316,-1.5402735991687735,0.5474528336598881,0.08638963324651619,0.23041670199525463,0.23038387393541657,0.10074759028728714,-0.40315968483832304,0.15838329800563614,-0.16656300000000002,0.02022299999999999,-0.9116439999999999,0.05269199999999996,-0.030793000000000015,-0.9074309999999999,0.21925499999999998,0.051016000000000006,0.004213000000000022,0.9967940125706042,0.9514955589750891,double,-0.9074309999999999
111,0.925,stair_decsent,0.021720868834751706,-0.03000120004799849,-0.0954038161526312,0.8054762143173199,1.1143767622852496,0.5117848027177369,0.0003600144005730508,-0.0031201248049886453,0.0003600144005730508,0.0018000720028652538,-0.00252010080403134,0.0002400096003775928,1.4114563267738154,0.27315705731177703,-9.159407467961882,-0.014394240071102954,-0.15843859275944375,-0.014394240069504299,-0.18716659289895984,-0.1008322564836829,-0.057594240278100554,-0.16674100000000003,0.020446999999999993,-0.910846,0.05252599999999985,-0.030564000000000036,-0.906634,0.21926699999999988,0.05101100000000003,0.0042119999999999935,0.9947310132916108,0.9527029212746494,double,-0.906634
112,0.933333,stair_decsent,0.02340093603743514,-0.021840873634947456,-0.0256810272411089,-0.06591131339373332,0.10148527481535291,0.47778127017978217,0.00048001920075519197,-0.0036001440057638638,0.001320052802110086,0.0010800432017458131,0.00036001440057971716,-0.0001200048001954596,0.2016161289671725,0.9792783406997609,8.36706935215684,0.014401152067939793,-0.05760460827735783,0.11520921655310741,-0.08640691241083011,0.3456276496593164,-0.04320345620701496,-0.16693200000000008,0.02059899999999998,-0.9106209999999999,0.05234000000000005,-0.03037899999999999,-0.9064209999999999,0.21927200000000013,0.05097799999999997,0.0041999999999999815,0.9935592454945761,0.956092045278947,double,-0.9064209999999999
113,0.941667,stair_decsent,0.025677945764331033,-0.021478281737459005,-0.022438204943596808,-0.05264445172377964,0.04878732469821485,0.42939031140663625,-0.00011999040075806644,-0.006119510439160949,0.0010799136069158492,0.0019198464122889224,-0.0010799136069158492,-0.000599952003830297,0.2732193096827306,0.043507547094846145,0.3891075470976801,-0.07199539255018644,-0.30229978802460594,-0.028814398271446474,0.10076832379926841,-0.1727775386963709,-0.057589057311595124,-0.16714699999999993,0.020726999999999995,-0.9104249999999999,0.05214200000000013,-0.03020900000000004,-0.9062389999999999,0.21928900000000007,0.05093600000000004,0.004186000000000023,0.9896412920274673,0.9543350448783194,double,-0.9062389999999999
114,0.95,stair_decsent,0.016680667226702573,0.02040081603264191,-0.012360494419772612,0.22282958770800904,0.3491454309438695,0.18433244680422578,-0.00048001920075519197,-0.003000120004799889,0.0027601104044156313,0.0025201008040380353,-0.00012000480018879799,0.0027601104044156313,-1.0797166131799523,5.025692760122561,1.2093736378044269,-0.04320518420702374,0.37434182579636244,0.20163168096721437,0.07203340834622805,0.11519366455382936,0.40322361793423245,-0.16728999999999994,0.020531999999999995,-0.910299,0.05202400000000007,-0.030380000000000018,-0.906113,0.219314,0.05091200000000001,0.004186000000000023,0.9931586737963605,0.9519075761226858,double,-0.906113
115,0.958333,stair_decsent,0.03432137285491507,-0.04056162246489902,-0.010920436817480244,-0.11444985105856531,-0.09718533377041359,0.36602103477625814,-0.0012000480019279335,-0.00552022080883119,0.006480259210368207,0.0013200528021100684,0.0007200288011527632,0.0,2.1169693541596573,-7.315785251114926,0.17281382482807664,-0.08640691241722531,-0.30242419345149285,0.4464357141428729,-0.14401152069218312,0.10080806448356626,-0.33122649758977796,-0.167586,0.02082400000000001,-0.9101539999999999,0.051749000000000045,-0.030036000000000007,-0.9060219999999999,0.21933500000000006,0.050860000000000016,0.0041320000000000245,0.9856718311223867,0.9561739069390514,double,-0.9060219999999999
116,0.966667,stair_decsent,0.034797216222690094,-0.03227741780657754,-0.029997600191967788,0.04363171105818358,0.07897057643688063,0.3406049822105611,-0.002279817614589765,-0.006959443244540683,0.005159587233023149,0.0014398848092033701,0.002279817614589765,-0.0008399328053863948,0.057096636402090076,0.9940250369956108,-2.2890764788201823,-0.12956198856033396,-0.17269287685498946,-0.15846795984461817,0.014378690555951618,0.18715968483765177,-0.10078387393645169,-0.1678949999999999,0.021035000000000026,-0.909861,0.051471000000000044,-0.029747999999999997,-0.9057790000000001,0.21936599999999995,0.05078300000000002,0.004081999999999919,0.9850693492881113,0.9544729356467794,double,-0.9057790000000001
117,0.975,stair_decsent,0.03816152646106365,-0.03708148325933116,-0.026761070442828067,0.05159757245709472,0.09396894563412456,0.32862773185995947,-0.0038401536061481215,-0.005160206408258207,0.013800552022078158,0.0018000720028919243,0.0,-0.0019200768030607374,0.40373337793994757,-0.5765109147670306,0.3883991058610045,-0.1872478088993605,0.2159170570361805,1.0369572529767297,0.043224192210315315,-0.2735890573130668,-0.12962246461950708,-0.16824499999999998,0.021301000000000014,-0.909523,0.0511680000000001,-0.029438999999999993,-0.9055719999999999,0.21941300000000008,0.05074000000000001,0.003951000000000038,0.9746234061251139,0.9561034820993917,double,-0.9055719999999999
118,0.983333,stair_decsent,0.04512180487218653,-0.03936157446297775,0.0019200768030740352,-0.28557788343867335,-0.15573315248147376,0.29047704282116726,-0.0007200288011461016,-0.009120364814595005,0.009120364814588344,0.004200168006721121,-0.003960158406336867,0.0004800192007685088,0.8352668200075432,-0.2736218893131623,3.4418753445220185,0.3744299537983928,-0.475238018281145,-0.5616449306960032,0.28802304138115764,-0.4752380182811533,0.28802304138116364,-0.16862699999999986,0.02155299999999999,-0.909463,0.05082700000000018,-0.029144000000000003,-0.905584,0.21945400000000004,0.05069699999999999,0.003879000000000077,0.9784696241596924,0.9515555991150443,double,-0.905584
119,0.991667,stair_decsent,0.04895608351334153,-0.03179745620350573,-0.007079433645312165,-0.23353737921412274,-0.05679747125279986,0.2608940515562309,-0.0017998560115308798,-0.008879289656823063,0.007439404847613013,0.004199664026878744,-0.0016798656107528294,-0.002159827213831727,0.46007663080813804,0.9076215814101349,-1.0798548654171167,-0.12956889973419541,0.028926704796249463,-0.20169906011223185,-6.0472743265798606e-05,0.27361324641037327,-0.31675622925368985,-0.16905000000000014,0.02174400000000004,-0.909342,0.050454,-0.028893000000000002,-0.905543,0.21950400000000014,0.05063700000000004,0.003798999999999997,0.9804618598804873,0.9536560288879983,double,-0.905543
120,1.0,stair_decsent,0.05244209768388298,-0.027001080043198643,-0.013560542421700381,-0.16864987905416715,-0.05913951255382369,0.2670793079107891,-0.0008400336013282363,-0.009840393615747768,0.013320532821309464,0.006840273610941258,-0.004680187207482968,0.008640345613833159,0.4183384340023317,0.5755881627633583,-0.777764163733132,0.11518329655617898,-0.11533708855450628,0.7057635873870667,0.3168858255205212,-0.3600529937273642,1.2960725822230696,-0.1694939999999998,0.02188699999999999,-0.909118,0.050074000000000174,-0.028706999999999983,-0.9053579999999999,0.21956799999999999,0.05059399999999997,0.0037600000000000966,0.9723626863739239,0.9424452548322094,double,-0.9053579999999999
121,1.008333,stair_decsent,0.06276251050042674,-0.038641545661825503,0.019560782431313664,-0.4366206546116416,-0.31767082467612723,0.25906138776752197,-0.002400096003855899,-0.01068042721708947,0.009480379215174844,0.013800552022064833,0.0440417616704613,-0.028081123244938153,1.2384990779483802,-1.3969117507052642,3.9747179710805645,-0.18721497690239733,-0.10080806448358458,-0.4608368662108071,0.835266820007637,5.846867740062969,-4.406752533153924,-0.170037,0.022119999999999973,-0.9092020000000001,0.04966599999999999,-0.028018000000000043,-0.9057550000000001,0.21970299999999998,0.050138000000000016,0.003446999999999978,0.975864412143131,0.8754886284927124,double,-0.9057550000000001
122,1.016667,stair_decsent,0.06575473962082898,-0.03383729301655895,-0.004679625629964239,-0.2130785622157851,-0.11772210890748507,0.29493317853906525,-0.005519558435323991,0.003119750419969499,-0.03827693784496709,0.006359491240710386,0.0005999520038436186,0.00035997120230084253,0.35903877134655865,0.576464200295958,-2.908616278051082,-0.3743055473323816,1.6558888453394367,-5.730419613647897,-0.8928558652933034,-5.212600151981923,3.412658321002973,-0.17063099999999998,0.022428000000000003,-0.9094819999999999,0.049171000000000076,-0.027731000000000006,-0.905713,0.21980200000000005,0.05015900000000001,0.0037689999999999113,0.935335860470528,0.9516468950589652,double,-0.905713
123,1.025,stair_decsent,0.06816272650907586,-0.022200888035520512,-0.015360614424565839,-0.09451723552788979,-0.004792044404307271,0.2867789669639264,-0.005760230409222182,-0.005760230409215521,0.04116164646585688,0.009480379215161521,0.001200048001921288,0.0,0.2889699853890438,1.3964244547028137,-1.2817699261492495,-0.028881792139468745,-1.0656403251152167,9.533011437756475,0.3745215377956515,0.0720144003453348,-0.043198272206989775,-0.17124700000000015,0.022565,-0.909011,0.04868199999999989,-0.027536000000000005,-0.9055850000000001,0.21992900000000004,0.05010100000000001,0.003425999999999929,0.9300666657031544,0.949813283690065,double,-0.9055850000000001
124,1.033333,stair_decsent,0.0727229089163415,-0.02292091683667267,-0.019680787231495276,-0.05118022166615586,0.07990161064128996,0.3113236223124441,-0.020280811232432586,-0.009960398415936432,0.043441737669502836,0.009360374414979136,0.0002400096003842512,-0.0014400576023055071,0.5472437786230131,-0.08640691241475422,-0.518441474490503,-1.7425394003612324,-0.5040403224193972,0.27362188931308284,-0.014401152067968735,-0.11520921655310452,-0.17281382482965102,-0.1720219999999999,0.022673,-0.908485,0.04815400000000003,-0.027343000000000006,-0.905433,0.22017599999999993,0.050016000000000005,0.0030519999999999436,0.918389382965415,0.9536907649458014,double,-0.905433
125,1.041667,stair_decsent,0.07811375089992435,-0.026997840172790378,0.02159827213823763,-0.525086007469752,-0.18682709326236724,0.23277271970847757,-0.029397648188151593,-0.013318934485244762,0.028197744180464324,0.009119270458359302,-0.0008399328053797563,0.002519798416132608,0.6468492900867471,-0.489191665000934,4.953090877097875,-1.0939329200526975,-0.4029920889498913,-1.829132888053612,-0.028930160381550003,-0.12958272207391744,0.475144710635732,-0.1729179999999999,0.022787,-0.9084300000000001,0.04757900000000004,-0.02712500000000001,-0.9055920000000001,0.22049699999999994,0.04991200000000001,0.002838000000000007,0.9285715487808588,0.9557896524860736,double,-0.9055920000000001
126,1.05,stair_decsent,0.07560302412097918,-0.012840513620540785,-0.011880475219017103,-0.013108480203440385,0.1290494804131117,0.27489320183650623,-0.02376095043800756,-0.012120484819394694,0.05388215528621443,0.007080283211332079,0.0001200048001954564,0.0013200528021100508,-0.30129926544403374,1.6989471441556876,-4.017610387285989,0.6764307872487622,0.14381971269051333,3.0822526227948703,-0.24468825717354944,0.11519712055384566,-0.14397523269201204,-0.17374599999999996,0.022792999999999952,-0.907882,0.04700799999999994,-0.027017000000000013,-0.905482,0.2207539999999999,0.049809999999999965,0.0023999999999999577,0.8997949938007315,0.9639945208220608,double,-0.905482
127,1.058333,stair_decsent,0.088443537741509,-0.019800792031684597,0.015960638425529815,-0.2984065634513528,-0.09653478186802746,0.29717730925572866,-0.028801152046084265,0.001200048001921288,0.07404296171846686,0.0038401536061481215,-0.0014400576023055455,0.003960158406343581,1.5409232713944483,-0.8352668200100655,3.341067280036862,-0.6048483869046862,1.5985278796731193,2.4193935476122186,-0.38883110586631314,-0.18721497689919792,0.31682534552184743,-0.17472299999999996,0.02296799999999999,-0.9073979999999999,0.04630299999999998,-0.026864,-0.9055819999999999,0.22102599999999994,0.04983199999999999,0.0018160000000000398,0.8675728014002606,0.9723380411054546,double,-0.9055819999999999
128,1.066667,stair_decsent,0.08567314614829324,-0.004199664026878687,-0.01967842572592149,0.11717236398787892,0.1681181225608238,0.31788160956666695,-0.024118070554369597,-0.017998560115188664,0.08459323254139073,0.004799616030722306,-0.0007199424046083459,0.003119750419962838,-0.3324203975540833,1.8719856017285565,-4.276345590526883,0.5619248250197543,-2.303648682158604,1.2659312242529144,0.11512628084643357,0.08640691117076964,-0.10084089109440086,-0.17563799999999996,0.022853000000000012,-0.9065290000000001,0.04562900000000014,-0.026834999999999998,-0.9053920000000001,0.2212670000000001,0.04968800000000001,0.0011370000000000546,0.8503555650764916,0.9790141170464952,double,-0.9053920000000001
129,1.075,stair_decsent,0.08172326893077642,-0.015960638425536477,-0.008160326413078081,-0.060481906844240665,0.127798796330214,0.27987860226634975,-0.023040921636862083,-0.02124084963398348,0.09792391695668383,0.002640105604220172,0.001800072002878601,-0.0016800672026831415,-0.4740042262710746,-1.4113733827742587,1.3822272066294867,0.1292630406225278,-0.38909030586761606,1.599746119679974,-0.2591516172449483,0.30241382545145445,-0.5760011547637134,-0.17651100000000008,0.022809000000000024,-0.9056449999999999,0.044969999999999954,-0.026687000000000016,-0.9053379999999999,0.22148100000000004,0.04949600000000004,0.00030700000000005723,0.8286398263955499,0.9909131157420425,double,-0.9053379999999999
130,1.083333,stair_decsent,0.08088323532939273,-0.012960518420736242,-0.0032401296051840604,-0.02336748809301853,0.18093930657357174,0.26242725136456035,-0.011280451218053144,-0.043921756870278,0.11460458418337002,0.0037201488059392393,0.0018000720028852146,0.001440057602292184,-0.10080806448861973,0.36002880172809104,0.5904472348366656,1.411312902773159,-2.7218177410649376,2.0017601376078127,0.12961036862103065,7.936677369688541e-13,0.3744299537951843,-0.17727899999999996,0.022550999999999988,-0.9046629999999999,0.044327000000000005,-0.026563999999999977,-0.905299,0.22160599999999997,0.049114999999999964,0.0006360000000000809,0.7882232148607646,0.9927058752235062,double,-0.9046629999999999
131,1.091667,stair_decsent,0.0830333573314315,-0.01607871370290683,0.012359011279120258,-0.1865125253476633,0.07247664550771667,0.24495248767680955,-0.02183825293975377,-0.04199664026878133,0.12191024718022993,0.00287976961843346,0.00011999040076473045,0.004439644828421582,0.25799400072459844,-0.37415350158035143,1.8717471663432463,-1.266834859815314,0.23099551253860165,0.8766094308687358,-0.10083743550585494,-0.20159366476128104,0.3599216734016625,-0.178153,0.022334999999999994,-0.90375,0.04365899999999989,-0.02642899999999998,-0.9053650000000001,0.2218119999999999,0.048763999999999974,0.001615000000000033,0.7658876214109487,0.9911780077593206,double,-0.90375
132,1.1,stair_decsent,0.08556342253689561,-0.03648145925836621,-0.11232449297972297,1.0485300490225375,1.0280177470634255,0.34204532373027474,-0.024240969638789387,-0.038881555262208725,0.10800432017279313,0.0032401296051840604,-0.0006000240009572972,0.010680427217089186,0.3036199694544668,-2.4484274037512326,-14.962619015821558,-0.2883375373857644,0.3738251537948581,-1.6687779920120673,0.043244928207199565,-0.08640518441401837,0.7489238435938432,-0.179068,0.022314999999999974,-0.9019140000000001,0.04297299999999993,-0.026129999999999987,-0.90434,0.22204099999999993,0.04844499999999996,0.002425999999999928,0.7802041754575108,0.9813713188425561,double,-0.9019140000000001
133,1.108333,stair_decsent,0.08004320172806663,-0.009000360014399668,0.015840633625347676,-0.20021446998686826,0.05395264392838925,0.2134511708240564,-0.045721828873151106,-0.022920916836673282,0.09540381615265912,0.004440177607112096,0.0021600864034516565,0.002520100804024712,-0.6624529951792911,3.2978638238289686,15.380430409825012,-2.5778062203722447,1.9153532251932783,-1.5121209672547844,0.14401152069219325,0.33122649758898104,-0.9792783407013739,-0.18011599999999994,0.02219899999999997,-0.901251,0.04234300000000002,-0.026037000000000032,-0.9044510000000001,0.22245899999999996,0.048236,0.0032000000000000917,0.787585799088213,0.9907605828533514,double,-0.901251
134,1.116667,stair_decsent,0.07187425005999659,-0.008399328053757375,-0.00311975041997616,-0.036734581707656366,0.2153895078469016,0.1795328614378679,-0.04859611231101339,-0.060595152387805835,0.14650827933764185,0.0029997600191914503,0.005879529637631494,-0.00035997120230084253,-0.9801957845056366,0.0721180658318081,-2.275064080312418,-0.34488642162974137,-4.52054662240608,6.132045018596393,-0.17283628364778433,0.4462974843028329,-0.34558099427952155,-0.18111999999999995,0.021764000000000006,-0.900004,0.041768999999999945,-0.025917999999999997,-0.904428,0.2228889999999999,0.047682,0.0044239999999999835,0.6793844978942071,0.9889827145661652,double,-0.900004
135,1.125,stair_decsent,0.07320292811712528,-0.008880355214210869,0.013680547221882697,-0.0903845308279048,0.20389212382456018,0.19968388745788476,-0.02064082563303283,-0.054242169686788924,0.13788551542062608,0.00312012480500201,0.003480139205568404,0.0004800192007685152,0.15944774476523493,-0.057725568277150946,2.016116361677548,3.354768592101382,0.7623884196588226,-1.0347730609643409,0.014444352071350166,-0.28793836938234874,0.10080288048354319,-0.181902,0.021386000000000016,-0.8989689999999999,0.04118500000000003,-0.025814999999999977,-0.904538,0.22308700000000004,0.04720099999999999,0.005569000000000046,0.6949738145330493,0.9921689779789272,double,-0.8989689999999999
136,1.133333,stair_decsent,0.07644305772230943,-0.008160326413051434,0.026881075243010203,-0.2193352841636123,0.18058170449949498,0.24703835711491867,-0.014880595223810647,-0.06312252490099979,0.1489259570382753,0.0012000480019279496,0.004080163206525717,0.0019200768030740608,0.38883110586633585,0.08640691241562962,1.5841267276044193,0.6912552993186409,-1.065685253115438,1.324905990357533,-0.23041843310621363,0.07200576034529203,0.17281382482966023,-0.18266300000000002,0.020927999999999947,-0.897952,0.040558000000000094,-0.02571300000000004,-0.9047459999999999,0.2232210000000001,0.04664099999999999,0.006793999999999967,0.6613365559147408,0.9922228000739125,double,-0.897952
137,1.141667,stair_decsent,0.07355411567074274,0.0013198944084453037,0.011279097672190758,-0.1066725620065145,0.43114250085219474,0.2616747998246821,-0.015718742500585577,-0.0601151907847336,0.14878809695224496,0.0033597312214922927,0.00155987520998808,0.003359731221505614,-0.34664531456283476,1.1375354957399406,-1.8720875414949996,-0.10056962764277944,0.3608512258538711,-0.01654188697268276,0.25914125504731544,-0.30241036675517374,0.1727447106349343,-0.18340699999999988,0.02041599999999999,-0.896806,0.039973000000000036,-0.025710999999999984,-0.904812,0.2233799999999999,0.046126999999999974,0.008005999999999958,0.651204210589889,0.9916652003903038,double,-0.896806
138,1.15,stair_decsent,0.07296291851673437,-0.0027601104044156313,0.029041161646475182,-0.20141278522026165,0.26680381577639706,0.24683252280211887,-0.013560542421700562,-0.06960278411136808,0.15960638425537807,0.0025201008040380353,0.0020400816032628585,0.0009600384015370304,-0.07094649634085953,-0.48962016234981065,2.13153293823168,0.25899436924097385,-1.1385567414658064,1.2982464062322345,-0.10075968048173108,0.05762707227586499,-0.287974657382528,-0.18412799999999985,0.01985899999999996,-0.895718,0.03938600000000014,-0.025671,-0.905046,0.223514,0.04552999999999996,0.009328000000000003,0.6156366129311059,0.9943641734454892,double,-0.895718
139,1.158333,stair_decsent,0.0714028561142581,-0.0001200048001954564,0.036841473658925934,-0.20907764920344776,0.25295052008760593,0.2518994857549766,-0.022440897635924155,-0.07116284651385386,0.16284651386054455,0.003840153606148019,0.0014400576023055071,0.004080163206525609,-0.18721497689622396,0.3168253455202363,0.9360748844894535,-1.0656852531169372,-0.18721497689736644,0.38883110586420544,0.1584126727601057,-0.07200576034529471,0.3744299537967747,-0.18491000000000013,0.019267000000000034,-0.8946679999999999,0.03882300000000005,-0.02565799999999996,-0.9053189999999999,0.22373300000000018,0.04492499999999999,0.010650999999999966,0.5949438390094386,0.9903580376869507,double,-0.8946679999999999
140,1.166667,stair_decsent,0.0760739140868773,0.009839212862974329,0.014878809695226224,-0.0031797072422475622,0.5294226801222601,0.313434893017127,0.010919126469890206,-0.12047036237101319,0.16150707943364337,0.004439644828394938,0.0,0.001319894408445339,0.560482118144863,1.195010518738898,-2.6353088509359406,4.002882662084833,-5.9164285885721455,-0.16071927368624994,0.0719331920142705,-0.17279308882955777,-0.33120575930889395,-0.1854530000000001,0.018181000000000003,-0.893446,0.03822599999999987,-0.025739999999999985,-0.9054319999999999,0.22367899999999996,0.04392099999999999,0.011985999999999941,0.543832963367576,0.9922805139326689,double,-0.893446
141,1.175,stair_decsent,0.07068282731308537,0.018840753630140403,0.056162246489874806,-0.30150824244736285,0.2158181218789401,0.2632128207343126,-0.006480259210368121,-0.10020400816032828,0.19140765630625048,0.0046801872075028905,0.0002400096003775896,-0.0004800192007685024,-0.6469562911066653,1.0802281011839574,4.954210583781094,-2.0880098020230435,2.432059787673654,3.588212753222919,0.028866240142559476,0.028802304137475747,-0.21599827303657865,-0.18609600000000004,0.01718900000000001,-0.8923190000000001,0.03767600000000004,-0.025895,-0.905904,0.22377200000000008,0.04308400000000001,0.013584999999999958,0.5039042200745275,0.992148571372275,double,-0.8923190000000001
142,1.183333,stair_decsent,0.06408256330253682,0.01176047041882196,0.04836193447737128,-0.23022554097374656,0.2971016698045561,0.22713144103662541,-0.018600744029749986,-0.09912396495859846,0.1825273010920447,0.005280211208440344,-0.001440057602298884,0.0,-0.7920633638003843,-0.8496679720771041,-0.936074884495812,-1.4545163589801964,0.12961036862232403,-1.0656852531148269,0.07200576034290879,-0.20161612896633732,0.05760460827655187,-0.18678499999999998,0.016264999999999974,-0.891201,0.03718599999999994,-0.026005,-0.906307,0.22397099999999992,0.042269999999999974,0.015105999999999953,0.5013780001291553,0.9908782317284912,double,-0.891201
143,1.191667,stair_decsent,0.06671466282697344,0.01763858891288782,0.04259659227263049,-0.1483561128153316,0.3305311535470272,0.2662515117649413,0.05087592992560316,-0.2553395728341669,0.19330453563715105,0.005279577633781215,-0.002279817614589765,0.0004799616030722306,0.3158266767982479,0.7053177938643888,-0.6917857217111522,8.33653395192616,-18.744373395196455,1.2931646922373725,-7.602287726532142e-05,-0.10076314042367104,0.057590785105858765,-0.186917,0.013990000000000002,-0.8899450000000001,0.03667399999999987,-0.026171,-0.9066580000000001,0.22359099999999987,0.040161,0.016712999999999978,0.3328700000000002,0.9903820377118672,single,-0.8899450000000001
144,1.2,stair_decsent,0.06336253450136406,0.024720988839551886,0.07092283691347817,-0.3695781765107934,0.14080569153383507,0.22738765449307377,-0.001320052802110086,-0.1221648865954672,0.2192487699508028,0.005880235209430965,0.0003600144005730556,0.002880115204611091,-0.4022714899327269,0.8499219880792187,3.3992853283148854,-6.26376847806477,15.98160161270862,3.113432654944437,0.07208179234966466,0.3167925135200822,0.2880299533828012,-0.18745599999999984,0.012766,-0.8887090000000001,0.0361950000000002,-0.02637400000000001,-0.9072250000000001,0.22365100000000004,0.03914000000000001,0.018515999999999977,0.3965231836553394,0.9890707019541911,single,-0.8887090000000001
145,1.208333,stair_decsent,0.057002280091203034,0.014400576023041749,0.0638425537021442,-0.30978821185498573,0.16351857686461527,0.2024624008258097,-0.015120604824201163,-0.12564502580103226,0.20376815072602275,0.006600264010550254,-0.0007200288011527536,0.0022800912036470555,-0.7632610596616962,-1.2384990779443126,-0.8496679720789448,-1.6561324879504185,-0.41763341000419985,-1.857748616918251,0.08640691241080961,-0.1296103686218397,-0.07200576034609685,-0.18805699999999992,0.01159899999999997,-0.8875430000000001,0.03577500000000011,-0.026500000000000024,-0.907738,0.22383200000000003,0.038098999999999994,0.020194999999999963,0.3982696281807599,0.988299959356623,single,-0.8875430000000001
146,1.216667,stair_decsent,0.06347492200624091,-0.012359011279100275,0.057115430765530356,-0.2783252160267895,0.1693807102424545,0.24517843673445647,-0.015118790496769006,-0.14638828893688768,0.19462443004560154,0.009359251259902085,0.0017998560115175823,0.002399808015361217,0.7766548974127674,-3.2108936047687227,-0.8071901771795023,0.0002177018757087952,-2.4889924569061455,-1.0971587089538501,0.3310519857633649,0.30236198856136115,0.014364868216242334,-0.188712,0.010481999999999991,-0.886397,0.03532400000000013,-0.026382000000000017,-0.908194,0.22403600000000012,0.03686400000000001,0.021796999999999955,0.37536067714484256,0.9836196133271485,single,-0.886397
147,1.225,stair_decsent,0.07068282731311201,0.005400216008642321,0.04800192007679695,-0.19956065027669279,0.1331926970229735,0.2875684879310837,0.008160326413077864,-0.1538461538461518,0.21672866914675898,0.0073202928116963455,0.003840153606148019,0.0014400576023055071,0.8649832361539629,2.1311925222299632,-1.0936650292491599,2.793605773412512,-0.8949795882952102,2.652614796730716,-0.24468480117673153,0.24484550517585518,-0.11517465655294527,-0.18923299999999998,0.009154999999999969,-0.884991,0.03479599999999983,-0.026395000000000002,-0.9085819999999999,0.2240289999999998,0.03554999999999997,0.023590999999999918,0.32091162479254587,0.9860151637214383,single,-0.884991
148,1.233333,stair_decsent,0.06564262570501118,-0.006720268810752551,0.028561142445693345,-0.07030805565237241,0.2620087321999481,0.2825692332174314,-0.011280451218053445,-0.2223688947557915,0.18828753150126687,-0.01512060482417492,-0.013320532821316304,0.0289211568462664,-0.6048483869075811,-1.4545163589817571,-2.3329866351978614,-2.3329866352011868,-8.223057831470097,-3.4130730403806995,-2.6930154369220536,-2.059364745885573,3.297863823828291,-0.18987399999999988,0.007357999999999976,-0.8836599999999999,0.034123000000000125,-0.02645000000000003,-0.9085789999999999,0.223997,0.033808000000000005,0.024919000000000024,0.2648191208748077,0.9412514161348224,single,-0.8836599999999999
149,1.241667,stair_decsent,0.07643388528917612,-0.012479001679864673,0.01223902087833522,0.009152646000771642,0.2766055805347696,0.3448138887276828,0.017158627309815593,-0.2612191024717984,0.19786417086633057,0.00911927045835906,0.005039596832251761,0.004679625629950918,1.2948475622947988,-0.690992664880259,-1.9584979082503,3.4124164300298565,-4.661651993761294,1.1491047954240012,2.908552349716078,2.203039315282928,-2.908751045874166,-0.19036799999999987,0.005284999999999984,-0.8821129999999999,0.03356200000000009,-0.02630400000000005,-0.908642,0.22392999999999996,0.031589000000000034,0.026529000000000025,0.23470999999999975,0.9809636658844756,single,-0.8821129999999999
150,1.25,stair_decsent,0.07320292811712528,-0.02436097443897883,0.01044041761669855,-0.02412285631805886,0.17323296036798452,0.31478088488780004,0.014400576023028808,-0.2697707908316391,0.1921276851074017,0.023520940837617275,0.014880595223810647,-0.0019200768030740608,-0.3877303698608986,-1.4258937668443856,-0.21584102503740388,-0.33097939359016076,-1.0262436529270056,-0.6884058273045638,1.7282695762940534,1.1809670456689039,-0.7919959718018768,-0.19085799999999997,0.003239999999999965,-0.8805989999999999,0.033147999999999955,-0.025977000000000028,-0.9087449999999999,0.22400599999999993,0.029216999999999993,0.028146000000000004,0.21853999999999996,0.9535016885900593,single,-0.8805989999999999
151,1.258333,stair_decsent,0.06444257770310988,-0.020640825633026168,0.020160806432277637,-0.09321824482416598,0.08034565768907456,0.26999479273984844,-0.0014400576022922224,-0.25357014280571166,0.15288611544461886,0.03408136325455125,0.019080763230531823,-0.016080643225725274,-1.0512841010459002,0.4464357141428892,1.1664933176022052,-1.900952073121466,1.9441555293324804,-4.709176726603047,1.2673013820873722,0.5040403224194425,-1.6993359441559275,-0.19140699999999988,0.0012989999999999946,-0.8794930000000001,0.03289500000000012,-0.025646000000000002,-0.909047,0.224302,0.026944999999999997,0.02955399999999997,0.21096324952057083,0.9296003090816966,single,-0.8794930000000001
152,1.266667,stair_decsent,0.06095512359010668,-0.017878569714423937,0.015958723302128355,-0.11028127664385955,-0.031137364628464913,0.22432135362726055,-0.02639788816895936,-0.25041996640268654,0.1381089512838978,0.0033597312214922927,0.0004799616030722306,0.002039836813046989,-0.4184610166790462,0.3314441946966894,-0.5042096388468024,-2.9947000919926747,0.37799092908868415,-1.7731178498585247,-3.6863009398918556,-2.231917641883783,2.1742836619596986,-0.19213499999999994,-0.0006390000000000007,-0.878475,0.03241500000000008,-0.025492999999999988,-0.909163,0.22455000000000003,0.024853999999999987,0.03068800000000005,0.2144613112966326,0.9934005279577842,single,-0.878475
153,1.275,stair_decsent,0.05784231369255945,-0.023040921636862083,0.01092043681748039,-0.10801561231206895,-0.09765051502179233,0.19529448018193682,-0.0010800432017191667,-0.36085443417736823,0.14520580823233595,0.006360254410186157,-0.0063602544101794955,0.013200528021127506,-0.3735521297908629,-0.6195070109730221,-0.6046185629002774,3.0382629265859147,-13.252666239611509,0.8516569000885889,0.3600771857306962,-0.8208587559404522,1.3393365184304116,-0.19262599999999996,-0.0034540000000000126,-0.877356,0.03198600000000007,-0.025354000000000043,-0.9091440000000001,0.22461200000000003,0.02190000000000003,0.03178800000000004,0.18211999999999962,0.9733771395037465,single,-0.877356
154,1.283333,stair_decsent,0.0568822752910209,-0.027001080043204943,0.010560422416880407,-0.13904016710091757,-0.18999756336084694,0.1913498669913536,0.049201968078724866,-0.3812552502100066,0.09552382095282538,-0.0004800192007818256,-0.004800192007678362,0.011520460818430734,-0.11520921655328598,-0.47523801828186624,-0.04320345621024556,6.034082716961857,-2.448195851750633,-5.962076956619428,-0.8208656679428613,0.18721497689920868,-0.20161612896876777,-0.19269000000000003,-0.006406000000000023,-0.876648,0.03150799999999987,-0.025168999999999997,-0.9091359999999999,0.2241979999999999,0.018762999999999974,0.03248799999999996,0.1751200000000004,0.979183788421528,single,-0.876648
155,1.291667,stair_decsent,0.04883609311253083,-0.03179745620350615,-0.0032397408207343126,-0.05533594040450442,-0.06638474058628593,0.16497119015370815,0.044036477081835036,-0.5335973122150304,0.05879529637630319,-0.004799616030722434,-0.002759779217662069,0.020638348932093143,-0.9654646242488867,-0.5755190977083392,-1.6558871175443943,-0.6198093348800009,-18.279585073797296,-4.407070383552063,-0.5183101547805004,0.24482994840608738,1.0940590489155966,-0.19272999999999985,-0.010587999999999986,-0.8761309999999999,0.031061000000000005,-0.024926999999999977,-0.9089369999999999,0.22379099999999985,0.01433899999999999,0.032806,0.17193999999999998,0.9643865606665968,single,-0.8761309999999999
156,1.3,stair_decsent,0.044641785671430755,-0.038041521660860514,-0.009120364814588222,-0.05387334469818751,-0.04144684191206032,0.15199577735051564,0.049321972878906994,-0.5673826953078036,0.04632185287411385,-0.0038401536061213725,-0.0025201008040313068,0.051002040081590094,-0.5033370264130567,-0.7493178275956143,-0.7057031073867522,0.6342848670433057,-4.0544081474586156,-1.496873095186502,0.11514009655598757,0.028762560138096475,3.64378868948715,-0.19269099999999995,-0.01499900000000004,-0.8756689999999999,0.030657000000000156,-0.024631000000000014,-0.908436,0.2233480000000001,0.009631999999999974,0.0327670000000001,0.17232999999999898,0.9146525763542981,single,-0.8756689999999999
157,1.308333,stair_decsent,0.03612144485780745,-0.04092163686547928,-0.009840393615734576,-0.030359978600718308,-0.04865586309820596,0.11886379144130496,0.03564142565702561,-0.650186007440301,0.02784111364453391,-0.012960518420736587,0.0010800432017258282,0.0,-1.022481796906682,-0.34562764966024184,-0.08640691241405976,-1.641731335879216,-9.936794927696882,-2.217777418646359,-1.094487557256126,0.43203456207334306,-6.120489629376042,-0.19269500000000006,-0.020075999999999983,-0.8753550000000001,0.030248000000000053,-0.024280999999999997,-0.9083540000000001,0.2229430000000001,0.004205000000000014,0.032999,0.17001,0.9783242627286837,single,-0.8753550000000001
158,1.316667,stair_decsent,0.033117350611943944,-0.04619630429565224,-0.005279577633807858,-0.06465974290385285,-0.07096038138329526,0.11278707821988698,0.05987520998320415,-0.6659467242620539,-0.018958483321333125,-0.006479481641468453,-0.0004799616030722306,0.003839692824577845,-0.36046247250581787,-0.6329094588640408,0.5472541375002019,2.9078214934219284,-1.8911347278321131,-5.615502395712345,0.7776622005361273,-0.1871856017276274,0.4607262808468701,-0.19247199999999998,-0.025241000000000013,-0.8754689999999999,0.02991800000000011,-0.023900000000000032,-0.9082779999999999,0.2223900000000001,0.001340999999999981,0.03280899999999998,0.17191000000000023,0.9874216581125349,single,-0.8754689999999999
159,1.325,stair_decsent,0.025561022440900118,-0.048361934477384606,-0.005760230409195536,-0.10973297994377346,-0.023886903629224288,0.06429470521312285,0.057362294491777606,-0.6821072842913806,-0.05004200168006775,-0.05148205928237329,0.007920316812673838,-0.11628465138605622,-0.9067956523513615,-0.25988601724857635,-0.05768064027213271,-0.30156192144804583,-1.9393447773103072,-3.730171409904585,-5.400525337922147,1.008073732838851,-14.415497925193227,-0.19220700000000002,-0.030521999999999994,-0.8758380000000001,0.02927600000000008,-0.02343099999999998,-0.9091990000000001,0.2214830000000001,0.007091000000000014,0.033360999999999974,0.16639000000000026,0.7876372731337596,single,-0.8758380000000001
160,1.333333,stair_decsent,0.023880955238216338,0.057602304092166996,0.11892475699027323,-0.3032184183698599,-1.8858322202531914,0.07401149727180806,0.11832473298930926,-0.9383175327012907,0.004800192007685024,0.0078003120124781715,-0.058802352094081585,-0.045361814472576846,-0.20161612896720874,12.716217277037051,14.962796999815982,7.315785251113716,-30.74645966757538,6.581326495590041,7.1141691221469365,-8.007040550432528,8.51108087285229,-0.19142000000000015,-0.03882100000000002,-0.876789,0.029142,-0.024401000000000006,-0.910568,0.22056200000000015,0.014420000000000016,0.033779,0.16220999999999997,0.8755427818760729,single,-0.876789
161,1.341667,stair_decsent,0.055435565154784164,-0.10907127429805741,0.09059275257980268,-0.8920834849526168,0.05743877330070559,0.461321487890523,0.12934965202785637,-0.7633789296856405,-0.1420686345092375,0.07535397168224896,-0.0069594432445408685,0.07475401967843197,3.786250289965014,-19.99922946846983,-3.3995685637714295,1.322884453869368,20.990953085631578,-17.622849354082714,8.105790697116879,6.220651409832217,14.412747078355064,-0.19080399999999997,-0.044274000000000036,-0.8787280000000001,0.02930799999999989,-0.023550000000000015,-0.9107000000000001,0.22011199999999986,0.02072400000000002,0.031972,0.18028,0.8227147750355803,single,-0.8787280000000001
162,1.35,stair_decsent,0.030001200047984768,-0.058802352094088246,0.002760110404402235,-0.05164277422702297,-0.10283959851902315,0.2316335115776173,0.04752190087601512,-0.7825513020520682,-0.13776551062042694,-0.006840273610941167,0.00948037921516793,-0.010200408016320684,-3.0522459026519804,6.032511964954792,-10.540338674594853,-9.819722927137862,-2.300776715039894,0.5163955224781588,-9.863703983341976,1.9728576094694001,-10.194939120934977,-0.190658,-0.05030499999999999,-0.879899,0.029001000000000055,-0.022980999999999974,-0.910808,0.21965900000000005,0.027324000000000015,0.030908999999999964,0.19091000000000036,0.9741416649567438,single,-0.879899
163,1.358333,stair_decsent,0.023160926437070864,-0.070442817712703,0.002040081603256197,-0.09250466166498941,-0.11735412761659224,0.21940665956772623,0.016440657626311653,-0.8715948637945587,-0.05352214088562949,-0.004800192007685152,0.010920436817473728,-0.03996159846394225,-0.8208656679363934,-1.3969117507038111,-0.08640691241402187,-3.729898385899886,-10.68565483529237,10.109608752525888,0.24481958517413097,0.17281382482969063,-3.5714857131431463,-0.19071400000000005,-0.05698100000000003,-0.8803619999999999,0.028767999999999905,-0.022303000000000017,-0.9111579999999999,0.21948199999999995,0.034678000000000014,0.030796000000000046,0.19203999999999954,0.9304932630086112,single,-0.8803619999999999
164,1.366667,stair_decsent,0.017998560115201987,-0.07163426925846048,-0.014518838492898341,-0.020189893692132314,-0.11270505733878278,0.15482775655709177,0.027717782577404666,-0.7957763378929624,-0.15322774178066642,-0.011399088072948824,-0.000839932805379734,-0.008039356851456533,-0.6194344038719507,-0.14296274847101847,-1.9869114586218395,1.3531467423917598,9.097495308566804,-11.963715010203526,-0.7918041834969548,-1.4111314642252666,3.8303625644930968,-0.19063300000000005,-0.06301600000000002,-0.8815180000000001,0.028522999999999854,-0.021713000000000038,-0.9111040000000001,0.2191559999999999,0.04130299999999998,0.029586,0.20414,0.9767098044831057,single,-0.8815180000000001
165,1.375,stair_decsent,-0.01944077763110488,-0.02052082083283737,-0.113284531381263,0.9284739775228575,-0.29830376512754203,-0.09823944731052993,-0.01572062882516554,-0.8990759630385295,-0.3126125045001791,-0.007800312012478379,0.0063602544101794955,-0.008400336013442354,-4.4929002455666875,6.1338591654414465,-11.852357240893504,-5.212817881023714,-12.396450875503188,-19.126936603805845,0.4318704020725403,0.8640570281482414,-0.04331923220758727,-0.19060200000000016,-0.07033699999999998,-0.883179,0.028619999999999868,-0.02148899999999998,-0.9102300000000001,0.21922200000000003,0.048848,0.027051000000000047,0.22948999999999953,0.9781505562750089,single,-0.883179
166,1.383333,stair_decsent,0.032401296051841465,-0.12876515060602428,0.09504380175205941,-0.9684414234937918,0.09822891306464633,0.39690287395024976,0.009360374414979384,-0.8581543261730536,-0.2300492019680744,0.02088083523342375,0.06696267850714126,0.05184207368295967,6.221297693861373,-12.989839166349201,25.0003999919986,3.009840782448716,4.910792855571375,9.907992623557593,3.441875344522068,7.272581794907274,7.229378338701857,-0.19079400000000013,-0.07641499999999998,-0.8858879999999999,0.028523999999999994,-0.019857999999999987,-0.9105899999999999,0.21931800000000012,0.056556999999999996,0.024702,0.25298,0.8546306409650312,single,-0.8858879999999999
167,1.391667,stair_decsent,-0.003839692824577845,-0.08375329973601765,-0.022678185745139582,0.017018625855322277,-0.06848891188618227,0.08509211967792953,-0.006959443244527361,-0.8528917686585012,-0.28773698104151585,0.00455963522917953,0.0020398368130536497,0.028677705783535803,-4.348570779507923,5.400990025198738,-14.125508458987053,-1.9582214614238804,0.6314563852354645,-6.921979730434486,-1.9583873295229297,-7.790117793866943,-2.7795017877878196,-0.19082,-0.08282500000000001,-0.8880969999999999,0.02859400000000001,-0.01914300000000002,-0.9101619999999999,0.219414,0.06368199999999999,0.022065,0.27935,0.9514841945383286,single,-0.8880969999999999
168,1.4,stair_decsent,-0.008160326413051434,-0.08328333133325744,-0.025321012840509197,0.04736964334938754,-0.07745393349192196,0.0677157146083908,-0.003000120004819874,-0.8261130445217886,-0.21300852034082543,-0.010800432017298254,-0.02532101284051586,-0.004080163206539041,-0.518496770487655,0.05639846426979714,-0.3171519375218576,0.47513779427667385,3.213575439423127,8.967773995042734,-1.843281800849385,-3.2834332957602013,-3.931101522869932,-0.1907770000000002,-0.08901499999999998,-0.889661,0.02857199999999982,-0.01866000000000001,-0.909985,0.21934900000000002,0.07035499999999997,0.02032400000000001,0.2967599999999999,0.9536184077814556,single,-0.889661
169,1.408333,stair_decsent,-0.01956078243131314,-0.08460338413536528,-0.027241089643582534,0.05207313240020596,-0.08869606070013737,-0.01636711189325174,-0.041041641665647,-0.883475339013546,-0.40789631585261854,-0.01728069122763944,-0.04236169446777704,-0.052082083283322554,-1.3681094465692436,-0.1584126727598485,-0.23041843310612062,-4.5651652059074115,-6.883750689038335,-23.387470960253175,-0.7776622117293979,-2.044963593815058,-5.760460827647027,-0.1909559999999999,-0.09567199999999998,-0.892833,0.028591000000000033,-0.01830799999999999,-0.910192,0.21954699999999994,0.07736399999999999,0.017359000000000013,0.32640999999999987,0.8844616604443782,single,-0.892833
170,1.416667,stair_decsent,-0.017758579313659685,-0.09395248380129506,-0.02879769618430796,-0.012932061890431694,-0.0469161329717241,-0.01463048027550364,-0.037676985841151124,-0.8632109431245671,-0.35397168226542647,-0.004919606431480503,-0.012239020878328885,-0.005639548836095529,0.21624707435247054,-1.1218022157343366,-0.18677784265964176,0.40372640082744654,2.431532984038789,6.4704383953915405,1.4832115186176111,3.614431676199751,5.572658321001669,-0.19112200000000001,-0.10208300000000001,-0.895543,0.028698000000000112,-0.017627000000000004,-0.909999,0.21982000000000013,0.084456,0.014456000000000024,0.35543999999999976,0.9760904092595355,single,-0.895543
171,1.425,stair_decsent,-0.06180247209886141,-0.03876155046201993,-0.11520460818433399,0.9776003131727701,-0.12266534057781396,-0.30279524689421294,-0.0446417856714041,-0.8539541581663097,-0.3764550582023283,-0.010080403216125227,-0.007680307212289376,-0.00672026881074571,-5.285478553366249,6.623176927790012,-10.369244209771335,-0.835809412006823,1.1108586293360463,-2.6981130369496475,-0.619320386972835,0.5470675226256365,-0.1296915846214043,-0.190979,-0.10887599999999997,-0.89772,0.02912899999999996,-0.017367999999999995,-0.9090949999999999,0.22010799999999997,0.09150799999999998,0.011374999999999913,0.38625000000000087,0.9760925592264031,single,-0.89772
172,1.433333,stair_decsent,-0.004920196807893935,-0.16176647065882307,0.05040201608065412,-0.8231062608457005,0.055985523604302735,0.21886661383426415,-0.05640225609026722,-0.8378735149406072,-0.4059762390495554,-0.03900156006241854,-0.03480139205567738,-0.0074402976119053235,6.82614608075939,-14.761180870851346,19.87358985539297,-1.4113129027796985,1.9297543772594035,-3.542683409003645,-3.4706776486611757,-3.2546603676212946,-0.08640691241565106,-0.19140800000000002,-0.11451000000000003,-0.901523,0.02884500000000001,-0.01630999999999999,-0.909577,0.22025300000000003,0.09820000000000004,0.008054000000000006,0.41945999999999994,0.9120035258776251,single,-0.901523
173,1.441667,stair_decsent,-0.03335733141348672,-0.09899208063355099,-0.03923686105111156,0.07812866642696188,-0.0775364611598293,-0.042450153893362326,-0.06455483561314175,-0.8246940244780343,-0.4282457403407748,-0.022678185745139582,0.0007199424046016851,-0.018238540916731442,-3.412183178016867,7.532324217095225,-10.755804791428487,-0.9782312842421966,1.581412342521339,-2.6721263848355217,1.9586482262153628,4.262219157700839,-1.2956855417357855,-0.19166799999999995,-0.120558,-0.904765,0.028934000000000015,-0.01547900000000002,-0.909402,0.22060199999999996,0.10507899999999998,0.004637000000000002,0.45363,0.9514813094282133,single,-0.904765
174,1.45,stair_decsent,-0.04224168966757604,-0.10104404176167252,-0.06084243369735268,0.09037267209936138,-0.008939647388584547,-0.12137417676847424,-0.08304332173285986,-0.8034321372854996,-0.45157806312252435,-0.028801152046084265,0.0063602544101794955,-0.025561022440900118,-1.066165637116213,-0.2462451851819934,-2.592772428446096,-2.2187070826494995,2.5515285242451626,-2.7999907334393117,-0.7347853475272698,0.6768645152499535,-0.8787329322175379,-0.19200799999999996,-0.126411,-0.908021,0.029045999999999905,-0.014583999999999986,-0.909108,0.22105399999999986,0.11182700000000001,0.0010870000000000601,0.4891299999999994,0.9349503381260801,single,-0.908021
