frame_id,timestamp,gait_type,root_linear_velocity_x,root_linear_velocity_y,root_linear_velocity_z,root_angular_velocity_x,root_angular_velocity_y,root_angular_velocity_z,left_linear_velocity_x,left_linear_velocity_y,left_linear_velocity_z,right_linear_velocity_x,right_linear_velocity_y,right_linear_velocity_z,root_acceleration_x,root_acceleration_y,root_acceleration_z,left_acceleration_x,left_acceleration_y,left_acceleration_z,right_acceleration_x,right_acceleration_y,right_acceleration_z,left_pos_rel_x,left_pos_rel_y,left_pos_rel_z,right_pos_rel_x,right_pos_rel_y,right_pos_rel_z,step_length,step_width,step_height,left_contact_prob,right_contact_prob,support_type,max_foot_height
1,0.008333,stair_decsent,0.0,0.0,0.0,0.0,0.0,0.0,-0.0019200768030740432,0.002760110404415606,0.0007200288011461046,-0.0008400336013548863,0.0022800912036470954,0.0006000240009639692,0.0,0.0,0.0,0.0,0.0,0.0,0.0,0.0,0.0,-0.1764920000000001,-0.005680000000000018,0.03393399999999991,0.03340999999999994,-0.04183700000000001,0.03948099999999999,0.20990200000000003,0.036156999999999995,0.00554700000000008,0.9942691512532934,0.940358502417167,double,0.03948099999999999
2,0.016667,stair_decsent,0.0,0.0,0.0,0.0,0.0,0.0,-0.0026397888168906273,0.002399808015361171,-0.002159827213818393,-0.0009599232061444684,0.0031197504199695224,0.0023998080153478495,0.0,0.0,0.0,-0.08635853297535205,-0.043232828060287394,-0.3455550773895485,-0.014385601726611722,0.10075104587502122,0.21595680518165108,-0.17651400000000006,-0.005659999999999998,0.033915999999999946,0.03340199999999993,-0.04181099999999999,0.0395009999999999,0.209916,0.03615099999999999,0.005584999999999951,0.9930492971774385,0.9373977629725154,double,0.0395009999999999
3,0.025,stair_decsent,0.0,0.0,0.0,0.0,0.0,0.0,-0.001680067202683126,0.0010800432017258185,-0.001680067202683126,-0.0014400576022922092,0.0015600624024943292,0.00012000480019545849,0.0,0.0,0.0,0.11517120055292226,-0.15837811276075273,0.0575735042764031,-0.0576184322750199,-0.18717004889897915,-0.2735873293114594,-0.17652800000000002,-0.005651000000000017,0.03390199999999999,0.03339000000000003,-0.041798,0.039501999999999926,0.20991800000000005,0.036146999999999985,0.005599999999999938,0.9956501133703608,0.9404558492046502,double,0.039501999999999926
4,0.033333,stair_decsent,0.0,0.0,0.0,0.0,0.0,0.0,-0.004680187207502973,0.0013200528021167354,-0.0012000480019279385,-0.0003600144005996987,0.0019200768030740432,0.0026401056042201477,0.0,0.0,0.0,-0.3600288017304509,0.028802304139075592,0.057604608274953506,0.12961036861784597,0.043203456207813996,0.3024241934507007,-0.17656700000000014,-0.005639999999999978,0.03389199999999992,0.033386999999999833,-0.041781999999999986,0.03952399999999989,0.20995399999999997,0.03614200000000001,0.00563199999999997,0.9916522113865438,0.9382062081749649,double,0.03952399999999989
5,0.041667,stair_decsent,0.0,0.0,0.0,0.0,0.0,0.0,-0.0026397888168906273,0.0011999040076805855,-0.0029997600191914724,-0.0010799136069025357,0.0026397888168906273,0.0005999520038436232,0.0,0.0,0.0,0.24482822061583218,-0.014416701996178297,-0.21594816621832658,-0.08638099427679828,0.08635853297535205,-0.2447988481373319,-0.1765890000000001,-0.005629999999999968,0.03386699999999998,0.03337799999999991,-0.04176000000000002,0.039528999999999925,0.20996700000000001,0.03613000000000005,0.005661999999999945,0.9930464208260605,0.9385224054869754,double,0.039528999999999925
6,0.05,stair_decsent,0.0,0.0,0.0,0.0,0.0,0.0,-0.0031201248049753352,0.003960158406330221,-0.0019200768030740432,-0.0004800192007551876,0.0020400816032695016,0.0009600384015370216,0.0,0.0,0.0,-0.05764262427513596,0.3312437775890599,0.12956716862083634,0.0719902083460156,-0.07196774434430885,0.04321209620705609,-0.17661499999999997,-0.005597000000000019,0.033850999999999964,0.033374000000000015,-0.041742999999999975,0.03953699999999993,0.20998899999999998,0.036145999999999956,0.005685999999999969,0.9910085336241719,0.9392979717764075,double,0.03953699999999993
7,0.058333,stair_decsent,0.0,0.0,0.0,0.0,0.0,0.0,-0.003240129605184117,0.0038401536061480864,-0.0020400816032695016,-0.000720028801172751,0.006360254410172775,-0.0028801152046110646,0.0,0.0,0.0,-0.014401152071136632,-0.014401152067938907,-0.014401152069537796,-0.028802304142273305,0.5184414744873723,-0.46083686621241887,-0.17664199999999997,-0.005564999999999987,0.03383399999999992,0.03336799999999984,-0.041690000000000005,0.03951299999999991,0.2100099999999998,0.03612500000000002,0.00567899999999999,0.9909619396554223,0.9315116690140488,double,0.03951299999999991
8,0.066667,stair_decsent,0.0,0.0,0.0,0.0,0.0,0.0,-0.0026397888169172705,0.0017998560115175478,-0.0013198944084453137,-0.0011999040076606032,0.002519798416125899,0.00011999040077138896,0.0,0.0,0.0,0.07203513178147904,-0.24481612606557931,0.08641555013489176,-0.057580418345074644,-0.4608178538573165,0.3599838739359795,-0.17666400000000015,-0.005549999999999999,0.033822999999999936,0.033358,-0.04166900000000001,0.03951399999999994,0.21002200000000015,0.03611900000000001,0.005691000000000002,0.9942385168022745,0.9384341937737835,double,0.03951399999999994
9,0.075,stair_decsent,0.0,0.0,0.0,0.0,0.0,0.0,-0.004560182407294194,0.003600144005763834,-0.00264010560422015,0.00012000480018213538,0.002400096003842556,0.0025201008040380145,0.0,0.0,0.0,-0.23045644910319518,0.216043201037596,-0.15843168076021089,0.15839539275683903,-0.014364864068563922,0.2880247693827706,-0.17670200000000014,-0.005519999999999969,0.03380099999999997,0.033358999999999916,-0.04164899999999999,0.03953499999999999,0.21006100000000005,0.03612900000000002,0.005734000000000017,0.9893637859111917,0.9368563206013959,double,0.03953499999999999
10,0.083333,stair_decsent,0.0,0.0,0.0,0.0,0.0,0.0,-0.006120244809795177,0.003240129605184114,-0.002760110404415604,-0.03132125285012199,0.012600504020163404,0.003240129605184114,0.0,0.0,0.0,-0.18721497689919367,-0.043203456207814635,-0.014401152069537263,-3.773101842110176,1.2240979258755358,0.08640691241402845,-0.17675300000000016,-0.00549299999999997,0.033777999999999975,0.03309799999999985,-0.04154399999999997,0.039561999999999986,0.209851,0.036051,0.005784000000000011,0.9875753330209196,0.8856334078920514,double,0.039561999999999986
11,0.091667,stair_decsent,0.0,0.0,0.0,0.0,0.0,0.0,-0.005639548836082105,0.0009599232061378084,-0.002399808015361173,-0.0007199424046016911,0.00875929925605829,0.0023998080153478513,0.0,0.0,0.0,0.057678902533365974,-0.2736028796551845,0.043232828060286915,3.6718635043820878,-0.46090769907668777,-0.10083052433840455,-0.17680000000000007,-0.005485000000000018,0.033757999999999955,0.0330919999999999,-0.04147099999999998,0.039581999999999895,0.20989199999999997,0.03598599999999996,0.00582399999999994,0.9896606143870972,0.9265756953261994,double,0.039581999999999895
12,0.1,stair_decsent,0.0,0.0,0.0,0.0,0.0,0.0,-0.005160206408258156,0.0007200288011527656,-0.0015600624025009894,-0.002760110404402281,0.0015600624024943279,0.003000120004806521,0.0,0.0,0.0,0.05752339227456479,-0.028788480137410612,0.10077350448340129,-0.24482995317419753,-0.8639429801468806,0.07204032034785421,-0.17684300000000008,-0.005479000000000012,0.033744999999999914,0.033069000000000015,-0.041457999999999995,0.03960699999999995,0.2099120000000001,0.03597899999999998,0.005862000000000034,0.9909354220619774,0.9341050956120434,double,0.03960699999999995
13,0.108333,stair_decsent,0.0,0.0,0.0,0.0,0.0,0.0,-0.004800192007685112,-0.0016800672026831276,-0.0019200768030740447,-0.006240249610003968,-0.006360254410179443,0.004800192007685112,0.0,0.0,0.0,0.043203456207013595,-0.2880230413819627,-0.04320345620701495,-0.41763341000860316,-0.9504760365623157,0.2160172810366726,-0.17688300000000012,-0.00549299999999997,0.0337289999999999,0.03301699999999985,-0.04151100000000002,0.03964699999999999,0.20989999999999998,0.03601800000000005,0.00591800000000009,0.9909398362711204,0.9239516046119759,double,0.03964699999999999
14,0.116667,stair_decsent,0.0,0.0,0.0,0.0,0.0,0.0,-0.010079193664503588,0.007799376049913808,-0.0008399328053730787,0.0011999040076872453,-0.00839932805375077,-0.007319414446854896,0.0,0.0,0.0,-0.63342952445626,1.1374421949360363,0.1296069111712221,0.8927470143617958,-0.2446692636874641,-1.454236435629949,-0.1769670000000001,-0.005427999999999988,0.03372199999999992,0.03302699999999992,-0.04158099999999998,0.0395859999999999,0.20999400000000001,0.03615299999999999,0.00586399999999998,0.9787132083981587,0.9226842351616524,double,0.0395859999999999
15,0.125,stair_decsent,0.0,0.0,0.0,0.0,0.0,0.0,-0.0014400576022922103,-0.004920196807873908,-0.0030001200047932025,-0.006240249609977322,0.009360374414972644,-0.0014400576022922103,0.0,0.0,0.0,1.036737796977245,-1.5264097993265002,-0.2592328332437448,-0.8928541482856802,2.131249546228661,0.7055510433892584,-0.176979,-0.005469000000000002,0.03369699999999998,0.03297499999999998,-0.04150300000000001,0.039574,0.20995399999999997,0.03603400000000001,0.005877000000000021,0.9901001090677595,0.9223273921345625,double,0.039574
16,0.133333,stair_decsent,0.0,0.0,0.0,0.0,0.0,0.0,-0.008280331213260135,0.005880235209410921,-0.0014400576023055312,-0.0002400096003909168,0.007560302412100707,-0.0001200048001954584,0.0,0.0,0.0,-0.820865667942868,1.296103686221627,0.1872149768975963,0.7200576034545062,-0.21601728103587367,0.15841267275852042,-0.1770480000000001,-0.00541999999999998,0.033684999999999965,0.03297299999999992,-0.04143999999999998,0.03957299999999997,0.210021,0.036019999999999996,0.005888000000000004,0.9829042876544013,0.9285115616524791,double,0.03957299999999997
17,0.141667,stair_decsent,0.0,0.0,0.0,0.0,0.0,0.0,-0.005519558435324046,0.0028797696184267516,-0.0015598752099880956,-0.0014398848092033846,0.0031197504199628693,-0.00107991360691586,0.0,0.0,0.0,0.3312662320537672,-0.360027068752601,-0.014376962764886566,-0.1439735071769223,-0.5328236131674884,-0.11517984241905495,-0.17709400000000008,-0.005396000000000012,0.033671999999999924,0.03296100000000002,-0.041414000000000006,0.03956399999999993,0.2100550000000001,0.036017999999999994,0.005892000000000008,0.9893031924483535,0.9350771478202636,double,0.03956399999999993
18,0.15,stair_decsent,0.0,0.0,0.0,0.0,0.0,0.0,-0.006120244809795177,0.00048001920076851036,-0.0006000240009639688,0.00012000480018213519,0.0024000960038425517,-0.0019200768030740415,0.0,0.0,0.0,-0.0720852483464695,-0.287981569381764,0.11518675255299723,0.18719424089589806,-0.08636198441381458,-0.10082361648364102,-0.1771450000000001,-0.005392000000000008,0.03366699999999989,0.032961999999999936,-0.041393999999999986,0.03954799999999992,0.21010700000000004,0.03600199999999998,0.005881000000000025,0.9897195109597159,0.9360633926885122,double,0.03954799999999992
19,0.158333,stair_decsent,0.0,0.0,0.0,0.0,0.0,0.0,-0.005280211208440291,0.0003600144005797136,-0.00036001440057305197,-0.0016800672026831248,0.0022800912036470937,-0.0030001200047931973,0.0,0.0,0.0,0.10080806448516559,-0.014401152068738352,0.02880230413907556,-0.2160172810350724,-0.014401152069537732,-0.12961036862104344,-0.17718900000000004,-0.005388999999999977,0.033663999999999916,0.03294799999999998,-0.041374999999999995,0.039522999999999975,0.21013700000000002,0.03598600000000002,0.005859000000000059,0.9911588319111696,0.9345336795721266,double,0.039522999999999975
20,0.166667,stair_decsent,0.0,0.0,0.0,0.0,0.0,0.0,-0.005999520038409583,0.0002399808015361169,0.0,-0.00035997120230084497,0.0011999040076805846,-0.002039836813060324,0.0,0.0,0.0,-0.08631015478393227,-0.014402879654859198,0.04319827220698964,0.1583988481380224,-0.1296120945484171,0.11522476502674253,-0.17723900000000015,-0.005386999999999975,0.033663999999999916,0.032945,-0.041364999999999985,0.03950599999999993,0.21018400000000015,0.03597800000000001,0.005842000000000014,0.9899928037731196,0.9375903317048035,double,0.03950599999999993
21,0.175,stair_decsent,0.0,0.0,0.0,0.0,0.0,0.0,-0.00648025921036825,-0.004320172806916608,0.0012000480019279415,-0.00012000480020878201,0.0008400336013415652,-0.0006000240009639708,0.0,0.0,0.0,-0.057691008275371186,-0.5472403226272334,0.14401152069218104,0.028797120135853064,-0.04318617620773074,0.172784448829516,-0.17729300000000014,-0.005423000000000011,0.03367399999999998,0.03294399999999986,-0.041358000000000006,0.0395009999999999,0.210237,0.035934999999999995,0.005826999999999916,0.9868663105249096,0.9399978799076246,double,0.0395009999999999
22,0.183333,stair_decsent,0.0,0.0,0.0,0.0,0.0,0.0,-0.006720268810732499,-0.002040081603262838,0.0022800912036470937,-0.0016800672026831248,0.0024000960038425517,-0.007440297611905249,0.0,0.0,0.0,-0.02880230413587529,0.2736218893140247,0.129610368621043,-0.1872149768959968,0.1872149768991942,-0.8208656679396703,-0.17734899999999998,-0.00544,0.03369299999999997,0.032929999999999904,-0.041337999999999986,0.03943899999999989,0.21027899999999988,0.035897999999999985,0.005745999999999918,0.9876934116861666,0.9292128019129106,double,0.03943899999999989
23,0.191667,stair_decsent,0.0,0.0,0.0,0.0,0.0,0.0,-0.004079673626120648,0.0005999520038436226,-0.0004799616030722338,-0.0011999040076872453,-0.0004799616030722338,-0.003479721622263704,0.0,0.0,0.0,0.3168460744674644,0.3167786905575304,-0.33117984241892545,0.05761497420156936,-0.34557926648845483,0.4752311002689634,-0.17738300000000007,-0.005434999999999968,0.03368899999999997,0.03291999999999984,-0.04134199999999999,0.039409999999999945,0.2103029999999999,0.03590700000000002,0.005720999999999976,0.9930810159619019,0.9366034116077743,double,0.039409999999999945
24,0.2,stair_decsent,0.0,0.0,0.0,0.0,0.0,0.0,-0.005280211208440291,-0.00252010080403801,0.002520100804024687,-0.00036001440057305197,0.0019200768030740415,-0.004080163206525676,0.0,0.0,0.0,-0.1440702726892646,-0.3744213137983476,0.36002188972721927,0.10079078448508251,0.2880161293827281,-0.07205587234633047,-0.177427,-0.005456000000000016,0.03370999999999991,0.03291699999999986,-0.041325999999999974,0.03937599999999997,0.21034399999999986,0.03586999999999996,0.00566600000000006,0.9893826077523327,0.9358004676887215,double,0.03937599999999997
25,0.208333,stair_decsent,0.0,0.0,0.0,0.0,0.0,0.0,-0.005160206408258173,-0.000240009600384256,0.00240009600384256,-0.000840033601328242,0.002760110404415613,-0.003240129605184125,0.0,0.0,0.0,0.014401152067936964,0.27362188931402376,-0.014401152067938005,-0.05760460827495394,0.10080806448356819,0.10080806448356575,-0.17747000000000002,-0.005458000000000018,0.03372999999999993,0.032909999999999995,-0.04130299999999998,0.03934899999999997,0.21038,0.03584499999999996,0.005619000000000041,0.9905064648295441,0.9365792197757863,double,0.03934899999999997
26,0.216667,stair_decsent,0.0,0.0,0.0,0.0,0.0,0.0,-0.007679385649155741,-0.0032397408207342476,0.009239260859130509,0.002879769618433403,0.004919606431480405,-0.002759779217662014,0.0,0.0,0.0,-0.30227732672157015,-0.35993895132589254,0.8206341319040008,0.4463406791170676,0.25911879374427527,0.05763743550781267,-0.17753400000000008,-0.005485000000000018,0.03380699999999992,0.03293400000000002,-0.04126200000000002,0.03932599999999997,0.2104680000000001,0.035777,0.005519000000000052,0.9792613601540874,0.9342543298772967,double,0.03932599999999997
27,0.225,stair_decsent,0.0,0.0,0.0,0.0,0.0,0.0,-0.003240129605184114,0.0016800672026897863,0.00792031681267376,0.0034801392055483845,0.0040801632065323385,0.0006000240009506456,0.0,0.0,0.0,0.532732034557977,0.590400578834037,-0.1582796167594801,0.07204723234309145,-0.10073721648242721,0.4031925139340761,-0.17756100000000008,-0.005471000000000004,0.03387299999999993,0.032962999999999854,-0.04122799999999999,0.039330999999999894,0.21052399999999993,0.03575699999999998,0.005457999999999963,0.9854653207736093,0.936426309390027,double,0.039330999999999894
28,0.233333,stair_decsent,0.0,0.0,0.0,0.0,0.0,0.0,-0.008160326413051353,-0.009960398415936598,0.010680427217089363,0.004560182407294187,0.004560182407294187,0.0007200288011594272,0.0,0.0,0.0,-0.5904472348334614,-1.3969117507051934,0.3312264975897757,0.12961036862424122,0.05760460827575285,0.01440115207113662,-0.17762900000000004,-0.005554000000000003,0.03396199999999994,0.033000999999999836,-0.041190000000000004,0.039336999999999955,0.21062999999999987,0.035636,0.005375000000000019,0.9721177082625669,0.9354347627228357,double,0.039336999999999955
29,0.241667,stair_decsent,0.0,0.0,0.0,0.0,0.0,0.0,-0.008639308855300237,-0.017158627309815763,0.01355891528678066,0.002639788816917277,0.005279577633787929,0.001319894408445317,0.0,0.0,0.0,-0.05747329520624977,-0.8637183697959181,0.34539093708798935,-0.23042879654150647,0.08632052153752619,0.07197811462513692,-0.1777010000000001,-0.005697000000000008,0.034074999999999966,0.033023000000000025,-0.041146000000000016,0.03934799999999994,0.21072400000000013,0.03544900000000001,0.005272999999999972,0.9608102786857277,0.9371891399398885,double,0.03934799999999994
30,0.25,stair_decsent,0.0,0.0,0.0,0.0,0.0,0.0,-0.010680427217089363,-0.02172086883475178,0.023400936037434903,0.002760110404402281,0.0007200288011527656,-0.0013200528021100728,0.0,0.0,0.0,-0.24494400117474194,-0.5474908826276266,1.181089733667855,0.014439168064923047,-0.5471677466260841,-0.3168063375201473,-0.17779000000000011,-0.005877999999999994,0.03426999999999991,0.03304599999999991,-0.04114000000000001,0.039336999999999955,0.21083600000000002,0.035262000000000016,0.005067000000000044,0.9438882197973408,0.9440914701173422,double,0.039336999999999955
31,0.258333,stair_decsent,0.0,0.0,0.0,0.0,0.0,0.0,-0.010920436817480316,-0.016200648025920625,0.036841473658953315,0.0012000480019279415,0.003000120004799869,-0.005280211208453632,0.0,0.0,0.0,-0.028802304139080033,0.6624529951795474,1.6129290317434832,-0.18721497689599703,0.2736218893132256,-0.4752380182819596,-0.17788100000000018,-0.006012999999999991,0.03457699999999997,0.033055999999999974,-0.04111500000000001,0.03929299999999991,0.21093700000000015,0.03510200000000002,0.0047159999999999425,0.9304975796163324,0.9425226110032078,double,0.03929299999999991
32,0.266667,stair_decsent,0.0,0.0,0.0,0.0,0.0,0.0,-0.012479001679851436,-0.011279097672184173,0.05351571874249412,0.0010799136069025348,0.002879769618433403,-0.0044396448284081715,0.0,0.0,0.0,-0.1870128224587374,0.5905387993444261,2.0007493500768883,-0.014414974205112386,-0.014440891092688507,0.10085989681371006,-0.17798500000000006,-0.0061069999999999736,0.035022999999999915,0.0330649999999999,-0.04109099999999999,0.03925599999999996,0.21104999999999996,0.034984000000000015,0.004233000000000042,0.9065049662675109,0.9486684981722123,double,0.03925599999999996
33,0.275,stair_decsent,0.0,0.0,0.0,0.0,0.0,0.0,-0.017520700828030585,-0.01572062882515867,0.06168246729869342,0.002400096003855867,0.0034801392055683576,-0.002040081603269493,0.0,0.0,0.0,-0.6050280989054516,-0.5330050585592799,0.9800490287050605,0.15842822476338975,0.07204723234548809,0.28795910538085545,-0.17813100000000004,-0.006238000000000021,0.03553699999999993,0.03308500000000003,-0.04106199999999999,0.03923899999999991,0.21121600000000007,0.034823999999999966,0.003701999999999983,0.8899641485164174,0.9551566441795067,double,0.03923899999999991
34,0.283333,stair_decsent,0.0,0.0,0.0,0.0,0.0,0.0,-0.02112084483378788,-0.022080883235324904,0.077763110524419,0.0015600624024743482,0.003240129605184125,-0.001440057602305536,0.0,0.0,0.0,-0.4320345620733592,-0.7632610596623364,1.9297543772621653,-0.10080806448836205,-0.02880230413827351,0.07200576034608887,-0.178307,-0.006421999999999983,0.03618499999999991,0.03309799999999985,-0.04103499999999999,0.0392269999999999,0.21140499999999984,0.034613000000000005,0.003041999999999989,0.8607484605174067,0.963123736792858,double,0.0392269999999999
35,0.291667,stair_decsent,0.0,0.0,0.0,0.0,0.0,0.0,-0.06431485481162605,-0.04259659227261745,0.11219102471802475,-0.00035997120230084497,0.0037197024238064817,-0.006479481641468495,0.0,0.0,0.0,-5.182866568015134,-2.4616881494231495,4.13101922169495,-0.23038560172488498,0.05754413470390644,-0.6046825100987466,-0.17884300000000009,-0.0067769999999999775,0.03711999999999993,0.033094999999999875,-0.041003999999999985,0.0391729999999999,0.21193799999999996,0.03422700000000001,0.0020529999999999715,0.7730779854347865,0.9670034394244396,double,0.0391729999999999
36,0.3,stair_decsent,0.0,0.0,0.0,0.0,0.0,0.0,-0.03120124804991331,-0.03012120484819415,0.10260410416417284,0.001080043201745806,0.003000120004799869,-0.003960158406330232,0.0,0.0,0.0,3.9737917630760613,1.4971063751858076,-1.1504764855216527,0.1728086408312318,-0.08635334441457032,0.30233088145185044,-0.179103,-0.007027999999999979,0.03797499999999998,0.03310400000000002,-0.04097899999999999,0.03913999999999995,0.21220700000000003,0.03395100000000001,0.0011649999999999716,0.8143449505975042,0.9798761729811954,double,0.03913999999999995
37,0.308333,stair_decsent,0.0,0.0,0.0,0.0,0.0,0.0,-0.027121084843400763,-0.03732149285971492,0.11556462258489525,0.0004800192007551856,0.001200048001921272,-0.0032401296051841034,0.0,0.0,0.0,0.4896391703483176,-0.8640691241474551,1.5553244234636208,-0.07200576034928811,-0.21601728103667223,0.0864069124140316,-0.17932900000000007,-0.007338999999999984,0.03893799999999992,0.033107999999999915,-0.04096899999999998,0.03911299999999995,0.212437,0.03362999999999999,0.00017500000000003624,0.79261128107431,0.9924359906981306,double,0.03911299999999995
38,0.316667,stair_decsent,0.0,0.0,0.0,0.0,0.0,0.0,-0.022318214542839037,-0.04115670746340769,0.13582913366930985,0.00035997120230084735,-0.0010799136069158635,-0.0031197504199628797,0.0,0.0,0.0,0.5762983322008343,-0.46018893732814825,2.431546806385255,-0.014404607445924995,-0.27357350717988344,0.014444346678812616,-0.1795150000000001,-0.007682000000000022,0.04006999999999994,0.03311099999999989,-0.040978000000000014,0.03908699999999998,0.21262599999999998,0.03329599999999999,0.0009829999999999561,0.7507173207096147,0.9944651017906212,double,0.04006999999999994
39,0.325,stair_decsent,0.0,0.0,0.0,0.0,0.0,0.0,-0.017520700828030585,-0.048721948877950345,0.1341653666146583,-0.0010800432017191524,-0.0008400336013415596,-0.0034801392055750194,0.0,0.0,0.0,0.5757246747640024,-0.9078652843564894,-0.1996600329595028,-0.17280864082803235,0.028786752139001916,-0.04324838420882494,-0.17966100000000007,-0.008087999999999984,0.04118799999999989,0.033101999999999965,-0.040984999999999994,0.039057999999999926,0.21276300000000004,0.03289700000000001,0.0021299999999999653,0.7390176357782348,0.9937675761226865,double,0.04118799999999989
40,0.333333,stair_decsent,0.0,0.0,0.0,0.0,0.0,0.0,-0.014880595223810548,-0.05316212648506274,0.12600504020162115,0.0,-0.002880115204611072,-0.001800072002878589,0.0,0.0,0.0,0.31682534552022606,-0.5328426265585506,-0.9792783406980891,0.12961036862104344,-0.24481958517574914,0.20161612896873088,-0.17978500000000008,-0.00853100000000001,0.042238,0.033101999999999965,-0.04100900000000002,0.03904299999999994,0.21288700000000005,0.03247800000000001,0.003195000000000059,0.738770246309588,0.9943393848961591,double,0.042238
41,0.341667,stair_decsent,0.0,0.0,0.0,0.0,0.0,0.0,-0.011639068874491678,-0.06059515238780624,0.12838972882168267,0.0007199424046016899,0.0011999040076805846,-0.002519798416132558,0.0,0.0,0.0,0.38895204575460374,-0.8918917569886602,0.28613974322792457,0.08638617765799007,0.48956314042376436,-0.0863602607696146,-0.1798820000000001,-0.009035999999999988,0.0433079999999999,0.033107999999999915,-0.04099900000000001,0.03902199999999989,0.21299,0.03196300000000002,0.004286000000000012,0.7197282451422339,0.995196219442652,double,0.0433079999999999
42,0.35,stair_decsent,0.0,0.0,0.0,0.0,0.0,0.0,-0.006600264010550386,-0.07284291371655174,0.12960518420737832,-0.0007200288011461063,0.000480019200768512,-0.0030001200047932073,0.0,0.0,0.0,0.6046807709037927,-1.4697901510555065,0.14586048070270602,-0.1728034568280091,-0.08638963241474551,-0.05764089627512908,-0.179937,-0.009643000000000013,0.04438799999999998,0.033101999999999965,-0.040995000000000004,0.03899699999999995,0.21303899999999998,0.03135199999999999,0.005391000000000035,0.6980579829294293,0.9947959471053944,double,0.04438799999999998
43,0.358333,stair_decsent,0.0,0.0,0.0,0.0,0.0,0.0,0.0016800672026831191,-0.1238449537981487,0.16716668666746332,0.0016800672026831191,0.0034801392055683576,-0.004200168006721121,0.0,0.0,0.0,0.9936794927677273,-6.120489629376784,4.507560597634086,0.28802304138116114,0.3600288017280491,-0.1440115206921767,-0.17992300000000006,-0.01067499999999999,0.04578099999999996,0.03311599999999992,-0.040966,0.03896199999999994,0.21303899999999998,0.030291000000000012,0.0068190000000000195,0.5850588230475433,0.9904875219404036,double,0.04578099999999996
44,0.366667,stair_decsent,0.0,0.0,0.0,0.0,0.0,0.0,-0.024718022558186736,-0.1150707943364515,0.1703863690904698,0.0021598272138317128,0.0002399808015361169,0.0016798656107461574,0.0,0.0,0.0,-3.1675173699147865,1.052814910210846,0.38633098428203616,0.05756659601015037,-0.3887879054514324,0.7055475902888496,-0.18012899999999998,-0.011633999999999978,0.04720099999999994,0.033134,-0.040964,0.0389759999999999,0.21326299999999998,0.029330000000000023,0.008225000000000038,0.5726099997414782,0.9954221569705319,double,0.04720099999999994
45,0.375,stair_decsent,0.0,0.0,0.0,0.0,0.0,0.0,-0.011280451218053369,-0.13020520820832898,0.18708748349933768,0.0015600624025009946,-0.0006000240009573092,-0.0010800432017191595,0.0,0.0,0.0,1.6125730637385576,-1.8162023127178115,2.0042138976200548,-0.07197465634594019,-0.10080460848355072,-0.3312023055880624,-0.18022300000000002,-0.01271899999999998,0.048759999999999915,0.03314700000000004,-0.04096899999999998,0.038966999999999974,0.21337000000000006,0.028249999999999997,0.00979299999999994,0.5217106256856405,0.9966832425393493,double,0.048759999999999915
46,0.383333,stair_decsent,0.0,0.0,0.0,0.0,0.0,0.0,-0.009000360014406268,-0.1785671426857066,0.22116884675387538,0.00276011040440229,0.0016800672026831304,-0.0006000240009639708,0.0,0.0,0.0,0.2736218893132253,-5.803664283856682,4.089927187632039,0.14401152068898335,0.2736218893124259,0.05760460827495379,-0.18029800000000007,-0.01420699999999997,0.050602999999999954,0.03316999999999992,-0.04095500000000002,0.03896199999999994,0.213468,0.02674800000000005,0.011641000000000012,0.4095913780441806,0.9945225553271839,single,0.050602999999999954
47,0.391667,stair_decsent,0.0,0.0,0.0,0.0,0.0,0.0,0.0004799616030589122,-0.19834413246940413,0.2263018958483251,0.0027597792176753356,0.0007199424046083507,-0.0010799136069158564,0.0,0.0,0.0,1.1375475902885976,-2.373048930129293,0.6159166180045262,-3.973922809627153e-05,-0.1152057593082288,-0.05758214614253482,-0.18029400000000018,-0.015859999999999985,0.0524889999999999,0.03319300000000003,-0.04094900000000001,0.038952999999999904,0.2134870000000002,0.025089000000000028,0.013535999999999992,0.3646400000000001,0.9949171006210726,single,0.0524889999999999
48,0.4,stair_decsent,0.0,0.0,0.0,0.0,0.0,0.0,-0.0030001200047931873,-0.24696987879515128,0.21588863554542032,0.002880115204584406,0.0007200288011527632,-0.0008400336013415596,0.0,0.0,0.0,-0.41762649800217033,-5.835322972008514,-1.2496412219974498,0.014440896064931007,1.036800004950019e-05,0.028786752139001056,-0.18031900000000012,-0.01791799999999999,0.05428799999999989,0.03321699999999983,-0.04094300000000001,0.038945999999999925,0.21353599999999995,0.023025000000000018,0.015341999999999967,0.34658000000000033,0.9948578102595753,single,0.05428799999999989
49,0.408333,stair_decsent,0.0,0.0,0.0,0.0,0.0,0.0,0.002880115204611072,-0.2830913236529468,0.20256810272411221,0.0018000720028919124,0.002520100804031357,-0.003120124804988666,0.0,0.0,0.0,0.7056564513865683,-4.334746772806387,-1.598527879672163,-0.12961036861784428,0.21601728103667325,-0.273621889313226,-0.1802950000000001,-0.02027699999999999,0.055975999999999915,0.03323199999999993,-0.040922000000000014,0.038919999999999955,0.21352700000000002,0.020645000000000024,0.01705599999999996,0.3294400000000004,0.9926730432881228,single,0.055975999999999915
50,0.416667,stair_decsent,0.0,0.0,0.0,0.0,0.0,0.0,0.03239740820734248,-0.3528917686585102,0.21502279817614758,0.00227981761458978,0.0010799136069158564,-0.0011999040076739237,0.0,0.0,0.0,3.5417918169824065,-8.375383369997996,1.4944438987323443,0.05756486821428692,-0.1728086389627429,0.23040806303272626,-0.1800250000000001,-0.023218000000000016,0.05776799999999993,0.03325099999999992,-0.04091299999999998,0.03891,0.21327600000000002,0.01769499999999996,0.01885799999999993,0.3114200000000007,0.9953441937737715,single,0.05776799999999993
51,0.425,stair_decsent,0.0,0.0,0.0,0.0,0.0,0.0,-0.0152406096243836,-0.29905196207848317,0.1654866194647813,-0.00036001440057305316,-0.00036001440057971477,-0.002520100804038019,0.0,0.0,0.0,-5.716790811439601,6.461035231012499,-5.944579228533111,-0.3167925135200816,-0.17279827283038218,-0.15842995276180227,-0.1801520000000001,-0.02571000000000001,0.05914699999999995,0.033247999999999944,-0.04091600000000001,0.03888899999999995,0.21340000000000003,0.015205999999999997,0.020257999999999998,0.29742,0.9957149715417262,single,0.05914699999999995
52,0.433333,stair_decsent,0.0,0.0,0.0,0.0,0.0,0.0,0.013440537621518246,-0.37525501020040536,0.1934477379095092,0.0008400336013548828,-0.0008400336013415596,0.000120004800195458,0.0,0.0,0.0,3.441875344521988,-9.14473156389318,3.3554684321046184,0.1440115206921794,-0.057604608275752166,0.3168253455218368,-0.18003999999999998,-0.028837,0.060758999999999896,0.033255000000000035,-0.04092299999999999,0.03888999999999998,0.213295,0.012085999999999986,0.021868999999999916,0.28131000000000084,0.9980099455235973,single,0.060758999999999896
53,0.441667,stair_decsent,0.0,0.0,0.0,0.0,0.0,0.0,0.025197984161245815,-0.39500839932805804,0.14734821214303023,0.0007199424046016947,-0.01427885769138906,-0.011159107271419519,0.0,0.0,0.0,1.4107807223095317,-2.3702170779520984,-5.531500571931753,-0.014409790827116483,-1.612529888414636,-1.3533851777795827,-0.17983000000000016,-0.03212900000000002,0.0619869999999999,0.033260999999999985,-0.04104200000000002,0.03879699999999997,0.21309100000000014,0.008913000000000004,0.023189999999999933,0.26810000000000067,0.9697726315544297,single,0.0619869999999999
54,0.45,stair_decsent,0.0,0.0,0.0,0.0,0.0,0.0,-0.0025201008040113553,-0.4161766470658774,0.08640345613825164,-0.002280091203647086,0.007560302412100682,0.006840273610941258,0.0,0.0,0.0,-3.326303247960765,-2.540291340191924,-7.3136632671040855,-0.3600184337272012,2.620804044580541,2.160012106367539,-0.17985099999999998,-0.03559699999999999,0.06270699999999996,0.033241999999999994,-0.04097899999999999,0.038853999999999944,0.21309299999999998,0.005381999999999998,0.023853000000000013,0.26146999999999987,0.9825878130536314,single,0.06270699999999996
55,0.458333,stair_decsent,0.0,0.0,0.0,0.0,0.0,0.0,0.09624384975398673,-0.5324612984519423,0.07932317292692,-0.0031201248050019893,-0.024600984039362922,-0.004320172806916608,0.0,0.0,0.0,11.852148152885915,-13.954716354982024,-0.8496679720786819,-0.10080806448516806,-3.8595087545258235,-1.3393071424286442,-0.179049,-0.040034000000000014,0.06336799999999998,0.03321599999999991,-0.041184,0.03881799999999991,0.21226499999999993,0.0011499999999999844,0.024550000000000072,0.2544999999999993,0.9580473981873789,single,0.06336799999999998
56,0.466667,stair_decsent,0.0,0.0,0.0,0.0,0.0,0.0,0.03611711063113564,-0.6138708903287676,0.0716342692584543,-0.0009599232061444676,0.004679625629950949,0.02087832973362219,0.0,0.0,0.0,-7.214631524220186,-9.768369555654573,-0.9225946326452711,0.25920345558645547,3.5133920889505452,3.0235784185911654,-0.17874800000000013,-0.04514999999999997,0.06396499999999994,0.033207999999999904,-0.04114499999999999,0.038991999999999916,0.21195600000000003,0.004004999999999981,0.024973000000000023,0.25026999999999977,0.9643035560024982,single,0.06396499999999994
57,0.475,stair_decsent,0.0,0.0,0.0,0.0,0.0,0.0,0.05508220328813013,-0.6481459258370404,0.05196207848314146,0.021240849633996663,0.059282371294851276,-0.12300492019680129,0.0,0.0,0.0,2.2759021549255416,-4.113168787744258,-2.36075732333048,2.6641993087892937,6.5525915834513935,-17.266680658877217,-0.17828900000000014,-0.05055100000000001,0.06439799999999996,0.033385,-0.04065099999999999,0.03796699999999997,0.21167400000000014,0.00990000000000002,0.026430999999999982,0.23569000000000018,0.7696875091910985,single,0.06439799999999996
58,0.483333,stair_decsent,0.0,0.0,0.0,0.0,0.0,0.0,0.04200168006721121,-0.6883475339013521,0.026041041641668285,0.012240489619563666,0.0044401776071053755,-0.009240369614783802,0.0,0.0,0.0,-1.569725575533285,-4.824385943155099,-3.110648846930645,-1.0800864051881627,-6.581326495589304,13.652292161528502,-0.17793900000000007,-0.056287000000000004,0.06461499999999998,0.03348699999999982,-0.04061399999999998,0.03788999999999998,0.2114259999999999,0.01567300000000002,0.026725,0.23275,0.9733891629256516,single,0.06461499999999998
59,0.491667,stair_decsent,0.0,0.0,0.0,0.0,0.0,0.0,0.04475641948643585,-0.7119030477561781,-0.0058795296376381945,-0.013918886489054816,0.002759779217662014,0.017878569714417397,0.0,0.0,0.0,0.33054228692400256,-2.8264355477353003,-3.8301621405455304,-3.1388740231123657,-0.2016316761991073,3.25401239851226,-0.1775660000000001,-0.06222,0.0645659999999999,0.03337100000000004,-0.04059099999999999,0.038038999999999934,0.21093700000000015,0.02162900000000001,0.026526999999999967,0.23473000000000033,0.9619578071427879,single,0.0645659999999999
60,0.5,stair_decsent,0.0,0.0,0.0,0.0,0.0,0.0,0.05208208328333692,-0.7424696987879531,-0.024600984039362922,-0.0018000720028919124,-0.0001200048001954588,0.01644065762631154,0.0,0.0,0.0,0.8791148202209393,-3.6681448496069966,-2.2466643947827643,1.454315910975991,-0.34558790565912395,-0.17255635282681617,-0.17713200000000007,-0.068407,0.06436099999999989,0.03335599999999994,-0.04059200000000002,0.03817599999999999,0.210488,0.02781499999999998,0.026184999999999903,0.23815000000000097,0.9724344274928318,single,0.06436099999999989
61,0.508333,stair_decsent,0.0,0.0,0.0,0.0,0.0,0.0,0.027241089643582895,-0.7687507500299974,-0.04308172326893036,0.00732029281172309,-0.01824072962918335,-0.014160566422664347,0.0,0.0,0.0,-2.9810384783096024,-3.153852303137425,-2.217777418644829,1.094487557256086,-2.174573962437035,-3.6722937776281963,-0.1769050000000001,-0.07481299999999999,0.06400199999999989,0.03341700000000003,-0.040744,0.038057999999999925,0.21032200000000012,0.03406899999999999,0.025943999999999967,0.24056000000000033,0.9596256219289379,single,0.06400199999999989
62,0.516667,stair_decsent,0.0,0.0,0.0,0.0,0.0,0.0,0.018598512119045854,-0.7798176145908378,-0.0729541636669001,-0.014278857691409042,0.0026397888168973034,0.044516438684906685,0.0,0.0,0.0,-1.0370263408371838,-1.3279175138997417,-3.584406095268767,-2.591690725117861,2.5054617765875657,7.040677358719867,-0.17674999999999996,-0.081312,0.06339399999999995,0.03329799999999983,-0.04072199999999998,0.038428999999999935,0.2100479999999998,0.040590000000000015,0.024965000000000015,0.25034999999999985,0.9219585655786267,single,0.06339399999999995
63,0.525,stair_decsent,0.0,0.0,0.0,0.0,0.0,0.0,0.018360734429358823,-0.8127925117004647,-0.0840033601344091,-0.015720628825138687,0.04704188167526723,-0.1394455778231119,0.0,0.0,0.0,-0.02853446414100927,-3.9571459389927806,-1.3259566143656492,-0.17301945682582973,5.3284642815756325,-22.076325033963496,-0.17659700000000011,-0.088085,0.06269399999999992,0.033166999999999947,-0.04032999999999998,0.03726699999999994,0.20976400000000006,0.04775500000000002,0.025426999999999977,0.24573000000000023,0.7533268808466176,single,0.06269399999999992
64,0.533333,stair_decsent,0.0,0.0,0.0,0.0,0.0,0.0,0.017400696027848682,-0.8321132845313883,-0.08928357134285056,0.06660266410657485,-0.011280451218053445,-0.07596303852154092,0.0,0.0,0.0,-0.11520921654987996,-2.3185854831301778,-0.6336506910406232,9.879190319418491,-6.998959905594769,7.61820944456637,-0.17645200000000005,-0.09501899999999999,0.06194999999999995,0.03372200000000003,-0.040424000000000015,0.036633999999999944,0.21017400000000008,0.05459499999999998,0.025316000000000005,0.24683999999999995,0.8305765768915608,single,0.06194999999999995
65,0.541667,stair_decsent,0.0,0.0,0.0,0.0,0.0,0.0,0.008999280057600994,-0.8413726901847777,-0.10907127429806117,-0.003359731221518936,0.008519318454528763,-0.02783777297816273,0.0,0.0,0.0,-1.0080892692881718,-1.1110397952230946,-2.374334407872625,-8.394815854102863,2.375782298125997,5.77456989961337,-0.176377,-0.10203099999999998,0.0610409999999999,0.03369399999999989,-0.04035299999999997,0.036401999999999934,0.2100709999999999,0.06167800000000001,0.024638999999999966,0.25361000000000034,0.9511576178692496,single,0.0610409999999999
66,0.55,stair_decsent,0.0,0.0,0.0,0.0,0.0,0.0,0.0009600384015370176,-0.8403936157446273,-0.13548541941676837,-0.015120604824201364,0.01392055682226677,-0.016800672026884483,0.0,0.0,0.0,-0.9647475886312183,0.11749363256334155,-3.169824207213139,-1.4113612867733565,0.6481745311098024,1.3245050943571586,-0.176369,-0.10903399999999999,0.059911999999999965,0.03356799999999982,-0.04023700000000002,0.036261999999999905,0.20993699999999982,0.06879699999999997,0.02365000000000006,0.2634999999999994,0.9557570729743612,single,0.059911999999999965
67,0.558333,stair_decsent,0.0,0.0,0.0,0.0,0.0,0.0,0.012360494419772612,-0.7611904476179135,-0.14124564982599236,-0.0759630385215276,-0.026641065642625944,0.05808232329293704,0.0,0.0,0.0,1.3681094465661465,9.504760365620367,-0.6912552993188582,-7.301384099043177,-4.867589399363145,8.98631889113431,-0.17626600000000003,-0.11537700000000001,0.05873499999999998,0.03293499999999994,-0.04045900000000002,0.036745999999999945,0.20920099999999997,0.07491799999999998,0.021989000000000036,0.28010999999999964,0.834557110566289,single,0.05873499999999998
68,0.566667,stair_decsent,0.0,0.0,0.0,0.0,0.0,0.0,0.013558915286780522,-0.8249340052795704,-0.16894648428126532,0.06839452843771959,-0.029157667386608035,-0.016558675305971972,0.0,0.0,0.0,0.14379900012093846,-7.648615030196347,-3.323834227894499,17.32152231332446,-0.30196805183370196,-8.956203335602165,-0.176153,-0.122252,0.057326999999999906,0.033504999999999896,-0.040702000000000016,0.036607999999999974,0.2096579999999999,0.08154999999999998,0.020718999999999932,0.2928100000000007,0.8730466969541041,single,0.057326999999999906
69,0.575,stair_decsent,0.0,0.0,0.0,0.0,0.0,0.0,0.009840393615734576,-0.8304332173287019,-0.17652706108244492,0.022800912036497808,0.005640225609026723,0.03672146885874478,0.0,0.0,0.0,-0.4462404501435234,-0.6599318431695137,-0.909705604365735,-5.471452826259714,4.175914196044051,6.393873054688256,-0.1760710000000001,-0.129172,0.055855999999999906,0.03369500000000003,-0.040655,0.03691399999999989,0.20976600000000012,0.08851700000000001,0.018942000000000014,0.31057999999999986,0.9273486252756702,single,0.055855999999999906
70,0.583333,stair_decsent,0.0,0.0,0.0,0.0,0.0,0.0,-0.008160326413051327,-0.8270730829233113,-0.2116884675386992,0.008400336013415596,-0.03732149285971492,0.07740309612384544,0.0,0.0,0.0,-2.160172810366714,0.40323225793719075,-4.219537556252744,-1.7281382482997902,-5.155612440746606,4.881990551434116,-0.17613900000000005,-0.136064,0.05409199999999992,0.03376499999999982,-0.040966,0.0375589999999999,0.20990399999999987,0.09509799999999999,0.01653300000000002,0.3346699999999998,0.856099004289086,single,0.05409199999999992
71,0.591667,stair_decsent,0.0,0.0,0.0,0.0,0.0,0.0,-0.01955843532519007,-0.8269738420926274,-0.2303815694744309,0.00863930885530015,-0.018958483321333125,0.07007439404847907,0.0,0.0,0.0,-1.3676636563641293,0.011907947046305522,-2.2429927928643583,0.028674447070380617,2.2033848738158937,-0.8793738991320275,-0.17630200000000018,-0.142956,0.052171999999999996,0.033836999999999895,-0.041123999999999994,0.03814299999999993,0.21013900000000008,0.101832,0.01402900000000007,0.3597099999999993,0.8781567212380769,single,0.052171999999999996
72,0.6,stair_decsent,0.0,0.0,0.0,0.0,0.0,0.0,-0.02796111844472937,-0.8119524780991307,-0.25861034441378106,0.021480859234361077,-0.007200288011521066,0.016200648025920732,0.0,0.0,0.0,-1.008362308837079,1.802635784650998,-3.3875884962619014,1.5410476873948211,1.4110398787726108,-6.46510812703214,-0.1765350000000001,-0.149722,0.05001699999999998,0.034015999999999824,-0.041184,0.03827799999999992,0.21055099999999993,0.108538,0.011739000000000055,0.38260999999999945,0.9535800432837144,single,0.05001699999999998
73,0.608333,stair_decsent,0.0,0.0,0.0,0.0,0.0,0.0,-0.02832113284530205,-0.7982719308772307,-0.2811712468498709,-0.017760710428394857,0.0019200768030740352,0.007800312012478276,0.0,0.0,0.0,-0.04320345620696946,1.6417313358814334,-2.7074165889943274,-4.709176726599757,1.0944875572536978,-1.0080806448388842,-0.176771,-0.15637399999999999,0.047673999999999994,0.03386800000000001,-0.04116799999999998,0.038342999999999905,0.21063900000000002,0.115206,0.00933100000000009,0.4066899999999991,0.9675117800262323,single,0.047673999999999994
74,0.616667,stair_decsent,0.0,0.0,0.0,0.0,0.0,0.0,-0.040196784257256556,-0.7895368370530406,-0.29685625149989214,-0.04067674586034211,-0.017638588912888057,-0.007559395248371081,0.0,0.0,0.0,-1.4249641723007649,1.048127408710125,-1.8820499940030417,-2.7497042754916468,-2.346852137744445,-1.8430174299075406,-0.17710599999999999,-0.162954,0.04519999999999991,0.03352899999999992,-0.04131499999999999,0.03827999999999998,0.2106349999999999,0.121639,0.006919999999999926,0.43080000000000074,0.9250396043614102,single,0.04519999999999991
75,0.625,stair_decsent,-7.038041521660841,-19.23364934597376,4.150006000239979,52.81549253626718,-67.6334134924531,-2.625786070954265,0.006960278411123393,-0.7527901116044611,-0.3219728789151542,0.02112084483378774,0.03132125285011522,0.051842073682945654,-844.5987665499595,-2308.1302467267105,498.0206408544296,5.659073883160897,4.409783445167327,-3.014115854465612,7.416007523596495,5.875416028201497,7.128461410214387,-0.11840000000000006,-0.008952999999999989,0.007935000000000025,0.09235299999999991,0.11922000000000002,0.004130000000000078,0.21075299999999997,0.128173,0.0038049999999999473,0.4619500000000005,0.8930899707134058,single,0.007935000000000025
76,0.633333,stair_decsent,0.14892595703828662,-0.26569062762510315,0.06828273130925709,-0.7463694121789498,-0.604387541356632,2.475572469238829,-0.036001440057598186,-0.7818312732509259,-0.3144125765030535,-0.015120604824174719,0.011160446417857836,-0.006360254410172749,862.4705962677425,2276.2460960456715,-489.82638532709774,-5.155612440744197,-3.485078800727798,0.9072725803552951,-4.349147924872471,-2.419393547612781,-6.98455875352432,-0.11994100000000008,-0.013253999999999988,0.004746000000000028,0.09098600000000001,0.12152700000000002,0.0035080000000000666,0.2109270000000001,0.134781,0.0012379999999999614,0.4876200000000004,0.9669326826905051,single,0.004746000000000028
77,0.641667,stair_decsent,0.2090232781377394,-0.19186465082793358,-0.026037916966645543,-0.17714617938954041,-0.7838823146014853,2.257774307930428,-0.030357571394295676,-0.727141828653713,-0.3777297816174775,-0.020278377729792022,0.012239020878328722,-0.013078953683708467,7.211101643802872,8.85840854297696,-11.317572387317396,0.6772100627912817,6.562208374995588,-7.59745681718555,-0.6188832380150386,0.12941858176996546,-0.8061794184708131,-0.12193600000000004,-0.01771500000000001,0.001815000000000011,0.08907500000000002,0.123228,0.0036160000000000636,0.21101100000000006,0.140943,0.0018010000000000526,0.5,0.9368954923006477,single,0.0036160000000000636
78,0.65,stair_decsent,0.16716668666746332,-0.15348613944557746,-0.020880835233410146,-0.14148028481091038,-0.6273151023869842,1.8060514035492372,-0.11952478099123878,-0.7937117484699365,-0.20436817472698943,-0.15852634105363014,-0.034201368054726275,0.05472218888755671,-5.022991896108954,4.60560559010632,0.6188745629707638,-10.700493171359982,-7.988709926343842,20.804224995858316,-16.59041921562913,-5.573069594750366,8.136462567054469,-0.12432500000000002,-0.023050000000000015,0.00028600000000000847,0.08636100000000013,0.12422199999999997,0.004246000000000083,0.21068600000000015,0.147272,0.003960000000000075,0.5,0.6751376824097185,single,0.004246000000000083
79,0.658333,stair_decsent,0.0,0.0,0.0,0.0,0.0,0.0,-0.0943237729509133,-0.7291491659666451,-0.30649225969038385,-0.07260290411618796,-0.048001920076798224,-0.02412096483859457,-20.060804832289072,18.419073496409318,2.5058004600276416,3.0242419345164655,7.747819813187565,-12.255380410823875,10.311224881488416,-1.656132487948167,-9.461556909414616,-0.12511099999999997,-0.029126000000000013,-0.0022679999999999367,0.08575599999999994,0.12382200000000002,0.004045000000000076,0.21086699999999992,0.15294800000000003,0.006313000000000013,0.5,0.7863414224076775,single,0.004045000000000076
80,0.666667,stair_decsent,0.0,0.0,0.0,0.0,0.0,0.0,-0.04607631389488085,-0.7105831533477264,-0.2888168946484317,-0.037317014638822636,0.003119750419962838,-0.005519558435323991,0.0,0.0,0.0,5.7892319481679975,2.227743294806651,2.1208741351034353,4.2339680198422185,6.134109730832814,2.231990209175718,-0.1254949999999999,-0.03504800000000001,-0.004674999999999985,0.085445,0.12384799999999999,0.003999000000000086,0.2109399999999999,0.15889599999999998,0.00867400000000007,0.5,0.8501736845804375,single,0.003999000000000086
81,0.675,stair_decsent,0.0,0.0,0.0,0.0,0.0,0.0,-0.04620184807393233,-0.6925477019080732,-0.2772110884435274,-0.006840273610941258,0.007440297611905225,-0.011280451218053295,0.0,0.0,0.0,-0.01506470407434034,2.1643407463882216,1.3927524546866992,3.6573552175544526,0.5184864024891838,-0.6913347873190063,-0.12588,-0.04081900000000001,-0.006984999999999908,0.08538800000000002,0.12390999999999999,0.0039050000000000473,0.211268,0.16472900000000001,0.010889999999999955,0.5,0.8658569618338302,single,0.0039050000000000473
82,0.683333,stair_decsent,0.0,0.0,0.0,0.0,0.0,0.0,-0.04524180967239592,-0.6709468378735209,-0.2635305412216617,0.13488539541580621,0.027361094443778718,-0.054722188887557435,0.0,0.0,0.0,0.11520921655303257,2.5922073724411976,1.6417313358773318,17.007760593633595,2.3905912434745797,-5.213217049022505,-0.12625700000000006,-0.04641000000000001,-0.009180999999999995,0.08651199999999992,0.124138,0.0034490000000000354,0.21276899999999999,0.170548,0.01263000000000003,0.5,0.626846369604007,single,0.0034490000000000354
83,0.691667,stair_decsent,0.0,0.0,0.0,0.0,0.0,0.0,-0.0417566594672441,-0.6563474922006193,-0.26505879529637627,0.01319894408447968,0.00659947204223318,-0.006479481641468453,0.0,0.0,0.0,0.4181845698526268,1.7517813382411271,-0.18337581890023552,-14.601206063274011,-2.491195392554041,5.788661776588507,-0.12660500000000008,-0.05188000000000001,-0.011390000000000011,0.08662199999999998,0.12419299999999997,0.003395000000000037,0.21322700000000006,0.17607299999999998,0.014785000000000048,0.5,0.8252887909532283,single,0.003395000000000037
84,0.7,stair_decsent,0.0,0.0,0.0,0.0,0.0,0.0,-0.023520940837617275,-0.6045841833673403,-0.24384975399015257,0.009600384015370304,-0.010800432017278268,-0.0064802592103682935,0.0,0.0,0.0,2.1883737705060593,6.211845533814884,2.5451867642174357,-0.43184448207241205,-2.088072010021794,-9.331200046092092e-05,-0.12680099999999994,-0.05691800000000001,-0.013421999999999934,0.08670200000000006,0.12410299999999999,0.0033410000000000384,0.213503,0.181021,0.016762999999999972,0.5,0.8059750055020956,single,0.0033410000000000384
85,0.708333,stair_decsent,0.0,0.0,0.0,0.0,0.0,0.0,-0.057722308892349895,-0.6127445097803886,-0.2074882995319781,0.026161046441863744,-0.005280211208446935,-0.003960158406330205,0.0,0.0,0.0,-4.104328339701485,-0.9792783406994214,4.363549076943998,1.9873589855386262,0.6624529951795644,0.3024241934523075,-0.1272819999999999,-0.06202400000000001,-0.015150999999999915,0.08692000000000011,0.124059,0.0033080000000000886,0.214202,0.186083,0.018459000000000003,0.5,0.7704419917440561,single,0.0033080000000000886
86,0.716667,stair_decsent,0.0,0.0,0.0,0.0,0.0,0.0,-0.05279577633789208,-0.592752579793612,-0.23434125269979345,0.024598032157428507,-0.000839932805379734,-0.00155987520998808,0.0,0.0,0.0,0.5911366156056851,2.3988396912378844,-3.2220966124088255,-0.18754671039539542,0.5327907851052516,0.2880109426856379,-0.1277219999999999,-0.06696400000000001,-0.017104000000000008,0.08712500000000012,0.12405199999999997,0.003295000000000048,0.214847,0.19101599999999996,0.020399000000000056,0.5,0.7549070843219192,single,0.003295000000000048
87,0.725,stair_decsent,0.0,0.0,0.0,0.0,0.0,0.0,-0.06564262570503783,-0.5742229689187617,-0.19536781471258582,0.020280811232433128,0.005640225609026723,0.004800192007685152,0.0,0.0,0.0,-1.5416835914011604,2.2236422506720803,4.6769996384504955,-0.5180872344888298,0.7776501157334113,0.7632385956646215,-0.12826899999999997,-0.07174900000000001,-0.01873199999999997,0.08729399999999998,0.12409899999999999,0.003335000000000088,0.21556299999999995,0.195848,0.02206700000000006,0.5,0.7433452311357458,single,0.003335000000000088
88,0.733333,stair_decsent,0.0,0.0,0.0,0.0,0.0,0.0,-0.0812432497299935,-0.5460218408736334,-0.17412696507860004,0.03264130565223195,0.00252010080403134,0.008160326413051327,0.0,0.0,0.0,-1.872149768985432,3.384270736244833,2.549003916234933,1.4833186631223776,-0.37442995379759625,0.40323225793425665,-0.128946,-0.076299,-0.02018299999999995,0.08756600000000003,0.12411999999999998,0.003403000000000045,0.21651200000000004,0.20041899999999999,0.023585999999999996,0.5,0.7079064426522825,single,0.003403000000000045
89,0.741667,stair_decsent,0.0,0.0,0.0,0.0,0.0,0.0,-0.07103431725461115,-0.5283177345812362,-0.19210463162946637,0.03455723542117442,0.0376769858411373,-0.05591552675785566,0.0,0.0,0.0,1.224973899133958,2.1243228092629303,-2.1571474143108267,0.22989318081863208,4.218488725354711,-7.68848730152476,-0.12953799999999993,-0.08070200000000001,-0.021783999999999915,0.0878540000000001,0.12443400000000002,0.0029370000000000784,0.21739200000000003,0.20513600000000004,0.024720999999999993,0.5,0.6265153443807221,single,0.0029370000000000784
90,0.75,stair_decsent,0.0,0.0,0.0,0.0,0.0,0.0,-0.09792391695669585,-0.49945997839913375,-0.17232689307572144,0.00024000960036426957,-0.002760110404422256,-0.0037201488059526123,0.0,0.0,0.0,-3.2268810394917296,3.4630692646228654,2.373423563391917,-4.118231827770312,-4.852645655293339,6.2636959020644225,-0.13035400000000008,-0.08486400000000001,-0.023219999999999907,0.08785599999999993,0.12441099999999997,0.002906000000000075,0.21821000000000002,0.209275,0.026125999999999983,0.5,0.7310092315332216,single,0.002906000000000075
91,0.758333,stair_decsent,0.0,0.0,0.0,0.0,0.0,0.0,-0.11148445937836958,-0.47269890795631603,-0.16212648505941396,-0.005640225609013324,-0.004920196807867223,0.012840513620540955,0.0,0.0,0.0,-1.6273301838081935,3.21145691141457,1.224097925873927,-0.7056564513833636,-0.25922073724288464,1.9873589855386413,-0.13128300000000004,-0.088803,-0.02457100000000001,0.08780900000000003,0.12437000000000001,0.0030130000000000434,0.21909200000000006,0.213173,0.027584000000000053,0.5,0.6993888658365324,single,0.0030130000000000434
92,0.766667,stair_decsent,0.0,0.0,0.0,0.0,0.0,0.0,-0.10439164866809832,-0.4498440124790045,-0.16654667626589306,-0.06443484521238454,-0.031677465802741,0.04475641948643615,0.0,0.0,0.0,0.8510691996965807,2.74236806783197,-0.5303805143363483,-7.05478996920705,-3.2106154301504595,3.829602335720587,-0.13215299999999996,-0.09255200000000001,-0.025958999999999954,0.08727200000000002,0.12410599999999997,0.003386,0.21942499999999998,0.21665799999999996,0.029344999999999954,0.5,0.5655373114212612,single,0.003386
93,0.775,stair_decsent,0.0,0.0,0.0,0.0,0.0,0.0,-0.1190447617904836,-0.4126965078603124,-0.17916716668666272,-0.023880955238216657,-0.010800432017278124,0.011400456018248753,0.0,0.0,0.0,-1.7584439124427238,4.457878869397809,-1.5145194312696029,4.8666614633586605,2.505344268026256,-4.002875731211719,-0.13314500000000007,-0.095991,-0.02745199999999992,0.08707299999999996,0.12401599999999999,0.0034810000000000674,0.22021800000000002,0.220007,0.03093299999999999,0.5,0.6430336532247354,single,0.0034810000000000674
94,0.783333,stair_decsent,0.0,0.0,0.0,0.0,0.0,0.0,-0.1290051602064019,-0.37993519740790005,-0.16872674906996654,-0.04584183367333324,0.01056042241689401,-0.007800312012478379,0.0,0.0,0.0,-1.1952956217350774,3.9315145148701154,1.2529002300127527,-2.63541082864716,2.5634050683034117,-2.3041843310605192,-0.13422,-0.09915700000000001,-0.02885799999999994,0.08669100000000007,0.12410399999999996,0.0034160000000000856,0.22091100000000008,0.223261,0.032274000000000025,0.5,0.5977853166856679,single,0.0034160000000000856
95,0.791667,stair_decsent,0.0,0.0,0.0,0.0,0.0,0.0,-0.13450923926084943,-0.3498920086393064,-0.17878569714422607,-0.044156467482618575,0.0002399808015361153,0.0032397408207342263,0.0,0.0,0.0,-0.6604366516015698,3.604894260690353,-1.2069772107342753,0.2022277646645853,-1.2383539255288956,1.324700363956386,-0.13534099999999993,-0.10207300000000001,-0.03034799999999993,0.08632299999999993,0.12410599999999997,0.003443000000000085,0.22166399999999986,0.22617899999999996,0.033791000000000015,0.5,0.588296987459776,single,0.003443000000000085
96,0.8,stair_decsent,0.0,0.0,0.0,0.0,0.0,0.0,-0.1317652706108291,-0.32161286451457943,-0.20040801632065922,-0.042361694467757616,0.0021600864034582896,0.01008040321612536,0.0,0.0,0.0,0.3292894095788212,3.3936330402888357,-2.594782092455665,0.21538137703839574,0.2304218891062242,0.8209123239398902,-0.13643899999999998,-0.10475300000000001,-0.03201799999999999,0.0859700000000001,0.12412399999999998,0.003527000000000058,0.22240900000000008,0.228877,0.03554500000000005,0.5,0.5718865126756347,single,0.003527000000000058
97,0.808333,stair_decsent,0.0,0.0,0.0,0.0,0.0,0.0,-0.14208568342734726,-0.2830913236529483,-0.2127685107404212,-0.035521420856843476,0.008040321612862637,0.0009600384015370304,0.0,0.0,0.0,-1.2384990779453082,4.622769814188344,-1.4833186631179753,0.8208656679364217,0.7056564513865836,-1.0944875572528996,-0.13762300000000005,-0.10711200000000001,-0.033790999999999904,0.08567400000000003,0.12419099999999997,0.003535000000000066,0.22329700000000008,0.23130299999999998,0.03732599999999997,0.5,0.5660188755168426,single,0.003535000000000066
98,0.816667,stair_decsent,0.0,0.0,0.0,0.0,0.0,0.0,-0.13822894168464256,-0.25533957283417147,-0.22234221262300102,-0.024598032157428507,0.003959683225342572,0.003359731221505614,0.0,0.0,0.0,0.46277198736557124,3.3299437027569754,-1.1487523257235133,1.3107017877867635,-0.48963743550756345,0.2879401031879728,-0.13877499999999987,-0.10924,-0.03564400000000001,0.08546900000000002,0.12422399999999997,0.003563000000000094,0.2242439999999999,0.23346399999999998,0.0392070000000001,0.5,0.5660296529070417,single,0.003563000000000094
99,0.825,stair_decsent,0.0,0.0,0.0,0.0,0.0,0.0,-0.14868594743792435,-0.21984879395176013,-0.22584903396135322,-0.019320772830922744,0.0044401776071054345,0.006960278411136808,0.0,0.0,0.0,-1.2548908860292673,4.259063828442537,-0.42083539401802866,0.6332964510387389,0.05766163227683508,0.43208294607359016,-0.14001400000000008,-0.111072,-0.03752599999999995,0.08530799999999994,0.12426099999999998,0.0036210000000000964,0.22532200000000002,0.235333,0.041147000000000045,0.5,0.5535120317738597,single,0.0036210000000000964
100,0.833333,stair_decsent,0.0,0.0,0.0,0.0,0.0,0.0,-0.1531261250449811,-0.20676827073082824,-0.23448937957518337,-0.00828033121323346,0.006000240009599698,0.0007200288011461016,0.0,0.0,0.0,-0.5328426265518705,1.5697255755348423,-1.0368829489775724,1.324905990362323,0.1872149768983868,-0.7488599075951854,-0.14128999999999992,-0.112795,-0.03947999999999996,0.08523900000000006,0.12431099999999998,0.003627000000000047,0.22652899999999998,0.23710599999999998,0.043107000000000006,0.5,0.5518448206974478,single,0.003627000000000047
101,0.841667,stair_decsent,0.0,0.0,0.0,0.0,0.0,0.0,-0.16882649388050724,-0.1604271658267328,-0.2453803695704281,-0.005759539236866767,-0.007679385649149029,0.0052795776337945365,0.0,0.0,0.0,-1.88389354877922,5.560487749471451,-1.3068142542890153,0.30247083949684117,-1.6414237651486228,0.547102091750468,-0.14269700000000007,-0.11413200000000001,-0.04152499999999992,0.08519100000000002,0.12424699999999997,0.003671000000000091,0.2278880000000001,0.23837899999999998,0.045196000000000014,0.5,0.5297811211734743,single,0.003671000000000091
102,0.85,stair_decsent,0.0,0.0,0.0,0.0,0.0,0.0,-0.15156606264248212,-0.14328573142925813,-0.2618504740189652,-0.0003600144005730556,-0.0135605424216939,-0.006960278411136808,0.0,0.0,0.0,2.071334601947111,2.0570544098733747,-1.9764915934882108,0.6479688991112158,-0.7057670433871265,-1.4688414790509368,-0.14395999999999987,-0.11532600000000001,-0.04370699999999994,0.08518800000000004,0.124134,0.0036130000000000884,0.2291479999999999,0.23946,0.04732000000000003,0.5,0.501388749391279,single,0.0036130000000000884
103,0.858333,stair_decsent,0.0,0.0,0.0,0.0,0.0,0.0,-0.13572542901718593,-0.11940477619104749,-0.3247329893195698,0.00012000480018213478,-0.017160686427457536,-0.012600504020163363,0.0,0.0,0.0,1.9009520731184604,2.865829261755735,-7.546203684219885,0.0576046082749536,-0.43203456207411745,-0.6768541472490737,-0.14509100000000008,-0.11632100000000001,-0.04641299999999993,0.08518899999999996,0.12399099999999999,0.0035080000000000666,0.23028000000000004,0.240312,0.04992099999999999,0.5,0.4653061906492027,flight,0.0035080000000000666
104,0.866667,stair_decsent,0.0,0.0,0.0,0.0,0.0,0.0,-0.1411087113030778,-0.10835133189344885,-0.32001439884809096,0.0011999040076872533,-0.015958723302135228,-0.01871850251980392,0.0,0.0,0.0,-0.6459421989311152,1.326307211134953,0.5661855617325233,0.12957753869751917,0.14422403711570858,-0.7341010918695215,-0.14626699999999992,-0.11722400000000001,-0.0490799999999999,0.08519900000000002,0.123858,0.0033520000000000216,0.23146599999999995,0.24108200000000002,0.05243199999999992,0.5,0.4589545321338747,flight,0.0033520000000000216
105,0.875,stair_decsent,0.0,0.0,0.0,0.0,0.0,0.0,-0.14592583703349343,-0.08340333613344512,-0.351974078963166,0.004200168006721121,-0.010800432017278124,-0.021840873634947165,0.0,0.0,0.0,-0.5780782107783033,2.9938792463702897,-3.8353150264100466,0.36004608172733166,0.6190197149714487,-0.3746995217980597,-0.14748300000000003,-0.11791900000000001,-0.052012999999999976,0.08523400000000003,0.12376800000000002,0.003170000000000006,0.23271700000000006,0.24168700000000004,0.05518299999999998,0.5,0.45879204148528197,flight,0.003170000000000006
106,0.883333,stair_decsent,0.0,0.0,0.0,0.0,0.0,0.0,-0.14268570742828268,-0.06480259210368373,-0.364214568582743,0.002280091203647086,0.0013200528021100684,-0.017400696027835127,0.0,0.0,0.0,0.38883110586952324,2.232178570714186,-1.4689175110496717,-0.2304184331062075,1.4545163589809362,0.5328426265585047,-0.14867199999999992,-0.11845900000000001,-0.055047999999999986,0.08525300000000002,0.123779,0.0030250000000000554,0.23392499999999994,0.242238,0.05807300000000004,0.5,0.47066829656278114,flight,0.0030250000000000554
107,0.891667,stair_decsent,0.0,0.0,0.0,0.0,0.0,0.0,-0.127309815214781,-0.04247660187185051,-0.44720422366210055,-0.002039836813047016,0.01247900167986484,-0.0173986081113586,0.0,0.0,0.0,1.8449594688627045,2.678904515458765,-9.95796197256516,-0.5183498940117742,1.338966747990741,0.00025052993478856913,-0.1497329999999999,-0.118813,-0.05877499999999991,0.08523600000000009,0.123883,0.0028799999999999937,0.23496899999999998,0.242696,0.061654999999999904,0.5,0.46415318155437235,flight,0.0028799999999999937
108,0.9,stair_decsent,0.0,0.0,0.0,0.0,0.0,0.0,-0.1347653906156223,-0.04032161286451435,-0.3986559462378535,-0.003000120004819834,0.01572062882515201,-0.01104044161766238,0.0,0.0,0.0,-0.8947048362944037,0.25860902524134805,5.8260263319629,-0.11523859255643991,0.38901081786717345,0.7630104996635297,-0.15085599999999988,-0.119149,-0.06209699999999996,0.08521099999999993,0.12401399999999999,0.0027880000000000127,0.2360669999999998,0.243163,0.06488499999999997,0.5,0.4675950003079715,flight,0.0027880000000000127
109,0.908333,stair_decsent,0.0,0.0,0.0,0.0,0.0,0.0,-0.11952478099124036,-0.026401056042242105,-0.42853714148566224,-0.0012000480019013031,0.015240609624383703,-0.008400336013442354,0.0,0.0,0.0,1.8289463127783587,1.6705336400182853,-3.5858868652116906,0.21601728104146734,-0.05760460827652836,0.3168253455202267,-0.15185199999999988,-0.119369,-0.06566799999999995,0.08520100000000008,0.12414099999999997,0.002717999999999998,0.23705299999999996,0.24350999999999998,0.06838599999999995,0.5,0.47092720142716155,flight,0.002717999999999998
110,0.916667,stair_decsent,0.0,0.0,0.0,0.0,0.0,0.0,-0.11087113030959202,-0.014758819294456521,-0.44420446364290317,0.0031197504199495167,-0.006119510439160949,0.0008399328053863948,0.0,0.0,0.0,1.038355013396722,1.3969566532020032,-1.8799282646077282,0.5183343438745844,-2.563009366875989,1.1087435587747394,-0.15277600000000002,-0.11949200000000001,-0.06936999999999993,0.08522699999999994,0.12409,0.0027250000000000885,0.23800299999999996,0.24358200000000002,0.07209500000000002,0.5,0.48846662598570045,flight,0.0027250000000000885
111,0.925,stair_decsent,0.0,0.0,0.0,0.0,0.0,0.0,-0.1196447857914209,-0.019800792031681003,-0.4363374534981348,0.005160206408258139,-0.004680187207489629,0.0002400096003775928,0.0,0.0,0.0,-1.0528807730503842,-0.6050609309041715,0.9440789805314219,0.24486451317756072,0.17272569682843075,-0.07199366434762984,-0.15377299999999994,-0.11965700000000001,-0.0730059999999999,0.08526999999999996,0.124051,0.002727000000000035,0.2390429999999999,0.243708,0.07573299999999994,0.5,0.48838230670709887,flight,0.002727000000000035
112,0.933333,stair_decsent,0.0,0.0,0.0,0.0,0.0,0.0,-0.13932557302291831,-0.0048001920076805715,-0.4190567622705007,0.005160206408258207,-0.009960398415936697,0.004080163206525717,0.0,0.0,0.0,-2.361788939337284,1.800144008640414,2.073765897952028,8.222918192857856e-15,-0.6336506910412956,0.4608368662124276,-0.1549339999999999,-0.11969700000000001,-0.07649799999999995,0.08531299999999997,0.123968,0.0027610000000000134,0.24024699999999988,0.24366500000000002,0.07925899999999997,0.5,0.4801054866181716,flight,0.0027610000000000134
113,0.941667,stair_decsent,0.0,0.0,0.0,0.0,0.0,0.0,-0.11999040076795107,0.007439404847612497,-0.4358051355891458,-0.004919606431480372,-0.018838492920568398,0.030837532997367502,0.0,0.0,0.0,2.3200350677906276,1.4686341319046046,-2.0096440267152587,-1.2094807823060358,-1.0652861176663826,3.2106275246990137,-0.15593400000000002,-0.119635,-0.08012999999999992,0.08527200000000001,0.12381099999999998,0.003018000000000076,0.24120600000000003,0.243446,0.083148,0.5,0.43921703490828345,flight,0.003018000000000076
114,0.95,stair_decsent,0.0,0.0,0.0,0.0,0.0,0.0,-0.14052562102484625,0.019920796831873394,-0.4064562582503372,-0.008160326413051434,-0.02412096483859457,0.008760350414015409,0.0,0.0,0.0,-2.464325003827597,1.497826951189369,3.5220061609034987,-0.38890195386668563,-0.6339219870426283,-2.6493678847176643,-0.15710500000000005,-0.119469,-0.08351699999999995,0.08520400000000006,0.12360999999999997,0.003091000000000066,0.2423090000000001,0.243079,0.08660800000000002,0.5,0.45511881081713257,flight,0.003091000000000066
115,0.958333,stair_decsent,0.0,0.0,0.0,0.0,0.0,0.0,-0.10584423376932961,0.040921636865474155,-0.47857914316572364,-0.014520580823237398,-0.012360494419772447,-0.004200168006721121,0.0,0.0,0.0,4.161932947979899,2.5202016120965647,-8.655092393542077,-0.7632610596646991,1.41131290277476,-1.5553244234653156,-0.15798699999999988,-0.11912800000000001,-0.08750499999999994,0.08508300000000002,0.123507,0.0030560000000000587,0.2430699999999999,0.24263500000000002,0.090561,0.5,0.46745641806617544,flight,0.0030560000000000587
116,0.966667,stair_decsent,0.0,0.0,0.0,0.0,0.0,0.0,-0.015958723302154997,0.03359731221502284,-0.5112790976721774,-0.01919846412286258,-0.008159347252221259,-0.007439404847612913,0.0,0.0,0.0,10.785398424186935,-0.8788486501621384,-3.9236806463227136,-0.5613010918676681,0.5040973323195532,-0.38867732672087446,-0.15812000000000004,-0.11884800000000001,-0.0917659999999999,0.08492300000000008,0.123439,0.002994000000000052,0.24304300000000012,0.242287,0.09475999999999996,0.5,0.46308791538045135,flight,0.002994000000000052
117,0.975,stair_decsent,0.0,0.0,0.0,0.0,0.0,0.0,-0.03432137285491553,0.03072122884915416,-0.4998199927997268,-0.012240489619590475,-0.010080403216132157,-0.012240489619590475,0.0,0.0,0.0,-2.2036060905749073,-0.34514380965663066,1.3751475905977095,0.8349903400062605,-0.2305359371067942,-0.5761532187660633,-0.15840600000000005,-0.118592,-0.09593099999999999,0.08482100000000004,0.12335499999999996,0.0028920000000000057,0.24322700000000008,0.24194699999999997,0.098823,0.5,0.4666136379617194,flight,0.0028920000000000057
118,0.983333,stair_decsent,0.0,0.0,0.0,0.0,0.0,0.0,0.033001320052805004,0.03492139685587404,-0.522020880835227,-0.052202088083518706,0.008160326413057988,-0.0219608784351293,0.0,0.0,0.0,8.07904631077886,0.5040403224192801,-2.6642131327853296,-4.795583639016928,2.1889751145073886,-1.1664933175973582,-0.15813100000000002,-0.11830100000000002,-0.10028099999999995,0.08438600000000007,0.12342299999999998,0.0027090000000000725,0.2425170000000001,0.241724,0.10299000000000003,0.5,0.40463623578502705,flight,0.0027090000000000725
119,0.991667,stair_decsent,0.0,0.0,0.0,0.0,0.0,0.0,0.03551715862731889,0.04259659227261857,-0.5235181185505197,-0.011159107271432841,-0.0035997120230351165,0.016798656107501652,0.0,0.0,0.0,0.3018764788233623,0.9209497740274267,-0.17965415350283795,4.924763716353024,-1.4110917249931811,4.650772083349072,-0.15783499999999995,-0.11794600000000001,-0.10464399999999996,0.08429299999999995,0.123393,0.0028489999999999904,0.2421279999999999,0.24133900000000003,0.10749299999999995,0.5,0.4658565750285069,flight,0.0028489999999999904
120,1.0,stair_decsent,0.0,0.0,0.0,0.0,0.0,0.0,0.07200288011519637,0.03756150246009834,-0.5419416776671001,-0.012000480019199396,-0.004200168006721121,0.0170406816272754,0.0,0.0,0.0,4.37846171701396,-0.6042349469003012,-2.2109155306108685,-0.10096876848272551,-0.07205760034633407,0.029044224141815338,-0.157235,-0.11763300000000002,-0.10915999999999992,0.08419299999999996,0.123358,0.002991000000000077,0.24142799999999998,0.240991,0.112151,0.5,0.46456470049755594,flight,0.002991000000000077
121,1.008333,stair_decsent,0.0,0.0,0.0,0.0,0.0,0.0,0.09732389295573318,0.03744149765990671,-0.56858274330974,-0.012720508820345667,-0.010200408016320954,0.017520700828030818,0.0,0.0,0.0,3.0386430865879084,-0.014401152069078276,-3.1970557593471916,-0.08640691241404977,-0.7200576034561249,0.057604608274981615,-0.1564239999999999,-0.11732100000000001,-0.11389799999999994,0.08408700000000002,0.123273,0.0031370000000000564,0.24051099999999992,0.240594,0.117035,0.5,0.46011006024024503,flight,0.0031370000000000564
122,1.016667,stair_decsent,0.0,0.0,0.0,0.0,0.0,0.0,0.11267098632109623,0.03539716822654162,-0.5599952003839622,-0.00851931845451544,-0.015358771298298058,0.011639068874491601,0.0,0.0,0.0,1.8415038835328694,-0.2452999080111682,1.030422717275945,0.5041025156983674,-0.6189540775110469,-0.7057393752746786,-0.15548499999999987,-0.117026,-0.11856499999999992,0.08401600000000009,0.12314499999999998,0.00323400000000007,0.23950099999999996,0.240171,0.12179899999999999,0.5,0.46488358380930844,flight,0.00323400000000007
123,1.025,stair_decsent,0.0,0.0,0.0,0.0,0.0,0.0,0.12576503060121774,0.05916236649465996,-0.5598223928957246,-0.006120244809795237,-0.01920076803072062,0.016800672026871386,0.0,0.0,0.0,1.571348167541297,2.8519378696890145,0.02073772809764444,0.28790035338056225,-0.46105805021272017,0.6194171549717787,-0.15443699999999994,-0.11653300000000001,-0.12322999999999995,0.08396500000000007,0.12298499999999998,0.003373999999999988,0.238402,0.239518,0.12660399999999994,0.5,0.4562713712497475,flight,0.003373999999999988
124,1.033333,stair_decsent,0.0,0.0,0.0,0.0,0.0,0.0,0.12960518420736242,0.07032281291251566,-0.5462618504740094,-0.0018000720028918764,-0.021720868834751418,0.020760830433227736,0.0,0.0,0.0,0.46083686621200143,1.3393071424283576,1.627330183813138,0.5184414744873737,-0.30242419345142846,0.475238018283485,-0.15335699999999997,-0.11594700000000001,-0.12778199999999995,0.08394999999999997,0.122804,0.003547000000000078,0.23730699999999993,0.238751,0.13132900000000003,0.5,0.4498322679396267,flight,0.003547000000000078
125,1.041667,stair_decsent,0.0,0.0,0.0,0.0,0.0,0.0,0.1271898248140246,0.09419246460283326,-0.5433165346772333,-0.01295896328293725,-0.025557955363573647,0.03287736981041537,0.0,0.0,0.0,-0.2898199416052146,2.8641290725123656,0.3534096228433171,-1.338959836818525,-0.46041355037464626,1.4538684157892807,-0.1522969999999999,-0.11516200000000001,-0.13230999999999993,0.08384199999999997,0.12259099999999998,0.0038210000000000743,0.23613899999999988,0.237753,0.136131,0.5,0.427312211453028,flight,0.0038210000000000743
126,1.05,stair_decsent,0.0,0.0,0.0,0.0,0.0,0.0,0.12060482419295632,0.10992439697587712,-0.5294611784471385,0.037201488059525625,-0.006000240009599618,0.010080403216125227,0.0,0.0,0.0,-0.7902316837955325,1.887907401061273,1.6627092559815884,6.019494940893075,2.3470197232657726,-2.7357454211316146,-0.15129199999999998,-0.11424600000000001,-0.136722,0.084152,0.12254099999999998,0.0039050000000000473,0.235444,0.236787,0.14062700000000006,0.5,0.43498786175268894,flight,0.0039050000000000473
127,1.058333,stair_decsent,0.0,0.0,0.0,0.0,0.0,0.0,0.14256570262810245,0.15804632185287582,-0.49237969518780816,0.012360494419772612,-0.011040441617662525,0.017160686427457765,0.0,0.0,0.0,2.6354108286507056,5.774861979719085,4.4499559893592515,-2.981038478309521,-0.6048483869030304,0.8496679720787955,-0.15010400000000002,-0.112929,-0.14082499999999998,0.08425499999999997,0.122449,0.0040480000000000516,0.23435899999999998,0.235378,0.14487300000000003,0.5,0.46023812783597495,flight,0.0040480000000000516
128,1.066667,stair_decsent,0.0,0.0,0.0,0.0,0.0,0.0,0.1538276937844967,0.20002399808015187,-0.41072714182864506,0.009479241660686545,-0.009599232061437951,0.016318694504442517,0.0,0.0,0.0,1.3513308323007165,5.036918193817582,9.797522601291394,-0.34572267327646333,0.1729313122419682,-0.1010309482859661,-0.148822,-0.11126200000000001,-0.14424799999999993,0.08433400000000013,0.12236899999999998,0.0041840000000000765,0.23315600000000014,0.23363099999999998,0.148432,0.5,0.46471146436713334,flight,0.0041840000000000765
129,1.075,stair_decsent,0.0,0.0,0.0,0.0,0.0,0.0,0.1908076323052916,0.23184927397096092,-0.4299771990879678,0.013560542421673915,-0.0009600384015370304,0.013920556822273616,0.0,0.0,0.0,4.43777013330076,3.8191858743320943,-2.3100992750897507,0.48977568234578267,1.036744708976479,-0.287788033381606,-0.14723200000000003,-0.10933000000000001,-0.14783099999999993,0.08444699999999994,0.12236099999999997,0.0043000000000000815,0.23167899999999997,0.23169099999999998,0.15213100000000002,0.5,0.467570936957012,flight,0.0043000000000000815
130,1.083333,stair_decsent,0.0,0.0,0.0,0.0,0.0,0.0,0.16692667706709682,0.23796951878074732,-0.2407296291851708,0.01572062882516512,-0.0008400336013415484,0.023640945637825428,0.0,0.0,0.0,-2.8658292617537935,0.7344587555245763,22.71061681300776,0.25922073724843014,0.014401152069540367,1.166493317598901,-0.1458409999999999,-0.10734700000000001,-0.149837,0.08457800000000004,0.12235399999999999,0.004497000000000084,0.23041899999999993,0.229701,0.15433400000000008,0.5,0.45266143990828134,flight,0.004497000000000084
131,1.091667,stair_decsent,0.0,0.0,0.0,0.0,0.0,0.0,0.10067194624427983,0.17470602351812134,-0.1973842092632636,0.009359251259902085,-0.005279577633788017,0.03143748500119864,0.0,0.0,0.0,-7.9499317042018545,-7.591012150543218,5.20103430788433,-0.7633042434920995,-0.5327026676801719,0.935509882814178,-0.14500200000000008,-0.10589100000000001,-0.151482,0.08465600000000006,0.12231,0.004759000000000069,0.22965800000000014,0.22820100000000001,0.15624100000000007,0.5297235993570454,0.44462790044371114,single,0.004759000000000069
132,1.1,stair_decsent,0.0,0.0,0.0,0.0,0.0,0.0,0.1233649345973852,0.13620544821792682,-0.2937717508700303,0.0,-0.003840153606148019,0.04680187207488235,0.0,0.0,0.0,2.7232675330739204,-4.620253846177108,-11.566967671518665,-1.1231550773913261,0.17273779282850982,1.8438002008500471,-0.14397400000000005,-0.10475600000000002,-0.15393,0.08465600000000006,0.12227799999999997,0.00514900000000007,0.2286300000000001,0.22703399999999999,0.15907900000000008,0.5,0.42173474572838027,flight,0.00514900000000007
133,1.108333,stair_decsent,0.0,0.0,0.0,0.0,0.0,0.0,0.018960758430349688,0.2042481699267992,-0.2644905796231854,-0.0030001200047932272,-0.029641185647425836,0.0721228849153928,0.0,0.0,0.0,-12.529002300136382,8.165453223193687,3.513881104865618,-0.36002880172725965,-3.0962476948611606,3.038643086584745,-0.14381599999999994,-0.103054,-0.156134,0.08463100000000012,0.12203099999999997,0.005750000000000033,0.22844700000000007,0.22508499999999998,0.16188400000000003,0.5,0.3699432694814029,flight,0.005750000000000033
134,1.116667,stair_decsent,0.0,0.0,0.0,0.0,0.0,0.0,0.06623470122388789,0.1945044396448266,-0.28353731701463714,-0.03467722582195867,-0.03575713942884121,0.08015358771298257,0.0,0.0,0.0,5.672419341677206,-1.1691541015085811,-2.2854256529219574,-3.8009486221700497,-0.7338557453102148,0.9636072471309949,-0.14326400000000006,-0.10143300000000001,-0.158497,0.08434199999999992,0.12173300000000001,0.006418000000000035,0.22760599999999998,0.22316600000000003,0.16491500000000003,0.5,0.3427168103025673,flight,0.006418000000000035
135,1.125,stair_decsent,0.0,0.0,0.0,0.0,0.0,0.0,0.11856474258970334,0.07668306732269368,-0.23688947557901577,-0.03432137285488888,-0.05244209768391032,0.1059642385695398,0.0,0.0,0.0,6.279856158144238,-14.139130243865836,5.59796489087025,0.04270406421094352,-2.0022750816115753,3.097401998866851,-0.14227600000000007,-0.10079400000000001,-0.16047099999999992,0.08405600000000013,0.12129599999999999,0.007301000000000002,0.2263320000000002,0.22209,0.16777199999999992,0.540366949985944,0.2948134311050642,single,0.007301000000000002
136,1.133333,stair_decsent,0.0,0.0,0.0,0.0,0.0,0.0,0.10560422416896675,0.0414016560662428,-0.23292931717269882,-0.03528141125645256,-0.05172206888275755,0.13116524660986686,0.0,0.0,0.0,-1.5553244234653434,-4.233938708322478,0.4752380182787687,-0.11520921655630509,0.08640691241482938,3.024241934516655,-0.14139600000000008,-0.10044900000000001,-0.162412,0.08376200000000011,0.12086499999999997,0.008394000000000013,0.2251580000000002,0.22131399999999998,0.170806,0.5682000975056187,0.25776347470116656,single,0.008394000000000013
137,1.141667,stair_decsent,0.0,0.0,0.0,0.0,0.0,0.0,0.09719222462205343,-0.017278617710582818,-0.13054955603551352,-0.02843772498200635,-0.05375569954403654,0.15718742500600233,0.0,0.0,0.0,-1.0093591968938396,-7.041069567653608,12.284588569376593,0.8211766588008349,-0.24401615806083224,3.1224116146070635,-0.14058599999999988,-0.10059300000000002,-0.16349999999999998,0.08352500000000007,0.12041699999999997,0.009704000000000046,0.22411099999999995,0.22100999999999998,0.17320400000000002,0.7272156644585637,0.21909735763456245,single,0.009704000000000046
138,1.15,stair_decsent,0.0,0.0,0.0,0.0,0.0,0.0,0.07620304812191851,-0.03804152166086652,-0.11988479539181343,-0.026521060842437147,-0.0936037441497672,0.16560662426497785,0.0,0.0,0.0,-2.518801932093497,-2.4916481399596657,1.279822470142828,0.2300088971041905,-4.781956630952961,1.010344324850066,-0.13995099999999994,-0.10091,-0.16449899999999995,0.08330400000000004,0.11963699999999997,0.011084000000000094,0.22325499999999998,0.22054699999999997,0.17558300000000004,0.7549012326095039,0.17988464931673598,single,0.011084000000000094
139,1.158333,stair_decsent,0.0,0.0,0.0,0.0,0.0,0.0,0.08628345133804172,-0.031441257650306094,-0.14784591383655218,-0.009840393615734314,-0.08988359534381214,0.1798871954878064,0.0,0.0,0.0,1.2096967738057156,0.7920633638017897,-3.3554684321058756,2.0017601376098093,0.446435714143165,1.7137370962232452,-0.13923200000000002,-0.10117200000000001,-0.16573099999999996,0.08322200000000013,0.11888799999999997,0.01258300000000001,0.22245400000000015,0.22005999999999998,0.17831399999999997,0.7099243350836316,0.16444367437993102,single,0.01258300000000001
140,1.166667,stair_decsent,0.0,0.0,0.0,0.0,0.0,0.0,0.10031197504200562,-0.01043916486681047,-0.1923446124310117,-0.0037197024238198773,-0.09623230141588489,0.1925845932325545,0.0,0.0,0.0,1.6832881814211866,2.520049530057118,-5.339416678001003,0.7344241890946188,-0.7617837859458684,1.5235658441022724,-0.13839599999999996,-0.10125900000000002,-0.16733399999999998,0.08319100000000001,0.118086,0.01418800000000009,0.22158699999999998,0.219345,0.18152200000000007,0.6380303940353995,0.1411309524954047,single,0.01418800000000009
141,1.175,stair_decsent,0.0,0.0,0.0,0.0,0.0,0.0,0.10572422896914607,-0.005040201608064279,-0.13440537621504745,0.0026401056042201017,-0.09936397455898006,0.22272890915635862,0.0,0.0,0.0,0.6494964511148876,0.647901507109816,6.952986465374203,0.7632074916644507,-0.3758158098038067,3.6174626093608055,-0.13751500000000005,-0.101301,-0.168454,0.08321299999999998,0.117258,0.016044000000000058,0.22072800000000004,0.218559,0.18449800000000005,0.7148693214853601,0.09349615085961865,single,0.016044000000000058
142,1.183333,stair_decsent,0.0,0.0,0.0,0.0,0.0,0.0,0.08820352814114471,0.0001200048001921288,-0.08232329293171375,0.009240369614797248,-0.1152046081843304,0.2416896675867009,0.0,0.0,0.0,-2.1025682020882663,0.6192495389723335,6.25009999800002,0.792063363803817,-1.9009520731249825,2.2753820269221716,-0.1367799999999999,-0.1013,-0.16913999999999996,0.08329000000000009,0.11629799999999998,0.01805800000000002,0.22007,0.21759799999999999,0.18719799999999998,0.7989126686623548,0.05349697775163337,single,0.01805800000000002
143,1.191667,stair_decsent,0.0,0.0,0.0,0.0,0.0,0.0,0.12251019918405698,-0.0017998560115191995,-0.11807055435564884,-0.008279337652999309,-0.10835133189344616,0.26097912167026893,0.0,0.0,0.0,4.116471207452845,-0.23036486821590038,-4.289328224614208,-2.102196696399859,0.8223273687166051,2.3145493260820587,-0.13575899999999996,-0.10131500000000002,-0.17012399999999994,0.08322099999999999,0.115395,0.020233000000000056,0.21897999999999995,0.21671,0.190357,0.7164087243171682,0.02883518894705356,single,0.020233000000000056
144,1.2,stair_decsent,0.0,0.0,0.0,0.0,0.0,0.0,0.06060242409696175,0.0025201008040322066,-0.12420496819873006,0.02844113764551121,-0.1204848193927774,0.24732989319572762,0.0,0.0,0.0,-7.429230179658681,0.518415554488353,-0.7361591075340547,4.406633301153349,-1.4560767429894819,-1.6379729358624064,-0.13525399999999999,-0.10129400000000001,-0.17115899999999995,0.08345800000000003,0.11439099999999999,0.022294000000000036,0.21871200000000002,0.21568500000000002,0.19345299999999999,0.7696266385496383,0.039030110398583506,single,0.022294000000000036
145,1.208333,stair_decsent,0.0,0.0,0.0,0.0,0.0,0.0,0.04212168486739278,-0.008160326413056213,-0.08796351854073813,0.023520940837643292,-0.1492859714388577,0.2374894995799734,0.0,0.0,0.0,-2.2177774186449835,-1.281702534151954,4.349147924875951,-0.590447234833533,-3.456276496589438,-1.1808944696692736,-0.134903,-0.10136200000000001,-0.17189199999999993,0.08365400000000012,0.11314699999999997,0.02427299999999999,0.2185570000000001,0.21450899999999998,0.19616499999999992,0.8368844320964227,0.03083763075657453,single,0.02427299999999999
146,1.216667,stair_decsent,0.0,0.0,0.0,0.0,0.0,0.0,0.029277657787393524,-0.011399088072954956,-0.06275497960163921,0.04355651547874947,-0.1490280777537817,0.22534197264219846,0.0,0.0,0.0,-1.541159956803396,-0.3886203095630915,3.0247826900767207,2.4040766308023227,0.03094476662778763,-1.4575866256029715,-0.13465899999999986,-0.10145700000000002,-0.17241499999999998,0.08401700000000001,0.11190499999999998,0.026151000000000035,0.21867599999999987,0.213362,0.19856600000000002,0.8830324366044056,0.04391295106600579,single,0.026151000000000035
147,1.225,stair_decsent,0.0,0.0,0.0,0.0,0.0,0.0,0.016440657626284567,-0.01572062882515263,-0.06360254410175328,0.10104404176166983,-0.14724588983558823,0.2521300852034061,0.0,0.0,0.0,-1.540501639398624,-0.5186056344890914,-0.1017118084860261,6.898779105114527,0.21387110502741544,3.2147020954286742,-0.13452200000000003,-0.10158800000000001,-0.1729449999999999,0.08485900000000002,0.110678,0.028252000000000055,0.21938100000000005,0.212266,0.20119699999999996,0.8874201886800795,0.0,single,0.028252000000000055
148,1.233333,stair_decsent,0.0,0.0,0.0,0.0,0.0,0.0,0.012240489619590475,-0.014640585623424724,-0.05616224648986298,0.19452778111125757,-0.13908556342254072,0.21336853474138517,0.0,0.0,0.0,-0.5040403224161923,0.12961036862209482,0.8928714282839756,11.218497461849106,0.979278340699338,-4.651572118327284,-0.13441999999999998,-0.10171000000000001,-0.17341299999999993,0.08648000000000011,0.10951899999999998,0.03003,0.2209000000000001,0.211229,0.20344299999999993,0.9011401909504584,0.0,single,0.03003
149,1.241667,stair_decsent,0.0,0.0,0.0,0.0,0.0,0.0,0.019558435325163423,0.001319894408446969,-0.06095512359012,0.08567314614829324,-0.17326613870890206,0.2524598032157402,0.0,0.0,0.0,0.8780832380097063,1.9151043954729505,-0.5750992440913105,-13.061511274653647,-4.101340927089162,4.690576970764904,-0.13425700000000007,-0.10169900000000001,-0.173921,0.087194,0.10807499999999998,0.032133999999999996,0.22145100000000006,0.209774,0.206055,0.8932838447419087,0.0,single,0.032133999999999996
150,1.25,stair_decsent,0.0,0.0,0.0,0.0,0.0,0.0,0.053522140885656135,0.004080163206528215,-0.09036361454458305,0.21036841473660525,-0.23052922116884625,0.31849273970959674,0.0,0.0,0.0,4.075807699567146,0.3312455055899761,-3.529160080938836,14.96403079182925,-6.871844768984125,7.924269350036861,-0.1338109999999999,-0.101665,-0.174674,0.08894700000000011,0.106154,0.03478800000000004,0.222758,0.207819,0.20946200000000004,0.8248266721030447,0.0,single,0.03478800000000004
151,1.258333,stair_decsent,0.0,0.0,0.0,0.0,0.0,0.0,0.06372254890193711,-0.017760710428416742,-0.04452178087123648,0.10572422896914889,-0.21384855394216035,0.27925117004680056,0.0,0.0,0.0,1.2240979258707634,-2.6210096765804822,5.501240090405255,-12.557804604279049,2.001760137607831,-4.70917672660465,-0.13328000000000007,-0.10181300000000001,-0.175045,0.08982800000000002,0.10437199999999999,0.03711500000000001,0.22310800000000008,0.206185,0.21216000000000002,0.8671028483978407,0.0,single,0.03711500000000001
152,1.266667,stair_decsent,0.0,0.0,0.0,0.0,0.0,0.0,0.02687784977201827,-0.006479481641469285,-0.008759299256058218,0.08555315574753518,-0.2013438924886009,0.26061915046796813,0.0,0.0,0.0,-4.4210102147730455,1.3536391633006204,4.291154501461243,-2.4203351597808442,1.500439339279979,-2.235663496380164,-0.13305600000000006,-0.10186700000000001,-0.175118,0.09054099999999998,0.10269399999999998,0.03928700000000007,0.22359700000000005,0.204561,0.21440500000000007,0.9516629939853273,0.0,single,0.03928700000000007
153,1.275,stair_decsent,0.0,0.0,0.0,0.0,0.0,0.0,0.03864154566184549,-0.013080523220928715,-0.02520100804031374,0.08400336013442354,-0.23256930277211244,0.26665066602663706,0.0,0.0,0.0,1.41169997477827,-0.7921566758021709,-1.9730839774697793,-0.1859829128899138,-3.7471991219862972,0.7238108194730574,-0.1327339999999999,-0.10197600000000001,-0.17532799999999993,0.09124100000000013,0.10075599999999998,0.04150900000000002,0.22397500000000004,0.202732,0.21683699999999995,0.9200805971077093,0.0,single,0.04150900000000002
154,1.283333,stair_decsent,0.0,0.0,0.0,0.0,0.0,0.0,0.007680307212269392,-0.003360134405376186,-0.009600384015370047,0.07596303852152557,-0.25213008520340274,0.23868954758190133,0.0,0.0,0.0,-3.71549723383842,1.166493317598987,1.8721497689839697,-0.9648771886352852,-2.3473877872662867,-3.355468432105513,-0.13267000000000007,-0.10200400000000001,-0.175408,0.09187400000000001,0.09865499999999999,0.04349800000000004,0.22454400000000008,0.200659,0.21890600000000004,0.9787576814315018,0.0,single,0.04349800000000004
155,1.291667,stair_decsent,0.0,0.0,0.0,0.0,0.0,0.0,-0.004919606431480503,-0.001079913606911715,-0.00875929925605845,0.09671226301897046,-0.2799376049916062,0.24694024478042279,0.0,0.0,0.0,-1.5118686877549956,0.273604607447146,0.10092209734960557,2.489707763072388,-3.3366354437489774,0.9900044634655156,-0.13271100000000002,-0.10201300000000002,-0.175481,0.0926800000000001,0.09632199999999999,0.04555600000000004,0.22539100000000012,0.198335,0.22103700000000004,0.9831597320969908,0.0,single,0.04555600000000004
156,1.3,stair_decsent,0.0,0.0,0.0,0.0,0.0,0.0,-0.014280571222846292,0.0020400816032644696,-0.008400336013428806,0.09060362414494491,-0.32377295091803177,0.2424096963878539,0.0,0.0,0.0,-1.1233607093922506,0.3744144017972075,0.043077312208044866,-0.7330659875225536,-5.260451929248147,-0.5436875546104416,-0.13283,-0.101996,-0.1755509999999999,0.09343499999999993,0.09362399999999999,0.04757600000000006,0.22626499999999994,0.19562,0.22312699999999996,0.9721780316347918,0.0,single,0.04757600000000006
157,1.308333,stair_decsent,0.0,0.0,0.0,0.0,0.0,0.0,-0.019080763230531823,0.008640345613824946,-0.014400576023042132,0.06744269770792975,-0.34357374294972165,0.2452898115924581,0.0,0.0,0.0,-0.5760460827655796,0.7920633638018165,-0.720057603457744,-2.779422349335818,-2.376190091406464,0.34562764965849485,-0.13298900000000002,-0.10192400000000001,-0.1756709999999999,0.09399700000000011,0.09076099999999998,0.04962,0.22698600000000013,0.192685,0.2252909999999999,0.9576355859639847,0.0,single,0.04962
158,1.316667,stair_decsent,0.0,0.0,0.0,0.0,0.0,0.0,-0.018478521718260896,0.00959923206143462,-0.008399328053757375,0.030357571394268628,-0.3341732661387042,0.2536597072234274,0.0,0.0,0.0,0.07226320041647737,0.11505716913962884,0.72009214894225,-4.449859168905788,1.1279669799636902,1.0043071311458158,-0.133143,-0.10184400000000002,-0.17574099999999993,0.09424999999999994,0.087976,0.05173400000000006,0.22739299999999996,0.18982000000000002,0.22747499999999998,0.9625778685202285,0.0,single,0.05173400000000006
159,1.325,stair_decsent,0.0,0.0,0.0,0.0,0.0,0.0,-0.013920556822273616,0.011160446417857153,-0.007920316812673838,-0.016320652826102868,-0.3661346453858186,0.24468978759150747,0.0,0.0,0.0,0.5469776666251437,0.18735321689938153,0.057483648275955944,-5.601610970883466,-3.835518930410979,-1.0764334131669275,-0.13325900000000002,-0.10175100000000001,-0.17580699999999994,0.09411400000000003,0.084925,0.05377300000000007,0.22737300000000005,0.186676,0.22958,0.9674650237393521,0.0,single,0.05377300000000007
160,1.333333,stair_decsent,0.0,0.0,0.0,0.0,0.0,0.0,-0.012120484819381369,0.010080403216128558,-0.000360014400573046,-0.04140165606624669,-0.39757590303611573,0.2515300612024421,0.0,0.0,0.0,0.2160172810383074,-0.129610368622174,0.9072725803552935,-3.009840782448504,-3.773101842109276,0.8208656679388572,-0.13335999999999992,-0.10166700000000001,-0.1758099999999999,0.09376899999999999,0.08161199999999999,0.05586900000000006,0.22712899999999991,0.183279,0.23167899999999997,0.9737189183153647,0.0,single,0.05586900000000006
161,1.341667,stair_decsent,0.0,0.0,0.0,0.0,0.0,0.0,-0.00299976001919153,0.005279577633788849,-0.0022798176145898256,-0.0843532517398502,-0.4437245020398461,0.26205903527717844,0.0,0.0,0.0,1.094399424068876,-0.5760529856419246,-0.2303579570454543,-5.153779178498239,-5.537388889336602,1.263375818902874,-0.13338499999999986,-0.10162300000000002,-0.1758289999999999,0.0930660000000001,0.07791399999999998,0.05805300000000002,0.22645099999999996,0.179537,0.23388199999999992,0.9891897594178615,0.0,single,0.05805300000000002
162,1.35,stair_decsent,0.0,0.0,0.0,0.0,0.0,0.0,0.000360014400573046,0.0020400816032644696,-0.001320052802123374,-0.09780391215648576,-0.5228609144365682,0.24108964358574383,0.0,0.0,0.0,0.40318905793405946,-0.3887550738658734,0.11517638455135423,-1.6141438157488692,-9.496749357580795,-2.516427660078512,-0.1333819999999999,-0.101606,-0.17584,0.09225100000000008,0.07355699999999998,0.06006200000000006,0.22563299999999997,0.17516299999999999,0.23590200000000006,0.995905938339432,0.0,single,0.06006200000000006
163,1.358333,stair_decsent,0.0,0.0,0.0,0.0,0.0,0.0,0.005040201608049424,-0.0010800432017283265,-0.0008400336013415707,-0.14160566422656543,-0.5228609144365822,0.2143285731429222,0.0,0.0,0.0,0.5616449306943984,-0.3744299537972908,0.05760460827814804,-5.2564205052298165,-1.6787243622077403e-12,-3.2114569114150826,-0.13334000000000001,-0.10161500000000001,-0.17584699999999998,0.09107100000000012,0.06919999999999998,0.061848000000000014,0.22441100000000014,0.170815,0.237695,0.9912956297664196,0.0,single,0.061848000000000014
164,1.366667,stair_decsent,0.0,0.0,0.0,0.0,0.0,0.0,0.005759539236866767,0.001199904007679744,-0.004319654427650075,-0.17254619630430038,-0.5772738180945459,0.15082793376530526,0.0,0.0,0.0,0.08631361036925089,0.2735717793866154,-0.4175210974692198,-3.7125668439806474,-6.529026116866245,-7.619467167940539,-0.13329199999999997,-0.101605,-0.175883,0.08963300000000007,0.064389,0.06310500000000008,0.22292500000000004,0.165994,0.2389880000000001,0.9878354481035434,0.0,single,0.06310500000000008
165,1.375,stair_decsent,0.0,0.0,0.0,0.0,0.0,0.0,0.011400456018235581,0.004440177607103769,-0.005400216008635803,-0.19104764190568252,-0.6845073802952198,0.11736469458777539,0.0,0.0,0.0,0.6769370912479138,0.38884838586632126,-0.12967257662135342,-2.220262282657184,-12.86854220576922,-4.015749331276872,-0.133197,-0.10156800000000002,-0.17592799999999997,0.08804100000000004,0.05868499999999999,0.064083,0.22123800000000005,0.160253,0.24001099999999997,0.9777109950158357,0.0,single,0.064083
166,1.383333,stair_decsent,0.0,0.0,0.0,0.0,0.0,0.0,0.01380055202209148,0.010320412816513084,-0.011520460818431041,-0.22104884195366808,-0.7028681147245955,0.054842193687752894,0.0,0.0,0.0,0.2880230413843659,0.7056564513871797,-0.7344587555256563,-3.600288017278992,-2.2033762665757664,-7.503000228011889,-0.13308199999999992,-0.10148200000000002,-0.17602399999999996,0.08619900000000014,0.052827999999999986,0.06454000000000004,0.21928100000000006,0.15431,0.240564,0.9654518381946342,0.0,single,0.06454000000000004
167,1.391667,stair_decsent,0.0,0.0,0.0,0.0,0.0,0.0,0.01319894408447968,0.008039356851451537,-0.005759539236866767,-0.21922246220302485,-0.812934965202778,0.0029997600192047716,0.0,0.0,0.0,-0.07218717753921225,-0.2737048194218298,0.6912552893645585,0.21914803823412732,-13.206965500141779,-6.220594392674313,-0.13297199999999987,-0.101415,-0.176072,0.08437200000000011,0.04605299999999998,0.0645650000000001,0.21734399999999998,0.147468,0.2406370000000001,0.9725118371056027,0.0,single,0.0645650000000001
168,1.4,stair_decsent,0.0,0.0,0.0,0.0,0.0,0.0,0.01224048961956383,0.0038401536061447904,-0.006120244809781915,-0.2635305412216617,-0.7341893675747079,-0.15564622584904783,0.0,0.0,0.0,-0.11501913655536546,-0.5039245464186709,-0.04328640020582637,-5.31718216952325,9.449849709356872,-19.0382798353839,-0.13287000000000004,-0.101383,-0.17612299999999992,0.08217600000000003,0.039935,0.06326799999999999,0.21504600000000007,0.141318,0.2393909999999999,0.9763102364829882,0.0,single,0.06326799999999999
169,1.408333,stair_decsent,0.0,0.0,0.0,0.0,0.0,0.0,0.015600624024956343,-0.000960038401536172,-0.0015600624025009636,-0.3058922356894117,-0.8144725789031437,-0.23124924996998286,0.0,0.0,0.0,0.4032322579374121,-0.576046082765016,0.5472437786248496,-5.0836066803971285,-9.634370734241504,-9.072725803544186,-0.13274000000000008,-0.10139100000000001,-0.17613599999999996,0.07962700000000011,0.03314799999999998,0.06134100000000009,0.2123670000000002,0.134539,0.23747700000000005,0.9738203355848599,0.0,single,0.06134100000000009
170,1.416667,stair_decsent,0.0,0.0,0.0,0.0,0.0,0.0,0.0007199424046283475,0.0013198944084470041,0.009359251259902085,-0.3459323254139964,-0.8744900407967515,-0.2787377009839356,0.0,0.0,0.0,-1.7855389513232875,0.27357005159385883,1.3102128224625937,-4.804426412837225,-7.201519305688617,-5.698158269012914,-0.1327339999999999,-0.10138000000000001,-0.17605799999999994,0.07674399999999992,0.025859999999999994,0.059018000000000015,0.20947799999999983,0.12724000000000002,0.23507599999999995,0.9842012638988809,0.0,single,0.059018000000000015
171,1.425,stair_decsent,0.0,0.0,0.0,0.0,0.0,0.0,0.006000240009586295,-0.001680067202688093,-0.0010800432017324612,-0.3499339973598785,-0.897155886235435,-0.37141485659425233,0.0,0.0,0.0,0.6336610590373041,-0.3600097937279545,-1.2527654460139641,-0.48021984229953973,-2.7200102530520875,-11.121703541379471,-0.13268400000000002,-0.10139400000000001,-0.17606699999999997,0.073828,0.018383999999999984,0.055923000000000056,0.20651200000000003,0.119778,0.23199000000000003,0.9894601287041649,0.0,single,0.055923000000000056
172,1.433333,stair_decsent,0.0,0.0,0.0,0.0,0.0,0.0,0.00216008640346498,0.0002400096003842576,0.002400096003842576,-0.3860554422176953,-0.9753990159606469,-0.4162966518660851,0.0,0.0,0.0,-0.4608368662092104,0.2304184331060084,0.4176334100054085,-4.3347467728089635,-9.389551149071485,-5.386030873854937,-0.13266599999999995,-0.10139200000000001,-0.17604699999999995,0.07061099999999998,0.010255999999999987,0.052454,0.20327699999999993,0.111648,0.22850099999999995,0.9946034891142589,0.0,single,0.052454
173,1.441667,stair_decsent,0.0,0.0,0.0,0.0,0.0,0.0,0.0009599232061444612,0.00479961603071731,0.0014398848092166917,-0.39992800575953985,-0.9893208543316462,-0.4953203743700358,0.0,0.0,0.0,-0.14400806303341848,0.5471090029197286,-0.11521612606502003,-1.664574459064611,-1.6704869655626524,-9.482088133423336,-0.13265799999999994,-0.10135200000000001,-0.17603499999999994,0.06727799999999995,0.002010999999999985,0.04832600000000009,0.1999359999999999,0.103363,0.22436100000000003,0.9914965636247217,0.0,single,0.04832600000000009
174,1.45,stair_decsent,0.0,0.0,0.0,0.0,0.0,0.0,0.001320052802110086,0.005280211208448671,-0.001800072002878601,-0.4111364454578136,-1.0549621984879483,-0.5521420856834417,0.0,0.0,0.0,0.04321728020708365,0.05767372827689484,-0.3888103698662333,-1.3450665664555181,-7.877276389811914,-6.818878112733281,-0.13264699999999996,-0.10130800000000001,-0.17604999999999993,0.06385200000000002,-0.006780000000000008,0.043725000000000014,0.19649899999999998,0.094528,0.21977499999999994,0.9904455610924479,0.0,single,0.043725000000000014
175,1.458333,stair_decsent,0.0,0.0,0.0,0.0,0.0,0.0,-0.0026401056042201017,0.0037201488059517298,0.0013200528021100508,-0.4526581063242314,-1.0948037921516676,-0.606024240969628,0.0,0.0,0.0,-0.4752380182803454,-0.18721497689870556,0.37442995379678357,-4.982798615914691,-4.781182486945712,-6.4661172790334085,-0.13266899999999993,-0.101277,-0.17603899999999995,0.06008000000000013,-0.015903000000000014,0.038675000000000015,0.19274900000000006,0.085374,0.21471399999999996,0.9920851398306348,0.0,single,0.038675000000000015
176,1.466667,stair_decsent,0.0,0.0,0.0,0.0,0.0,0.0,0.0023998080153478955,-0.00035997120230334996,0.0,-0.3959683225342145,-1.0134389248860278,-0.7150227981761519,0.0,0.0,0.0,0.6047412550477674,-0.4895752349718211,-0.1583936647600283,6.802229876412048,9.763003031634424,-13.078780562338123,-0.13264900000000002,-0.10128000000000001,-0.17603899999999995,0.05678000000000005,-0.02434900000000001,0.03271600000000008,0.18942900000000007,0.076931,0.20875500000000002,0.995955573870877,0.0,single,0.03271600000000008
177,1.475,stair_decsent,0.0,0.0,0.0,0.0,0.0,0.0,0.003960158406330152,0.0025201008040321394,-0.0009600384015370048,-0.3979359174367021,-1.357974318972736,-0.6878675147005844,0.0,0.0,0.0,0.18724953689934346,0.34562246565887905,-0.11520921655310068,-0.23612083313183332,-41.34590112644932,3.2587643676427493,-0.13261600000000007,-0.10125900000000002,-0.17604699999999995,0.053463999999999956,-0.035665000000000016,0.026984000000000008,0.18608000000000002,0.06559399999999999,0.20303099999999996,0.9920146946767243,0.0,single,0.026984000000000008
178,1.483333,stair_decsent,0.0,0.0,0.0,0.0,0.0,0.0,-0.040321612864501984,0.08868354734189408,0.028681147245888803,-0.4539781591263536,-1.174606984279381,-0.80139205568223,0.0,0.0,0.0,-5.314025113504445,10.340027185630953,3.5570845610735726,-6.725338016278892,22.004960361617275,-13.623489857391899,-0.13295199999999996,-0.10052000000000001,-0.17580799999999996,0.049681000000000086,-0.04545300000000001,0.020306000000000046,0.18263300000000005,0.055067000000000005,0.196114,0.8307433552881807,0.0,single,0.020306000000000046
179,1.491667,stair_decsent,0.0,0.0,0.0,0.0,0.0,0.0,0.007079433645312071,0.027597792176625783,-0.05075593952483177,-0.3735301175906071,-1.110511159107263,-0.8755699544036408,0.0,0.0,0.0,5.6876705675322405,-7.329704243492661,-9.5316878774562,9.652992744869913,7.690883749954103,-8.90063579570557,-0.13289299999999993,-0.10029000000000002,-0.17623099999999992,0.04656799999999994,-0.05470800000000001,0.013009000000000048,0.17946099999999987,0.045582000000000004,0.18923999999999996,0.9029902365908608,0.0,single,0.013009000000000048
180,1.5,stair_decsent,-1.4610584423377124,-17.97155886235466,-6.610704428177187,-125.09969260933535,248.41399815136637,-158.87248392280858,-0.2060482419296753,-0.020640825633025335,0.2696507860314436,-0.2624504980199159,-1.0891635665426718,-0.9737189487579537,-175.33402644158477,-2156.6733304157956,-793.316264031831,-25.57634412276363,-5.788865691785859,38.450345080556616,13.33008755198515,2.5618135802941766,-11.778350456535918,-0.12243499999999985,0.049295,-0.11889699999999992,0.05655600000000005,0.08597300000000001,0.05998200000000009,0.1789909999999999,0.036678,0.178879,0.5,0.0,flight,0.05998200000000009
181,1.508333,stair_decsent,-1.248049921996887,0.07836313452538161,0.1957278291131722,-3.33537615272841,-3.549092962827145,-8.14245043735155,0.128165126605047,0.08844353774151066,-0.25585023400936546,-0.39229569182767265,-1.2686907476299165,-1.0093603744149926,25.562044922696188,2166.0772827169335,816.8045430565729,40.10720851250754,13.090647230833673,-63.06264491069408,-15.582046538792508,-21.544123495409384,-4.277142164531285,-0.11096700000000004,0.049379000000000006,-0.12265999999999999,0.06368700000000005,0.07474800000000001,0.049939999999999984,0.1746540000000001,0.025369000000000003,0.17259999999999998,0.5008120447261684,0.0,single,0.049939999999999984
182,1.516667,stair_decsent,0.0,0.0,0.0,0.0,0.0,0.0,-0.01583873290137029,0.022678185745139582,0.017878569714417276,-0.2938564914806701,-1.4737221022318103,-0.833093352531795,149.7540103187998,-9.402823917132352,-23.48546065672795,-17.2790808143048,-7.891210942689055,32.84482886054483,11.811759100912141,-24.601794408674376,21.15035059793572,-0.11109900000000006,0.049568,-0.12251100000000004,0.061238000000000126,0.06246600000000001,0.04299699999999995,0.17233700000000018,0.012898000000000007,0.165508,0.9451059398162323,0.0,single,0.04299699999999995
183,1.525,stair_decsent,0.0,0.0,0.0,0.0,0.0,0.0,-0.05040201608062748,0.034441377655106825,0.06612264490580634,-0.2925717028681369,-1.278531141245662,-1.0504020160806542,0.0,0.0,0.0,-4.147759891906578,1.411639494775873,5.789520603790892,0.15418080073601814,23.42385227242892,-26.078082749173316,-0.11151899999999992,0.049855,-0.12195999999999996,0.05879999999999996,0.051812,0.03424399999999994,0.1703189999999999,0.0019570000000000004,0.1562039999999999,0.850011334788324,0.0,single,0.03424399999999994
184,1.533333,stair_decsent,0.0,0.0,0.0,0.0,0.0,0.0,-0.022080883235324464,0.0,0.05832233289331309,-0.36733469338772673,-1.337813512540478,-1.1065642625704744,0.0,0.0,0.0,3.3986718883118345,-4.1331306438385,-0.9360748844945538,-8.971917739060187,-7.114169122142688,-6.739739168345035,-0.11170299999999989,0.049855,-0.12147399999999997,0.05573899999999998,0.040664000000000006,0.025023000000000017,0.16744199999999987,0.009190999999999998,0.146497,0.8960627871344855,0.0,single,0.025023000000000017
185,1.541667,stair_decsent,0.0,0.0,0.0,0.0,0.0,0.0,0.028197744180464324,-0.05639548836093198,-0.035397168226547975,-0.2383009359251357,-1.1991840652748011,-1.1588672906167794,0.0,0.0,0.0,6.032952653682474,-6.766917249931971,-11.24544049914361,15.482812270529575,16.634202935646684,-6.275861296652993,-0.1114679999999999,0.049385,-0.12176900000000002,0.05375299999999994,0.03067,0.015364999999999962,0.16522099999999984,0.018715000000000002,0.13713399999999998,0.8794857845776245,0.0,single,0.015364999999999962
186,1.55,stair_decsent,0.0,0.0,0.0,0.0,0.0,0.0,0.012720508820345328,-0.05940237609504305,-0.012240489619590149,-0.18924756990278555,-1.312252490099581,-1.053882155286188,0.0,0.0,0.0,-1.8573425369157237,-0.36084096173179137,2.778912589338464,5.886639388257447,-13.568753729122497,12.5987201884783,-0.11136199999999996,0.04889,-0.12187100000000006,0.052176,0.019735000000000003,0.0065830000000000055,0.16353799999999996,0.029155,0.12845400000000007,0.8967166355156746,0.0,single,0.0065830000000000055
187,1.558333,stair_decsent,0.0,0.0,0.0,0.0,0.0,0.0,0.034441377655097666,-0.04332173286931519,0.004200168006721177,-0.29209168366735505,-1.490579623184941,-1.1185647425897167,0.0,0.0,0.0,2.6066085245112847,1.9297543772624512,1.972957833470716,-12.341787323241384,-21.400111974722407,-7.762220965262141,-0.11107500000000003,0.048529,-0.12183600000000006,0.04974199999999995,0.007314000000000001,-0.002738000000000018,0.160817,0.041215,0.11909800000000004,0.9074944079037793,0.0,single,-0.002738000000000018
188,1.566667,stair_decsent,0.0,0.0,0.0,0.0,0.0,0.0,0.013918886489081366,-0.002879769618430053,-0.003959683225335912,-0.24958003359729347,-1.2709383249339956,-1.1743460523158047,0.0,0.0,0.0,-2.462501939766756,4.852647378315914,-0.9791038195412798,5.100989929213013,26.35484740232107,-6.693221709393754,-0.11095900000000003,0.048505000000000006,-0.121869,0.04766200000000009,-0.0032779999999999997,-0.012525000000000008,0.15862100000000012,0.051783,0.109344,0.9754084722473046,0.0,single,-0.012525000000000008
189,1.575,stair_decsent,0.0,0.0,0.0,0.0,0.0,0.0,-0.009600384015343657,0.02772110884435344,0.0055202208088312625,-0.12756510260410966,-1.3074522980919354,-1.2008880355214304,0.0,0.0,0.0,-2.8224253575453306,3.672252305626278,1.1376339894596497,14.642377414278762,-4.3818520530349385,-3.1851653912907683,-0.11103899999999989,0.048736,-0.12182300000000001,0.04659900000000006,-0.014172999999999998,-0.022531999999999996,0.15763799999999994,0.06290899999999999,0.09929100000000002,0.9502478340342853,0.0,single,-0.022531999999999996
190,1.583333,stair_decsent,0.0,0.0,0.0,0.0,0.0,0.0,0.06624264970597339,-0.004920196807872153,0.07488299531980644,-0.18036721468858824,-1.376695067802688,-1.0850834033361139,0.0,0.0,0.0,9.101528107682194,-3.9171133628015142,8.323865895952714,-6.336506910413735,-8.309464743879909,13.897111746707612,-0.110487,0.048695,-0.12119900000000006,0.045096000000000025,-0.025644999999999998,-0.03157399999999999,0.15558300000000003,0.07433999999999999,0.08962500000000007,0.8331687482250849,0.0,single,-0.03157399999999999
191,1.591667,stair_decsent,-9.328893688505099,5.666546676266007,-12.130909527238058,125.17418609222608,-265.88384968953414,206.24484920468478,0.01739860811135883,-0.021958243340532656,0.09779217662587301,-0.19762419006479306,-1.2705783537317257,-1.074154067674615,-1119.3776924052409,679.9312066554013,-1455.5926958529265,-5.8608161260637734,-2.044402031756759,2.748881846180347,-2.070671391433304,12.732987049551747,1.311415366150587,-0.03259499999999993,0.0012870000000000034,-0.019284999999999997,0.12119600000000008,-0.083459,0.06057299999999999,0.153791,0.084746,0.07985799999999998,0.8304566113871288,0.0,single,0.06057299999999999
192,1.6,stair_decsent,-6.972638905556102,-11.627505100203805,11.71882875314992,186.44430149980798,-16.141752605477198,90.49703210978963,0.008160326413051217,-0.001920076803072344,0.004200168006721065,-0.23004920196806827,-1.3975759030360975,-1.090363614544554,282.7618844292519,-2075.369227945459,2862.0830769695863,-1.1086381493228672,2.404676171542057,-11.231490293909795,-3.891157074675944,-15.240315529145514,-1.9452234333299827,0.025576000000000043,0.098163,-0.11690299999999998,0.17738200000000015,0.001786999999999997,-0.04616599999999993,0.1518060000000001,0.096376,0.07073700000000005,0.9843724750145135,0.0,single,-0.04616599999999993
193,1.608333,stair_decsent,-5.577943117724759,-9.301932077283176,9.375135005400308,95.5437035105011,-8.271878442086605,46.37529421272627,-0.051602064082555424,-0.02376095043801735,-0.00960038401535698,-0.274090963638569,-1.1838473538941656,-0.9791191647666029,167.37018934733658,279.07992594751596,-281.25449990995236,-7.171773730422079,-2.621009676580488,-1.6561324879488986,-5.28522280937251,25.648451835105462,13.349867968072992,0.07162700000000011,0.175478,-0.195106,0.22157899999999997,0.069435,-0.132448,0.14995199999999986,0.106043,0.06265799999999999,0.903974494757608,0.0,single,-0.132448
194,1.616667,stair_decsent,0.0,0.0,0.0,0.0,0.0,0.0,0.04427645788337664,0.07583393328533583,-0.09587233021358148,-0.17122630189582844,-1.328173746100303,-1.0165586753059719,669.2996301565535,1116.1425578693431,-1124.9262065515043,11.5045022757297,11.950430012401299,-10.351805399354912,12.342771987369783,-17.317781642204967,-4.4923818741743125,0.07199600000000017,0.17611,-0.195905,0.22015200000000013,0.05836599999999999,-0.14092000000000005,0.14815599999999995,0.117744,0.05498499999999995,0.7833160656829271,0.0,single,-0.14092000000000005
195,1.625,stair_decsent,0.0,0.0,0.0,0.0,0.0,0.0,0.022920916836653298,0.01428057122284917,-0.08940357614304602,-0.17604704188168974,-1.2530901236049548,-0.9735989439577584,0.0,0.0,0.0,-2.5627674363042767,-7.386698915455085,0.7762815397258512,-0.5785119387809124,9.010395115246473,5.155373976744738,0.072187,0.176229,-0.19665,0.21868500000000002,0.047923999999999994,-0.14903299999999997,0.14649800000000002,0.128305,0.04761700000000002,0.8443445527753948,0.023829999999999796,single,-0.14903299999999997
196,1.633333,stair_decsent,0.0,0.0,0.0,0.0,0.0,0.0,0.0004800192007818384,-0.029641185647425836,-0.031921276851072954,-0.17772710908437286,-1.2468498739949707,-0.9144365774631155,0.0,0.0,0.0,-2.6930154369220767,-5.270821657299341,6.898151841110475,-0.20161612896713585,0.7488599075943952,7.099767970076017,0.07219100000000012,0.175982,-0.19691599999999998,0.21720399999999995,0.037534,-0.15665300000000004,0.14501299999999984,0.138448,0.04026299999999994,0.9273937900417386,0.09737000000000062,single,-0.15665300000000004
197,1.641667,stair_decsent,0.0,0.0,0.0,0.0,0.0,0.0,-0.019078473722104514,-0.0319174466042717,-0.005159587233023149,-0.18442524598030813,-1.235421166306686,-0.8450923926085742,0.0,0.0,0.0,-2.3468314042340053,-0.27312946446434416,3.211145862496952,-0.8037121305417821,1.3713352157768834,8.320636531622362,0.0720320000000001,0.17571599999999998,-0.196959,0.21566700000000005,0.027238,-0.16369599999999995,0.14363499999999996,0.148478,0.03326300000000004,0.9374315286684362,0.16736999999999957,single,-0.16369599999999995
198,1.65,stair_decsent,0.0,0.0,0.0,0.0,0.0,0.0,-0.0033601344053929296,-0.022320892835713473,0.008160326413051434,-0.14928597143886166,-1.1818072722909037,-0.8015120604824388,0.0,0.0,0.0,1.8862761690521697,1.1516325175276987,1.5984535756719913,4.216881620238424,6.433924638879505,5.2298490490982505,0.07200399999999996,0.17553,-0.19689100000000004,0.21442300000000003,0.01738999999999999,-0.17037500000000005,0.14241900000000007,0.15814,0.026515999999999984,0.9599963999059926,0.23484000000000016,single,-0.17037500000000005
199,1.658333,stair_decsent,0.0,0.0,0.0,0.0,0.0,0.0,0.018000720028812176,0.012000480019200902,0.0,-0.15012600504018592,-1.156966278651127,-0.738029521180833,0.0,0.0,0.0,2.5634050683072998,4.118729491769324,-0.9792783406997829,-0.10080806448148848,2.981038478312279,7.618209444570352,0.07215400000000005,0.17563,-0.19689100000000004,0.21317200000000014,0.007748999999999978,-0.17652500000000004,0.1410180000000001,0.167881,0.020365999999999995,0.9639430449671433,0.29634000000000005,single,-0.17652500000000004
200,1.666667,stair_decsent,0.0,0.0,0.0,0.0,0.0,0.0,0.01703863690905798,-0.006239500839933336,0.0004799616030722434,-0.21214302855771844,-1.1635469162467205,-0.6591072714182955,0.0,0.0,0.0,-0.1154407391113767,-2.1886226132870874,0.05759078510586183,-7.44144750630354,-0.7896133424038384,9.469912378514396,0.07229600000000014,0.17557799999999998,-0.19688700000000003,0.21140400000000015,-0.0019480000000000053,-0.182018,0.139108,0.177526,0.014869000000000021,0.9697475032439623,0.3513099999999998,single,-0.182018
201,1.675,stair_decsent,0.0,0.0,0.0,0.0,0.0,0.0,0.05928237129485009,-0.13416536661466236,-0.02628105124204553,-0.18504740189609112,-1.0141605664226407,-0.7188287531501062,0.0,0.0,0.0,5.069450904331138,-15.351717961685683,-3.211449999414053,3.2516052636057657,17.927079062051735,-7.166864482396453,0.07279000000000013,0.17446,-0.197106,0.209862,-0.01039900000000002,-0.18800799999999995,0.13707199999999986,0.184859,0.00909800000000005,0.7516418424064516,0.4090199999999995,single,-0.18800799999999995
202,1.683333,stair_decsent,0.0,0.0,0.0,0.0,0.0,0.0,0.02868114724587548,-0.011400456018240577,-0.0037201488059526618,-0.21600864034561865,-1.0531621264850664,-0.6021840873635094,0.0,0.0,0.0,-3.672293777628092,14.732378566713416,2.707416588994729,-3.7154972338326906,-4.680374422468015,13.997919811184195,0.07302900000000001,0.174365,-0.197137,0.20806199999999997,-0.019174999999999998,-0.19302600000000003,0.13503299999999996,0.19354,0.004110999999999976,0.9481878898781091,0.45889000000000024,single,-0.19302600000000003
203,1.691667,stair_decsent,0.0,0.0,0.0,0.0,0.0,0.0,0.006479481641468453,0.0027597792176628283,-0.025077993760500735,-0.2213822894168299,-1.0128389728821623,-0.5500359971202168,0.0,0.0,0.0,-2.663986753588536,1.6990923009243217,-2.5627363756356982,-0.6447863056408959,4.838391361039567,6.257270247575257,0.07308300000000001,0.174388,-0.19734600000000002,0.2062170000000001,-0.027616,-0.19760999999999995,0.13313400000000009,0.202004,0.00026399999999993096,0.953946425742758,0.5,single,-0.19734600000000002
204,1.7,stair_decsent,0.0,0.0,0.0,0.0,0.0,0.0,-0.029401176047048238,0.015120604824192406,-0.016680667226689247,-0.2264490579623172,-0.9671186847474,-0.5162606504260251,0.0,0.0,0.0,-4.305851156668309,1.4833584071198478,1.0077194928371014,-0.6080365469203576,5.486654042333214,4.053203731452298,0.07283799999999996,0.174514,-0.19748500000000002,0.20433000000000012,-0.03567500000000001,-0.20191199999999998,0.13149200000000016,0.21018900000000001,0.004426999999999959,0.8940114069450336,0.5,single,-0.19748500000000002
205,1.708333,stair_decsent,0.0,0.0,0.0,0.0,0.0,0.0,0.02148085923438715,-0.0018000720028793857,0.0078003120124781715,-0.228849153966167,-0.9093963758550184,-0.47581903276130166,0.0,0.0,0.0,6.106088477311232,-2.0305624417462496,2.9378350221009226,-0.2880230413836263,6.926954145251482,4.853188247296618,0.07301700000000011,0.174499,-0.19742000000000004,0.20242300000000002,-0.043253000000000014,-0.20587699999999998,0.1294059999999999,0.217752,0.008456999999999937,0.8772232364860799,0.5,single,-0.19742000000000004
206,1.716667,stair_decsent,0.0,0.0,0.0,0.0,0.0,0.0,0.00887928965681652,0.004799616030717439,0.0019198464122889736,-0.18874490040797653,-1.1097912167026858,-0.3866090712743124,0.0,0.0,0.0,-1.512067383917791,0.7918992120946664,-0.7055994240687917,4.812125456946393,-24.045457265139326,10.704339031316412,0.07309100000000002,0.174539,-0.19740400000000002,0.20084999999999997,-0.05250200000000002,-0.20909900000000003,0.12775899999999996,0.22704100000000002,0.011695000000000011,0.8659259502211113,0.5,single,-0.19740400000000002
207,1.725,stair_decsent,0.0,0.0,0.0,0.0,0.0,0.0,0.011160446417871011,0.004920196807872153,0.0010800432017324612,-0.20304812192485,-0.8299531981279079,-0.3894155766230512,0.0,0.0,0.0,0.27374976131698686,0.014470272069448228,-0.10078041648343906,-1.716455240234395,33.581905505192964,-0.3367941136131983,0.07318400000000014,0.17457999999999999,-0.197395,0.19915800000000017,-0.059418,-0.21234399999999998,0.12597400000000003,0.23399799999999998,0.01494899999999999,0.8301023221017205,0.5,single,-0.197395
208,1.733333,stair_decsent,0.0,0.0,0.0,0.0,0.0,0.0,0.011880475218990773,-0.005160206408256542,-0.007800312012478379,-0.20412816512662788,-0.6660266410656487,-0.36445457818313876,0.0,0.0,0.0,0.08640691241086865,-1.2096967738064066,-1.065685253115435,-0.1296103686280913,19.671973726420344,2.9954396303747366,0.07328299999999999,0.174537,-0.19745999999999997,0.197457,-0.064968,-0.21538100000000004,0.124174,0.239505,0.017921000000000076,0.7955897856547424,0.5,single,-0.19745999999999997
209,1.741667,stair_decsent,0.0,0.0,0.0,0.0,0.0,0.0,0.013678905687565234,-0.018478521718262562,0.015358771298298058,-0.17674586033115242,-0.687065034797212,-0.3828893688504823,0.0,0.0,0.0,0.21579439267751943,-1.598069991601382,2.778867687878121,3.2856137263589216,-2.524405295363954,-2.211997920247589,0.07339700000000016,0.17438299999999998,-0.19733199999999995,0.19598400000000016,-0.070694,-0.218572,0.122587,0.245077,0.021240000000000037,0.7415185479137743,0.5,single,-0.19733199999999995
210,1.75,stair_decsent,0.0,0.0,0.0,0.0,0.0,0.0,0.013920556822273616,-0.007920316812672173,0.016320652826102868,-0.18780751230049836,-0.6426257050282068,-0.3843753750150121,0.0,0.0,0.0,0.028999296136851618,1.2670352700816616,0.11543040055260033,-1.3274513343749001,5.332932889596259,-0.17832787285849416,0.07351300000000016,0.174317,-0.19719600000000004,0.19441900000000012,-0.076049,-0.22177500000000006,0.12090599999999996,0.250366,0.024579000000000018,0.7160991591201318,0.5,single,-0.19719600000000004
211,1.758333,stair_decsent,0.0,0.0,0.0,0.0,0.0,0.0,0.01068042721708947,-0.008760350414017074,0.01068042721708947,-0.16452658106324536,-0.6625465018600802,-0.2065282611304438,0.0,0.0,0.0,-0.3888311058663357,-0.10080806448396845,-0.6768541472475038,2.793823501410442,-2.3905912434745713,21.34250736644305,0.07360200000000017,0.17424399999999998,-0.19710700000000003,0.1930480000000001,-0.08157,-0.22349600000000003,0.11944599999999994,0.255814,0.026388999999999996,0.7070083204734647,0.5,single,-0.19710700000000003
212,1.766667,stair_decsent,0.0,0.0,0.0,0.0,0.0,0.0,0.0005999520038169754,-0.00431965442764508,0.00155987520998808,-0.008759299256058218,-0.6353491720662292,-0.3657307415406667,0.0,0.0,0.0,-1.2095602607718285,0.5328408910933478,-1.094378690556914,18.690578570576665,3.2634185017819566,-19.10276942767239,0.07360699999999998,0.174208,-0.197094,0.19297500000000012,-0.086865,-0.22654399999999997,0.11936800000000014,0.261073,0.029449999999999976,0.6977805139326414,0.5,single,-0.197094
213,1.775,stair_decsent,0.0,0.0,0.0,0.0,0.0,0.0,-0.002040081603256197,-0.0020400816032645243,-0.008160326413051434,-0.4329773190927743,-0.3778951158046372,-0.6134645385815495,0.0,0.0,0.0,-0.3168167055170043,0.2735596813129217,-1.1664708535988964,-50.90819870835473,30.895722580294535,-29.72924481469879,0.07359000000000004,0.17419099999999998,-0.19716199999999995,0.18936700000000006,-0.09001400000000001,-0.23165599999999997,0.11577700000000002,0.264205,0.034494000000000025,0.6406344446415908,0.5,single,-0.19716199999999995
214,1.783333,stair_decsent,0.0,0.0,0.0,0.0,0.0,0.0,-0.007440297611905125,-0.0012000480019204232,-0.014040561622468702,-0.2114484579383188,-0.42265690627624336,-0.3373334933397286,0.0,0.0,0.0,-0.6480518431115845,0.10080806448386971,-0.7056564513881153,26.58452671960298,-5.371629721781518,33.13705091105437,0.07352800000000004,0.17418099999999997,-0.19727899999999998,0.18760500000000002,-0.09353600000000001,-0.23446699999999998,0.11407699999999998,0.267717,0.037188,0.601561076283365,0.5,single,-0.19727899999999998
215,1.791667,stair_decsent,0.0,0.0,0.0,0.0,0.0,0.0,-0.01763858891287497,0.0038396928245746165,-0.01991840652747812,-0.15766738660907875,-0.38204943604512276,-0.3876889848812216,0.0,0.0,0.0,-1.2236970603515764,0.6047205215376933,-0.7052849658038793,6.453212302524725,4.872506627204388,-6.042175610930399,0.07338100000000014,0.174213,-0.19744499999999998,0.18629099999999998,-0.09672,-0.23769800000000002,0.11290999999999984,0.270933,0.04025300000000004,0.5526677809819653,0.5,single,-0.19744499999999998
216,1.8,stair_decsent,0.0,0.0,0.0,0.0,0.0,0.0,-0.012840513620554108,-0.002400096003840014,-0.008280331213246674,-0.09348373934955592,-0.30937237489499003,-0.39745589823592026,0.0,0.0,0.0,0.5757920667611639,-0.7488046115942063,1.3966249027038573,7.702345764973204,8.72159620186385,-1.1720764856232422,0.07327400000000006,0.174193,-0.19751399999999997,0.18551200000000012,-0.099298,-0.24101,0.11223800000000006,0.273491,0.043496000000000035,0.5392630111302759,0.5,single,-0.19751399999999997
217,1.808333,stair_decsent,0.0,0.0,0.0,0.0,0.0,0.0,-0.004680187207476369,-0.01284051362054529,0.002640105604220172,-0.04980199207969015,-0.26929077163087056,-0.38401536061442576,0.0,0.0,0.0,0.9792783407029656,-1.2529002300138452,1.3105048382895652,5.242019353158067,4.809984791086023,1.612929031740624,0.07323500000000016,0.174086,-0.197492,0.18509700000000007,-0.10154200000000002,-0.24420999999999998,0.1118619999999999,0.275628,0.04671799999999998,0.5096207962338584,0.5,single,-0.197492
218,1.816667,stair_decsent,0.0,0.0,0.0,0.0,0.0,0.0,-0.011519078473733534,0.01547876169906445,0.010799136069118528,-0.017878569714417276,-0.19270458363330742,-0.4886009119270445,0.0,0.0,0.0,-0.8206013038465457,3.398041195057538,0.9790053353609663,3.830504243493236,9.189607391116217,-12.549262216536833,0.07313900000000007,0.174215,-0.19740199999999997,0.1849480000000001,-0.10314800000000002,-0.248282,0.11180900000000005,0.277363,0.050880000000000036,0.4631480977251214,0.5,flight,-0.19740199999999997
219,1.825,stair_decsent,0.0,0.0,0.0,0.0,0.0,0.0,-0.013920556822273616,0.012360494419776775,-0.005280211208453667,0.045121804872187136,-0.18564742589703673,-0.36217448697948496,0.0,0.0,0.0,-0.2881889293819878,-0.3742070417961961,-1.9295988572629716,7.56034736428717,0.8468928040646533,15.17177786482188,0.07302300000000006,0.174318,-0.197446,0.18532400000000004,-0.10469500000000001,-0.2513,0.11230099999999998,0.279013,0.05385400000000001,0.46774905880144474,0.5,flight,-0.197446
220,1.833333,stair_decsent,0.0,0.0,0.0,0.0,0.0,0.0,-0.017520700828030353,0.007320292811712167,-0.02244089763589751,0.0568822752910209,-0.0003600144005763768,-0.3684147365894525,0.0,0.0,0.0,-0.4320345620732838,-0.6048483869032185,-2.05936474588306,1.4113129027761377,22.235378794726643,-0.7488599075923968,0.07287700000000008,0.174379,-0.19763299999999995,0.18579800000000013,-0.10469800000000001,-0.25437,0.11292100000000005,0.279077,0.05673700000000004,0.4510057959476787,0.5,flight,-0.19763299999999995
221,1.841667,stair_decsent,0.0,0.0,0.0,0.0,0.0,0.0,-0.019078473722105024,0.00011999040076806085,-0.013318934485251423,0.02747780177586262,-0.08855291576673899,-0.38912886969043164,0.0,0.0,0.0,-0.18691779386545482,-0.8639671719395541,1.0945480142364123,-3.528254561454144,-10.582301579813329,-2.485497132346956,0.07271800000000006,0.17437999999999998,-0.19774400000000003,0.18602700000000016,-0.105436,-0.257613,0.1133090000000001,0.279816,0.05986899999999995,0.46122011643033106,0.5,flight,-0.19774400000000003
222,1.85,stair_decsent,0.0,0.0,0.0,0.0,0.0,0.0,-0.01488059522381025,-0.008880355214208968,-0.014040561622455379,0.03432137285488797,-0.046441857674305975,-0.41965678627144687,0.0,0.0,0.0,0.5037655704181808,-1.080084677184312,-0.08659872041328968,0.821261379938225,5.0535291122563635,-3.6634965295829462,0.07259400000000005,0.174306,-0.19786099999999995,0.18631299999999995,-0.105823,-0.26111,0.1137189999999999,0.28012899999999996,0.06324900000000006,0.46282809477802345,0.5,flight,-0.19786099999999995
223,1.858333,stair_decsent,0.0,0.0,0.0,0.0,0.0,0.0,-0.011040441617662525,-0.012240489619584646,-0.014160566422664536,0.09204368174729284,-0.025561022440900118,-0.3768150726029047,0.0,0.0,0.0,0.4608368662123797,-0.40323225793540246,-0.014401152071181885,6.9269541452544585,2.505800460027127,5.141211288676654,0.07250200000000007,0.174204,-0.19797900000000002,0.18708000000000014,-0.10603600000000002,-0.26425,0.11457800000000007,0.28024,0.06627099999999997,0.46378142823499446,0.5,flight,-0.19797900000000002
