frame_id,timestamp,gait_type,root_linear_velocity_x,root_linear_velocity_y,root_linear_velocity_z,root_angular_velocity_x,root_angular_velocity_y,root_angular_velocity_z,left_linear_velocity_x,left_linear_velocity_y,left_linear_velocity_z,right_linear_velocity_x,right_linear_velocity_y,right_linear_velocity_z,root_acceleration_x,root_acceleration_y,root_acceleration_z,left_acceleration_x,left_acceleration_y,left_acceleration_z,right_acceleration_x,right_acceleration_y,right_acceleration_z,left_pos_rel_x,left_pos_rel_y,left_pos_rel_z,right_pos_rel_x,right_pos_rel_y,right_pos_rel_z,step_length,step_width,step_height,left_contact_prob,right_contact_prob,support_type,max_foot_height
1,0.008333,stair_decsent,0.06216248649946219,-0.03588143525740954,-0.006120244809795182,-0.05308063934705073,-0.01899326532591654,0.408375163710646,0.0026401056042201477,-0.0004800192007685108,-0.0016800672026964494,0.003480139205575034,-0.001200048001921277,-0.00024000960039091698,0.0,0.0,0.0,0.0,0.0,0.0,0.0,0.0,0.0,-0.14327299999999998,-0.04255500000000001,-0.914327,0.103024,0.007568999999999992,-0.910037,0.246297,0.050124,0.004290000000000016,0.994723426553751,0.9509515836037561,double,-0.910037
2,0.016667,stair_decsent,0.06515478761698586,-0.022318214542832247,-0.006599472042226568,0.10055786030636378,0.0006467666776337997,0.49794673312337057,-0.03251739860812722,0.009479241660666634,-0.019918406527477738,0.00251979841613256,-0.00239980801535451,0.0005999520038436232,0.3590474103100152,1.6274562892461353,-0.057502667678352076,-4.218563020440048,1.195015702116048,-2.1884256449221606,-0.11523167619900096,-0.14395968483720098,0.10078732952178307,-0.14408700000000008,-0.04229000000000005,-0.9144380000000001,0.10250200000000009,0.007734999999999992,-0.909977,0.24658900000000017,0.05002500000000004,0.004461000000000048,0.9345108118911768,0.9495048952205538,double,-0.909977
3,0.025,stair_decsent,0.06948277931118531,-0.015360614424579021,-0.00948037921518808,-0.0008581244585926369,-0.04083458246395947,0.5229420700538752,-0.0009600384015370216,-0.0006000240009573077,-0.004320172806903274,0.004080163206512357,-0.0019200768030740432,-0.0012000480019279385,0.5193797784950739,0.8349454120068674,-0.34572268966296793,3.7870347061790706,-1.2095602618053451,1.8718629209857751,0.1872512648961715,0.05757004827558704,-0.21600864103822892,-0.1446740000000002,-0.04216700000000001,-0.9143949999999998,0.10195699999999985,0.007846999999999993,-0.9099079999999999,0.24663100000000004,0.050014,0.004486999999999908,0.9925565846370289,0.947352800073933,double,-0.9099079999999999
4,0.033333,stair_decsent,0.0736829473178798,-0.002400096003842554,0.0008400336013548863,-0.03247237686096463,-0.1397667709055543,0.5864192290617772,0.032521300852049954,-0.013080523220925264,0.013560542421687114,0.003480139205575034,-0.0026401056042268094,-0.0022800912036470954,0.5040403224162362,1.5553244234653147,1.2384990779482739,4.017921427287528,-1.4977198151887623,2.1457716582971784,-0.07200576034289247,-0.08640691241482854,-0.12961036862104366,-0.14501699999999995,-0.04225599999999996,-0.914289,0.10137200000000002,0.007844999999999991,-0.909934,0.24638899999999997,0.05010099999999995,0.004354999999999998,0.9373585288324392,0.9482374854323486,double,-0.909934
5,0.041667,stair_decsent,0.07379409647228607,-0.014038876889846199,-0.011759059275249756,-0.17788048046525246,-0.10264457136105024,0.5099798994262814,0.006839452843769346,-0.002759779217668677,-0.0004799616030722342,0.004679625629937631,-0.0011999040076739248,-0.0015598752099747698,0.013336831582225865,-1.3965419829618002,-1.5117702035762708,-3.0815752349748746,1.2383902091740564,-1.6847257049147284,0.14392685677496964,0.1728103667570056,0.08641900572022145,-0.145575,-0.04216200000000003,-0.9141950000000001,0.10079599999999989,0.007952000000000015,-0.909849,0.2463709999999999,0.05011400000000005,0.004346000000000072,0.9876818945728876,0.948078998559617,double,-0.909849
6,0.05,stair_decsent,0.07944317772710194,-0.0038401536061480864,-0.0019200768030740432,-0.08664023696129926,-0.142965917388004,0.6299485843130385,0.008520340813624412,-0.004440177607098732,0.001320052802123397,0.0028801152046110646,-0.0030001200047998617,-0.000840033601341563,0.6779168672525937,1.2238957498737686,1.1807251256661122,0.20171462496760661,-0.20165587296652532,0.21601036903823725,-0.2159498890347494,-0.21603456103755392,0.08638444841392137,-0.14616600000000002,-0.042166999999999955,-0.914168,0.10015799999999997,0.00795900000000005,-0.90984,0.246324,0.050126000000000004,0.0043279999999999985,0.9838364329291589,0.9496486493341059,double,-0.90984
7,0.058333,stair_decsent,0.07464298571944347,-0.02832113284530883,-0.012000480019199447,-0.09322899349954411,-0.09618518707942673,0.5635451941527168,0.010440417616725102,-0.003600144005763831,0.0012000480019146154,0.00012000480020878171,-0.00312012480499532,0.001080043201719157,-0.5760460827623264,-2.937835022100173,-1.2096967738060007,0.23041843310940716,0.1008080644827675,-0.014401152071136632,-0.33122649758817746,-0.014401152069537796,0.2304184331046106,-0.14670099999999997,-0.041961000000000026,-0.914058,0.09953699999999999,0.008168999999999982,-0.9097310000000001,0.24623799999999996,0.05013000000000001,0.00432699999999997,0.9814854807665293,0.9512234197776159,double,-0.9097310000000001
8,0.066667,stair_decsent,0.08507319414445028,0.017638588912887956,-0.010559155267589153,-0.098825002546677,-0.06201742107437646,0.578311197593105,0.011759059275249756,0.002879769618433405,-0.002879769618433405,0.0045596352291795645,-0.0005999520038369624,-0.00479961603070902,1.2515248890096955,5.514725432948977,0.17294513458246866,0.15822434107567238,0.7775274327090514,-0.4895389513256564,0.5327130344337391,0.30239654441544966,-0.7055026676779669,-0.1473119999999999,-0.04208400000000001,-0.913994,0.09886600000000012,0.008016999999999996,-0.9096829999999999,0.246178,0.05010100000000001,0.004311000000000065,0.9792594317855252,0.9458111751184313,double,-0.9096829999999999
9,0.075,stair_decsent,0.10164406576263565,0.10152406096243352,-0.00648025921036824,-0.3242615969578649,-0.10521273150508663,0.32302170494326754,0.013200528021127396,-0.004200168006721142,0.0038401536061480894,0.002280091203647097,-0.0009600384015370224,-0.0013200528021233982,1.988584137547749,10.066659312317968,0.48948710635076403,0.1729831688320703,-0.8496265000785495,0.806423043871535,-0.2735562253129088,-0.043212096207855544,0.417564290001875,-0.14804899999999988,-0.042964999999999975,-0.9139079999999999,0.09803800000000007,0.0071630000000000305,-0.90964,0.24608699999999994,0.050128000000000006,0.0042679999999999385,0.9760415793601553,0.9526464844811526,double,-0.90964
10,0.083333,stair_decsent,0.05748229929198582,0.03660146405856228,0.08868354734189902,1.8067824750196684,-0.13794250006943484,0.49826706388058656,0.014160566422637749,-0.005640225609026666,0.004680187207489645,0.0009600384015370207,-0.0031201248049953175,-0.00012000480018213519,-5.299623961436433,-7.7910232693953185,11.420113590815694,0.11520921654990421,-0.17281382482965602,0.10080806448356593,-0.15841267276011944,-0.25922073724448497,0.1440115206937792,-0.14841000000000015,-0.043316999999999994,-0.914608,0.09756699999999996,0.006832000000000005,-0.91038,0.2459770000000001,0.050149,0.0042280000000000095,0.9734252658303353,0.952275519185236,double,-0.91038
11,0.091667,stair_decsent,0.0743940484761031,-0.0034797216222703705,-0.016318694504429333,0.03573113290270251,-0.08916741959058277,0.4162566110941127,0.013318934485237858,-0.005519558435324037,0.0035997120230350987,0.00431965442763679,-0.001559875209981432,-0.003839692824577877,2.029247562289093,-4.809357533097274,-12.599261080672958,-0.10098775346770958,0.014478902532112944,-0.12964665040251344,0.40312167339810073,0.1872149742037301,-0.446326856778947,-0.14891900000000002,-0.043333999999999984,-0.9144420000000001,0.09698300000000004,0.006848000000000021,-0.9102760000000001,0.24590200000000006,0.050182000000000004,0.004166000000000003,0.9752334529056387,0.9483628224276002,double,-0.9102760000000001
12,0.1,stair_decsent,0.024480979239180706,-0.05676227049081973,0.012240489619563706,-0.2997723520575834,0.14242469756028608,0.6577997852451472,0.010440417616725093,-0.006480259210368228,0.004200168006721135,0.0021600864034649584,-0.003000120004799859,0.0007200288011461039,-5.9898079007467135,-6.394161630691145,3.4272391844465395,-0.34543584165519764,-0.11528870455348499,0.07205760034633811,-0.2591585292417892,-0.1728362888297643,0.5471884826261822,-0.14903599999999995,-0.04291499999999998,-0.9145089999999999,0.09679700000000002,0.007296000000000025,-0.910372,0.24583299999999997,0.050211000000000006,0.004136999999999946,0.9783565835818455,0.9523528069816836,double,-0.910372
13,0.108333,stair_decsent,0.09960398415935282,0.01872074882995861,-0.02928117124683921,0.11879820186723393,0.046470300467944564,0.624261942641602,0.009000360014379608,-0.0031201248049953227,0.0019200768030740447,0.003360134405366255,-0.002880115204611067,-0.0012000480019146163,9.015121195268472,9.058324651479467,-4.982798615912991,-0.17281382483445182,0.4032322579350664,-0.27362188931322357,0.1440115206889833,0.01440115206873779,-0.23041843310461077,-0.149791,-0.04309700000000005,-0.914249,0.09599500000000005,0.007115999999999956,-0.910138,0.24578600000000006,0.05021300000000001,0.004110999999999976,0.983804291196183,0.9512477050383962,double,-0.910138
14,0.116667,stair_decsent,0.08495320374371877,-0.07967362610991754,-0.007199424046070185,0.24021518387353602,0.12483096519225435,0.9800734289514137,0.00839932805375743,-0.004199664026872055,0.0020398368130470023,0.0035997120230350926,-0.002879769618426742,-0.0009599232061444676,-1.7579530136349928,-11.80638048234654,2.649597696276578,-0.07211806582939487,-0.1295343438776975,0.014370051592627485,0.028747014359111738,4.1467024757038326e-05,0.028812670478779508,-0.15042900000000015,-0.04246799999999995,-0.9141720000000001,0.09531699999999987,0.007756000000000041,-0.9100860000000001,0.24574600000000002,0.05022399999999999,0.004086000000000034,0.9839837908565953,0.9512920610869807,double,-0.9100860000000001
15,0.125,stair_decsent,0.16020640825631408,0.1131645265810666,-0.018240729629203426,-0.5884967899591543,-0.4291954474660745,0.4452232436862266,0.006600264010577021,-0.004320172806916601,0.001560062402500992,0.0033601344053929014,-0.0034801392055683754,0.0008400336013415638,9.030745771342298,23.14150398307744,-1.3250096703628045,-0.21589632103449066,-0.014461632070628404,-0.05757523227481227,-0.028750464135628397,-0.07204723234628992,0.2160034570366054,-0.15170899999999987,-0.04344700000000001,-0.9140069999999999,0.09401000000000015,0.006784000000000012,-0.9099269999999999,0.24571900000000002,0.050231000000000026,0.0040799999999999725,0.9865979714646297,0.9510167636523363,double,-0.9099269999999999
16,0.133333,stair_decsent,0.10224408976359944,-0.026761070442814477,-0.018360734429358882,0.08310369840168139,0.06715553497747473,0.7921543709983887,0.006480259210368228,-0.0031201248049886558,0.00036001440057305197,0.003960158406330218,-0.0033601344053795727,-0.0013200528021100728,-6.955756449383725,-16.791743312598218,-0.014401152064737265,-0.014401152071137922,0.14401152069218098,-0.14401152069218037,0.07200576034289162,0.014401152068739067,-0.25922073724368594,-0.15250699999999995,-0.04325000000000001,-0.9138510000000001,0.09319100000000002,0.0069789999999999575,-0.9097850000000001,0.24569799999999997,0.05022899999999997,0.004066000000000014,0.9879978533631957,0.9504087973271913,double,-0.9097850000000001
17,0.141667,stair_decsent,0.10703143748501524,-0.031797456203505624,-0.015958723302155156,-0.06616196721663664,-0.0011066562338116895,0.7148657093379048,0.007079433645312142,-0.002759779217662023,0.00035997120230084616,0.00599952003838296,-0.0035997120230351048,0.001679865610746163,0.5744357717081606,-0.6043179458472712,0.2882182778022236,0.07189518057882348,0.04323801143828098,-5.183377994457541e-06,0.24470381954076642,-0.02874701435751532,0.3599614126297388,-0.15334000000000003,-0.04300799999999999,-0.9137149999999999,0.09234899999999979,0.007213999999999998,-0.909638,0.24568899999999982,0.05022199999999999,0.004076999999999997,0.9873218975597136,0.9472376279093392,double,-0.909638
18,0.15,stair_decsent,0.11220448817951606,-0.1730469218768748,0.03924156966280907,0.395307389549162,0.544901183072542,1.5544736243341086,0.009960398415916612,-0.002280091203653755,-0.009120364814588375,0.0015600624025009894,-0.0022800912036470937,0.0012000480019279376,0.6207909149766965,-16.9506139053605,6.624300127800813,0.34572960165660244,0.05756486427556312,-1.137685829459884,-0.5327562265548983,0.1583608327598716,-0.057580416274837995,-0.1541920000000001,-0.04158500000000004,-0.9141180000000001,0.09142699999999992,0.008637000000000006,-0.9099550000000001,0.24561900000000003,0.050222000000000044,0.004163000000000028,0.9771727862913611,0.9533498390343486,double,-0.9099550000000001
19,0.158333,stair_decsent,0.14520580823232118,-0.06156246249849817,-0.0022800912036470937,-0.19944735538194477,-0.07424075704599568,0.5840162349810414,0.007200288011540979,-0.0024000960038358904,0.003000120004806521,0.004320172806929917,-0.0026401056042268073,0.001800072002878583,3.9603168190093716,13.378670272216072,-4.982798615919371,-0.33122649758497913,-0.014401152067938947,1.4545163589817456,0.3312264975913747,-0.043203456207813906,0.07200576034449116,-0.15534199999999987,-0.04109200000000002,-0.914074,0.09025300000000014,0.00912799999999997,-0.9099210000000001,0.245595,0.05021999999999999,0.004152999999999962,0.986397985410649,0.94951419649694,double,-0.9099210000000001
20,0.166667,stair_decsent,0.09971202303815999,-0.028197744180470424,-0.01091912646988999,-0.005993867507283669,-0.06158280028304393,0.6063330094208133,0.00827933765297272,-0.00311975041996952,-0.0013198944084453126,0.0008399328053597571,-0.002519798416125897,0.002039836813060324,-5.458817517897907,4.003445922489527,-1.036601303844839,0.12947559892389493,-0.08635162180629094,-0.5183602607693579,-0.4175953925570142,0.014435707715491988,0.028769475663755803,-0.15610400000000002,-0.040883,-0.913994,0.08942899999999998,0.009342000000000017,-0.909813,0.245533,0.05022500000000002,0.00418099999999999,0.9850907936808349,0.952608332238642,double,-0.909813
21,0.175,stair_decsent,0.10464418576742902,-0.022200888035520363,-0.0018000720028919124,0.24938582312487206,0.18506414986651537,0.6050506552622638,0.002280091203647101,0.000240009600384256,0.011160446417844588,0.0016800672026831304,-0.004680187207489661,0.000960038401537024,0.5918832028403996,0.7196515234549473,1.0943303092521421,-0.7199383714539344,0.40318732993565154,1.4977008071870792,0.10082016048522445,-0.25925702524466204,-0.12958099262250122,-0.156957,-0.04069600000000001,-0.913886,0.08857099999999996,0.009487999999999996,-0.9097899999999999,0.24552799999999997,0.050184000000000006,0.0040960000000000996,0.9810108229106679,0.950599283232925,double,-0.9097899999999999
22,0.183333,stair_decsent,0.0978039121564874,-0.031921276851072634,-0.01644065762628484,-0.04088095033752487,-0.2447627898062975,0.4452405665230931,0.007200288011514332,-0.0037201488059526245,0.0024000960038425517,0.0016800672027097712,-0.004560182407294187,0.002760110404415604,-0.8208656679397118,-1.1664933175989756,-1.7569405524292472,0.5904472348334606,-0.4752380182811565,-1.0512841010442853,3.1970237539756746e-12,0.014401152069539553,0.21601728103667087,-0.15771200000000007,-0.040461000000000025,-0.9137290000000001,0.08777000000000013,0.009716000000000002,-0.90963,0.2454820000000002,0.05017700000000003,0.004099000000000075,0.9859125631801822,0.9496951225871393,double,-0.90963
23,0.191667,stair_decsent,0.10847132229421827,-0.034317254619631414,-0.019198464122889353,-0.0640041135120009,-0.26118951171229804,0.3947973705961356,0.012598992080636145,-0.0002399808015361169,-0.0037197024238064817,-0.02183825293977998,0.02231821454283223,-0.0315574754019694,1.2799868175822966,-0.28749433268043884,-0.33091030676799976,0.6477926648814264,0.4175867535896933,-0.734317065952607,-2.8219726592860246,3.2251496220454032,-4.117780874296252,-0.15851100000000007,-0.04017700000000002,-0.9136,0.08668399999999998,0.010187999999999975,-0.9097329999999999,0.24519500000000005,0.05036499999999999,0.003867000000000065,0.9781019801532758,0.8873388923212984,double,-0.9097329999999999
24,0.2,stair_decsent,0.10536421456857478,-0.03960158406336214,-0.020400816032641707,-0.14285116065501102,-0.27950177112483876,0.3162587730207276,0.02088083523342354,0.0014400576023055312,-0.00588023520940426,0.0046801872075029685,-0.003240129605184114,0.00024000960037759357,-0.37286784179088983,-0.634144899043648,-0.14428800069030998,0.9938609327717975,0.20161267296791632,-0.2592743052439429,3.182340111278402,-3.067123982721268,3.8158508343150084,-0.15921499999999988,-0.03983500000000001,-0.9134789999999999,0.08584500000000017,0.010490999999999973,-0.909561,0.24506000000000006,0.05032599999999998,0.003917999999999977,0.9637654166092186,0.9513243581979332,double,-0.909561
25,0.208333,stair_decsent,0.11496459858394537,0.0006000240009573092,-0.08292331693267717,-1.3103985699069354,-1.1429580215210664,0.09938460982936752,0.026881075243010023,0.0,-0.004440177607098744,0.004320172806903284,-0.003480139205568381,-0.0012000480019146184,1.152092165531094,4.824385943156072,-7.503000228013394,0.7200576034545177,-0.17281382482965735,0.17281382482965554,-0.043203456210210614,-0.028802304138277623,-0.172813824828059,-0.1599489999999999,-0.03983999999999999,-0.9128249999999999,0.08492300000000008,0.010456999999999994,-0.9088799999999999,0.24487199999999998,0.05029699999999998,0.003944999999999976,0.9545911357343406,0.9510902347370945,double,-0.9088799999999999
26,0.216667,stair_decsent,0.12730981521478013,-0.0029997600191981307,0.08399328053757431,1.6977601947081062,1.6303973099706253,0.2396630849670767,0.028197744180463762,-0.0021598272138250523,-0.0077993760499271295,0.004799616030722338,0.0015598752099880903,-0.0038396928245778704,1.4813074911008823,-0.43193952725647183,20.028389425276135,0.1579876334837699,-0.25915853297636793,-0.4030715674140128,0.0575285845715207,0.6047533495988081,-0.3167320401563774,-0.1607749999999999,-0.03983300000000001,-0.9135900000000001,0.08390200000000014,0.010495000000000032,-0.9096120000000001,0.24467700000000003,0.05032800000000004,0.003978000000000037,0.9511064677866105,0.9496510773044242,double,-0.9096120000000001
27,0.225,stair_decsent,0.11988479539183887,-0.17652706108244315,0.010800432017271499,0.49570697754034354,-0.5945393606559076,-0.3199862832887236,0.02664106564261902,-0.00192007680306738,-0.007560302412087385,0.0034801392055483845,0.0009600384015370207,-0.00252010080403801,-0.8910380202737616,-20.824109091953062,-8.783493162162817,-0.18680889689724492,0.02877120013892622,0.028689984140134957,-0.15834355276298484,-0.07198329634598213,0.15835737675985348,-0.16155200000000014,-0.03837799999999997,-0.913743,0.08293199999999978,0.01197400000000004,-0.9097230000000001,0.24448399999999992,0.05035200000000001,0.0040199999999999125,0.95373412446443,0.9524621319541615,double,-0.9097230000000001
28,0.233333,stair_decsent,0.11772470898834726,-0.08952358094323393,-0.007920316812660436,0.1127499270474045,-0.18261721092660763,0.06328431947263317,0.024600984039362842,-0.004320172806916593,-0.0028801152046110624,0.0010800432017458023,0.0006000240009573072,0.0,-0.25922073724848255,10.440835250115102,-2.2465797227807416,-0.24481958517414798,-0.2880230413835607,0.5616449306943859,-0.28802304137796475,-0.043203456207813906,0.30242419345229904,-0.16232800000000003,-0.037668000000000035,-0.9137010000000001,0.08196000000000003,0.012724999999999986,-0.9096570000000002,0.24428800000000006,0.05039300000000002,0.0040439999999999365,0.9580951019709032,0.9575007916034437,double,-0.9096570000000002
29,0.241667,stair_decsent,0.26253899688025967,-0.2614590832733371,-0.13414926805857655,1.5029312471425396,1.1627029507606048,1.4032379820885115,0.021358291336694493,-0.005639548836088775,0.0008399328053730815,0.0031197504199495475,0.0005999520038369638,-0.0017998560115175524,17.376324441074246,-20.630609830825964,-15.146262448514086,-0.38909199696044594,-0.15831245850398187,0.4463700515939708,0.24474528656152506,-8.638963324137098e-06,-0.21596544414657506,-0.1643380000000001,-0.03553600000000001,-0.9125759999999999,0.07979799999999981,0.01490899999999995,-0.908554,0.2441359999999999,0.05044499999999996,0.00402199999999997,0.9631562380142216,0.9536944372231673,double,-0.908554
30,0.25,stair_decsent,0.1908076323052897,-0.21252850114004812,0.08424336973478697,-0.748589813744288,-1.163272158586963,0.11199957558716735,0.016680667226702403,-0.004680187207489645,0.0026401056042201455,0.0024000960038558753,0.0,-0.0009600384015370207,-8.608108073319324,5.871904732183961,26.20816486179807,-0.561337346692918,0.11512800055191758,0.21602937703672898,-0.08636198441061702,-0.07199712034524941,0.10078214448344305,-0.16578899999999996,-0.033804,-0.913256,0.07822799999999996,0.016679999999999973,-0.909264,0.24401699999999993,0.05048399999999997,0.0039919999999999956,0.9707919831673559,0.9557716958221004,double,-0.909264
31,0.258333,stair_decsent,0.08220328813150442,0.18960758430336905,0.002640105604246801,-0.2786994550402253,-0.4254240406508907,-0.39818158893030764,0.015600624024956655,-0.003720148805952637,0.004440177607112066,0.0010800432017191595,-0.0006000240009573092,0.001440057602305536,-13.033042622559167,48.25826058363352,-9.792783407001124,-0.12961036862423503,0.11520921655310336,0.21601728103827256,-0.1584126727633168,-0.07200576034529109,0.2880230413827628,-0.16634399999999983,-0.035414999999999974,-0.9132410000000001,0.07755200000000007,0.015095000000000025,-0.9092740000000001,0.2438959999999999,0.05051,0.003966999999999943,0.9722644354719039,0.9571675958436741,double,-0.9092740000000001
32,0.266667,stair_decsent,0.1377489800816112,0.035517158627311994,-0.007079433645312118,-0.0119076077132226,-0.023709082360845204,-0.17700580100201024,0.011639068874491678,-0.004319654427643443,0.007799376049913808,0.001439884809230023,-0.0015598752099814294,0.00227981761458978,6.664949838025767,-18.489371931372318,-1.1662514098342824,-0.4753485901685834,-0.07193491980931194,0.4030715674108157,0.04317753869820772,-0.11517293124839445,0.10076314042287536,-0.16739499999999996,-0.03574699999999997,-0.9131170000000001,0.07641600000000004,0.014786000000000021,-0.9091960000000001,0.243811,0.050532999999999995,0.003920999999999952,0.9755642790271093,0.9555981133566245,double,-0.9091960000000001
33,0.275,stair_decsent,0.12084483379334884,-0.04116164646585633,-0.0020400816032828165,0.20403117902383935,0.07647516824570617,0.1246883224591753,0.009240369614770478,-0.0034801392055683576,0.007920316812673734,-0.0010800432017457988,-0.002760110404415595,0.002520100804038002,-2.0285786977393854,-9.201824684167526,0.6047464349009097,-0.28785542538355813,0.10074585648326918,0.014513472070073903,-0.3024034574553956,-0.1440339846914869,0.02883513613923207,-0.16832500000000006,-0.03543299999999999,-0.9130339999999999,0.07539999999999991,0.015106000000000008,-0.9091579999999999,0.24372499999999997,0.050539,0.0038759999999999906,0.9789031849480629,0.9547559146055915,double,-0.9091579999999999
34,0.283333,stair_decsent,0.10656426257050307,0.14220568822752844,-0.001320052802110077,-0.031649704925830975,-0.0885997409341974,-0.5193857994631936,0.008040321612869245,-0.0006000240009639708,0.003600144005757178,0.0008400336013548883,-0.001440057602305536,0.0015600624025009946,-1.7137370962253464,22.00496036162069,0.08640691241722563,-0.14401152068897588,0.3456276496585136,-0.5184414744889676,0.2304184331094074,0.15841267276011786,-0.11520921655310329,-0.16914600000000002,-0.03662300000000002,-0.9129929999999999,0.074519,0.013909000000000005,-0.9091339999999999,0.24366500000000002,0.05053200000000002,0.003859000000000057,0.9852834336260218,0.9576045882654283,double,-0.9091339999999999
35,0.291667,stair_decsent,0.0989920806335583,-0.03491720662346837,-0.015478761699042906,0.11580517321217607,0.04414846725372772,0.024422344547103833,0.00455963522917956,-0.0009599232061444676,0.0033597312215056367,0.0015598752099880903,-0.0002399808015361169,0.0014398848092167015,-0.9085891453017473,-21.253047138348528,-1.6989091548995459,-0.4176489541264316,-0.04318444986567033,-0.028847226332078386,0.08637408310933542,0.14399769627662803,-0.014420157581508646,-0.1699330000000001,-0.03634000000000004,-0.9128360000000001,0.07370699999999997,0.014197999999999988,-0.908993,0.24364000000000008,0.05053800000000003,0.003843000000000041,0.9904257985732448,0.958009386086152,double,-0.908993
36,0.3,stair_decsent,0.0991239649585978,-0.01872074882995198,-0.00648025921036825,0.0609512166160701,-0.0002016978898873347,0.06801597769717026,0.002280091203647101,-0.0012000480019146184,0.00036001440057305316,0.001920076803074048,-0.002280091203647101,0.0020400816032561833,0.015826752074822325,1.943652681329225,1.0798634931806885,-0.2735562253129083,-0.02881612813754367,-0.35998041772862005,0.043225920207123306,-0.2448230411749657,0.07202649634459178,-0.17074000000000011,-0.036194000000000004,-0.9127790000000001,0.07289699999999999,0.014334999999999987,-0.9089220000000001,0.2436370000000001,0.05052899999999999,0.0038569999999999993,0.9956639298794658,0.9554097924143865,double,-0.9089220000000001
37,0.308333,stair_decsent,0.1113644545781608,-0.05808232329293627,-0.000480019200781832,0.09404427651187865,0.005761918267208144,0.301952200494749,-0.0012000480019279335,-0.0008400336013482211,0.002400096003842544,0.002640105604220137,0.0001200048001887964,0.000120004800195458,1.4689175110479964,-4.723577878673241,0.7200576034545053,-0.4176334100054026,0.04320345620621575,0.2448195851757449,0.08640691241402687,0.2880230413819618,-0.23041843310461024,-0.171678,-0.035717,-0.912755,0.07199100000000014,0.01482,-0.908917,0.24366900000000014,0.050537,0.003838000000000008,0.9953136627409546,0.9572107420926805,double,-0.908917
38,0.316667,stair_decsent,0.126709863210964,-0.14182865370769948,0.09707223422127001,-1.486719113716346,-1.7718135735138631,-0.10990417021931807,-0.0026397888168906425,-0.0029997600191981506,0.0008399328053730844,-0.001919846412288948,-0.0015598752099814399,0.0017998560115175582,1.841301731797851,-10.048755749311697,11.705333983927574,-0.1727550773893349,-0.25914643842691887,-0.18720460744774037,-0.5471504699434978,-0.2015694756623765,0.20156602007704702,-0.17275600000000013,-0.034560000000000035,-0.9135570000000001,0.07091899999999995,0.015988999999999975,-0.909711,0.24367500000000009,0.05054900000000001,0.003846000000000016,0.9931946646159668,0.956441388375338,double,-0.909711
39,0.325,stair_decsent,-0.01320052802112733,-0.3745349813992593,0.15552622104883695,-2.1342250539057797,-3.025819070988311,-2.0849331331410075,-0.00588023520940424,-0.0006000240009573052,0.0007200288011594248,0.0013200528021100684,-0.0008400336013415596,0.0015600624025009842,-16.789918544592673,-27.925876358041382,7.014759009668391,-0.3888691218665047,0.28797984138255556,-0.014389056067881805,0.38880345786619497,0.08638444841472186,-0.028776384137354255,-0.17269500000000004,-0.03144399999999997,-0.914847,0.07103999999999999,0.019103000000000037,-0.910994,0.24373500000000003,0.05054700000000001,0.0038529999999999953,0.9900758940517236,0.9577874621705803,double,-0.910994
40,0.333333,stair_decsent,0.09852394095763382,-0.16632665306612285,0.05652226089042234,-0.21893465464036083,-1.6205507512768027,-0.9024046680723484,-0.004680187207476338,-0.0001200048001954588,-0.0001200048001954588,0.002280091203647101,0.0,-0.000480019200768512,13.407472576354426,24.98599883993003,-11.880950457028064,0.14401152069217626,0.05760460827575274,-0.10080806448516569,0.11520921655310633,0.10080806448356674,-0.24481958517574715,-0.1735549999999999,-0.030059000000000002,-0.9153189999999999,0.07023800000000002,0.020489000000000035,-0.9114689999999999,0.24379299999999993,0.05054800000000004,0.00385000000000002,0.992194561262035,0.9576165470940956,double,-0.9114689999999999
41,0.341667,stair_decsent,0.16582673386129027,-0.02291816654667585,0.03191744660428356,0.027151799715753627,-0.3369670767647262,-0.2572009218855104,-0.00683945284376934,0.0007199424046083507,0.0005999520038436226,0.0010799136069025348,0.0007199424046083507,-0.0007199424046150115,8.0756890933113,17.20764177099194,-2.952341527014489,-0.25909114906323494,0.10078560172831878,0.0863879054522535,-0.14400979082608173,0.0863861776587893,-0.028788481383069272,-0.17499399999999987,-0.029862,-0.91558,0.06886499999999995,0.020686000000000038,-0.911741,0.24385899999999983,0.05054800000000004,0.003838999999999926,0.988494400557046,0.959136334517873,double,-0.911741
42,0.35,stair_decsent,0.14160566422656448,-0.06408256330252973,0.056282251290058066,0.8452239475018486,-0.198684896313387,-0.16826414836318435,-0.0061202448097951966,0.002280091203647101,-0.0013200528021234004,0.0008400336013548883,0.002040081603262845,0.0001200048001954588,-2.9066446219519793,-4.939925207710787,2.923893518033669,0.086308416413554,0.18722534489844644,-0.23040979310776766,-0.02878675213580308,0.15842304076017014,0.10079769648511609,-0.17622499999999985,-0.02930900000000003,-0.9160600000000001,0.06769200000000009,0.021237000000000006,-0.912209,0.24391699999999994,0.050546000000000035,0.003851000000000049,0.9888946019345486,0.9578074621705768,double,-0.912209
43,0.358333,stair_decsent,0.11256450258011538,-0.020400816032641638,-0.002160086403464951,0.1395956688996352,-0.11180514407393992,0.08606443375067784,-0.005760230409222106,0.0032401296051841034,-0.002160086403451628,0.0013200528021100684,0.0002400096003842544,0.0019200768030740352,-3.485078800725906,5.242019353160676,-7.013361057665039,0.043203456207019,0.11520921655310191,-0.10080806448196615,0.05760460827495237,-0.21601728103667145,0.21601728103666973,-0.177211,-0.029112000000000027,-0.91606,0.06676499999999996,0.02140900000000001,-0.912175,0.24397599999999997,0.05052100000000004,0.0038850000000000273,0.9884116117149664,0.9572459995807936,double,-0.912175
44,0.366667,stair_decsent,0.16138708903286877,0.09095272378209505,-0.028197744180463762,-0.5410499777095915,-0.268035749310916,-0.045353901508922934,-0.005039596832265116,0.002279817614596441,-0.00011999040077138885,-0.00011999040075806724,0.0007199424046083507,0.0007199424046016899,5.858241714993202,13.361355869298846,-3.1242689917205166,0.08646911170590225,-0.11522822061287034,0.24479193696667112,-0.1727913610352933,0.05758732952052986,-0.14400460744808544,-0.17859800000000003,-0.02985099999999996,-0.915826,0.06541900000000012,0.020657000000000036,-0.911934,0.24401700000000015,0.050508,0.0038920000000000066,0.9907790241713257,0.959371335944069,double,-0.911934
45,0.375,stair_decsent,0.08412336493460512,0.03396135845434225,-0.002400096003829237,-0.09890033570992993,0.1243556071570938,0.23385773294662607,-0.004200168006721149,0.00408016320652569,-0.001320052802110077,-0.0006000240009639708,0.0009600384015303623,-0.0007200288011461063,-9.272017772502561,-6.8392374088267065,3.095841614860745,0.1007354884848157,0.2160501130360319,-0.14401324869059057,-0.05760633627815969,0.028812672137526963,-0.1728034568280091,-0.1793340000000001,-0.030100000000000016,-0.9158170000000001,0.06471300000000002,0.020381999999999956,-0.9119200000000001,0.24404700000000012,0.05048199999999997,0.0038970000000000393,0.9899956006237077,0.958793842576212,double,-0.9119200000000001
46,0.383333,stair_decsent,0.0782431297251742,0.09768390735629226,-0.00852034081365108,0.17666017906966533,0.7625550290039277,-0.2114067506718429,-0.002880115204611072,0.002160086403458304,0.0,-0.0008400336013548883,0.0010800432017324826,0.0007200288011461063,-0.7056564513897687,7.647011748703967,-0.7344587555288442,0.15841267276012,-0.23041843310541113,0.15841267276012005,-0.02880230413907574,0.014401152070337288,0.17281382482805907,-0.18001,-0.03089599999999998,-0.915746,0.06405400000000006,0.01957700000000001,-0.911843,0.24406400000000006,0.05047299999999999,0.00390299999999999,0.9939997599903936,0.9583930771777318,double,-0.911843
47,0.391667,stair_decsent,0.07211423086153985,0.11459083273337925,-0.0032397408207342476,1.2544944843306884,0.3752489149470776,-0.16353569388569575,-0.00371970242379316,0.002639788816890625,0.0005999520038436226,0.0,0.0002399808015361169,-0.0007199424046016899,-0.7354090309136468,2.028668751750297,0.6336213094452636,-0.10074240690929771,0.05755968483709152,0.07198848138272403,0.10079596848510769,-0.10079942406963822,-0.17278272207196965,-0.18064199999999997,-0.031828999999999996,-0.9157139999999999,0.06345299999999998,0.01862400000000003,-0.9118219999999999,0.24409499999999995,0.050453000000000026,0.0038920000000000066,0.9923324975951404,0.9598151901207321,double,-0.9118219999999999
48,0.4,stair_decsent,0.058442337693522646,-0.0186007440297564,0.046321852874114465,1.3247299468738554,0.09435421231137525,0.0435584152805681,-0.001440057602292203,0.002280091203647086,0.0002400096003775928,0.0008400336013548828,0.0001200048001887964,-0.0012000480019279335,-1.6406928078743732,-15.983628556718479,5.947629148547763,0.27356832131296616,-0.0431654402068328,-0.04319481620857174,0.10080806448516492,-0.014397696069521182,-0.057614976278200114,-0.181141,-0.031655000000000044,-0.916098,0.06297299999999995,0.018779999999999963,-0.912218,0.24411399999999994,0.05043500000000001,0.0038799999999999946,0.995487613835495,0.9587504122736872,double,-0.912218
49,0.408333,stair_decsent,0.043801752070076756,0.027361094443771876,-0.01716068642745765,0.12940673485783272,0.22906123290754574,0.2348903396435301,-0.002400096003855883,0.001680067202689792,-0.000480019200768512,-0.0007200288011461063,0.000480019200768512,-0.0019200768030607246,-1.7569405524356085,5.515641242473106,-7.618209444566456,-0.11520921655630413,-0.07200576034528926,-0.08640691241402935,-0.18721497689919514,0.04320345620781429,-0.08640691241243165,-0.18152600000000008,-0.03186899999999998,-0.915959,0.06260200000000005,0.018556000000000017,-0.9120909999999999,0.24412800000000012,0.050425,0.0038680000000000936,0.9950520753322492,0.9578098738400163,double,-0.9120909999999999
50,0.416667,stair_decsent,0.04631629469642393,0.0673146148308175,-0.005039596832238472,0.14323522385932533,0.17538349520293536,0.03540067520789974,-0.0002399808015427777,0.0021598272138250523,0.0011999040076872453,-0.0026397888169172683,0.0002399808015361169,0.0008399328053730787,0.30172097748346227,4.7940389233316045,1.454414398274438,0.25919308883046593,0.0575665960085505,0.2015746590419673,-0.23035277367064558,-0.028802303723589495,0.3311746590393329,-0.18191400000000013,-0.032411999999999996,-0.915907,0.06219399999999986,0.017996999999999985,-0.912042,0.244108,0.05040899999999998,0.0038650000000000073,0.9958626988109691,0.9567157186519706,double,-0.912042
51,0.425,stair_decsent,0.04164166566661179,-0.14304572182887668,-0.08928357134286329,0.24800289201871464,0.9399895740242787,-0.6934365455752037,-0.07332293291730693,-0.002160086403458304,0.03168126725068182,-0.00012000480018213558,0.001320052802110077,-0.001320052802110077,-0.5609779226943666,-25.24425016917013,-10.109681328528145,-8.770305066094364,-0.5184103704888235,3.6579099055555804,0.3023861774553149,0.1296138246218604,-0.2592086412436291,-0.18287199999999992,-0.031237999999999988,-0.914899,0.06184600000000007,0.019199999999999995,-0.9113089999999999,0.244718,0.05043799999999998,0.003590000000000093,0.8668269592735804,0.9609821838337342,double,-0.9113089999999999
52,0.433333,stair_decsent,0.023400936037461472,-0.028561142445692963,-0.037201488059526125,-0.11284682536631065,0.4202584532296921,0.257560797196765,-0.009960398415943227,0.002400096003842544,-0.002640105604220137,-0.0013200528021100684,-0.0001200048001887964,0.0004800192007685088,-2.188975114502609,13.738699073944945,6.250099998000353,7.603808292495312,0.5472437786272445,-4.118729491767889,-0.14401152069217904,-0.17281382482885727,0.21601728103667087,-0.18315000000000015,-0.030980000000000008,-0.914611,0.06163999999999992,0.019436999999999982,-0.9109949999999999,0.24479000000000006,0.05041699999999999,0.0036160000000000636,0.9823663709040699,0.9614904379926282,double,-0.9109949999999999
53,0.441667,stair_decsent,0.024718022558186902,0.1672666186705014,0.10679145668347281,-0.7309129966469705,0.03678097881506271,-0.027893185332101438,-0.010679145668347281,0.0010799136069092029,-0.00035997120230084735,-0.002039836813047016,0.00035997120230084735,0.001559875209974779,0.15803773946789507,23.49745153782043,17.277771147468176,-0.08624277086681771,-0.15840921489481025,0.27359424069106103,-0.08636717193867913,0.05759251289772576,0.12957235531632785,-0.18344500000000008,-0.03236499999999998,-0.915504,0.061417000000000055,0.018046000000000006,-0.911872,0.24486200000000014,0.050410999999999984,0.0036319999999999686,0.9821005939832681,0.9593583091782907,double,-0.911872
54,0.45,stair_decsent,0.026521060842436793,0.014520580823237398,-0.017880715228603638,0.12849770167230834,0.14606063503703015,0.12485108054741188,-0.013320532821309464,0.0038401536061414086,-0.002280091203647086,0.0003600144005730508,0.001200048001921272,-0.0009600384015370176,0.2163732490399476,-18.330257751981684,-14.961259079812304,-0.31697913752096146,0.33124204958984693,-0.23042361710623194,0.2879936653810221,0.10081324848438991,-0.30240172945059235,-0.18377700000000008,-0.03245400000000004,-0.915374,0.061199,0.01793499999999998,-0.9117310000000001,0.24497600000000008,0.05038900000000002,0.003642999999999952,0.9765845379752744,0.9609393054846254,double,-0.9117310000000001
55,0.458333,stair_decsent,0.022440897635897957,0.008760350414015352,-0.00960038401537024,0.09621293478943937,0.09426622750359814,0.07411379995442582,-0.011160446417844588,0.003360134405379584,-0.003000120004806531,-0.0006000240009639708,0.001560062402494333,-0.0001200048001954588,-0.4896391703514756,-0.6912552993186201,0.9936794927677209,0.2592207372452756,-0.057604608275750126,-0.08640691241563023,-0.115209216553105,0.043203456207015725,0.10080806448356665,-0.18405699999999992,-0.032499,-0.915319,0.06100700000000003,0.017874999999999974,-0.911652,0.24506399999999995,0.050373999999999974,0.003666999999999976,0.9799412815082653,0.9605370402728574,double,-0.911652
56,0.466667,stair_decsent,0.022198224142080822,-0.0021598272138250523,-0.017758579313659328,0.14706003485639121,0.023950169942249626,0.11104246241313646,-0.010559155267589144,0.00311975041996952,-0.0011999040076739237,-0.0010799136069025348,0.0021598272138250523,0.0004799616030722338,-0.029118489778873897,-1.3103164900216455,-0.9789051233848188,0.0721491660973654,-0.028843770747547865,0.21600863896479547,-0.057582146140936354,0.07196602007807999,0.07199020917538901,-0.1843300000000001,-0.032454999999999956,-0.9151809999999999,0.060813000000000006,0.01791100000000001,-0.9115,0.2451430000000001,0.050365999999999966,0.0036809999999999343,0.9815407075286375,0.9590866713605584,double,-0.9115
57,0.475,stair_decsent,0.0236409456378259,0.018000720028805876,0.0,0.033061230273351436,0.022031027391736496,0.13723515856467589,-0.007920316812660463,0.003360134405372922,-0.002640105604220154,-0.000960038401537024,0.001680067202689792,-0.00036001440057305316,0.17313350482960296,2.4193624436134615,2.131114762229614,0.3166732815227034,0.028847232137693864,-0.1728311048297413,0.014385600067864048,-0.05757350427640244,-0.10080115248353402,-0.184593,-0.03257700000000002,-0.9152029999999999,0.060607999999999995,0.017774999999999985,-0.911503,0.245201,0.05035200000000001,0.0036999999999999256,0.9850007334219564,0.9597196248916228,double,-0.911503
58,0.483333,stair_decsent,0.02700108004319198,0.014880595223803788,-0.010320412816516277,0.08407005988483586,0.07310728127715553,0.19186003184839343,-0.006960278411150039,0.0036001440057571543,-0.0010800432017324755,-0.002160086403464951,0.0019200768030740352,-0.0007200288011461016,0.4032322579342455,-0.3744299537984009,-1.238499077945066,0.11520921654991247,0.02880230413827327,0.18721497689759656,-0.14401152069217832,0.028802304138274594,-0.04320345620701391,-0.18487600000000004,-0.032671000000000006,-0.9151259999999999,0.060365,0.017667000000000044,-0.9114229999999999,0.24524100000000004,0.05033800000000005,0.003703000000000012,0.9868161498478337,0.9580059319788724,double,-0.9114229999999999
59,0.491667,stair_decsent,0.024118070554343115,0.008639308855293548,0.0007199424046283331,0.05360899791594183,-0.02060995098389024,0.1926912119459214,-0.004799616030722338,0.002279817614596441,-0.0011999040076872453,-0.0013198944084453126,0.0010799136069091957,0.0011999040076739237,-0.3459334639847449,-0.7488944526650149,1.3247366476055435,0.2592587449517277,-0.15842649281985985,-0.01438214614288093,0.10081497420442016,-0.10081151861829117,0.2303735071778286,-0.18511699999999998,-0.032723999999999975,-0.9151420000000001,0.06015300000000012,0.01760400000000001,-0.9114190000000001,0.2452700000000001,0.050327999999999984,0.003723000000000032,0.9909210787434337,0.9592946485887253,double,-0.9114190000000001
60,0.5,stair_decsent,0.02508100324014476,0.00768030721228953,0.0014400576022922126,0.08507254694299478,-0.01948480249635764,0.21158417950619943,-0.0016800672026831304,0.0014400576022988744,-0.00024000960037759439,-0.0020400816032561833,0.001080043201725821,0.0006000240009639708,0.11555654455797992,-0.11508480055250457,0.08641728041088219,0.37436083379805785,-0.10077523248500764,0.11519193655462057,-0.08642592041412127,1.555200007505056e-05,-0.0719884803444083,-0.18534000000000006,-0.03277600000000003,-0.915156,0.059927000000000064,0.01754899999999998,-0.911426,0.24526700000000012,0.05032500000000001,0.003730000000000011,0.9962904042179834,0.9587249196139255,double,-0.911426
61,0.508333,stair_decsent,0.002400096003829221,0.14472578903155883,0.004800192007685088,-1.2718964682055978,0.47781040716105755,0.34323400896456263,0.000480019200781832,0.0016800672026897807,-0.0006000240009639668,-0.0013200528021367149,0.002280091203647086,0.0008400336013415596,-2.7218177410674955,16.446115662938766,0.40323225793746087,0.2592207372452842,0.028802304139074194,-0.04320345620861285,0.08640691241083229,0.14401152069137882,0.028802304137476035,-0.18535599999999985,-0.033968,-0.915201,0.05989599999999995,0.016361999999999988,-0.911459,0.2452519999999998,0.050329999999999986,0.003742000000000023,0.9969209159729602,0.9579711281963896,double,-0.911459
62,0.516667,stair_decsent,0.017878569714417515,0.006599472042239928,0.0014398848092033894,0.05320305550899918,0.0162365846791838,0.22102390427044413,0.0014398848092033894,0.0031197504199695406,0.0008399328053730844,0.000959923206144474,0.0031197504199695406,-0.0037197024238065065,1.857268263809501,-16.573832132147793,-0.40320460744921016,0.1151746590378645,0.17274816622027456,0.17278099428090463,0.2735752349749462,0.10075104587502513,-0.5471245530535267,-0.1854929999999999,-0.033997,-0.915206,0.059755,0.016332999999999986,-0.9115019999999999,0.2452479999999999,0.050329999999999986,0.0037040000000000406,0.9941047104339762,0.954712023587188,double,-0.9115019999999999
63,0.525,stair_decsent,0.0170406816272754,0.015120604824188042,-0.016560662426493566,-0.05354353628068639,0.12612447925555556,0.2989637428554918,0.00204008160325617,-0.000120004800195458,-0.0003600144005730508,-0.002280091203647086,0.0004800192007685088,0.0004800192007685088,-0.1005505924807526,1.0225768369072459,-2.1601520743666005,0.0720264963461872,-0.3887861778669129,-0.14399942469052324,-0.3888172818662602,-0.3167804175208233,0.5039867544191765,-0.18561800000000006,-0.03412399999999999,-0.915071,0.059593999999999925,0.01621100000000003,-0.91136,0.24521199999999999,0.05033500000000002,0.00371100000000002,0.9965415383683902,0.9589249958795165,double,-0.91136
64,0.533333,stair_decsent,0.013680547221882697,-0.0469218768750724,-0.025561022440900118,-0.5605339680974621,-0.5727730833166875,0.6094394435874348,0.0009600384015370304,0.002880115204611091,0.00108004320173249,0.0,0.001680067202689803,-0.0008400336013415707,-0.4032322579374455,-7.44539561973611,-1.0800864051850034,-0.12961036862104275,0.3600288017288583,0.17281382482965965,0.27362188931322534,0.1440115206913843,-0.1584126727601214,-0.185724,-0.03370899999999999,-0.9148489999999999,0.05947999999999998,0.01661600000000002,-0.9111539999999999,0.24520399999999998,0.05032500000000001,0.003695000000000004,0.9946294965470156,0.9599193796066838,double,-0.9111539999999999
65,0.541667,stair_decsent,0.01223902087833522,0.0019198464122889224,-0.0023998080153478313,0.03789826216173637,-0.07596365923758681,0.3861128651936715,0.0016798656107727896,0.00035997120230084253,0.0011999040076739157,0.0021598272138316985,0.0007199424046083459,-0.0028797696184333834,-0.17296932367980156,5.860537951447197,2.7791234011941577,0.08637235531986485,-0.3023930888301211,0.014382146141279665,0.2591585329771637,-0.11520575930902927,-0.24474874215164352,-0.18581199999999987,-0.03372200000000003,-0.914819,0.059396000000000004,0.01660600000000001,-0.911158,0.24520799999999987,0.05032800000000004,0.0036610000000000253,0.9965074295662972,0.9572716660503917,double,-0.911158
66,0.55,stair_decsent,0.012000480019199396,0.004680187207482968,0.0006000240009639668,0.0025683206613289,-0.06567888695032117,0.4280171843406931,0.0006000240009373203,0.0010800432017324755,-0.0013200528021100684,-0.0012000480019279335,0.0007200288011461016,0.0003600144005730508,-0.028626048138224273,0.33125414558910765,0.3599942417270834,-0.12958617662732086,0.08641209641565223,-0.3024069134506148,-0.40320115393731165,1.0367999250654097e-05,0.38878963386612514,-0.18590700000000004,-0.03375199999999995,-0.9148350000000001,0.05928599999999995,0.016573000000000004,-0.9111600000000001,0.245193,0.05032499999999995,0.003674999999999984,0.9969865756283719,0.9608415847476269,double,-0.9111600000000001
67,0.558333,stair_decsent,0.00852034081362449,0.004200168006721177,0.00756030241208746,-0.023851412842485292,-0.12714338982400958,0.4274109633309588,-0.00024000960036427277,-0.0007200288011527728,0.0001200048001954596,0.000840033601354894,0.0006000240009639748,-0.0010800432017191667,-0.4176334100053928,-0.057604608275746455,0.8352668200076271,-0.10080806447877123,-0.21601728103747325,0.17281382482965812,0.24481958517734861,-0.014401152067938062,-0.1728138248280608,-0.1859799999999998,-0.03379299999999996,-0.914897,0.05922200000000011,0.01654300000000003,-0.9112319999999999,0.24520199999999992,0.05033599999999999,0.0036650000000000293,0.9987193239254787,0.960859920477219,double,-0.9112319999999999
68,0.566667,stair_decsent,0.007319414446854847,0.00407967362611396,0.005279577633781215,-0.03950992085963427,-0.14197332764775994,0.4453389577380319,-0.00155987520998808,0.00035997120230084253,-0.0004799616030722306,-0.0033597312214922927,-0.0003599712023075034,0.0014398848092166917,-0.14409963604147275,-0.014458169019344413,-0.27366508019033214,-0.15837120345857897,0.12958963324377334,-0.07199020917538825,-0.5039314642245206,-0.11519020917584243,0.3023671719385456,-0.18605399999999994,-0.03382400000000002,-0.9149449999999999,0.0591330000000001,0.016505999999999965,-0.9112639999999999,0.24518700000000004,0.050329999999999986,0.0036810000000000453,0.997214545180942,0.9570683985821211,double,-0.9112639999999999
69,0.575,stair_decsent,0.008640345613833273,0.02208088323532505,0.018360734429385715,0.02650032867045943,-0.1680273437246097,0.46233230978104867,-0.0018000720028919243,-0.0004800192007685152,-0.0001200048001954596,0.00048001920075519197,0.0019200768030740608,-0.0016800672026964648,0.15851808076064297,2.160231562367845,1.5698016075368557,-0.02882476813918716,-0.10080288048354319,0.0431965442069812,0.4607884822089907,0.27361670531400273,-0.37440921779829417,-0.1861410000000001,-0.03401199999999999,-0.915099,0.05906499999999992,0.01633800000000002,-0.911431,0.24520600000000004,0.050350000000000006,0.0036680000000000046,0.9968886057069879,0.9589931653960515,double,-0.911431
70,0.583333,stair_decsent,0.0036001440057571543,-0.024600984039356098,-0.006000240009586375,0.07485564165766044,-0.11819428591538045,0.4622419765013359,-0.0032401296051841034,0.0009600384015370176,-0.0004800192007685088,-0.0027601104044022713,-0.0001200048001887964,0.0004800192007685088,-0.6048483869046078,-5.6020481548879095,-2.9234338700314395,-0.17281382482805388,0.1728138248296564,-0.043203456207014004,-0.38883110586312847,-0.24481958517494884,0.25922073724528555,-0.18619800000000009,-0.03379900000000002,-0.9150530000000001,0.059012000000000064,0.016542,-0.9113770000000001,0.24521000000000015,0.050341000000000025,0.0036760000000000126,0.9943111873861639,0.9585664844811829,double,-0.9113770000000001
71,0.591667,stair_decsent,0.0032397408207342263,-0.024238060955127663,-0.005519558435323991,0.08885006960372056,-0.0760628360535302,0.44802118690149867,-0.0026397888168906074,0.0013198944084453037,0.00011999040077138805,-0.0005999520038436186,0.0019198464122822615,0.0005999520038436186,-0.04324492260894231,0.04354728632450583,0.057677174737506574,0.0720351317846762,0.043179266487674985,0.0719953925533828,0.2591982722052599,0.24476256449136574,0.014390785106204574,-0.18624700000000005,-0.033586000000000005,-0.9150060000000001,0.05898000000000003,0.016759999999999997,-0.9113260000000001,0.24522700000000008,0.050346,0.0036800000000000166,0.9950769803915396,0.959701708726398,double,-0.9113260000000001
72,0.6,stair_decsent,0.0025201008040380353,-0.015840633625341015,-0.003960158406356904,0.062364322720783905,-0.04801133558672292,0.42285866171292114,-0.002760110404402308,0.003000120004799889,-0.002400096003842576,0.0021600864034383334,0.0019200768030740608,-0.0025201008040380353,-0.08636025641380025,1.0077315888379605,0.187135488895608,-0.014439168068126954,0.20163513696803081,-0.30242246545229656,0.33121785758814076,2.764800093594726e-05,-0.3744213137983538,-0.18629099999999998,-0.03342900000000004,-0.914993,0.058976999999999835,0.01690799999999998,-0.911314,0.24526799999999982,0.05033700000000002,0.003678999999999988,0.9921155232831722,0.9568191262415903,double,-0.911314
73,0.608333,stair_decsent,0.0016800672026831191,0.00504020160806268,0.010200408016334142,-0.00781279121733774,-0.09799173147461926,0.41112278644565026,-0.002400096003855867,0.0009600384015370176,-0.0009600384015370176,-0.0027601104044022713,0.0016800672026897807,-0.0009600384015370176,-0.10080806448516892,2.505800460026834,1.6993359441606848,0.04320345620382091,-0.24481958517495056,0.17281382482965948,-0.5904472348302634,-0.028802304138279018,0.18721497689919733,-0.18632500000000007,-0.03346300000000002,-0.9150860000000001,0.05893999999999999,0.016880000000000006,-0.9114070000000001,0.24526500000000007,0.05034300000000003,0.003678999999999988,0.9954041660493876,0.9575919465158027,double,-0.9114070000000001
74,0.616667,stair_decsent,0.002159827213805084,0.018478521718261143,-0.004199664026878744,0.11492474566919858,0.08100904211362103,0.3830139684840503,-0.0025197984161325748,0.001919846412288948,-0.0011999040076739317,-0.0016798656107461687,0.0013198944084453212,0.000479961603072237,0.057566596006955545,1.612469415670571,-1.7278704155523117,-0.014363140421971253,0.11516774787040267,-0.028781570210812995,0.1296190057182756,-0.043217277927101214,0.17278617765889884,-0.18636399999999997,-0.03360099999999999,-0.915061,0.05890800000000018,0.016737000000000002,-0.9113680000000001,0.24527200000000016,0.050337999999999994,0.0036929999999999463,0.9943542139774787,0.9594206344310754,double,-0.9113680000000001
75,0.625,stair_decsent,-0.05424216968677487,0.21060842433697338,0.13440537621504922,-0.4145288282742091,0.8623776314679008,-0.4449114045641447,-0.0027601104044022713,0.0013200528021100684,-0.0009600384015370176,0.0008400336013282363,0.0034801392055683576,-0.002280091203647086,-6.768510368484305,23.05651057466836,16.63327015983768,-0.028838592136048908,-0.07197811234595909,0.02878502413739507,0.30240000144898527,0.25923974524457305,-0.33121958558974096,-0.18593499999999996,-0.035345000000000015,-0.916189,0.05936699999999995,0.015010999999999997,-0.9125070000000001,0.2453019999999999,0.05035600000000001,0.003681999999999963,0.9946556305388874,0.9561058213593298,double,-0.9125070000000001
76,0.633333,stair_decsent,-0.018960758430349434,0.0001200048001887964,0.0015600624025009842,-0.043517690747281096,0.07873832096927835,0.18525477597124698,-0.0030001200047931873,0.0018000720028785772,-0.0016800672026831191,-0.0010800432017191524,0.0016800672026897807,0.000120004800195458,4.233938708319367,-25.259620729243217,-15.942075340519343,-0.028802304139075367,0.05760460827655187,-0.08640691241402838,-0.2304184331030098,-0.21601728103666978,0.28802304138275936,-0.1858019999999998,-0.035331,-0.916216,0.059516000000000124,0.015024000000000037,-0.9125190000000001,0.24531799999999993,0.05035500000000004,0.0036969999999999503,0.9935313566027595,0.9596952002079076,double,-0.9125190000000001
77,0.641667,stair_decsent,-0.019558435325163683,-0.017878569714417515,0.00011999040075806804,-0.046984180179430624,0.022530254249439368,0.09817558016993938,-0.0034797216222770488,0.0002399808015361185,-0.0020398368130603375,-0.00035997120230084735,0.0013198944084453212,-0.001439884809216711,-0.07171549013849919,-2.159656169259229,-0.17279481662382104,-0.05754759029084043,-0.18719596848361741,-0.04316889973328779,0.08640172779197373,-0.043217277927101214,-0.18717177938711038,-0.18566799999999994,-0.035180000000000045,-0.916234,0.05967600000000006,0.015183999999999975,-0.912532,0.245344,0.05036400000000002,0.003701999999999983,0.9932655554593558,0.9596696757544918,double,-0.912532
78,0.65,stair_decsent,-0.037201488059526125,0.04164166566662483,0.06984279371175807,-0.5949541793328706,0.31708132595803495,-0.07587671494288792,-0.004560182407294172,0.002520100804038002,-0.0012000480019146104,-0.0014400576023188495,0.0034801392055683576,-0.0016800672026831191,-2.1172510181642106,7.142713954283224,8.367071080163171,-0.12966048062127908,0.2736253453140374,0.10077868848502623,-0.12961555262426472,0.25923974524457305,-0.02882304013757436,-0.1853959999999999,-0.03550599999999998,-0.916826,0.05997399999999997,0.01486599999999999,-0.913128,0.24536999999999987,0.05037199999999997,0.003697999999999979,0.9910889757950541,0.9561465889525771,double,-0.913128
79,0.658333,stair_decsent,-0.03360134405374277,-0.10596423856954647,-0.29161166446659986,2.011443135699288,-0.8958429341664658,0.2848635156572629,-0.0019200768030740608,0.0006000240009573131,-0.010560422416907333,-0.01512060482417492,-0.03264130565222572,0.0710428417136603,0.4320345620764893,-17.71341704502252,-43.37627003220464,0.316825345520237,-0.23041843310700905,-1.1232898613935927,-1.6417313358761787,-4.334746772806241,8.727098153887447,-0.18513200000000007,-0.03461799999999998,-0.914484,0.06012799999999996,0.015477000000000019,-0.910106,0.24526000000000003,0.050095,0.004377999999999993,0.982082810445231,0.823500863771113,double,-0.910106
80,0.666667,stair_decsent,-0.007559395248397623,-0.1250299976001895,-0.11687065034797492,0.9209047814418161,1.0093519049614303,0.9063420256589061,-0.0032397408207342263,0.0013198944084453037,0.0007199424046150068,-0.0028797696184333834,0.0,-0.0004799616030722306,3.1247838739314795,-2.2877080670317853,20.96724431468966,-0.15834701435807003,0.08637753869546257,1.353535495743011,1.4687827220712075,3.9166433467993125,-8.582049834021117,-0.18509599999999993,-0.03356500000000001,-0.9135039999999999,0.06016700000000008,0.016519000000000006,-0.9091359999999999,0.245263,0.05008400000000002,0.0043679999999999275,0.9940473257874811,0.951454179241418,double,-0.9091359999999999
81,0.675,stair_decsent,-0.07632305292209964,0.0847233889355552,-0.004920196807867223,0.20058168063568044,0.6150500257321336,-0.2088879930114871,-0.0009600384015370176,0.001200048001921272,-0.0037201488059526123,-0.00900036001440621,-0.0004800192007685088,0.0032401296051841034,-8.251968999604191,25.171413240818893,13.434591808485207,0.27357523331299644,-0.014382144068646492,-0.5328322585584544,-0.7345002275258371,-0.05760460827655187,0.4464288021428439,-0.18446800000000008,-0.034260999999999986,-0.9134939999999999,0.06072799999999989,0.015809000000000017,-0.909068,0.24519599999999997,0.05007,0.00442599999999993,0.9932915277286083,0.939776905524825,double,-0.909068
82,0.683333,stair_decsent,-0.15708628345134004,-0.03252130085203026,0.07920316812673839,-0.7991484400401601,0.25150925413027087,-0.12778429364558477,-0.0022800912036471162,-0.0002400096003842576,-0.0004800192007685152,-0.008280331213260217,-0.0015600624024943435,0.0043201728069166365,-9.691975342522639,-14.069925571533245,10.095207600456783,-0.15841267276012372,-0.1728138248296583,0.3888311058663299,0.08640691241401646,-0.12961036862184622,0.12961036862265007,-0.18317800000000006,-0.03399200000000002,-0.914158,0.0619679999999998,0.016066999999999998,-0.9096920000000001,0.24514599999999986,0.05005900000000002,0.00446599999999997,0.9960959995807961,0.9395583674990173,double,-0.9096920000000001
83,0.691667,stair_decsent,0.1442284617230521,0.13630909527237361,0.008399328053757375,0.09852912618981269,-0.12057453531552074,1.1064923820890238,0.0008399328053597516,0.000839932805379734,-0.003359731221505614,-0.005159587232996505,-0.0002399808015361153,0.0027597792176619956,36.154877030764325,20.258026892776886,-8.495781146265957,0.3743729312463216,0.12958272207391208,-0.3455377994644921,0.37445932088597167,0.15839712034535855,-0.18723225213038505,-0.18437300000000012,-0.03512099999999996,-0.9142560000000001,0.06072300000000008,0.014929000000000026,-0.9097390000000001,0.2450960000000002,0.05004999999999998,0.004516999999999993,0.9940607781757782,0.9450696333558386,double,-0.9097390000000001
84,0.7,stair_decsent,-0.03324132965319636,0.01764070562822628,0.001560062402501005,0.9369862663010717,0.6835758548476019,0.07739721292388385,-0.0012000480019013031,-0.0002400096003842576,-0.0008400336013415707,-0.00432017280692996,0.0008400336013415707,0.002880115204611091,-21.297226854224178,-14.240776388353344,-0.8207447079390895,-0.24480748917089565,-0.12959827262258508,0.30237580945206605,0.10073376047840546,0.12960691262182839,0.014440896069734373,-0.18410599999999988,-0.03526999999999997,-0.9142760000000001,0.06096400000000002,0.014788999999999997,-0.9097280000000001,0.2450699999999999,0.050058999999999965,0.0045479999999999965,0.9975260376661637,0.9457538065519114,double,-0.9097280000000001
85,0.708333,stair_decsent,-0.057122284891385926,-0.11748469938797594,-0.031441257650330665,-0.1695123990568575,0.36439510699926336,0.1320656110702593,-0.0009600384015370176,-0.0010800432017324755,-0.0004800192007685088,-0.0016800672026831191,0.0019200768030740352,-0.0014400576023055264,-2.8658292617532064,-16.215697229833392,-3.960316819012544,0.02880230413587958,-0.10080806448436509,0.04320345620701553,0.31682534552344055,0.1296103686226401,-0.5184414744889715,-0.18363799999999997,-0.0343,-0.9140179999999999,0.06142599999999998,0.01578400000000002,-0.9094779999999999,0.24506399999999995,0.05008400000000002,0.0045399999999999885,0.9974621829792227,0.9497171824410058,double,-0.9094779999999999
86,0.716667,stair_decsent,0.029877609791209722,-0.040196784257256014,-0.07139428845691104,0.3954686454600486,-0.16414289101123908,0.9815350284796138,0.0019198464122889224,-0.0014398848092166917,-0.0020398368130603107,0.003959683225335912,0.003119750419962838,0.0011999040076739157,10.439152229733018,9.273807911053435,-4.793980178375338,0.34555853297647204,-0.043177538695010016,-0.1871631404237809,0.6767159140891513,0.14394931808120875,0.31677005159340316,-0.1838709999999999,-0.033977000000000035,-0.91344,0.06120999999999999,0.016144999999999965,-0.908873,0.24508099999999988,0.050122,0.004566999999999988,0.9947506580479847,0.9456935617623969,double,-0.908873
87,0.725,stair_decsent,0.007800312012478379,0.054722188887557435,0.0014400576022922224,0.3049043670479735,-0.0013233637625743348,0.3210951426781654,-0.0006000240009639748,-0.0008400336013415707,-0.002520100804024712,0.0006000240009639748,-0.001800072002878601,0.014040561622469076,-2.6493817087161338,11.390732406673987,8.740471145950309,-0.30239654545216854,0.07198502434598901,-0.05763398427509972,-0.40317523393399346,-0.5904023068332513,1.5409405513974894,-0.1839409999999999,-0.034440000000000026,-0.9134729999999999,0.06115000000000004,0.015673999999999966,-0.9087679999999999,0.24509099999999995,0.05011399999999999,0.004704999999999959,0.9954610961566934,0.9293363470111731,double,-0.9087679999999999
88,0.733333,stair_decsent,-0.031081243249730967,-0.0991239649586038,0.01320052802112733,-0.30670258285852475,0.09003242731765562,0.2989101124674167,0.0015600624025009842,-0.002880115204611053,0.0003600144005730508,0.005400216008649055,-0.0015600624024943227,0.012480499219967906,-4.665973270395917,-18.462276952617376,1.411312902776318,0.25922073724528377,-0.24481958517574387,0.3456276496577164,0.5760460827655178,0.02880230413827881,-0.18721497689921565,-0.18366899999999986,-0.033638,-0.91358,0.06145400000000012,0.01648700000000003,-0.908774,0.24512299999999998,0.05012500000000003,0.004805999999999977,0.9945079682316234,0.9291268100762251,double,-0.908774
89,0.741667,stair_decsent,-0.002039836813047016,-0.025797936165102765,-0.0064794816414685385,0.00999000559179589,-0.04675999167667106,0.4746099789172469,0.002159827213805084,-0.0029997600191981506,-0.0008399328053730844,0.0016798656107461687,-0.001919846412288948,0.013558915286780705,3.484689997202318,8.798419581653642,-2.361412246531795,0.07196602007488638,-0.014356229252111646,-0.1439821461418457,-0.4464063352415295,-0.04317062752515327,0.12939957605145247,-0.18363400000000007,-0.03344800000000003,-0.9135329999999999,0.06148500000000001,0.01668599999999998,-0.9086069999999999,0.2451190000000001,0.05013400000000001,0.004925999999999986,0.9936822778182203,0.9277453180984627,double,-0.9086069999999999
90,0.75,stair_decsent,0.0007200288011461016,-0.025081003240131267,-0.01008040321612536,-0.03268272592262498,0.00884614704974946,0.5097511193867609,-0.0019200768030740352,-0.0019200768030673734,0.0012000480019146104,0.004560182407294172,-0.0014400576023055264,0.008280331213246783,0.33119712158803627,0.08603539241227598,-0.4321278740737798,-0.4896080663481462,0.1295671686224376,0.24480748917408932,0.34565184165942525,0.0575769602764214,-0.6334554270411495,-0.18365600000000004,-0.03325499999999998,-0.913439,0.061517000000000044,0.01688299999999998,-0.908454,0.24517300000000009,0.05013799999999996,0.004985000000000017,0.9950520753322789,0.9342132400401162,double,-0.908454
91,0.758333,stair_decsent,0.007080283211332174,-0.01392055682227343,-0.011160446417844513,0.05598977668335331,0.04537651833426905,0.5352573512182972,-0.0003600144005730508,-0.0036001440057638156,0.000120004800195458,0.00732029281172309,-0.0003600144005730508,0.002400096003842544,0.763261059664712,1.3393071424286318,-0.12961036862104264,0.1872149768991933,-0.201616128968731,-0.12961036862104258,0.3312264975913724,0.12961036862264144,-0.7056564513865613,-0.18371800000000005,-0.033169000000000004,-0.9133450000000001,0.0615190000000001,0.01699600000000001,-0.9083410000000001,0.24523700000000015,0.050165000000000015,0.0050040000000000084,0.9939665174090914,0.9371064706483603,double,-0.9083410000000001
92,0.766667,stair_decsent,0.009959203263745588,-0.0010799136069092029,-0.012239020878335383,0.018775159847900083,0.07863643413416206,0.577128581584827,0.0015598752099881005,-0.0031197504199628797,0.0022798176145897952,0.00935925125990196,0.0015598752099814399,-0.00491960643149376,0.34544277086794223,1.5407539255296736,-0.12941858177236334,0.23036832380143535,0.057642618886601715,0.2591568051829073,0.24465544134615813,0.23036832380063613,-0.8782940287180641,-0.18378800000000006,-0.03318599999999999,-0.913224,0.06151400000000007,0.017017999999999978,-0.9082800000000001,0.24530200000000013,0.05020399999999997,0.0049439999999999484,0.9930550534540519,0.9327468243007319,double,-0.9082800000000001
93,0.775,stair_decsent,-0.053522140885628774,-0.08412336493459789,-0.025441017640717642,-0.3078405162032311,0.13980807682047597,0.3995360247176854,-0.004560182407294172,0.0006000240009573052,0.007200288011514309,-0.002760110404428918,0.033121324852993794,-0.04992199687987162,-7.618066020565715,-9.965612783833954,-1.5843029836052087,-0.7344362915255306,0.446390786141866,0.5904800668336125,-1.4543815749826985,3.787525458179794,-5.400502873920278,-0.1833800000000001,-0.03248000000000001,-0.912952,0.06193699999999991,0.017994999999999983,-0.908484,0.245317,0.05047499999999999,0.0044680000000000275,0.9857600483928846,0.8553638131821953,double,-0.908484
94,0.783333,stair_decsent,-0.0060002400096131015,-0.008880355214210869,-0.01260050402016353,0.00263342186721987,-0.0058165558336315945,0.4776676656242052,0.0002400096003909192,-0.0021600864034583183,-0.0014400576022922224,0.008400336013442354,0.0054002160086424646,-0.007200288011514404,5.702856219370708,9.02952234734042,1.5409232713973633,0.5760460827655268,-0.33122649758978145,-1.0368829489747522,1.3393071424302623,-3.3266661279673087,5.126810136608377,-0.18332799999999994,-0.03242400000000001,-0.9128589999999999,0.06205700000000003,0.01811400000000002,-0.9084389999999999,0.24538499999999996,0.05053800000000003,0.0044199999999999795,0.9956547139920864,0.9352808947071076,double,-0.9084389999999999
95,0.791667,stair_decsent,-0.006479481641468453,-0.0056395488360887185,-0.009599232061417969,-0.005341786040528564,-0.03196301447456191,0.48812411097384767,-0.0014398848092300135,-0.0034797216222703414,-0.001679865610759468,0.011639068874491601,0.007439404847612913,-0.012958963282936905,-0.057504395471004006,0.38886565612216534,0.3601238251434532,-0.20157120345823373,-0.15834355877273976,-0.02877465904334578,0.38861685397758844,0.2446830860295696,-0.690985753710398,-0.18328600000000006,-0.032406000000000046,-0.9127930000000001,0.06220800000000004,0.01822299999999999,-0.908467,0.2454940000000001,0.050629000000000035,0.004326000000000052,0.9931274136959141,0.9251722862669096,double,-0.908467
96,0.8,stair_decsent,-0.06048241929677881,0.048121924876993044,-0.06264250570024377,0.11155775066973125,-0.1573677177332581,0.27985302095042686,-0.0003600144005730508,-0.0051602064082514765,-0.0034801392055616963,0.017040681627248755,0.006840273610941258,-0.018720748829958517,-6.480611743106941,6.451634910966224,-6.365447454557252,0.12958963262413997,-0.20166624096737407,-0.2160414730351879,0.6482194591092201,-0.07189862434557218,-0.6914419233195234,-0.18278499999999998,-0.03284999999999999,-0.9122999999999999,0.06285399999999997,0.017878999999999978,-0.9081009999999999,0.24563899999999994,0.05072899999999997,0.004198999999999953,0.9896092042018927,0.9143051626708536,double,-0.9081009999999999
97,0.808333,stair_decsent,-0.03108124324973138,-0.012000480019199556,-0.016200648025920732,-0.04159561564755497,-0.006866160145527204,0.44819800535981374,0.0003600144005730556,-0.010320412816516415,0.0022800912036471162,0.01284051362055445,0.010320412816516415,-0.019080763230531823,3.5282822569360017,-7.214977186630643,5.573245850752845,0.08640691241403012,-0.6192495389733571,0.6912552993170366,-0.5040403224162179,0.41763341000542287,-0.04320345620704539,-0.182523,-0.03283600000000003,-0.9121459999999999,0.06322000000000005,0.018064999999999998,-0.908125,0.24574300000000004,0.05090100000000003,0.004020999999999941,0.9823743127030079,0.9177759403095371,double,-0.908125
98,0.816667,stair_decsent,-0.06647468202543066,0.05075593952483843,-0.04367650587953302,0.21336188575054507,-0.5904503961208932,-0.054246486081383896,0.0002399808015427761,-0.010679145668347139,0.0025197984161192196,0.00911927045835906,0.011999040076792443,-0.014998800095983894,-4.246872903251622,7.530167931849953,-3.2968391952978258,-0.01440287965326117,-0.04304449865979383,0.028762564491492858,-0.4465134583867724,0.20141915770050584,0.489796392434353,-0.181967,-0.033348000000000044,-0.9117609999999999,0.06384999999999996,0.01774199999999998,-0.9078859999999999,0.24581699999999995,0.051090000000000024,0.003875000000000073,0.9817082952127381,0.9258121804040875,double,-0.9078859999999999
99,0.825,stair_decsent,-0.029761190447621294,0.001800072002878601,-0.04812192487698036,0.0880811842527166,0.17279833902100813,0.47281101069563947,-0.061082443297743594,-0.0012000480019146262,-0.019920796831873394,0.0055202208088312625,0.007800312012478379,-0.00900036001440633,4.40579522114601,-5.874939100199241,-0.533471618558428,-7.3589852513244844,1.1375372214607702,-2.692979148925095,-0.4319032340727025,-0.503867522418589,0.7198416034534525,-0.18222800000000006,-0.033372999999999986,-0.9115260000000001,0.06414399999999998,0.017791999999999975,-0.90756,0.24637200000000004,0.05116499999999996,0.003966000000000025,0.8929000578269979,0.9384612821788441,double,-0.90756
100,0.833333,stair_decsent,-0.02832113284530205,-0.016200648025920517,-0.04416176647064952,0.1514576855299324,0.17761032146079087,0.5320186599531656,-0.019200768030713706,0.024360974438971842,-0.03060122404896246,0.004920196807893869,0.004800192007685088,-0.00588023520940424,0.1728138248313019,-2.1601728103683,0.47523801828043033,5.026002072126451,3.0674453907219923,-1.2817025341520485,-0.07200576034290065,-0.3600288017272625,0.3744299537984011,-0.1821520000000001,-0.03303500000000004,-0.9114130000000001,0.06442100000000006,0.01796700000000001,-0.9072410000000001,0.24657300000000015,0.05100200000000005,0.0041720000000000645,0.9273791910392621,0.9432035885074861,double,-0.9072410000000001
101,0.841667,stair_decsent,-0.04583633309336472,-0.02783777297816273,-0.029637628989693587,0.04138883167786434,-0.004593762725674198,0.3579808339168101,-0.011279097672190758,-0.016078713702899743,-0.0016798656107461464,0.0033597312214922927,0.0023998080153544922,-0.0035997120230350688,-2.1016558972957204,-1.3963432868061105,1.7427570771485266,0.9505244010706608,-4.852374387073588,3.4702853897547508,-0.18724089109689995,-0.2880230372366903,0.273640891093011,-0.18186400000000003,-0.032936999999999994,-0.91118,0.06483100000000008,0.018218999999999985,-0.9070239999999999,0.2466950000000001,0.05115599999999998,0.0041560000000000485,0.9671465786024582,0.9493105605867587,double,-0.9070239999999999
102,0.85,stair_decsent,-0.002640105604220172,0.037681507260288474,-0.05148205928237329,0.06725310146995389,0.1278771722963611,0.6088469920767446,-0.004200168006721177,-0.016920676827073506,-0.004200168006721177,0.0024000960038292525,-0.0003600144005730556,0.00012000480018213638,5.183754648883348,7.862628133739566,-2.6214364925812914,0.8495055400779605,-0.10103961648551187,-0.3024483854524246,-0.115160832552868,-0.3311919375888123,0.4463838741410343,-0.18187700000000007,-0.03339199999999998,-0.910786,0.06487299999999996,0.01790200000000003,-0.906594,0.24675000000000002,0.051294000000000006,0.0041919999999999735,0.9701116834952541,0.9540301466596228,double,-0.906594
103,0.858333,stair_decsent,-0.018840753630140653,0.0019200768030740352,-0.021240849633969876,-0.052726270798514836,-0.14236408778812493,0.42737476443191524,-0.040081603264110525,-0.021000840033598943,-0.03936157446297775,-0.0009600384015370176,-0.003000120004799849,0.0009600384015370176,-1.944155529331623,-4.2915433165983785,3.629090321421251,-4.305944468665451,-0.48963917034986437,-4.219537556253021,-0.4032322579342681,-0.31682534552103475,0.10080806448516473,-0.18205399999999994,-0.033582999999999974,-0.9109370000000001,0.06502199999999991,0.017861000000000016,-0.9064090000000001,0.24707599999999985,0.05144399999999999,0.0045279999999999765,0.9000430127707296,0.9492316113708498,double,-0.9064090000000001
104,0.866667,stair_decsent,-0.03419726421887357,-0.07247420206383452,0.08675305975519694,-0.4409717384197645,-0.9218808883322169,0.09202232222949021,-0.0034797216222770488,-0.024358051355892713,-0.016438684905200805,-0.002039836813047016,-0.005999520038396301,0.0047996160307223696,-1.8426338599391654,-8.926599336082191,12.958232468102644,4.391874447064278,-0.4028331320246928,2.750526704796865,-0.12956544414566892,-0.35989921209460873,0.4607124585055644,-0.1817979999999999,-0.03318199999999999,-0.9117969999999999,0.06529000000000007,0.018415000000000015,-0.9070919999999999,0.24708799999999997,0.051597000000000004,0.004704999999999959,0.9506809285863604,0.9397011542476184,double,-0.9070919999999999
105,0.875,stair_decsent,0.031681267250694936,0.01056042241689387,-0.14388575543021062,0.4169708033855622,0.9336403322879708,0.9706723192183925,0.006600264010550342,-0.036601464058562155,-0.00972038881555231,0.00012000480018213478,-0.0010800432017324755,0.000120004800195458,7.905740005948426,9.964553519828158,-27.677764932846106,1.209646661805754,-1.469268295052129,0.8062277798690108,0.25919136124194675,0.5903608348330499,-0.5615758106956549,-0.18200700000000003,-0.033574999999999966,-0.9106789999999999,0.06502699999999995,0.018318,-0.9058919999999999,0.24703399999999998,0.05189299999999997,0.004786999999999986,0.9359315336932283,0.9503078403977812,double,-0.9058919999999999
106,0.883333,stair_decsent,0.020280811232459502,0.010920436817473582,-0.0362414496579891,-0.02128332323464846,0.06368472050716105,0.6327264275817822,0.01488059522381045,-0.048121924876999705,-0.006120244809795156,-0.03528141125645209,-0.0016800672026831191,-0.020280811232459502,-1.368109446566109,0.04320345620781361,12.917833406002769,0.9936794927709196,-1.3825105986364457,0.43203456207333957,-4.248339860390504,-0.07200576034449072,-2.448195851752655,-0.1820520000000001,-0.034067000000000014,-0.9104279999999999,0.06456399999999984,0.018213000000000035,-0.905759,0.24661599999999995,0.05228000000000005,0.004668999999999923,0.9154323222269367,0.8854270961160353,double,-0.905759
107,0.891667,stair_decsent,0.010439164866804502,0.0021598272138250666,-0.03275737940964354,-0.05513753693390201,-0.0005077195861953487,0.54199536980643,0.04259659227263106,-0.04427645788336391,-0.010559155267575893,-0.001079913606902542,-0.0020398368130603375,-0.0022798176145897952,-1.1809030916312762,-1.0511890573132427,0.41805498540263797,3.3256535935710065,0.46141912570624183,-0.5326266448021073,4.103851409833182,-0.04316889973328779,2.159946438429303,-0.18178399999999995,-0.034453999999999985,-0.9102429999999999,0.06446799999999997,0.018177999999999972,-0.905505,0.24625199999999992,0.05263199999999996,0.004737999999999909,0.8960987360265252,0.9472130302237451,double,-0.905505
108,0.9,stair_decsent,0.007680307212296141,0.004320172806909917,-0.030121204848193948,-0.07036795380200633,0.058874077151499046,0.5049367602920954,0.03672146885874429,-0.04536181447258411,0.004080163206525663,0.0,-0.0014400576022988647,-0.004080163206525663,-0.3310761615874655,0.2592518412438307,0.3163536015180102,-0.7050430113868646,-0.13024800062644887,1.7567884884317164,0.12959481662096933,0.07197638434675031,-0.21605011303682473,-0.1815420000000001,-0.03486800000000001,-0.9099579999999999,0.0644039999999999,0.018130000000000035,-0.905288,0.245946,0.052998000000000045,0.004669999999999952,0.9024920484840573,0.9460886089934393,double,-0.905288
109,0.908333,stair_decsent,0.012000480019199556,-0.014040561622462415,-0.02064082563303283,-0.06209122445281546,0.00814228381111477,0.45852984736482666,0.04152166086642993,-0.039481579263167074,0.03216128645145055,-0.04764190567622517,-0.01572062882515888,-0.025681027241082253,0.5184414744873941,-2.203376266575363,1.137691013459883,0.5760460827655925,0.7056564513881064,3.369869584174384,-5.717257371441931,-1.7137370962270664,-2.5922073724417123,-0.18129600000000012,-0.03508,-0.9095179999999999,0.06390699999999994,0.018115999999999965,-0.9053299999999999,0.24520300000000006,0.053195999999999966,0.0041880000000000805,0.8904910991893452,0.8641873334055183,double,-0.9053299999999999
110,0.916667,stair_decsent,0.009359251259901835,0.006119510439160949,-0.011879049676007733,-0.0784614542953855,-0.006991995353673962,0.3823849673361311,0.051235901127930646,-0.047036237101031976,0.054115670746337385,0.0011999040076872372,-0.0059995200383962215,0.0016798656107461464,-0.31692209734793625,2.4190151261846906,1.0513290085223217,1.1656155821335064,-0.9064864216300509,2.634315370156788,5.860548318203987,1.1664397392323713,3.2830444986594904,-0.18094699999999997,-0.03552299999999997,-0.9089680000000001,0.06383899999999998,0.018015000000000003,-0.905217,0.24478599999999995,0.053537999999999974,0.00375100000000006,0.8531248547486148,0.9519154027146612,double,-0.905217
111,0.925,stair_decsent,0.018360734429358823,0.04836193447738396,-0.0348013920556969,-0.013701496551231918,0.15976860140168525,0.4675208108545241,0.05976239049560606,-0.06792271690867738,0.02796111844474232,0.0010800432017191524,-0.0051602064082514765,0.0003600144005730508,1.0802211891824014,5.069293656332993,-2.7507911172073767,1.023219652907162,-2.506477836030879,-3.1386718230643176,-0.014383872071052966,0.10072166448394833,-0.15838848076000123,-0.18060199999999993,-0.036492000000000024,-0.908445,0.06369500000000006,0.017569,-0.904924,0.244297,0.054061000000000026,0.0035209999999999964,0.842177464865275,0.9559828321707766,double,-0.904924
112,0.933333,stair_decsent,0.008280331213260217,0.0153606144245725,-0.0116404656186265,-0.08821094105334168,0.017166320172249637,0.2923627960194982,0.04680187207489692,-0.06600264010560422,0.06972278891156354,0.004680187207503015,0.0022800912036471162,0.003600144005757202,-1.209696773802796,-3.9603168190101723,2.779422349342447,-1.5553244234620494,0.2304184331061051,5.011600920055395,0.43203456207655055,0.8928714282849707,0.38883110586633635,-0.1802809999999999,-0.03716999999999998,-0.9077669999999999,0.06366500000000008,0.01746000000000003,-0.904797,0.243946,0.05463000000000001,0.002969999999999917,0.8219860256403746,0.959750644430371,double,-0.904797
113,0.941667,stair_decsent,0.021838252939753187,-0.01775857931365255,-0.05303575713940821,-0.426198236136254,1.2028670652705675,1.1175793190240548,0.0585553155747322,-0.053035757139428194,0.13210943124548827,0.003719702423793135,-0.007079433645312071,0.009719222462202678,1.6268204615422206,-3.9739853297605947,-4.967037619484208,1.410300395948547,1.5559014838224057,7.485798216213613,-0.11524895412885443,-1.123053137624084,0.7342306763193461,-0.179975,-0.037464,-0.9062240000000001,0.06351400000000007,0.01754899999999998,-0.9042740000000001,0.24348900000000007,0.05501299999999998,0.0019500000000000073,0.7434501437806804,0.9595226410325497,double,-0.9042740000000001
114,0.95,stair_decsent,0.007320292811723187,0.03216128645145721,-0.02232089283571597,-0.16690127159223755,0.3336311267184534,0.5003302589054035,0.05364214568583827,-0.07464298571943083,0.09120364814593794,0.0009600384015370304,-0.004920196807867288,0.005520220808844586,-1.7422249043597904,5.990623516753896,3.68593115368925,-0.5896039708261104,-2.592971148446278,-4.908890327559186,-0.3311729295879191,0.2591187852447861,-0.5039003544171524,-0.179589,-0.038354,-0.905278,0.06346099999999999,0.017240000000000033,-0.904042,0.24305,0.05559400000000003,0.0012360000000000149,0.7841865482386087,0.9752121137782164,double,-0.904042
115,0.958333,stair_decsent,0.007800312012478276,0.029521180847236643,-0.018480739229567604,-0.2083986864409084,0.4240651186028987,0.5407311661974589,0.0616824672986801,-0.08544341773670797,0.12588503540141152,-0.033001320052805004,-0.0063602544101794105,0.02616104644185042,0.0576046082749414,-0.3168253455202874,0.46083686621245057,0.9648771886285605,-1.2961036862206998,4.161932947974731,-4.07552603556245,-0.17281382483044722,2.4769981558869256,-0.17914000000000008,-0.039312000000000014,-0.9040750000000001,0.06312099999999998,0.016940999999999984,-0.9036700000000001,0.24226100000000006,0.056253,0.0004049999999999887,0.7263805027222163,0.9249660363900072,double,-0.9036700000000001
116,0.966667,stair_decsent,0.005279577633781215,0.02183825293975985,-0.013438924886022456,-0.27522628884128714,0.372563524859574,0.5586218065031547,0.0663546916246726,-0.10127189824814074,0.12299016078712921,-0.0007199424046016851,-0.018598512119032285,0.011759059275262988,-0.30246392832937863,-0.9218775986893132,0.6049693236795187,0.5606220693535474,-1.8992657201143095,-0.34735716514066345,3.8734554413490607,-1.4684734471865588,-1.728100211973521,-0.17863099999999998,-0.040337999999999985,-0.902938,0.0630710000000001,0.016604000000000008,-0.9034599999999999,0.24170200000000008,0.05694199999999999,0.0005219999999999114,0.7071386235246373,0.9633068866154362,double,-0.902938
117,0.975,stair_decsent,0.015840633625347676,0.0350414016560683,-0.011040441617662525,-0.06370991338541808,0.34378505800892095,0.43072474969740915,0.1662066482659285,-0.13152526101043993,0.257290291611671,-0.016200648025920732,-0.009000360014399668,0.018000720028799336,1.2673774140845502,1.5844412236059724,0.28782950538340973,11.98271410551504,-3.6305487534260728,16.116660365359778,-1.8577589849176994,1.1518243255289458,0.7490292515944323,-0.17737800000000004,-0.041725999999999985,-0.900702,0.06280400000000008,0.016237,-0.903218,0.24018200000000012,0.05796299999999999,0.0025159999999999627,0.4748400000000004,0.9569401773238739,single,-0.900702
118,0.983333,stair_decsent,-0.0007200288011461016,0.0008400336013482211,0.020880835233423472,-0.22216917105836725,0.02371766285324012,0.3348480098525424,0.1029641185647452,-0.14352574102964424,0.1864874594983858,0.002880115204611053,-0.01308052322092521,0.008640345613819834,-1.9873589855386666,-4.10432833969998,3.8307064503883193,-7.589407140427583,-1.440115206912788,-8.49667972078302,2.289783178990964,-0.4896391703498771,-1.1232898613919913,-0.17651400000000006,-0.04292900000000005,-0.8993220000000001,0.06283400000000006,0.016120999999999996,-0.9033200000000001,0.23934800000000012,0.05905000000000005,0.003998000000000057,0.5319142868088482,0.9734350521440978,double,-0.8993220000000001
119,0.991667,stair_decsent,-0.002159827213831727,0.0004799616030655762,0.01703863690903111,-0.34167914353745227,0.019682613457576423,0.3212405153374378,0.21142308615311392,-0.287137029037676,0.26277897768177666,0.0027597792176487107,-0.009479241660666689,0.007439404847613013,-0.172761988563191,-0.043205183379247294,-0.46102691677374413,13.014034987805296,-17.23197600288368,9.154249842019594,-0.014439163302416954,0.43211921769360956,-0.1441013638357125,-0.17473399999999994,-0.04532599999999998,-0.897274,0.06287500000000001,0.016038000000000052,-0.9034,0.23760899999999996,0.06136400000000003,0.006125999999999965,0.43874000000000035,0.9793967944593449,single,-0.897274
120,1.0,stair_decsent,0.01104044161766238,0.017160686427457536,-0.03984159366374626,-0.2595270989620758,0.5699369593606207,0.5267432559856549,0.2509300372014948,-0.16464658586343198,0.1544461778471178,0.0031201248050019685,-0.0063602544101794105,0.004920196807867223,1.5840956236042305,2.001767049609011,-6.825900704761446,4.741023766756358,14.699441158555565,-13.000455998398943,0.04324320021039917,0.3742934417961437,-0.30231705745179166,-0.17273499999999986,-0.046840999999999966,-0.895655,0.06280900000000011,0.015842000000000023,-0.903027,0.23554399999999998,0.06268299999999999,0.007372000000000045,0.42627999999999955,0.9856244467170108,single,-0.895655
121,1.008333,stair_decsent,0.002760110404428955,-0.01644065762630499,0.011400456018235581,-0.12287952354864544,0.13481061965541621,0.3069894210080009,-0.0626425057002446,-0.1624864994599825,0.13824552982119914,-0.041401656066247794,0.027841113644547232,-0.0057602304092088585,-0.9936794927677307,-4.032322579354714,6.149291933515218,-37.63021035662334,0.259220737243429,-1.9441555293314312,-5.342827417646727,4.104328339700823,-1.2817025341505075,-0.1732800000000001,-0.04805799999999999,-0.8945979999999999,0.06244099999999997,0.01621100000000003,-0.9031699999999999,0.23572100000000007,0.06426900000000002,0.008572000000000024,0.5437032252933716,0.9162940831050018,double,-0.8945979999999999
122,1.016667,stair_decsent,0.004799616030722306,-0.021598272138223733,0.02603791696665852,0.016590319529012083,-0.03968576916748197,0.2310938566532678,0.08999280057595664,-0.1792656587472983,0.21226301895848418,0.012838972882178838,0.009359251259895176,-0.014878809695225826,0.24472109746740292,-0.6188642322916609,1.756354805426305,18.314771571418298,-2.0133380474340856,8.881388185419302,6.508354805426712,-2.2176460744722717,-1.094141982963391,-0.1725700000000001,-0.04937200000000003,-0.893046,0.06250800000000001,0.016468999999999956,-0.9035110000000001,0.23507800000000012,0.06584099999999998,0.010465000000000058,0.40860779758863247,0.9637212264861118,single,-0.893046
123,1.025,stair_decsent,0.005880235209404319,-0.022800912036484485,0.010800432017271606,-0.012955255080393859,0.004199579466490483,0.21865711355782727,0.10920436817472395,-0.1701668066722654,0.19608784351373193,0.026161046441837445,0.0064802592103682935,-0.013560542421700562,0.12967948862138753,-0.14432256069371935,-1.8285713367799172,2.305480331065341,1.0919059252409662,-1.9410986973181803,1.5987127756700743,-0.3454928656578553,0.15819840075906358,-0.1717090000000001,-0.05059999999999998,-0.891502,0.06267699999999987,0.016712999999999978,-0.903714,0.23438599999999998,0.06731299999999996,0.012212,0.4084454154690671,0.94971518836732,single,-0.891502
124,1.033333,stair_decsent,0.006000240009586295,-0.027721108844351035,-0.003600144005757106,-0.06274859210277069,0.05532012608411955,0.215941578354558,0.13080523220929033,-0.21792871714868692,0.15948637945517838,0.013440537621518067,-0.02004080163206166,0.009600384015370047,0.014401152067919606,-0.5904472348333689,-1.728138248293347,2.592207372442817,-5.73165852351142,-4.392351381081593,-1.5265221193230716,-3.18265460727583,2.779422349342398,-0.17066899999999996,-0.05218500000000004,-0.890143,0.0627390000000001,0.016776999999999986,-0.903604,0.23340800000000006,0.06896200000000002,0.013460999999999945,0.36539000000000055,0.9567164017831985,single,-0.890143
125,1.041667,stair_decsent,0.00575953923686692,-0.021838252939767093,-0.02387808975282746,-0.1037277164464022,0.04030300294945276,0.2010202351414556,0.1701463882889571,-0.27381809455243844,0.17950563954884585,-0.024718022558187232,-0.034917206623469074,0.01871850251979085,-0.028881782183750794,0.7058862376510744,-2.433158836941533,4.720561084673327,-6.7061887933468425,2.402119041716805,-4.578660928690428,-1.7850257969051713,1.0940866935950295,-0.16929899999999987,-0.054285,-0.8884479999999999,0.062485000000000124,0.016668000000000016,-0.903249,0.231784,0.07095300000000002,0.014801000000000064,0.35198999999999936,0.922172300450923,single,-0.8884479999999999
126,1.05,stair_decsent,0.004200168006721065,-0.019080763230531317,-0.03984159366374573,-0.25737090226392323,-0.06496351433539103,0.1757652080554192,0.1852874114964554,-0.3019320772830849,0.159126365054592,-0.02736109444379131,-0.01788071522861006,0.018000720028798853,-0.18713203289881528,0.3309120015883509,-1.9156970971940463,1.8169954647183528,-3.373812880192725,-2.4456107637409703,-0.31718131352502504,2.0444607458128785,-0.08613734441281468,-0.16778999999999988,-0.05664199999999997,-0.88679,0.062222,0.016678000000000026,-0.902767,0.23001199999999988,0.07332,0.01597700000000002,0.3402299999999998,0.9378090890035655,single,-0.88679
127,1.058333,stair_decsent,-0.04776191047640731,-0.011760470418815299,-0.07248289931597918,-0.305529989181003,0.2044871625096649,-0.08861963399902327,0.2161286451458008,-0.3417736709468431,0.11952478099124036,-0.009480379215161521,-0.011880475219010759,0.008400336013442354,-6.235698845929299,0.8784702762169789,-3.917113362802562,3.7010960817647534,-4.7811824869505015,-4.752380182809551,2.1457716583019266,0.720057603456061,-1.1520921655294116,-0.16559100000000004,-0.059392,-0.8851899999999999,0.06254099999999996,0.016676999999999997,-0.9020929999999999,0.228132,0.076069,0.016903,0.33097,0.9710561402293868,single,-0.8851899999999999
128,1.066667,stair_decsent,-0.009359251259901835,-0.02279817614590431,-0.042956563474904695,-0.6317858895654715,-0.05971402013200049,0.20798846871457238,0.2843772498200102,-0.44960403167746243,0.16918646508279478,-0.0071994240460701376,0.034317254619631185,-0.02483801295895796,4.6079504699430265,-1.324418733751971,3.5428768707792484,8.189177426710932,-12.938608199018303,5.958925376956328,0.2736927248729741,5.543284117907558,-3.9882828140628823,-0.16314300000000004,-0.06294900000000003,-0.883422,0.06255900000000003,0.017152999999999974,-0.901942,0.22570200000000007,0.080102,0.01851999999999998,0.3148000000000002,0.9283831072268504,single,-0.883422
129,1.075,stair_decsent,-0.00312012480500201,-0.04200168006720511,-0.06252250090003582,-0.30738810729760796,0.2309941939860942,0.25786628569853953,0.2948517940717573,-0.4972998919956821,0.09684387375495135,-0.0055202208088312625,-0.0010800432017258282,0.0022800912036471162,0.7487251235929296,-2.3045126510621596,-2.348006411272207,1.2569955900332646,-5.723732187473909,-8.681458217669999,0.2015124489666255,-4.247845652388976,3.254302671619504,-0.16066000000000003,-0.066743,-0.882094,0.06253900000000012,0.01749400000000001,-0.901402,0.22319900000000015,0.084237,0.019307999999999992,0.3069200000000001,0.9898842604773006,single,-0.882094
130,1.083333,stair_decsent,-0.0016800672026830968,-0.04584183367334534,-0.019680787231495276,-0.5107334384831234,-0.39420998205817764,0.10251328433453039,0.4134165366614763,-0.5273010920436736,0.06888275531020681,-0.0066002640105769,-0.003840153606148019,0.0002400096003775896,0.17281382483125982,-0.46083686621146847,5.141211288676322,14.228338244295802,-3.600288017279609,-3.35546843210657,-0.12961036862421924,-0.3312264975905607,-0.24481958517574595,-0.15720099999999992,-0.07075500000000001,-0.881356,0.06249799999999994,0.01784399999999997,-0.901236,0.21969899999999987,0.08859899999999998,0.01988000000000001,0.3011999999999999,0.9872668554402735,single,-0.881356
131,1.091667,stair_decsent,-0.031557475401956706,-0.1505879529637665,0.29817614590834146,-0.5628217640625542,-3.3811107441963557,-0.8330017146372842,0.26205903527717844,-0.6597072234221392,0.049556035517159175,-0.004559635229179651,-0.026637868970482866,0.002039836813060365,-3.5850021837382022,-12.568528832544175,38.13978079431759,-18.161447250336064,-15.887464768234713,-2.3190208534974803,0.24485586529845066,-2.735507003159981,0.2159619885628521,-0.15475400000000006,-0.07499800000000001,-0.8834280000000001,0.06272299999999986,0.018876999999999977,-0.9037040000000001,0.21747699999999992,0.09387499999999999,0.02027599999999996,0.2972400000000004,0.9548297273599443,single,-0.8834280000000001
132,1.1,stair_decsent,-0.0004800192007818256,-0.08808352334093358,-0.0018000720028918764,-0.1480756541963927,-0.22507831613094936,0.09133804115132307,0.3390135605423984,-0.6581063242529572,0.00168006720269642,-0.006360254410159341,-0.05100204008160342,0.025561022440899438,3.729443921897796,7.50083158800334,-35.998586092791086,9.234912428323366,0.19211558492522587,-5.745346011575893,-0.21608294503536035,-2.9238174860338564,2.8226551815479013,-0.1519250000000001,-0.07974799999999999,-0.8833989999999999,0.06267400000000012,0.01918599999999998,-0.903476,0.2145990000000002,0.09893399999999997,0.02007700000000001,0.2992299999999999,0.9043294600541409,single,-0.8833989999999999
133,1.108333,stair_decsent,-0.005760230409222182,-0.05172206888275755,-0.019800792031677936,-0.24006996488013435,-0.29847273290959164,0.06438672012187932,0.43405736229452013,-0.6228249129965255,-0.14064562582504173,0.008640345613806626,0.03108124324973138,-0.02628105124204623,-0.6336506910404901,4.363549076944242,-2.1601728103667615,11.405712438752262,4.233938708320175,-17.079766353982894,1.800144008636278,9.850388015280878,-6.221297693861292,-0.14825999999999984,-0.08450699999999997,-0.884406,0.06279400000000002,0.019876000000000005,-0.9035299999999999,0.21105399999999985,0.10438299999999998,0.01912399999999992,0.3087600000000008,0.9306499838047351,single,-0.884406
134,1.116667,stair_decsent,0.011159107271432692,-0.06575473962082898,0.00311975041997616,-0.17357971308062545,-0.24743064040658075,0.2195306969518745,0.3479721622270075,-0.7422606191504619,-0.0800335973122112,0.0009599232061444612,-0.0029997600191981107,-0.001679865610759468,2.0301581090298466,-1.683785785705702,2.750245074592503,-10.329397656288934,-14.331138247412465,7.272861592612199,-0.9215769627624317,-4.089393240812242,2.951906123264528,-0.14545300000000005,-0.09014499999999998,-0.8850990000000001,0.0627089999999999,0.020399,-0.9035700000000001,0.20816199999999996,0.11054399999999998,0.018471000000000015,0.31528999999999985,0.9940506860328535,single,-0.8850990000000001
135,1.125,stair_decsent,0.01608064322571195,-0.0871234849393989,0.009480379215161521,-0.17575934427726975,-0.26736777905856335,0.19543311323732165,0.31705268210729115,-0.7631105244209843,-0.055922236889472066,-0.012360494419772612,-0.04536181447257805,0.05160206408256875,0.5906079388310698,-2.564352012308907,0.7633059876617568,-3.710486033807348,-2.5020887160113428,2.893478989888318,-1.5985140556722903,-5.083649880400856,6.394087326692512,-0.14294499999999988,-0.09577799999999997,-0.885644,0.06247200000000008,0.020747000000000015,-0.903219,0.20541699999999996,0.11652499999999999,0.017575000000000007,0.3242499999999999,0.8836522328423275,single,-0.885644
136,1.133333,stair_decsent,0.01596063842555646,-0.12672506900276143,-0.0060002400096131015,-0.11542632390845088,0.03523740609443731,0.15650671252631856,0.2896915876634991,-0.7938317532701392,-0.07236289451578372,0.013560542421700562,0.04632185287411508,-0.04236169446778482,-0.014401152064741572,-4.7523801828108585,-1.8577486169176485,-3.2834626717619444,-3.6866949296958165,-1.9729578334707552,3.1106488469306863,11.00248018081051,-11.276102070125336,-0.14066400000000012,-0.10133699999999998,-0.8861969999999999,0.06245199999999995,0.022189000000000014,-0.9035219999999999,0.20311600000000007,0.123526,0.017325000000000035,0.32674999999999965,0.8929678718711597,single,-0.8861969999999999
137,1.141667,stair_decsent,0.015358771298284736,-0.10379169666426663,-0.005399568034539282,-0.1288914996773072,-0.0742007642360232,0.19366729418839948,0.32097432205423115,-0.81857451403887,-0.09683225341972594,0.06431485481159897,0.009359251259901835,0.008879289656829605,-0.07221827781038163,2.751784537856326,0.07207487101917631,3.753627836660883,-2.9688937807452174,-2.936088181418531,6.090030284365014,-4.435157381115067,6.148426220856016,-0.13811700000000005,-0.10729399999999997,-0.886959,0.06285999999999992,0.02313200000000004,-0.9034030000000001,0.20097699999999996,0.13042600000000001,0.016444000000000014,0.33555999999999986,0.8906732990020672,single,-0.886959
138,1.15,stair_decsent,0.021720868834751998,-0.08868354734189325,-0.024240969638790032,-0.06720569788526978,-0.08250567485381893,0.13976561449436078,0.29881195247811426,-0.8361934477379174,-0.14784591383655613,0.0019200768030740608,-0.0031201248049953488,0.010800432017284929,0.7634822436658251,1.8130504407024501,-2.261058634855505,-2.6595907327633617,-2.114356618150424,-6.121884125384693,-7.487672867937776,-1.4975850311889232,0.2305463051068453,-0.13580799999999993,-0.11352299999999999,-0.887989,0.06269499999999995,0.023845000000000005,-0.903111,0.19850299999999987,0.137368,0.015121999999999969,0.3487800000000003,0.9809918726820719,single,-0.887989
139,1.158333,stair_decsent,0.028321132845328317,-0.08268330733229126,-0.020760830433214413,0.002696239448675234,-0.06323768713687304,0.23457121148948823,0.26857074282970395,-0.8478339133565214,-0.1671666866674611,0.011040441617688877,-0.0002400096003842512,0.0014400576023055071,0.7920633638036966,0.7200576034563644,0.4176334100054672,-3.6290903214220314,-1.3969117507024824,-2.318585483127881,1.094487557256049,0.34562764965931203,-1.1232898613919666,-0.1338060000000001,-0.119899,-0.889209,0.06255100000000002,0.024531999999999998,-0.902926,0.19635700000000011,0.144431,0.01371699999999998,0.3628300000000002,0.9814390851503735,single,-0.889209
140,1.166667,stair_decsent,0.0217182625389957,-0.10799136069114819,-0.0350371970242338,-0.006253726488646845,-0.06088295104509089,0.07222563592559651,0.2574994000479988,-0.8708903287737131,-0.1739860811135217,0.007079433645285616,-0.002759779217662069,0.00443964482840826,-0.7922810542755869,-3.0367234651856743,-1.7130269487664578,-1.3284548574160475,-2.766548526180965,-0.8182618725774827,-0.47528293405367605,-0.3023481662200463,0.35992167339846526,-0.1318410000000001,-0.12625699999999998,-0.8903670000000001,0.062428999999999846,0.025409000000000015,-0.9025970000000001,0.19426999999999994,0.151666,0.012229999999999963,0.37770000000000037,0.9853328401341775,single,-0.8903670000000001
141,1.175,stair_decsent,0.01152046081841741,-0.13440537621504078,-0.03204128165126756,-0.12884389111854122,0.1593841831744845,0.12320799373610311,0.2348493939757533,-0.860194407776297,-0.20952838113523145,0.006960278411149946,-0.0010800432017257996,0.00516020640825807,-1.2237851578756884,-3.1698086552132643,0.3595242257249719,-2.718109453047536,1.2835618621643985,-4.265246612469594,-0.014299200064282742,0.2015763849677475,0.08647084841591236,-0.12997999999999998,-0.13230500000000003,-0.891846,0.062391000000000085,0.026519999999999988,-0.9022870000000001,0.19237100000000007,0.15882500000000002,0.010441000000000034,0.39558999999999966,0.9854474420867994,single,-0.891846
142,1.183333,stair_decsent,0.019320772830922744,-0.152406096243857,-0.04536181447257805,0.035739660050236606,0.164102484999833,0.10244732190517904,0.2091683667346773,-0.8475939037561563,-0.25189007560303517,0.0037201488059393386,-0.0001200048001954596,0.0045601824072942325,0.9360748844960285,-2.1601728103703817,-1.598527879672461,-3.081846542790858,1.5121209672555855,-5.083606680403709,-0.3888311058695112,0.11520921655230394,-0.07200576034607503,-0.128398,-0.13809799999999997,-0.8935670000000001,0.0622609999999999,0.027789000000000008,-0.9018710000000001,0.1906589999999999,0.16588699999999998,0.008303999999999978,0.4169600000000002,0.9901894088016236,single,-0.8935670000000001
143,1.191667,stair_decsent,0.015118790496768604,-0.1487880969522383,-0.04007679385649795,-0.028540516050732375,-0.05495014133580262,0.013751205603125701,0.1958243340532836,-0.8789296856251431,-0.23278137748979205,0.025557955363572967,-0.0023998080153544922,0.02183825293976651,-0.5041975442949493,0.4341251849794438,0.6341517417902646,-1.6011558293008907,-3.759993024836398,2.2928603447615754,2.6203271607431557,-0.2735545014589651,2.0732026076880423,-0.126892,-0.144183,-0.895173,0.06234799999999985,0.029009000000000007,-0.901355,0.18923999999999985,0.173192,0.006182000000000021,0.4381799999999998,0.9438286982046544,single,-0.895173
144,1.2,stair_decsent,0.013320532821309641,-0.14748589943598306,-0.045481819272786835,-0.04768538732557492,0.06960665253500509,0.0800660238276459,0.20280811232449114,-0.8515540621624965,-0.31693267730709573,-0.005040201608049424,0.0016800672026831415,0.006600264010563753,-0.21579955303719894,0.15626995274873992,-0.6486289951144768,0.8380869160215548,3.2852062237665662,-10.098559920473352,-3.6719257136232657,0.48960461034893443,-1.8286318167770186,-0.125313,-0.15005,-0.8974349999999999,0.062195,0.030252,-0.9009209999999999,0.187508,0.180302,0.003485999999999989,0.4651400000000001,0.9858785286546752,single,-0.8974349999999999
145,1.208333,stair_decsent,0.010680427217089186,-0.17844713788550756,-0.04584183367333202,0.06731521391787168,-0.10748151593239032,-0.06904092889593857,0.1765270610824402,-0.8462738509540236,-0.3372134885395332,0.0037201488059392393,-0.016440657626304554,0.018240729629176444,-0.31682534552026986,-3.7154972338322287,-0.04320345620366972,-3.1538523031381827,0.6336506910443769,-2.433794699680441,1.0512841010426628,-2.174573962436983,1.3969117507035267,-0.12393100000000001,-0.15561500000000003,-0.899863,0.06213699999999989,0.03160199999999996,-0.900387,0.1860679999999999,0.187217,0.00052400000000008,0.4947599999999992,0.958605591234765,single,-0.899863
146,1.216667,stair_decsent,0.008039356851430103,-0.14950803935685728,-0.04307655387569055,0.04292522597812076,-0.2417891655134578,-0.04233341011269465,0.1369090472762009,-0.8282937365010947,-0.3347732181425634,0.026517878569718135,-0.021958243340531824,-0.006119510439154451,-0.3169030916317655,3.472414030315675,0.33180703115449023,-4.753781354240468,2.1574411390603854,0.2928090229145499,2.7355087309550434,-0.6620573211215952,-2.922994968602275,-0.122857,-0.161272,-0.902294,0.062291000000000096,0.032665,-0.900079,0.1851480000000001,0.193937,0.002215000000000078,0.5,0.9195688151560024,single,-0.900079
147,1.225,stair_decsent,0.010080403216151872,-0.1558862354494146,-0.06684267370693735,0.06798510636455364,-0.15017563995614705,0.01770217923495792,0.12984519380775333,-0.8292331693267585,-0.34861394455776845,-0.0008400336013548716,-0.0034801392055683117,0.0021600864034515992,0.2449353611810553,-0.7654141476727726,-2.852048461688033,-0.847696324066656,-0.11273644853759282,-1.6609536079688971,-3.2830807837600537,2.217461194643368,0.9935913647672995,-0.12185900000000016,-0.166883,-0.9046420000000001,0.06219999999999981,0.03393499999999999,-0.8995040000000001,0.18405899999999997,0.200818,0.005137999999999976,0.5,0.9416512206927543,single,-0.8995040000000001
148,1.233333,stair_decsent,0.0074402976119053235,-0.14676587063482363,-0.07560302412098119,0.085606221307265,-0.3555501815523482,-0.0383481820711959,0.12264490579624238,-0.8084723388935623,-0.35401416056642687,0.015360614424592486,-0.02832113284531575,0.0016800672026831415,-0.3168253455234097,1.0944875572532164,-1.0512841010493126,-0.8640691241462887,2.491399307955886,-0.6480518431127409,1.944155529334874,-2.981038478308852,-0.05760460827654652,-0.12089900000000009,-0.17239700000000002,-0.9069619999999999,0.06226599999999993,0.03492199999999995,-0.89886,0.18316500000000002,0.20731899999999998,0.008101999999999943,0.5,0.8652094569761541,single,-0.89886
149,1.241667,stair_decsent,-0.01835853131750283,-0.23638108951284045,-0.0964722822174251,-0.16641355322317394,0.21210674077569142,-0.10055359635902443,0.12299016078714253,-0.7678185745140332,-0.4041276697864185,0.004679625629937597,0.006359491240703725,-0.008759299256058218,-3.095611822583148,-10.75296602807969,-2.5041106427218325,0.041427284725240474,4.878061480624999,-6.013140055194535,-1.2816161260684915,4.161341982963668,-1.2526237651477417,-0.11972099999999997,-0.17682599999999998,-0.909526,0.0624579999999999,0.036945000000000006,-0.898129,0.18217899999999987,0.213771,0.01139699999999999,0.5,0.8663755300296079,single,-0.898129
150,1.25,stair_decsent,-0.007800312012478379,-0.14292571702868218,-0.07704308172327341,0.21868518945127804,-0.3436533014185274,0.03504935239741205,0.12984519380775678,-0.7605904236169512,-0.39397575903036913,-0.00012000480018213638,-0.001800072002878601,-0.002040081603256197,1.267036998082869,11.21509330183117,2.331597323191151,0.8226368679484346,0.867412804162022,1.21827802184681,-0.5759786907620037,-0.9791867567001561,0.8063383718711247,-0.11857399999999996,-0.181973,-0.912167,0.06252199999999997,0.038121000000000016,-0.8975039999999999,0.18109599999999992,0.220094,0.014663000000000093,0.5,0.8488310961566936,single,-0.8975039999999999
151,1.258333,stair_decsent,-0.007560302412114106,-0.13584543381735656,-0.10932437297490609,0.2506971839803915,-0.36685470683301,-0.048973922042207886,0.12864514580582884,-0.7453498139925675,-0.39793591743669937,-0.005040201608076071,-0.010800432017284929,0.01248049921996807,0.02880230413587839,0.8496679720779649,-3.8739099065922202,-0.1440115206921817,1.8289463127785686,-0.4752380182803642,-0.5904472348366709,-1.0800864051849766,1.7425394003629426,-0.11743899999999985,-0.187052,-0.914572,0.06254300000000002,0.039163,-0.896489,0.17998199999999986,0.226215,0.01808300000000007,0.5,0.7904077646909815,single,-0.896489
152,1.266667,stair_decsent,-0.005039596832238439,-0.2307415406767384,-0.09011279097671471,0.035383535812962955,-0.22844953541783272,0.04539601747585893,0.1251499880009476,-0.7032637389008816,-0.4328053755699543,-0.012958963282936905,0.017878569714423937,0.012359011279093286,0.30246047274725796,-11.386621893374265,2.30520542334908,-0.41938538575488565,5.049925017000914,-4.184000255970082,-0.9501753869523366,3.441204911412125,-0.014577386714036885,-0.11635400000000007,-0.19099000000000002,-0.9174280000000001,0.062476999999999894,0.041234999999999966,-0.8956350000000001,0.17883099999999996,0.232225,0.021793000000000062,0.5,0.7398956547110425,single,-0.8956350000000001
153,1.275,stair_decsent,0.0009600384015370304,-0.18948757950318817,-0.11376455058204483,0.03369057070534264,-0.07270611626395045,0.1583660101328215,0.13896555862234525,-0.6956678267130761,-0.4371774870994822,-0.0208808352333971,0.023040921636868744,-0.012360494419772612,0.719985027454161,4.950673367760784,-2.8383246856270663,1.657934791959412,0.9115459243736337,-0.5246743705181709,-0.9506626605616546,0.6195070109738214,-2.9664593422376244,-0.11520400000000008,-0.195208,-0.9201229999999999,0.06229499999999999,0.043006000000000044,-0.8947899999999999,0.17749900000000007,0.23821400000000004,0.02533300000000005,0.5,0.6909007538895551,single,-0.8947899999999999
154,1.283333,stair_decsent,0.0015600624025009636,-0.18804752190087096,-0.08352334093361283,0.23804232659309496,-0.584588539732657,0.14729397873844324,0.12840513620546115,-0.6665066602663977,-0.3891755670226736,-0.03036121444858446,0.05088203528140796,-0.015000600024005706,0.07200576034608458,0.17281382483105642,3.629090321424634,-1.2673013820813526,3.4994799527994624,5.760460827650036,-1.1376910134630016,3.3410672800358485,-0.31682534552178665,-0.114147,-0.19919499999999998,-0.9226700000000001,0.06202899999999989,0.04499700000000001,-0.8942190000000001,0.1761759999999999,0.244192,0.028451000000000004,0.5,0.6136213092171596,single,-0.8942190000000001
155,1.291667,stair_decsent,0.009599232061418224,-0.12371010319174751,-0.11855051595872422,0.15562125340257066,-0.4644125107352206,0.21118404722224238,0.15658747300214956,-0.6498680105591681,-0.42188624910007566,0.022558195344382116,0.05927525797936211,-0.05159587233021954,0.9646231892149523,7.719872655282538,-4.202924769031925,3.3816098868117286,1.996478246607863,-3.924967851860175,6.349821189460953,1.0071061552620963,-4.3910813902345245,-0.11292199999999997,-0.20357999999999998,-0.9251980000000001,0.06213700000000011,0.04652200000000001,-0.8936610000000001,0.17505900000000008,0.250102,0.031536999999999926,0.5,0.5483647110797035,single,-0.8936610000000001
156,1.3,stair_decsent,0.010080403216125227,-0.16644665786630833,-0.12480499219970403,0.2131996956634799,-0.4074433808631095,0.21090583607027522,0.1204848193927742,-0.6169446777871015,-0.3536541461658444,-0.008760350414015176,0.023880955238209677,-0.02412096483859393,0.05774284827877052,-5.128591704615393,-0.7505671716044288,-4.3324917327942805,3.950957970966762,8.18817987930278,-3.758375826040651,-4.247486228387353,3.2971207838263688,-0.11200199999999993,-0.20733400000000002,-0.927105,0.061980000000000146,0.048107999999999984,-0.892822,0.17398200000000008,0.255442,0.03428299999999995,0.5,0.5987447222891977,single,-0.892822
157,1.308333,stair_decsent,0.0064802592103682935,-0.19488779551182397,-0.10848433937357785,0.022462008638546364,-0.38719259673075845,0.1974783873596196,0.136565462618516,-0.5895835833433384,-0.3616944677787098,-0.009600384015370304,0.004320172806909975,-0.01068042721708947,-0.4320345620733189,-3.413073040383524,1.9585566814024165,1.9297543772641232,3.283462671758474,-0.9648771886314005,-0.10080806448519564,-2.3473877872674764,1.6129290317418195,-0.11091799999999985,-0.210623,-0.9292149999999999,0.06184600000000007,0.04976799999999998,-0.892007,0.17276399999999992,0.260391,0.03720799999999991,0.5,0.6029254010354419,single,-0.892007
158,1.316667,stair_decsent,0.05267578593713401,-0.14182865370770426,-0.12766978641708013,0.8033931074212731,-0.6955198440901648,0.1754970252374185,0.13750899928004087,-0.5589152867770538,-0.3770098392128708,-0.003839692824577845,-0.0011999040076739157,-0.0017998560115175344,5.543019765630594,6.366587689479159,-2.302069479661883,0.11321534215561292,3.6799011958584504,-1.8376975562948032,0.6912276446835152,-0.6623562292517217,1.065583298004784,-0.11021100000000006,-0.21409899999999998,-0.931293,0.06137499999999996,0.05094000000000004,-0.890958,0.17158600000000002,0.265039,0.04033500000000001,0.5,0.5893048405438717,single,-0.890958
159,1.325,stair_decsent,0.029521180847230374,-0.2298091923676968,-0.13992559702388227,0.08557160551658871,-0.1942485037902826,0.3491879237168945,0.12072482899316832,-0.5297011880475269,-0.333013320532821,0.009360374414979384,-0.008640345613826612,-0.0007200288011461112,-2.7786637573387556,-10.558086962677711,-1.4707561030603928,-2.0141810016647916,3.5058320808265004,5.279793433343356,1.584071431604146,-0.8928887082866632,0.12958444862251686,-0.10945099999999996,-0.21659799999999998,-0.932902,0.06120700000000001,0.052783000000000024,-0.889798,0.17065799999999998,0.269381,0.04310400000000003,0.5,0.5476950952278004,single,-0.889798
160,1.333333,stair_decsent,0.027481099243973444,-0.2170886835473387,-0.12228489139563942,0.015555005157154113,-0.22477165834982116,0.25926442180289727,0.12060482419295632,-0.48517940717627833,-0.3444137765510474,-0.004440177607111978,-0.01704068162726851,0.023280931237252382,-0.24481958517423424,1.5265221193277192,2.1169693541632717,-0.014401152071522701,5.342827417646435,-1.3681094465650028,-1.6561324879504522,-1.0080806448388038,2.880230413824322,-0.10867500000000008,-0.21883199999999997,-0.9347530000000001,0.06094099999999991,0.05445,-0.8885850000000001,0.169616,0.27328199999999997,0.04616799999999999,0.5,0.48966869629535165,flight,-0.8885850000000001
161,1.341667,stair_decsent,0.036117110631163005,-0.25233981281497553,-0.15226781857453933,0.13005145349715672,-0.2957577111708379,0.30581408665478194,0.11351091912648564,-0.4490040796736349,-0.33729301655868266,0.0008399328053864171,-0.019198464122869754,0.019198464122863093,1.0362384673853762,-4.229797128346231,-3.5976634483921868,-0.8512005119355422,4.340692044953695,0.8544228452561624,0.6335625644946599,-0.25891318641724087,-0.4898568651775098,-0.10803000000000007,-0.22047100000000003,-0.9362949999999999,0.060646999999999895,0.05639299999999997,-0.887156,0.16867699999999997,0.276864,0.04913899999999993,0.5,0.4633371378665516,flight,-0.887156
162,1.35,stair_decsent,0.036961478459134715,-0.20892835713428082,-0.13596543861752175,0.042697935138920326,-0.42033538608555737,0.2859068860537008,0.10332413296531688,-0.4126965078603069,-0.3136925477019032,0.006840273610941167,-0.023280931237245717,0.012240489619590149,0.10132819248430287,5.209583065005875,1.9563638493960513,-1.2224632378697449,4.35708290091532,2.8321695495954704,0.7200696994545355,-0.489915650351121,-0.834990340006339,-0.10747700000000004,-0.222169,-0.937776,0.060395999999999894,0.05793999999999999,-0.8859210000000001,0.16787299999999994,0.280109,0.051854999999999984,0.5,0.4547040384289309,flight,-0.8859210000000001
163,1.358333,stair_decsent,0.044281771270832236,-0.17244689787591921,-0.17856714268572776,0.2444882863082986,-0.3749006349625818,0.360837943982095,0.09492379695187728,-0.37417496699868286,-0.30457218288732313,0.007320292811723187,-0.01656066242650045,0.007320292811709864,0.8784702762147591,4.377950229012593,-5.1124089845441505,-1.0080806448385553,4.622769814187499,1.0944875572519075,0.05760460827817409,0.8064645158700743,-0.5904472348350329,-0.1070549999999999,-0.22385,-0.9388259999999999,0.06008800000000014,0.059238999999999986,-0.8843719999999999,0.16714300000000004,0.283089,0.054454,0.5,0.46744965806191546,flight,-0.8843719999999999
164,1.366667,stair_decsent,0.03695704343654844,-0.21634269258459146,-0.16678665706743362,0.05435005428569374,-0.2733553722208892,0.2526628348715875,0.08231341492680096,-0.3344132469402428,-0.29169666426685176,0.003719702423793135,-0.015958723302135016,0.009479241660673224,-0.8788970283517809,-5.2670739991207,1.4135451905800402,-1.5131247930257048,4.771024725034764,1.5449386393654034,-0.432036283648911,0.07222691677050987,0.2590531376245912,-0.10667700000000013,-0.224834,-0.9398669999999999,0.059810999999999837,0.06090899999999999,-0.8829029999999999,0.16648799999999997,0.28574299999999997,0.056964000000000015,0.5,0.4684487604567708,flight,-0.8829029999999999
165,1.375,stair_decsent,0.13896555862234525,0.02256090243610023,-0.1104044161766519,1.3922025807820713,-2.0754541004409663,-0.018471090458796788,0.06864274570983106,-0.30577223088923816,-0.281531261250461,0.008760350414015409,-0.013920556822273616,0.007440297611892,12.24151148275504,28.66957818561069,6.766139552475966,-1.6405459278735175,3.437059408496931,1.219897157853214,0.6049019549048745,0.24458976117381717,-0.24468307317667617,-0.10726300000000011,-0.22757000000000002,-0.9412929999999999,0.058725999999999834,0.060604999999999964,-0.881921,0.16598899999999994,0.28817499999999996,0.05937199999999998,0.5,0.4699129194313492,flight,-0.881921
166,1.383333,stair_decsent,0.12624504980197293,-0.23544941797672353,-0.17100684027361365,-0.41874763807472976,-0.3657193705259633,0.5195061014462208,0.07644305772230943,-0.26497059882395557,-0.3048121924877007,0.004200168006721177,-0.010320412816509753,0.005520220808844586,-1.5265221193294651,-30.962476948617077,-7.272581794907272,0.9360748844927926,4.896391703502095,-2.793823501408843,-0.5472437786264579,0.4320345620741505,-0.2304184331030159,-0.10767799999999994,-0.227816,-0.9424079999999999,0.05770900000000001,0.06248100000000001,-0.8804499999999998,0.16538699999999995,0.290297,0.06195800000000007,0.5,0.47927527176386037,flight,-0.8804499999999998
167,1.391667,stair_decsent,0.09227261819054641,-0.21310295176385724,-0.23782097432204383,-0.15481641889175476,0.10367429663425037,0.3667153744990711,0.04235661147108771,-0.21586273098151965,-0.3154547636189072,0.00311975041997616,0.0005999520038369578,0.0033597312214922927,-4.076365684116421,2.681361436629004,-8.017054721433844,-4.09004634643886,5.892472743272804,-1.2770063752347491,-0.12963973923026267,1.3103389513254893,-0.25923801144135794,-0.10809399999999991,-0.227839,-0.943055,0.05696600000000007,0.06426199999999999,-0.87844,0.16505999999999998,0.292101,0.06461499999999998,0.5,0.49229347697464465,flight,-0.87844
168,1.4,stair_decsent,0.11292451698068993,-0.18756750270010744,-0.21312852514100755,0.43545499464382764,-0.44587536574759734,0.1874934308069121,0.054722188887557435,-0.20124804992199888,-0.3037321492859682,0.007920316812660515,0.0032401296051841467,0.0012000480019279496,2.4783269878967613,3.064376462708512,2.963212430221589,1.4839286471222652,1.7538318804177249,1.40676999075232,0.5760910107625584,0.3168339855210864,-0.2591723532418532,-0.10857899999999998,-0.22795300000000002,-0.9438099999999999,0.05609099999999989,0.06585199999999997,-0.8766539999999999,0.16466999999999987,0.293805,0.067156,0.5,0.4855980350995048,flight,-0.8766539999999999
169,1.408333,stair_decsent,0.1405256210248425,-0.2614904596183852,-0.14040561622463374,-1.5950943311810886,0.4427346475287881,0.6242179635041895,0.048121924876979076,-0.16884675387015166,-0.305532221288852,0.004200168006721065,0.00624024960998387,0.000360014400573046,3.3122649758972864,-8.871109674580158,8.72709815389086,-0.7920633638039414,3.8883110586639447,-0.21601728103729254,-0.44643571414129185,0.3600288017280296,-0.10080806448516608,-0.10934900000000014,-0.22718099999999997,-0.9451860000000001,0.054954999999999865,0.068083,-0.8754810000000001,0.164304,0.29526399999999997,0.06970500000000002,0.5,0.48744880076024083,flight,-0.8754810000000001
170,1.416667,stair_decsent,0.0549556035516986,-0.24046076313895082,-0.2425005999520145,-0.4017131860004617,-0.07415791449979406,0.05138945691439998,0.06683465322775993,-0.15742740580753847,-0.35757139428846163,0.0027597792176753907,0.008159347252221477,-0.001079913606915878,-10.267580690322239,2.5233617085954845,-12.250418013844817,2.2453477742718033,1.3702121505415654,-6.2442012238553675,-0.1728328280592395,0.2302732952049009,-0.17277753869557852,-0.10924999999999985,-0.226489,-0.946145,0.054520000000000124,0.070155,-0.873469,0.16376999999999997,0.296644,0.07267599999999996,0.5,0.4855318796514688,flight,-0.873469
171,1.425,stair_decsent,0.06084243369735105,-0.20448817952717885,-0.3079323172926945,0.2056064169889486,0.25445985676162464,-0.07450801853444133,0.06216248649946111,-0.11916476659066164,-0.3691347653906053,-0.002520100804037968,0.005640225609026572,0.000360014400573046,0.7064478753932975,4.316882708720909,-7.852120165688088,-0.5606824346932366,4.5917003740401015,-1.3876600386587625,-0.6336109470434738,-0.3023066894509614,0.17279827282958105,-0.10923899999999986,-0.22577799999999998,-0.9466549999999999,0.05399200000000004,0.07190600000000003,-0.8709,0.1632309999999999,0.297684,0.0757549999999999,0.5,0.4896864889920697,flight,-0.8709
172,1.433333,stair_decsent,0.06324252970120857,-0.2502100084003354,-0.37237489499578597,0.13576511569361757,0.2050055739712077,0.10575833328462174,0.063002520100791,-0.08580343213728632,-0.4142565702628156,-0.002040081603256197,0.0021600864034516565,0.0019200768030740608,0.2880230413845599,-5.486838938336372,-7.733418661117493,0.10080806448216816,4.003520275216083,-5.414833177992405,0.05760460827814416,-0.4176334100053939,0.18721497689919947,-0.10924100000000014,-0.22440800000000002,-0.9470040000000001,0.05344799999999994,0.07400899999999996,-0.8677810000000001,0.16268900000000008,0.298417,0.07922299999999993,0.5,0.4941040029709358,flight,-0.8677810000000001
173,1.441667,stair_decsent,0.05831533477321607,-0.23938084953203856,-0.3869690424766029,0.23031905415356674,0.2735177815925249,0.005869196468609247,0.08423326133908988,-0.07367410607151371,-0.4355651547876163,-0.00155987520998808,-0.005399568034552603,0.002639788816903929,-0.5912160940715695,1.299395112586606,-1.7511576050896127,2.547485149783863,1.4554026956770474,-2.556825596928313,0.05762015757956726,-0.9070859656832496,0.0863585329769454,-0.10902500000000015,-0.22302699999999998,-0.9474090000000001,0.05294899999999991,0.07595900000000003,-0.864534,0.16197400000000006,0.29898600000000003,0.08287500000000003,0.5,0.4896509486977538,flight,-0.864534
174,1.45,stair_decsent,0.06468258730347415,-0.264130565222609,-0.35533421336853693,-0.055105599547718986,0.039102008126630804,0.10722093644567093,0.044041761670467965,-0.043681747269891165,-0.43825753030121467,0.0074402976119053235,-0.008640345613826612,-0.006120244809795237,0.7641008676656829,-2.9700846862559334,3.796331346221801,-4.823172887150161,3.59922702527575,-0.3230979855512276,1.0800639411848656,-0.38890886586751927,-1.0512460850473115,-0.10919699999999999,-0.22119,-0.9481,0.052472000000000074,0.07808799999999999,-0.8616240000000001,0.16166900000000006,0.299278,0.086476,0.5,0.4784315690178187,flight,-0.8616240000000001
175,1.458333,stair_decsent,0.03996159846395451,-0.2769710788431494,-0.325573022920907,-0.15156061519296357,-0.2129853418024039,-0.02711062150277257,0.0704428177127211,-0.02628105124204886,-0.4941797671906869,0.0057602304092220285,-0.01272050882035199,-0.007680307212296038,-2.9666373262353543,-1.5409232713956762,3.5714857131440545,3.1682534552085286,2.088167050023041,-6.710936864211119,-0.20161612896715056,-0.48963917034985077,-0.1872149768991688,-0.10894300000000001,-0.219101,-0.9495050000000002,0.05218699999999998,0.08029,-0.8589750000000002,0.16113,0.299391,0.09053,0.5,0.47343881707102003,flight,-0.8589750000000002
176,1.466667,stair_decsent,0.040796736261100724,-0.2423806095512398,-0.30501559875211093,-0.08028200044098953,-0.46092441162437575,0.05402785811482752,0.051115910727147294,0.014758819294456497,-0.5331173506119582,0.009719222462202937,-0.00995920326373906,-0.008999280057587912,0.10020851897602984,4.150524273087386,2.4666935647703947,-2.3190433148037157,4.924390513139686,-4.672136239653471,0.4750410430742721,0.33133016038072743,-0.15826408030860317,-0.10885699999999998,-0.216958,-0.9514060000000001,0.051927999999999974,0.082227,-0.856508,0.16078499999999996,0.299185,0.09489800000000004,0.5,0.4723797549857416,flight,-0.856508
