frame_id,timestamp,gait_type,root_linear_velocity_x,root_linear_velocity_y,root_linear_velocity_z,root_angular_velocity_x,root_angular_velocity_y,root_angular_velocity_z,left_linear_velocity_x,left_linear_velocity_y,left_linear_velocity_z,right_linear_velocity_x,right_linear_velocity_y,right_linear_velocity_z,root_acceleration_x,root_acceleration_y,root_acceleration_z,left_acceleration_x,left_acceleration_y,left_acceleration_z,right_acceleration_x,right_acceleration_y,right_acceleration_z,left_pos_rel_x,left_pos_rel_y,left_pos_rel_z,right_pos_rel_x,right_pos_rel_y,right_pos_rel_z,step_length,step_width,step_height,left_contact_prob,right_contact_prob,support_type,max_foot_height
1,0.008333,stair_acsent,-0.09192367694708321,-0.049201968078725726,-0.0009600384015370216,0.016034479323713102,-0.0867558381214707,-0.06514806875950016,0.0009600384015370216,-0.0014400576023055323,-0.0002400096003842554,-0.0022800912036470954,-0.0033601344053795753,-0.0021600864034562166,0.0,0.0,0.0,0.0,0.0,0.0,0.0,0.0,0.0,0.13726700000000003,0.063894,-0.911438,-0.09722399999999998,0.022361999999999993,-0.908222,0.234491,0.04153200000000001,0.0032159999999999966,0.9970878395578672,0.9601741862087503,double,-0.908222
2,0.016667,stair_acsent,-0.07379409647228607,-0.0813534917206571,0.007919366450685203,-0.12043877297087886,0.024731571854925836,0.008401391000109695,-0.00035997120230084524,-0.0007199424046016905,-0.0017998560115187968,-0.004679625629937631,-0.0037197024238064848,0.0005999520038398765,2.1753756269255025,-3.8578742070951972,1.065443346798923,-0.15838848138203343,0.08640691117156728,-0.18716659600846428,-0.2879210974670669,-0.043144710634378386,0.331178114626361,0.13787900000000008,0.06456600000000001,-0.911519,-0.09664799999999985,0.023008999999999946,-0.908283,0.23452699999999993,0.041557000000000066,0.0032360000000000166,0.9967139275407707,0.9576268108414517,double,-0.908283
3,0.025,stair_acsent,-0.11688467538701913,-0.04908196327853027,-0.007200288011514338,0.05789497299534793,-0.13816156732049936,0.021690250202941255,0.00012000480018213529,-0.00108004320173248,-0.0006000240009602221,-0.0030001200048198466,-0.0026401056042201477,-0.00036001440057596674,-5.17107631282048,3.872738322588124,-1.8144311127084534,0.05759942427492866,-0.04321382420866309,0.1439856006910566,0.20154873696361272,0.12955680062238534,-0.11520057655296331,0.13885400000000003,0.06496599999999997,-0.911464,-0.09569899999999998,0.023395999999999972,-0.908226,0.234553,0.041569999999999996,0.003238000000000074,0.9979311011574836,0.9609324310983036,double,-0.908226
4,0.033333,stair_acsent,-0.06864274570980378,-0.04512180487220004,-0.01920076803072711,0.08591048824249115,0.1627822559074801,-0.13813272240832286,0.0003600144005730523,-0.000840033601341563,0.0007200288011523498,-0.0038401536061214397,-0.0020400816032561785,-0.0008400336013440611,5.789263131791114,0.47523801828035817,-1.440115206913809,0.028802304139075603,0.028802304139075603,0.15841267276041907,-0.10080806447877033,0.07200576034609014,-0.057604608276502385,0.1394289999999998,0.06533500000000003,-0.9112979999999999,-0.095159,0.02375500000000008,-0.908073,0.2345879999999998,0.04157999999999995,0.0032249999999999224,0.9980608504910573,0.9603686479110571,double,-0.908073
5,0.041667,stair_acsent,-0.08783297336215225,-0.04967602591791629,-0.008759299256058282,0.03764804504465429,-0.22681031959154035,-0.09683239568418803,-0.0022798176145897822,0.0009599232061444684,-0.0005999520038398765,-0.0023998080153744927,-0.0017998560115308694,-0.0015598752099830959,-2.3026431068332696,-0.5464628084612727,1.2528760228784288,-0.31675450145942335,0.2159775386952281,-0.15838502579700336,0.17282764467805936,0.02882476502583502,-0.08637408311003535,0.140142,0.06575699999999995,-0.91123,-0.09444699999999995,0.024153999999999898,-0.908013,0.23458899999999994,0.04160300000000006,0.0032170000000000254,0.9957576986969858,0.9621948496905536,double,-0.908013
6,0.05,stair_acsent,-0.06936277451097653,-0.025561022440899882,0.009120364814588382,-0.240108481422954,-0.06352211644508482,-0.07186417381299122,-0.0009600384015370216,-0.0009600384015370216,-0.0016800672026881223,-0.0020400816032561785,-0.0034801392055617106,-0.00180007200288025,2.216512522641992,2.8939161738889245,2.1456455142981716,0.15837984075996167,-0.23040460910614305,-0.12961900862213438,0.043168896210046104,-0.20164204896565957,-0.02882476813838404,0.14071199999999995,0.06596199999999997,-0.9113199999999999,-0.09388599999999991,0.02433799999999997,-0.9081039999999999,0.23459799999999986,0.041623999999999994,0.0032159999999999966,0.9963998559942383,0.9604776405779153,double,-0.9081039999999999
7,0.058333,stair_acsent,-0.10920436817472295,-0.07248289931597851,-0.006960278411136745,0.11857681754450566,0.009234946062871565,-0.05566815406869415,-0.0003600144005730523,0.00012000480019545849,-0.0009600384015361888,-0.001680067202683126,-0.0026401056042201477,0.0,-4.781182486949049,-5.630850459027797,-1.9297543772621055,0.07200576034609016,0.1296103686226425,0.0864069124147286,0.04320345620701457,0.1008080644835669,0.21601728103687148,0.14161899999999994,0.06656700000000004,-0.9112699999999999,-0.0929899999999999,0.024920000000000053,-0.9080459999999999,0.23460899999999985,0.04164699999999999,0.0032240000000000046,0.9982794661252373,0.9625444294530261,double,-0.9080459999999999
8,0.066667,stair_acsent,-0.07451403887688776,-0.035637149028076756,0.009599232061444684,-0.24770503775886932,-0.0596458958205522,-0.07282941976767537,-0.0022798176145897822,0.0011999040076739248,-0.0016798656107511545,-0.0009599232061444684,-0.003959683225349262,-0.00263978881689479,4.162506515219005,4.421136343640718,1.986982298125921,-0.23035795704544393,0.1295775386943204,-0.08637235531737049,0.08641036675529849,-0.1583366476036854,-0.31674931808192824,0.14222099999999993,0.06687399999999999,-0.9113640000000001,-0.09237699999999993,0.025183999999999984,-0.9081480000000001,0.23459799999999986,0.041690000000000005,0.0032159999999999966,0.9948740078321878,0.9597486759762539,double,-0.9081480000000001
9,0.075,stair_acsent,-0.09864394575784245,-0.06924276971078112,-0.0248409936397538,0.30709835894889553,0.0715887623992845,-0.1867321017226885,-0.0008400336013282406,-0.0016800672026831276,-0.003960158406336053,-0.001320052802110075,-0.00324012960518412,0.0002400096003842556,-2.8957046539007214,-4.032835795356342,-4.1329924038399755,0.17278099283109838,-0.34561036965763287,-0.27364608131344065,-0.043217280207081106,0.08634988841535375,0.3455896336588321,0.14303600000000016,0.06743699999999997,-0.9111899999999999,-0.09156599999999981,0.025733999999999924,-0.9079389999999999,0.23460199999999998,0.041703000000000046,0.003251000000000004,0.9926949148495026,0.9616451105259414,double,-0.9079389999999999
10,0.083333,stair_acsent,-0.09804392175685167,-0.03192127685108596,0.010560422416907229,-0.08344298710926874,-0.030515711087207117,-0.14234892650385828,-0.0016800672026831248,0.00024000960037759357,-0.002160086403456215,-0.0014400576023188543,-0.0028801152046110624,0.00024000960038383885,0.07200576034930768,4.478758293495156,4.2483398603937355,-0.10080806448516542,0.23041843310461052,0.2160172810368219,-0.01440115207113636,0.043203456207015135,-5.001082563891941e-14,0.14383900000000005,0.06770500000000002,-0.9112960000000001,-0.09076100000000009,0.025976,-0.9080250000000001,0.23460000000000014,0.041729000000000016,0.003271000000000024,0.9954216076074064,0.9619083351145599,double,-0.9080250000000001
11,0.091667,stair_acsent,-0.08819294456445317,-0.03683705303575071,0.015598752099827641,-0.011219481285380402,0.21830439730886428,-0.19914628831587072,-0.002279817614616427,-0.0014398848092167038,-0.004319654427645948,-0.00047996160305891297,-0.004199664026865401,-0.003479721622269954,1.1820227012717186,-0.589845954483412,0.6045511978546215,-0.07196429228861324,-0.20157120345503943,-0.25912743270815153,0.11520230372689488,-0.15833319201515952,-0.446332040155243,0.144555,0.06799999999999995,-0.911462,-0.09002999999999983,0.02624800000000005,-0.908184,0.23458499999999982,0.0417519999999999,0.003278000000000003,0.9915130408871399,0.9580949423673888,double,-0.908184
12,0.1,stair_acsent,-0.09300372014880229,-0.0037201488059526245,-0.0031201248049886558,0.018166645902180433,-0.021125444275431452,-0.43355487603041465,0.0,-0.0014400576022922079,-0.0025201008040321815,-0.0008400336013548856,-0.003000120004806521,-0.0007200288011523493,-0.5773161627684039,3.97418747507477,-2.246355082781265,0.27358905731626365,-2.073599850042352e-05,0.2159550730365733,-0.04321036821024509,0.14395104068869305,0.3311763855895359,0.14532999999999996,0.06801900000000005,-0.9114570000000001,-0.08926199999999995,0.026254,-0.9081640000000001,0.2345919999999999,0.04176500000000005,0.0032929999999999904,0.9951624518491047,0.961740621787067,double,-0.9081640000000001
13,0.108333,stair_acsent,-0.06600264010558368,-0.032881315252609705,0.006960278411136751,-0.0034291019932852452,0.07211430201813314,-0.2106023026598981,-0.0024000960038292325,0.0010800432017191578,-0.0006000240009598062,-0.002280091203647097,-0.002400096003842556,-0.000720028801151934,3.2402592155548575,-3.4994799527969644,1.209696773806002,-0.28802304138116336,0.3024241934491021,0.23041843310600946,-0.17281382482805865,0.07200576034608967,4.98319251244388e-14,0.14585999999999988,0.06830199999999997,-0.91152,-0.08873100000000012,0.026507999999999976,-0.908228,0.234591,0.041794,0.0032919999999999616,0.9955009312855929,0.9614335364560593,double,-0.908228
14,0.116667,stair_acsent,-0.08807295416366831,-0.014518838492925082,-0.018958483321333253,0.029256770631069733,-0.1082823183732985,-0.38449410202480516,-0.0017998560115042247,-0.0014398848092167015,-0.0015598752099830946,-0.002639788816890625,-0.0017998560115175463,-0.0008399328053755765,-2.6482258289038403,2.2033209454865137,-3.1100026076877825,0.07202303723602198,-0.30236717193854773,-0.11517293124829463,-0.043160260768361845,0.07202303723602221,-0.014387329520475447,0.14657900000000001,0.068411,-0.911375,-0.08801900000000007,0.026614000000000027,-0.908077,0.23459800000000008,0.04179699999999997,0.003298000000000023,0.9953614056856628,0.9615140805143911,double,-0.908077
15,0.125,stair_acsent,-0.0981639265570606,-0.01284051362054102,0.00324012960518412,-0.1326018250759034,-0.14292904190398117,-0.28123190534237325,-0.0019200768030740447,-0.0004800192007685112,-0.003600144005760503,-0.002880115204611067,-0.001560062402500992,-0.0025201008040321854,-1.2109651258121088,0.2014070409677264,2.6639401087864383,-0.01442707207126126,0.11518848055300505,-0.24484204917525626,-0.02884032013925864,0.02877638413735203,-0.20162822496779195,0.14738099999999998,0.06851399999999996,-0.911432,-0.08722500000000011,0.026707999999999954,-0.9081250000000001,0.2346060000000001,0.04180600000000001,0.003306999999999949,0.9931528290057088,0.9600420543390781,double,-0.9081250000000001
16,0.133333,stair_acsent,-0.07164286571465021,-0.04608184327373702,0.0015600624024876663,-0.15982507629888223,0.021556271145125833,-0.20432275141287035,-0.0012000480019279376,0.0003600144005863752,-0.002040081603264087,-0.002760110404428927,-0.0030001200047931973,-0.00012000480019212759,3.182654607273535,-3.989119123148443,-0.201616128968733,0.08640691241402934,0.10080806448516569,0.18721497689864572,0.014401152067939519,-0.1728138248280576,0.288023041382462,0.1479680000000001,0.0689010000000001,-0.911462,-0.08665100000000003,0.027067000000000063,-0.908139,0.23461900000000013,0.04183400000000004,0.003322999999999965,0.996009852925456,0.9599726699196044,double,-0.908139
17,0.141667,stair_acsent,-0.12059035277176926,-0.026517878569704372,-0.0017998560115175524,0.04961989601474742,-0.07349685089352923,-0.2627558624763565,-0.00215982721383172,-0.001799856011530874,-0.002999760019198557,-0.00383969282455124,-0.0015598752099880956,0.0003599712023037602,-5.873228588567214,2.347487965446688,-0.4031579570440637,-0.11516429228507137,-0.25916371635676194,-0.11515219773631775,-0.12953952725249765,0.172815550132602,0.0575925128984748,0.14895499999999995,0.06910699999999992,-0.911472,-0.08567799999999992,0.027274999999999938,-0.908121,0.23463299999999987,0.04183199999999998,0.003350999999999993,0.9931478114954592,0.9595565803442606,double,-0.908121
18,0.15,stair_acsent,-0.09408376335052145,0.004680187207489645,0.010560422416893905,-0.11230769228032343,-0.04851382222105762,-0.18363384472650046,-0.0014400576022922079,0.0021600864034649584,0.0007200288011523493,-0.004080163206539,-0.0022800912036470937,-0.002520100804031765,3.1809179672684254,3.7439176499692777,1.4832927431190985,0.08637580841707808,0.4752120982834308,0.44639251414267406,-0.02885760014253688,-0.08642937641413627,-0.3456224656588891,0.14972699999999994,0.06908599999999998,-0.911554,-0.08492800000000011,0.027216999999999936,-0.90823,0.23465500000000006,0.041869000000000045,0.0033239999999999936,0.9955098315291311,0.9579097872355418,double,-0.90823
19,0.158333,stair_acsent,-0.10740429617185761,-0.03156126245049958,-0.003960158406330218,0.19558841194390927,0.030464426219932936,-0.20093636909980828,-0.0010800432017458023,0.0012000480019146143,-0.0003600144005759664,-0.004200168006721135,-0.0026401056042201455,0.0009600384015357717,-1.5985278796755251,-4.349147924875699,-1.7425394003629078,0.043203456203816784,-0.11520921655470338,-0.12961036862214265,-0.014401152067938894,-0.04320345620701446,0.41763341000450427,0.15061299999999989,0.06935899999999995,-0.911524,-0.08406800000000003,0.027457999999999982,-0.908189,0.23468099999999992,0.041900999999999966,0.003334999999999977,0.9972430799727682,0.9582282618219043,double,-0.908189
20,0.166667,stair_acsent,-0.09515238780898043,-0.06359491240701103,-0.03911687065035375,0.07200416356801832,-0.02041043249464995,-0.34387644505483206,0.00011999040078471047,-0.0011999040076739237,-0.002879769618430905,-0.0034797216222770253,-0.002519798416132558,-0.00035997120230375903,1.4701113946336892,-3.8437304963416623,-4.218467991843472,0.14399251290262918,-0.2879712034543479,-0.3023464384275181,0.08644665040126094,0.014435707713893393,-0.15838848138223297,0.15140700000000007,0.06987900000000002,-0.911222,-0.08330400000000004,0.027966999999999964,-0.907866,0.23471100000000011,0.04191200000000006,0.0033560000000000256,0.9947965715417755,0.9592544771525242,double,-0.907866
21,0.175,stair_acsent,-0.11232449297972522,-0.035041401656061406,0.01056042241689394,-0.14137056803245973,-0.11195611488715317,-0.2549805322701459,0.000960038401537024,-0.001320052802110077,0.0008400336013440632,-0.003720148805939314,-0.003120124804988666,-0.001200048001920031,-2.0607350498913752,3.4265583524480605,5.961513628614882,0.10080979248197715,-0.014418432069621229,0.446394242142683,-0.02885241613612015,-0.07204204834466696,-0.10081324848389224,0.15235100000000013,0.07016,-0.911303,-0.08239899999999989,0.028232999999999953,-0.907964,0.23475000000000001,0.04192700000000005,0.003338999999999981,0.9969404659104824,0.9582742001743567,double,-0.907964
22,0.183333,stair_acsent,-0.09420376815073023,0.016800672026871216,0.010800432017284822,-0.22651085885615221,-0.1352630809199226,-0.24338336977766165,0.0006000240009639688,-0.00048001920076851036,-0.0012000480019200269,-0.0030001200047931973,-0.0020400816032695,-0.0012000480019200269,2.1745739624378944,6.221297693859664,0.028802304139071404,-0.043203456207014865,0.10080806448356726,-0.2448195851750976,0.08640691241403048,0.1296103686210447,4.944159672920813e-16,0.1531410000000002,0.07001600000000008,-0.911403,-0.0816389999999998,0.02807599999999999,-0.908064,0.23478,0.04194000000000009,0.003338999999999981,0.9976250365840529,0.9602410719116445,double,-0.908064
23,0.191667,stair_acsent,-0.1201103911686833,-0.01667866570674347,-0.008639308855286887,0.031004823800383607,-0.09151927899878741,-0.3478058725657189,-0.00035997120230084497,-0.0004799616030722338,-0.0017998560115187953,-0.0029997600192181134,-0.003359731221492315,-0.00191984641228727,-3.1085460784680885,-4.017199152101591,-2.3325822981247524,-0.11519020917504354,6.911170659534718e-06,-0.0719712034555757,4.319481342499489e-05,-0.15834528656381253,-0.08636889973209054,0.15413900000000003,0.07015100000000007,-0.911346,-0.08066300000000015,0.028187000000000073,-0.908008,0.23480200000000018,0.041964,0.003337999999999952,0.9968379753018086,0.9584597705131088,double,-0.908008
24,0.2,stair_acsent,-0.11508460338415377,-0.021840873634933915,-0.01884075363015404,0.16564787301899653,-0.09122593358126871,-0.33460931621935325,0.0012000480019012912,0.0009600384015370207,0.0018000720028798322,-0.004680187207476322,-0.0015600624025009894,-0.0008400336013440605,0.6031186588898985,-0.6194897309720916,-1.2242223418777323,0.18720979289597203,0.17280691282962357,0.4320086420735179,-0.20165932896414346,0.21596889703484026,0.12958272062200993,0.15510800000000002,0.07034099999999999,-0.9111739999999999,-0.0797429999999999,0.028355999999999937,-0.9078579999999999,0.23485099999999992,0.04198500000000005,0.0033159999999999856,0.9960552256243773,0.9584994025913226,double,-0.9078579999999999
25,0.208333,stair_acsent,-0.10776431057240436,0.0030001200047932073,-0.007200288011514356,0.058258366213924336,-0.10816118027925972,-0.40000767806309145,-0.0014400576022922126,-0.0008400336013548883,-0.0028801152046081576,-0.00588023520940428,-0.0007200288011461063,0.0030001200048002854,0.8784702762209802,2.9810384783063943,1.3969117507067936,-0.3168253455170419,-0.21601728103827117,-0.561644930695788,-0.14401152069218293,0.10080806448516563,0.4608368662119711,0.15599399999999997,0.07030899999999995,-0.911138,-0.07889400000000002,0.028325000000000045,-0.907773,0.23488799999999999,0.04198399999999991,0.0033649999999999514,0.994453608294791,0.9552824890337628,double,-0.907773
26,0.216667,stair_acsent,-0.11447084233262785,0.026397888168946216,0.002039836813060324,-0.27322933382518955,-0.11539419390796903,-0.3497324270651558,0.0010799136069025348,0.0005999520038436226,0.00035997120230375903,-0.009359251259901898,0.00035997120230084497,-0.0026397888168943717,-0.8047194336721234,2.807507579092031,1.1087262808464928,0.3023723553149442,0.17278444986783173,0.38877926648811056,-0.41744853017729955,0.1295896332429746,-0.6767349198097735,0.156957,0.07009399999999999,-0.9111520000000001,-0.07801799999999992,0.028108000000000022,-0.9078120000000001,0.23497499999999993,0.04198599999999997,0.0033400000000000096,0.997855410508216,0.9503815564171303,double,-0.9078120000000001
27,0.225,stair_acsent,-0.1056042241689657,0.004440177607098729,-0.011160446417857874,0.10509516262681301,-0.09862382451116998,-0.3290835764771516,0.00252010080403801,-0.0001200048001954584,0.003360134405376242,-0.011400456018235467,0.002520100804024687,0.0004800192007676777,1.064036741109101,-2.635030668648442,-1.5840973516042465,0.17282937683133015,-0.08639827241558629,0.3600339857281268,-0.24495436917479507,0.2592259212437106,0.37439193779695745,0.15785800000000005,0.07005600000000001,-0.911031,-0.07723299999999989,0.028092000000000006,-0.907715,0.23509099999999994,0.041964,0.0033159999999999856,0.9929968633145219,0.9473641086411893,double,-0.907715
28,0.233333,stair_acsent,-0.12240489619585024,0.002280091203660417,-0.0022800912036470937,0.014522350558801767,-0.07622645178303877,-0.40179195169020543,0.00012000480018213519,-0.00048001920076851036,-0.0018000720028798322,-0.011040441617662416,0.00456018240730751,-0.003960158406336047,-2.01616128967773,-0.25922073724208694,1.0656852531154173,-0.28802304138436013,-0.04320345620701448,-0.6192495389722873,0.04320345620701436,0.24481958517734564,-0.5328426265575088,0.158879,0.0700329999999999,-0.911027,-0.07630499999999985,0.028110999999999997,-0.907729,0.23518399999999984,0.041921999999999904,0.003298000000000023,0.9968886057070088,0.9460458446532005,double,-0.907729
29,0.241667,stair_acsent,-0.1216702663786718,-0.0019198464122889415,-0.004799616030722354,0.15866013192638326,-0.035082024567115844,-0.3451201916019486,-0.0015598752099880956,0.0002399808015427785,-0.0017998560115192175,-0.006839452843796006,0.004559635229179576,-0.004799616030717358,0.08814852617931825,-0.5039521977381052,-0.3023187937455323,-0.20156947566237518,0.08639308883024845,2.5916889922572337e-05,0.5040783265978425,-6.565612286229019e-05,-0.10072685677721534,0.1598799999999998,0.07005099999999997,-0.911002,-0.07534800000000019,0.028164999999999996,-0.907729,0.235228,0.04188599999999998,0.0032729999999999704,0.996010331704805,0.9514055829091219,double,-0.907729
30,0.25,stair_acsent,-0.11868474738991093,0.012000480019199436,-0.006720268810759145,0.012657424845910632,-0.08116393675100819,-0.32574911446086274,0.0015600624025009894,0.001800072002878583,0.001440057602304282,0.0003600144005996984,0.004680187207489645,-0.014400576023041156,0.35827660971569286,1.6705059920182848,-0.23048755310653904,0.3744074897982818,0.1872184328976123,0.38880518586625423,0.8639706281526099,0.014466816069851089,-1.152161285530276,0.16088199999999997,0.06996599999999997,-0.9109339999999999,-0.07435599999999987,0.028104000000000018,-0.907793,0.23523799999999984,0.041861999999999955,0.0031409999999999494,0.9953608490320609,0.9433461694852223,double,-0.907793
31,0.258333,stair_acsent,-0.08664346573861649,-0.002040081603269507,-0.010800432017271535,0.10247877719017484,-0.029610940877341202,-0.2452684424720229,-0.002160086403438319,-0.0010800432017324826,-0.003960158406336477,0.00036001440057305316,0.0008400336013415652,-0.00024000960038383963,3.8451076024594406,-1.684934792087961,-0.48963917034830196,-0.4464357141412838,-0.34562764965931514,-0.648051843110617,-3.1975572027825002e-12,-0.4608368662124192,1.6993359441566485,0.161586,0.06997399999999998,-0.910877,-0.073631,0.028128000000000042,-0.907705,0.235217,0.04184599999999994,0.0031720000000000637,0.992269231533238,0.9667051354306204,double,-0.907705
32,0.266667,stair_acsent,-0.13450923926087696,0.02063834893209273,-0.0017998560115175463,-0.17120852194651603,-0.16903669816255937,-0.42226899466286827,-0.0013198944084453126,0.0014398848092167015,0.00011999040076805845,0.003119750419949537,-0.005759539236866806,0.01547876169906372,-5.7434333480034105,2.721193968725968,1.0799827220727118,0.10081497420122458,0.30236717194014656,0.4895786905572992,0.3311418309786995,-0.7918853897538235,1.8861016678002813,0.16269600000000017,0.06981399999999993,-0.910861,-0.07248399999999999,0.027907999999999933,-0.9075610000000001,0.23518000000000017,0.041906,0.0032999999999999696,0.9967383596451689,0.9389872450361058,double,-0.9075610000000001
33,0.275,stair_acsent,-0.13824552982119728,0.01140045601823543,-0.0008400336013548828,-0.2236128622653057,-0.08435781692108936,-0.38171602972175656,-0.0020400816032828165,0.0010800432017324755,-0.002280091203648335,0.003960158406330205,-0.01392055682227343,0.02592103684147366,-0.44837280215052266,-1.1085914933226042,0.1151832965513812,-0.08642592041731681,-0.043182720206915215,-0.2880213133825013,0.10085299248537911,-0.979361284700179,1.253123142014868,0.16383100000000006,0.06972800000000001,-0.9108729999999999,-0.071299,0.02769699999999997,-0.907338,0.23513000000000006,0.04203100000000004,0.003534999999999955,0.9945923813613939,0.9151703490821618,double,-0.907338
34,0.283333,stair_acsent,-0.1364454578183063,0.0070802832113322205,0.004920196807880578,-0.03823023039697456,-0.25741835694066456,-0.3183713395934581,-0.003240129605184125,0.0012000480019146184,-0.0036001440057600925,0.003000120004819854,-0.017880715228603756,0.026641065642625767,0.21601728103815954,-0.518441474487366,0.6912552993202299,-0.14401152068898493,0.014401152067939904,-0.15841267276032173,-0.11520921654990439,-0.47523801828037143,0.08640691241474971,0.164941,0.06967899999999994,-0.910944,-0.0701369999999999,0.027488999999999986,-0.907157,0.2350779999999999,0.04218999999999995,0.003786999999999985,0.991683418182213,0.9084212412557723,double,-0.907157
35,0.291667,stair_acsent,-0.10331173506119508,-0.014158867290624237,-0.00623950083993904,0.29463226901989015,-0.130823347573316,-0.16959978704676218,-0.0021598272138050696,0.002519798416132558,-0.0007199424046075181,0.004199664026878715,-0.021838252939766656,0.02399808015358796,3.9757286725595384,-2.5484941807003163,-1.339056593210896,0.12962591689213515,0.15835738111566333,0.3455965444147554,0.14393376794562754,-0.4748665360166662,-0.31713288805349227,0.16578400000000015,0.06981800000000005,-0.910898,-0.06924099999999989,0.027425000000000033,-0.906905,0.23502500000000004,0.042393000000000014,0.003993000000000024,0.9943400641156486,0.905540336297624,double,-0.906905
36,0.3,stair_acsent,-0.12936517460697408,0.007920316812673786,0.003240129605184125,-0.029251633346685162,-0.023781580882415457,-0.227687427373014,-0.008040321612869245,0.00240009600384256,-0.005160206408256507,0.003240129605184125,-0.015720628825152114,0.015960638425536786,-3.1265378070057683,2.649608076718838,1.1376011574610811,-0.7056875553899183,-0.014364864069362557,-0.5328529945576623,-0.1151487365528132,0.7341442595241279,-0.9645315886296885,0.16679500000000003,0.06977200000000006,-0.910968,-0.06813599999999997,0.02722800000000003,-0.9067989999999999,0.234931,0.042544000000000026,0.004169000000000089,0.9835822789981674,0.9205836980392799,double,-0.9067989999999999
37,0.308333,stair_acsent,-0.05160206408255474,0.026041041641668285,-0.03984159366374626,-0.07435453533749756,-0.3480441586910213,-0.6545501338432989,-0.007800312012478276,0.002280091203647086,-0.00468018720748838,-0.00012000480020878121,-0.01140045601823543,0.007680307212288646,9.331946540791913,2.174573962437828,-5.170013592815337,0.028802304139081716,-0.014401152069539609,0.05760460827650604,-0.40323225793746453,0.5184414744889794,-0.9936794927694834,0.16715999999999998,0.06957400000000002,-0.910675,-0.06770700000000018,0.02691600000000005,-0.906403,0.23486700000000016,0.042657999999999974,0.0042720000000000535,0.9843699154329704,0.9343688238425165,double,-0.906403
38,0.316667,stair_acsent,-0.12622990160787845,0.00011999040077138965,-0.027357811375090864,0.36885418074735665,0.09644831466940892,-0.20526506070946055,-0.009239260859143892,0.004079673626107353,-0.0043196544276455535,0.0005999520038436266,-0.005759539236866844,0.00311975041996621,-8.954624133108247,-3.1102773267215076,1.497934039915463,-0.17266004879597133,0.21593261608594644,0.04326047274332,0.08638790545385312,0.6768558652950106,-0.5472230372357165,0.16813499999999992,0.06960699999999997,-0.9104829999999999,-0.0666500000000001,0.026866999999999974,-0.906149,0.23478500000000002,0.04274,0.004333999999999949,0.9816919043033825,0.945697300956982,double,-0.906149
39,0.325,stair_acsent,-0.1149645985839446,0.021720868834751706,-0.004080163206525663,0.08754255965146487,-0.049258694276442534,-0.24921455976849158,-0.005160206408258139,0.006120244809795156,0.0003600144005759652,-0.0019200768030740352,-0.003000120004806511,-0.0018000720028798262,1.3518904384895953,2.5922091004416448,2.7934295174085086,0.48950611435086244,0.2448783371760223,0.5615827226954877,-0.30241555345225624,0.3311435535893822,-0.5904023068337952,0.16904999999999992,0.06947700000000001,-0.910446,-0.0657080000000001,0.026660999999999935,-0.90613,0.23475800000000002,0.042816000000000076,0.0043159999999999865,0.9866443169528354,0.9501884182773955,double,-0.90613
40,0.333333,stair_acsent,-0.12624504980199874,0.020760830433214826,-0.006000240009599738,0.0517756059235557,-0.03532401339990046,-0.23232518199238417,-0.007320292811696492,0.0020400816032561833,-0.0021600864034562223,-0.0016800672026831304,-0.0016800672026831304,-0.00480019200768054,-1.3537082944982801,-0.11520921655308801,-0.2304184331062138,-0.2592207372420927,-0.489639170351492,-0.3024241934516013,0.028802304139074204,0.15841267276171653,-0.36002880172815566,0.1700410000000001,0.06932099999999997,-0.910414,-0.06467,0.026473999999999998,-0.90612,0.23471100000000011,0.04284699999999997,0.004293999999999909,0.9868328488414755,0.9481332774893358,double,-0.90612
41,0.341667,stair_acsent,-0.11711063114951847,0.002879769618433403,-0.007679385649142419,0.22181020990004943,-0.07338051874396763,-0.2353635032513521,-0.007679385649155741,0.002879769618433403,-0.0025197984161267296,-0.005639548836082095,0.0019198464122889352,-0.009119270458363284,1.0960425548932398,-2.145555653321503,-0.2014813582364626,-0.043087693479631435,0.10075450146114937,-0.04316198856137592,-0.4750997880248334,0.43195507739045624,-0.518247954245589,0.17095300000000013,0.06932099999999997,-0.910371,-0.06374099999999983,0.02646599999999999,-0.906132,0.23469399999999996,0.042854999999999976,0.004238999999999993,0.9857000950798007,0.9394554616162216,double,-0.906132
42,0.35,stair_acsent,-0.11676467058681064,0.0236409456378259,-0.020400816032641773,0.07328254163756714,-0.018238816958213982,-0.37451040297885607,-0.009000360014406268,0.0056402256090266846,0.004680187207488412,-0.005760230409222144,0.002280091203647101,-0.009840393615744503,0.04151692820206791,2.491440779958304,-1.5266327113283795,-0.15852326476065415,0.33126796958997823,0.864032836147265,-0.014482368071528721,0.0432311042071483,-0.0865382404153632,0.17185099999999998,0.06917099999999998,-0.910162,-0.06281599999999998,0.026287999999999978,-0.9060440000000001,0.23466699999999996,0.042883000000000004,0.004117999999999955,0.9806549764074423,0.939439854319357,double,-0.9060440000000001
43,0.358333,stair_acsent,-0.11880475219009268,0.022200888035520214,-0.009240369614783802,0.13166496957876847,-0.06378570124594726,-0.2179378254922493,-0.00900036001440621,0.004440177607098714,0.0018000720028798262,-0.006600264010550342,0.0036001440057571543,-0.0122404896195849,-0.24481958517725022,-0.17281382482967478,1.339307142428648,7.077954900181351e-15,-0.14401152069218354,-0.34562764965901516,-0.10080806448196258,0.15841267276011614,-0.2880230413825016,0.17276599999999998,0.06902299999999995,-0.91007,-0.06188099999999985,0.026132999999999962,-0.906069,0.23464699999999983,0.042889999999999984,0.004001000000000032,0.9830063805448556,0.9360482821094456,double,-0.906069
44,0.366667,stair_acsent,-0.0944324454043521,0.0038396928245778704,-0.004679625629950949,0.29028217393917344,-0.048144793078523776,-0.2100071556301888,-0.0105591552675625,0.007199424046083507,0.007079433645308371,-0.005399568034565961,0.0026397888169039465,-0.012239020878329473,2.924442858860158,-2.2031671719393238,0.5472454985400587,-0.18704046714138342,0.33108308603129233,0.6334727192738829,0.14407199135881685,-0.11523340399006561,0.0001762348518629819,0.17346499999999998,0.06905099999999997,-0.909972,-0.061139000000000054,0.026123000000000007,-0.906132,0.23460400000000003,0.042927999999999966,0.0038399999999999546,0.9756503566477098,0.9388747416578709,double,-0.906132
45,0.375,stair_acsent,-0.07908316332655572,0.04608184327372385,-0.013200528021127417,0.21725540218938275,0.13163441865269956,-0.4992212194206644,-0.012240489619590393,0.0066002640105637085,0.009600384015360664,-0.00648025921036825,0.003120124804988666,-0.012960518420736917,1.8419875288367227,5.069260824330504,-1.022549188908735,-0.20176819297106646,-0.07190208034558983,0.30252614545209394,-0.1296881286214199,0.057642624275137506,-0.08658316841563005,0.17402200000000012,0.06872200000000006,-0.909782,-0.060533999999999866,0.025765000000000038,-0.90613,0.234556,0.04295700000000002,0.0036519999999999886,0.9718357770104007,0.9387759755883935,double,-0.90613
46,0.383333,stair_acsent,-0.11064442577701544,0.03948157926317347,0.010080403216138751,0.18615214835007318,-0.15328565132571928,-0.11582732679925717,-0.014760590423628412,-0.0007200288011594295,0.0061202448097926986,-0.00540021600864909,0.005520220808831226,-0.006600264010560794,-3.7875029941749427,-0.7920633638005998,2.7938235014120036,-0.30242419345230115,-0.8784702762178275,-0.4176334100045571,0.12961036862104433,0.28802304138276325,0.7632610596635231,0.1748209999999999,0.06838699999999998,-0.909815,-0.05965700000000007,0.025482000000000005,-0.9062690000000001,0.23447799999999996,0.04290499999999997,0.003545999999999938,0.9733411017742248,0.9476088768070106,double,-0.9062690000000001
47,0.391667,stair_acsent,-0.08567314614832046,0.005999520038396261,-0.0230381569474539,0.2589060368236988,-0.35342297298730946,-0.23778910651723903,-0.016678665706730152,0.004799616030722338,0.017758579313654748,-0.00839932805375743,-0.005279577633794572,-0.017518598512118632,2.9963138503353686,-4.017525704916868,-3.9739093068865636,-0.23015062192245478,0.6623043954741736,1.3964884213897335,-0.3598646562405012,-1.295872143343627,-1.3100953325603346,0.1753960000000001,0.06837700000000002,-0.9094749999999999,-0.05901299999999998,0.025387999999999966,-0.906223,0.2344090000000001,0.042989000000000055,0.0032519999999999216,0.958614906634333,0.933925568864625,double,-0.906223
48,0.4,stair_acsent,-0.0834033361334318,0.027001080043205304,-0.019320772830909164,0.16803476187554758,-0.22522833434445833,-0.32973804724669964,-0.03144125765030402,0.010320412816516277,-0.0122404896195849,-0.006600264010550342,0.0019200768030740352,-0.00888035521420867,0.2723880973105301,2.520288012097559,0.44610393814289223,-1.7715818965047168,0.6625221151798771,-3.600032273279674,0.2158963210376912,0.8639930921479152,1.0366306609756302,0.175829,0.06823800000000002,-0.909416,-0.05837300000000001,0.02517899999999995,-0.906136,0.23420200000000002,0.04305900000000007,0.0032799999999999496,0.9411949267715956,0.948483482586734,double,-0.906136
49,0.408333,stair_acsent,-0.08268330733228625,0.0343213728549153,-0.003840153606148096,0.15345072583432842,-0.3518467842981918,-0.2544938610238058,0.010440417616698481,0.002280091203647101,0.038401536061442657,0.015600624024956655,-0.009720388815552376,-0.02160086403456139,0.0864069124139628,0.8784702762162505,1.8577486169160096,5.026002072123197,-0.9648771886318489,6.077286173170249,2.6642131327861573,-1.3969117507052011,-1.5265221193271032,0.1766049999999999,0.067971,-0.909064,-0.057554000000000105,0.024811999999999945,-0.906284,0.234159,0.04315900000000006,0.0027800000000000047,0.9335654225784181,0.9249282455802041,double,-0.906284
50,0.416667,stair_acsent,-0.09515238780898043,0.0007199424046016899,0.006959443244540729,0.3413200723891007,-0.3617398561812222,-0.21389230404626094,0.029637628989667143,-0.011999040076792523,0.09995200383969277,-0.003959683225335938,-0.0017998560115175463,0.006959443244540313,-1.4961699636062114,-4.031849106109141,1.295847954246318,2.303481086269336,-1.7133586849579565,7.385465296166314,-2.34704910610662,0.9503879054517425,3.426962716474883,0.17764499999999983,0.06786500000000006,-0.908289,-0.05679400000000001,0.024791000000000007,-0.906284,0.23443899999999984,0.04307400000000006,0.0020050000000000345,0.8250970976793791,0.9662719129849175,double,-0.906284
51,0.425,stair_acsent,-0.158046321852876,-0.022920916836666468,0.04824192967718882,0.34226307611652446,0.1965670029211741,-0.009743883292062073,0.17376695067804146,0.024480979239167464,0.268690747629906,-0.006360254410186114,-0.003120124804988666,0.0038401536061443485,-7.547573988227017,-2.8370165896157706,4.954096535779215,17.296210451023,4.37777742901237,20.24945923319497,-0.2880800653846373,-0.1584385927602452,-0.3743297297967086,0.18040999999999996,0.06825999999999999,-0.906452,-0.05553000000000008,0.024955999999999978,-0.906654,0.23594000000000004,0.04330400000000001,0.00020199999999992446,0.49798,0.9865696452144384,single,-0.906452
52,0.433333,stair_acsent,-0.11628465138605468,-0.0085203408136377,0.0085203408136377,0.2944959137030796,-0.33909471458658125,-0.31189130931793024,0.04200168006721121,0.027721108844351406,0.08244329773190895,-0.002280091203647086,-0.005400216008649055,-0.00132005280211215,5.011600920055341,1.7281382482933767,-4.76678133487951,-15.812464971898441,0.38883110586630615,-22.350588011280006,0.4896391703514954,-0.27362188931481807,-0.6192495389723361,0.18172900000000003,0.06856200000000001,-0.9058360000000001,-0.05458000000000007,0.02498199999999995,-0.906736,0.2363090000000001,0.04358000000000006,0.0008999999999999009,0.8300177861365068,0.98998560921066,double,-0.9058360000000001
53,0.441667,stair_acsent,-0.0706743460523103,-0.011159107271419519,0.007559395248371081,0.14575165957084749,-0.2278544265363817,-0.3275446485158465,0.06431485481159983,-0.024598032157428833,0.18550515958723393,0.0007199424046016947,-0.00767938564914247,-0.002999760019198567,5.472798816144065,-0.31662664480223585,-0.1153042434925156,2.6773667799842515,-6.277794696637934,12.366434107910436,0.359975234971058,-0.27347847858092494,-0.2015487421509991,0.18285399999999985,0.06845000000000001,-0.904353,-0.05398500000000017,0.025011000000000005,-0.906824,0.23683900000000002,0.043439000000000005,0.002471000000000001,0.6455020716407276,0.9862069017674517,double,-0.904353
54,0.45,stair_acsent,-0.09468378735151174,-0.007320292811709766,0.005640225609026647,0.3466658221156556,-0.38479638411942496,-0.20263917427755168,0.08244329773192144,-0.05016200648026253,0.24000960038401414,0.008880355214224074,-0.01908076323053157,-0.011760470418816808,-2.881248205832395,0.4606761622116568,-0.2303095691040952,2.1755001704454013,-3.0677996307252604,6.540794527394694,0.9792887087030294,-1.368220038568229,-1.0513273010462263,0.1843300000000001,0.06809299999999996,-0.9024,-0.05312199999999989,0.024912999999999963,-0.906969,0.237452,0.043179999999999996,0.004569000000000045,0.5231689670307202,0.9598182981576098,double,-0.9024
55,0.458333,stair_acsent,-0.1425657026281015,-0.060002400096010704,-0.02784111364454705,0.1998710121535194,-0.7944096234524362,-0.038290406561206934,0.013800552022064741,-0.10080403216128093,0.3364934597383905,-0.001920076803074048,-0.008760350414015352,-0.008280331213248504,-5.746059675577809,-6.322105758346462,-4.017921427285945,-8.237458983542165,-6.07728617316915,11.578526263575736,-1.2961036862232267,1.238499077945067,0.4176334100045977,0.18563299999999994,0.06775300000000006,-0.8993639999999999,-0.05194999999999994,0.02534000000000003,-0.906806,0.23758299999999988,0.042413000000000034,0.00744200000000006,0.42558,0.9796561284612171,single,-0.8993639999999999
56,0.466667,stair_acsent,-0.08015358771296979,-0.02987760979120992,0.01991840652747772,0.13959873061215208,-0.23499173031583312,-0.11744094350339543,0.06791456683466114,-0.24898008159347818,0.38732901367890554,0.0,-0.0051595872330231825,-0.006599472042236554,7.488854681441283,3.614685661723153,5.730683965925692,6.4931623245256,-17.779703555579207,6.099778490582551,0.23039078510607705,0.43205701715768724,0.2016869655641887,0.1868669999999999,0.06592699999999996,-0.8963019999999999,-0.05128200000000005,0.025545999999999958,-0.9070269999999999,0.23814899999999994,0.040381,0.010724999999999985,0.39275,0.9860383091946969,single,-0.8963019999999999
57,0.475,stair_acsent,-0.07308292331694266,-0.06444257770310945,0.00888035521421081,0.3067022157272614,-0.04715165618003548,-0.23738006695283126,0.1898475939037533,-0.29725189007559794,0.6799471978879169,0.001320052802110077,-0.005160206408258173,-0.004440177607104156,0.8485136680699807,-4.147962067910671,-1.324619142357727,14.632548550233105,-5.792848731803658,35.115586728550596,0.15841267276012005,-7.430400035881778e-05,0.25912569724377815,0.18905799999999995,0.06398700000000002,-0.89071,-0.050661999999999985,0.026039999999999952,-0.907138,0.23971999999999993,0.037947000000000064,0.016427999999999998,0.33572,0.9884427215383051,single,-0.89071
58,0.483333,stair_acsent,-0.0762030481219175,-0.027001080043205304,0.02364094563782574,0.22889184902241566,-0.21558711733021685,-0.02494176421618357,0.11184447377894263,-0.3188527541101655,0.7548301932077256,0.0009600384015370176,-0.003840153606134747,-0.002880115204608138,-0.3744299537951309,4.493159445566301,1.7713417045019644,-9.360748844931038,-2.5922073724429953,8.986318891132651,-0.04320345620701524,0.1584126727617209,0.1872149768985973,0.19062499999999982,0.061555000000000026,-0.884617,-0.050019000000000036,0.026233000000000062,-0.907359,0.24064399999999986,0.035321999999999965,0.02274200000000004,0.27258,0.9918412424279608,single,-0.884617
59,0.491667,stair_acsent,-0.06719462443005944,-0.018718502519790476,0.004799616030722338,0.20227611129564294,-0.35315269829790924,-0.20143061950022162,0.03527717782577588,-0.32421406287496757,0.7792176625869922,0.00035997120230084497,-0.002879769618433403,-0.004919606431485401,1.08092436907344,0.9938297964260643,-2.2607786905571614,-9.18734052713783,-0.6433055873292607,2.926262224534028,-0.07200230372404272,0.11523685957539512,-0.24471936967569727,0.19147899999999995,0.05900899999999998,-0.878163,-0.049455999999999944,0.026364999999999972,-0.90744,0.2409349999999999,0.032644000000000006,0.029276999999999997,0.20723000000000003,0.9904802573910771,single,-0.878163
60,0.5,stair_acsent,-0.06660266410654776,-0.00960038401537024,-0.002760110404415613,0.3418655170683903,-0.31056891349114746,-0.12979627197635565,-0.24456978279131036,-0.39493579743190355,0.8739949597983938,-0.003600144005757178,-0.001800072002878589,-0.003480139205568381,0.07103808034461535,1.094217989250001,-0.9072034603549706,-33.58297859319416,-8.486947624737327,11.373730614592803,-0.4752328342803352,0.1295688966224429,0.17274297682911602,0.18999599999999983,0.055798000000000014,-0.870857,-0.04893100000000006,0.026430000000000065,-0.9074460000000001,0.2389269999999999,0.02936799999999995,0.036589000000000094,0.13411000000000006,0.9911317255580683,single,-0.870857
61,0.508333,stair_acsent,-0.053642145685837556,-0.0008400336013415596,0.01608064322572506,0.11715336746629722,-0.276156322810406,-0.05703892360039209,-0.019320772830895838,-0.3454938197527845,0.9194767790711592,-0.0018000720028919003,-0.0031201248050019685,-0.0030001200048002654,1.5553244234621568,1.051284101047479,2.260980874851865,27.03096243374698,5.933274652480362,5.458036634197193,0.21601728103507384,-0.15841267276171533,0.05760460827650469,0.19028200000000006,0.05292600000000003,-0.863329,-0.04849900000000007,0.026410999999999962,-0.907605,0.23878100000000013,0.026515000000000066,0.04427599999999998,0.05724000000000001,0.992186877481231,single,-0.863329
62,0.516667,stair_acsent,-0.05051595872330299,-0.010799136069118672,0.013678905687538772,0.30117388333188544,-0.3157243621861418,-0.12838913382362926,-0.08315334773218847,-0.3362131029517623,1.0000000000000049,-0.0014398848092033894,-0.0027597792176620325,-0.002159827213822985,0.37511242651002963,-1.1949966963975485,-0.28818544974637633,-7.659296244455603,1.113596928368396,9.662013550377505,0.04321900572216378,0.04323801143987738,0.1008270687517741,0.19001,0.05021400000000009,-0.8551089999999999,-0.048089999999999966,0.026478,-0.9077369999999999,0.23809999999999998,0.02373600000000009,0.05262800000000001,0.0,0.9936854438029651,single,-0.8551089999999999
63,0.525,stair_acsent,-0.05472218888755671,-0.00552022080883119,0.037201488059526125,0.43304688889771464,-0.39035821985266334,-0.16578080729736427,-0.09768390735630493,-0.3253330133205337,1.0330013200527983,-0.0030001200047931873,-0.0034801392055616963,-0.0018000720028798262,-0.5047678104228612,0.6334951710413369,2.8228227975503724,-1.7437369043701434,1.305662982266718,3.9603168190079563,-0.18723571289929095,-0.08644665641421587,0.043172352207267166,0.18965199999999993,0.04754900000000006,-0.846811,-0.047658999999999896,0.026495000000000046,-0.9080619999999999,0.23731099999999983,0.021054000000000017,0.061250999999999944,0.0,0.9917753169347114,single,-0.846811
64,0.533333,stair_acsent,-0.05448217928716652,0.005280211208453667,0.04608184327373749,0.15532845734652376,-0.41986826109414166,-0.049347086255775045,-0.1872074882995344,-0.2654506180247224,1.114484579383186,-0.002640105604246818,-0.0014400576023055455,0.00024000960038384123,0.028802304138988422,1.2961036862216435,1.0656852531154979,-10.743259443565378,7.186174882492721,9.778382254936796,0.04320345620381285,0.2448195851741473,0.24481958517504931,0.18854599999999988,0.04529300000000003,-0.837908,-0.04722700000000013,0.02643899999999999,-0.908444,0.235773,0.018854000000000037,0.07053600000000004,0.0,0.9949718768390488,single,-0.837908
65,0.541667,stair_acsent,-0.05675545956322799,0.004319654427650075,0.060715142788577224,0.5969748217922287,-0.37103574238674747,-0.025303365336056843,-0.18298536117110475,-0.21586273098151923,1.1155507559395164,-0.0016798656107461464,-0.004439644828408142,-0.00035997120230375665,-0.2727718113824643,-0.11525759308898298,1.7558554733428875,0.5066147262334553,5.950070439549173,0.12793095228347107,0.11521958165354745,-0.35992167339843695,-0.0719919369675538,0.18749399999999983,0.043458,-0.829117,-0.04676800000000014,0.026366,-0.908953,0.23426199999999997,0.017091999999999996,0.07983600000000002,0.0,0.992065900957984,single,-0.829117
66,0.55,stair_acsent,-0.04104164166567419,0.01572062882515201,0.05460218408736125,0.5021810871616016,-0.6225952707170017,-0.10750373775910502,-0.16200648025920517,-0.22440897635905802,1.1510860434417316,0.0007200288011461016,-0.0037201488059526123,0.0032401296051841034,1.88573357704953,1.368171654566409,-0.7335843875214149,2.5175664120844234,-1.025590468923407,4.2644050764688695,0.28799884938104375,0.08634297641371974,0.43202937807366437,0.18648599999999993,0.041456999999999966,-0.81998,-0.04642000000000013,0.026204000000000005,-0.909381,0.23290600000000006,0.015252999999999961,0.08940099999999995,0.0,0.9916906363943205,single,-0.81998
67,0.558333,stair_acsent,-0.035521420856843476,0.011160446417857985,0.05892235689427861,0.35220836428596003,-0.6281962471659565,-0.08518822816221507,-0.28177127085083864,-0.10836433457338239,1.1855274210968563,-0.0015600624024743586,-0.003360134405379606,0.003480139205568404,0.6624529951794993,-0.547243778626433,0.5184414744890679,-14.372349764986748,13.925914050843236,4.133130643840752,-0.2736218893100301,0.043203456207009425,0.028802304138281873,0.184434,0.04046099999999997,-0.810592,-0.04613699999999987,0.026082999999999967,-0.9098430000000001,0.23057099999999986,0.014378000000000002,0.09925100000000009,0.0,0.9915285337075366,single,-0.810592
68,0.566667,stair_acsent,-0.03455723542114732,0.0007199424046016851,0.08507319414446296,0.2835801902154789,-0.6780338025474956,-0.03172517335363565,-0.26097912167026893,-0.07295416366691244,1.188144948404118,0.00011999040075806644,-0.0020398368130603107,0.0017998560115191995,0.1156929968437907,-1.252760260769885,3.1378494420667327,2.4948583130033057,4.248880598328495,0.314078150619355,0.20159020917115578,0.1584230372353354,-0.2016178538575944,0.1825469999999998,0.039846999999999966,-0.801399,-0.04584800000000011,0.026059999999999972,-0.910537,0.2283949999999999,0.013786999999999994,0.10913800000000007,0.0,0.9954616407815673,single,-0.801399
69,0.575,stair_acsent,-0.1468858754350324,0.0214808592343744,0.02412096483859457,0.8709461889512912,0.2699836171921656,0.08594258960777514,-0.2667706708268192,-0.007080283211318945,1.2014880595223911,0.0003600144005730556,-0.003600144005757202,0.004560182407296314,-13.479976000706362,2.491409675959787,-7.314560099108238,-0.6950136993340132,7.9051818619457705,1.601237383688138,0.02880403213908453,-0.18724435289774458,0.3312524175899604,0.18154800000000004,0.039609000000000005,-0.791588,-0.04462100000000002,0.025850999999999957,-0.9107,0.22616900000000006,0.013758000000000048,0.119112,0.0,0.9902980656541216,single,-0.791588
70,0.583333,stair_acsent,-0.04980199207968949,-0.01908076323053157,0.0484819392775661,0.21284971999257268,-0.42594892556585784,0.04157323388576775,-0.281891275651017,0.058322332893313865,1.1981279251169987,0.0016800672026831191,-0.0033601344053795614,0.0038401536061439066,11.650532023922057,-4.86758939936467,2.923433870031372,-1.8145451607101573,7.848627877671012,-0.4032322579374039,0.1584126727601174,0.028802304137482256,-0.08640691241478514,0.17961400000000016,0.04025400000000001,-0.782008,-0.04419200000000001,0.02598199999999995,-0.911072,0.22380600000000017,0.014272000000000062,0.12906399999999996,0.0,0.9910464301429655,single,-0.782008
71,0.591667,stair_acsent,-0.059755219582419444,0.040916726661871024,0.10871130309576033,0.6897421138654617,-0.9846742782252706,0.5544534669582404,-0.30009599232062245,0.13138948884088658,1.1897048236141026,0.0016798656107727896,0.0020398368130603107,-0.0011999040076793276,-1.1942917569870268,7.199122857259676,7.226945502543049,-2.1843912490527115,8.76735732512265,-1.010691325041528,-2.418909411202067e-05,0.6479447106359288,-0.6047585329761453,0.17761099999999996,0.04100799999999993,-0.772999,-0.04367999999999994,0.02565799999999996,-0.911988,0.2212909999999999,0.015349999999999975,0.13898900000000003,0.0,0.9951630323084091,single,-0.772999
72,0.6,stair_acsent,-0.04536181447257805,0.05436217448697106,0.18060722428897064,0.8015377296457515,0.15484339653803203,-0.1380044119079846,-0.3507740309612427,0.14784591383655613,1.1380055202208215,0.012600504020136884,0.02232089283571597,-0.05664226569062817,1.7272777042891543,1.6135182797432088,8.627855657411613,-6.081607901190535,1.9748499934801025,-6.20416457377674,1.3105290302849146,2.433824075681729,-6.65334953593536,0.17506599999999994,0.04178700000000002,-0.765021,-0.04319700000000015,0.025391000000000052,-0.913965,0.2182630000000001,0.016395999999999966,0.14894400000000008,0.0,0.8963802193230688,single,-0.765021
73,0.608333,stair_acsent,-0.03708148325934399,-0.0032401296051841034,0.10968438737549101,0.6406911510625106,-0.8352309181986032,0.3538978941365197,-0.32653306132244836,0.22476899075963108,1.1263650546021766,0.002640105604246783,0.00552022080883119,-0.012600504020160448,0.9936794927677942,-6.912552993178318,-8.511080872852434,2.9090327179640285,9.231138476308008,-1.396911750707404,-1.1952956217316764,-2.0161612896777523,5.285222809368479,0.17265400000000009,0.04368700000000003,-0.756549,-0.04286599999999985,0.025464000000000042,-0.914984,0.21551999999999993,0.01822299999999999,0.158435,0.0,0.9766538310933804,single,-0.756549
74,0.616667,stair_acsent,-0.05831533477321685,-0.03407727381808886,0.2873770098392188,1.5789645652347288,0.6927427596877351,0.2460852786431943,-0.3063354931605522,0.28977681785456666,1.101511879049685,0.00035997120230084735,0.008999280057587792,-0.014038876889849195,-2.547858352996518,-3.70016129264518,21.321408982928823,2.4235142982836906,7.80031522617422,-2.982142494899425,-0.2735942406942583,0.4174537135537104,-0.17259093708768355,0.17058700000000004,0.04638599999999993,-0.749764,-0.04237699999999989,0.02582299999999993,-0.917496,0.21296399999999993,0.020562999999999998,0.167732,0.0,0.972200785125509,single,-0.749764
75,0.625,stair_acsent,-0.07308292331691553,0.024240969638776384,0.10908436337452704,0.4414304590019249,-1.055534126041069,0.470514891978652,-0.31201248049921093,0.34357374294972376,1.0682827313092471,-0.002280091203647086,0.006240249609990614,-0.020280811232449094,-1.7721815125043345,6.9984691535899435,-21.39597341469951,-0.681265731268296,6.455889246988704,-3.9876572351419295,-0.3168201615202115,-0.3310968975875635,-0.7490620835953286,0.16859599999999997,0.04904700000000006,-0.741771,-0.04178700000000002,0.025673000000000057,-0.918574,0.210383,0.023374000000000006,0.17680300000000004,0.0,0.9644311764423857,single,-0.741771
76,0.633333,stair_acsent,-0.027121084843400763,0.008760350414028615,0.08580343213728768,0.2919768039652812,-0.5933970922784834,0.10887617545884655,-0.3030121204848314,0.4069362774511003,1.031681267250685,-0.01608064322573838,-0.06840273610943923,-0.05772230889235531,5.515641242471448,-1.857748616914401,-2.7938235014087676,1.0800864051817474,7.603808292496851,-4.392351381082681,-1.6561324879504664,-8.957516586995023,-4.49315944556655,0.16629699999999992,0.052364999999999995,-0.733889,-0.04169500000000004,0.025029999999999997,-0.91977,0.20799199999999995,0.027334999999999998,0.18588099999999996,0.0,0.8484397228669256,single,-0.733889
77,0.641667,stair_acsent,-0.030357571394295676,0.0033597312214923374,0.08351331893448931,0.11689246951665128,-0.5726278485733005,-0.043944893251972796,-0.3040556755459624,0.45464362850971357,0.9864410847132293,0.021598272138237343,-0.009599232061444739,0.004439644828413613,-0.38834731832192604,-0.6480224613074523,-0.27479160100772554,-0.12521659000852225,5.72442417309978,-5.42838763348403,4.52110815502471,7.055856017277996,7.4588377394731555,0.16401599999999994,0.05612600000000001,-0.726364,-0.04126199999999991,0.024922,-0.920429,0.20527799999999985,0.03120400000000001,0.19406500000000004,0.0,0.9599187955614104,single,-0.726364
78,0.65,stair_acsent,-0.03132125285012188,0.0,0.08256330253210357,0.3289937424310283,-0.3161681440321905,0.021311332942779444,-0.2712108484339277,0.5061802472098929,0.9405976239049504,-0.02640105604225466,0.02256090243610659,0.08568342733709305,-0.11564640055516663,-0.40318387393403615,-0.11400652854742947,3.9415369149207486,6.184641629686675,-5.501435354407627,-5.760149787650523,3.859370514526724,9.749643886796965,0.16201700000000008,0.060344000000000064,-0.719214,-0.04122099999999995,0.025110000000000077,-0.9204030000000001,0.20323800000000003,0.03523399999999999,0.20118900000000006,0.0,0.8459107419643777,single,-0.719214
79,0.658333,stair_acsent,-0.026161046441837445,-0.0034801392055617427,0.06648265930636607,0.3427936923590055,-0.223105561817985,-0.047997709030631414,-0.29425177007079334,0.5641425657026279,0.9067562702508192,-0.020160806432250992,-0.03756150246009967,0.0798031921276857,0.6192495389756972,-0.4176334100038131,-1.9297543772636085,-2.7650211972717957,6.955756449386243,-4.061124883491122,0.748859907596751,-7.214977186632282,-0.705656451386944,0.159783,0.06507399999999997,-0.712212,-0.04117100000000007,0.024826000000000015,-0.920292,0.20095400000000008,0.04024799999999995,0.20808000000000004,0.0,0.8492069661862927,single,-0.712212
80,0.666667,stair_acsent,-0.04211663066954494,0.012479001679864673,0.0807535397168262,0.445088269572107,0.06317860393655468,0.1104289507826254,-0.280537556995459,0.6132709383249265,0.8484521238300864,0.006599472042226519,-0.018118550515960053,0.001439884809215443,-1.9145169459692075,1.914943710754295,1.7123686597624208,1.6455739231262563,5.894933120026189,-6.995937895456244,3.2109765388141716,2.332967595889065,-9.402844650644308,0.15779599999999983,0.07008099999999995,-0.705814,-0.04076500000000016,0.02457100000000001,-0.920953,0.198561,0.04550999999999994,0.21513899999999997,0.0,0.9677721578143588,single,-0.705814
81,0.675,stair_acsent,-0.011400456018262076,0.009360374414979259,0.08388335533421364,0.18476424539709918,-0.48323189753793283,-0.06201338119412226,-0.26377055082202244,0.653426137045483,0.8022320892835676,-0.009120364814588344,0.016680667226689025,0.005640225609024149,3.686088401689996,-0.37425024179592004,0.3755928978024034,2.0121212256614065,4.8188165991307255,-5.546626010622657,-1.8864558810530179,4.176073172044753,0.5040610584193794,0.15569300000000008,0.07544799999999996,-0.699828,-0.04074599999999995,0.024631999999999987,-0.921605,0.19643900000000003,0.05081599999999997,0.221777,0.0,0.9669496235355358,single,-0.699828
82,0.683333,stair_acsent,-0.01656066242649379,0.02808112324492483,0.02136085443417894,0.0959415505660403,0.378314221020077,-0.10527117787747156,-0.2454098163926669,0.6951878075123126,0.7436697467898827,-0.05088203528140932,0.014760590423615187,0.018960758430337614,-0.61924953896937,2.2465797227824007,-7.503000228013352,2.203376266573348,5.011600920056394,-7.0277622097306365,-5.011600920055365,-0.23041843310618693,1.5985278796728173,0.15378599999999998,0.08100700000000005,-0.693809,-0.04103199999999996,0.024521000000000015,-0.921625,0.19481799999999994,0.056486000000000036,0.22781600000000002,0.0,0.9062158668909477,single,-0.693809
83,0.691667,stair_acsent,-0.04571634269258001,0.02087832973362205,0.05267578593712069,0.4280077585319403,0.13294660994158614,0.1440002520246337,-0.2473002159827037,0.7461003119750298,0.6949844012478905,0.00755939524837098,-0.0009599232061444612,-0.008039356851451953,-3.4984017597895365,-0.8642660800699214,3.7574911810584966,-0.22682980442006212,6.109011814580854,-5.841774123109173,7.012410670719925,-1.8863107307126865,-3.239754653442448,0.15210600000000007,0.08705099999999999,-0.688456,-0.04058800000000007,0.024339,-0.922131,0.19269400000000014,0.06271199999999999,0.23367500000000008,0.0,0.9815385410721735,single,-0.688456
84,0.7,stair_acsent,-0.018840753630140906,0.03792151686067273,0.10200408016320955,0.4642191740748261,-0.6158649950995329,0.12659017744683806,-0.2235689427577061,0.779311172446905,0.6380655226209127,0.023400936037461784,0.040441617664710765,-0.055682227289091966,3.2251996954805406,2.045264265816733,5.919632092414415,2.847866701667805,3.985462675132061,-6.830538656783678,1.901060937128399,4.968383639848267,-5.717373147442752,0.1504000000000001,0.093229,-0.683989,-0.04023599999999994,0.02436000000000005,-0.9234450000000001,0.19063600000000003,0.06886899999999996,0.2394560000000001,0.0,0.87885226325494,single,-0.683989
85,0.708333,stair_acsent,-0.03516140645626995,0.0422416896675888,0.06324252970118109,0.22441528126436802,-0.23442416826172607,0.11250116555903363,-0.22284891395655704,0.8183127325092993,0.5875435017400685,0.028201128045119914,0.003840153606134747,-0.0007200288011519304,-1.9585566814027333,0.5184414744889061,-4.651572118328129,0.08640691241438524,4.680374422464196,-6.0628850211021135,0.5760460827622836,-4.392351381084348,6.595727647658683,0.1488360000000002,0.099696,-0.6796199999999999,-0.039707999999999855,0.02403999999999995,-0.923978,0.18854400000000004,0.07565600000000006,0.24435800000000008,0.0,0.9525491820638801,single,-0.6796199999999999
86,0.716667,stair_acsent,-0.011639068874491601,0.04823614110871255,0.06143508519319223,0.33315444367418473,-0.1320071698145626,0.10174025560551782,-0.2025437964962948,0.8398128149747929,0.5273578113750839,0.022318214542838742,-0.005279577633781215,-0.008999280057595581,2.8224547134363056,0.7192766308043798,-0.2168759908793909,2.436419181696913,2.5798035115782882,-7.221705107389514,-0.7058931488218294,-1.0942802063733972,-0.993430676319125,0.14724500000000007,0.10629299999999997,-0.675737,-0.03942499999999982,0.023594000000000004,-0.9245650000000001,0.1866699999999999,0.08269899999999997,0.24882800000000005,0.0,0.958938945123473,single,-0.675737
87,0.725,stair_acsent,-0.1290051602064019,-0.003480139205575066,-0.07872314892595655,-0.39604323259516677,-0.7717465227999979,0.19907357578496393,-0.19344773790951178,0.8907956318252893,0.4777391095643884,-0.0045601824072942325,0.007080283211332268,0.002400096003840494,-14.084494339602948,-6.206201885790002,-16.819660880733238,1.091570693241703,6.118182749369603,-5.954482396579371,-3.225536655482206,1.4832426311188762,1.367979846566204,0.14670800000000006,0.1137450000000001,-0.6711,-0.03838799999999987,0.023682000000000092,-0.9238890000000001,0.18509599999999993,0.090063,0.25278900000000004,0.0,0.9854048966765372,single,-0.6711
88,0.733333,stair_acsent,0.01104044161766238,0.03144125765031734,-0.00732029281172309,0.1215857572485743,0.13913028800177507,-0.23251355575873203,-0.19092763710549784,0.9218768750749952,0.4135365414616573,0.013680547221882515,0.0016800672026831191,0.00636025441017608,16.80614446466623,4.190735252117156,8.568685481127226,0.302424193449409,3.729898385900122,-7.704616356981981,2.188975114505781,-0.6480518431116197,0.47523801828099954,0.14502499999999996,0.12116499999999997,-0.6675929999999999,-0.0383659999999999,0.023433999999999955,-0.9237749999999999,0.18339099999999986,0.09773100000000001,0.256182,0.0,0.9746999761606473,single,-0.6675929999999999
89,0.741667,stair_acsent,0.015118790496768805,0.06059515238780664,0.061795056395493896,0.32963785665579104,0.0027107880406675444,0.007242812747065617,-0.17950563954883014,0.9553635709143352,0.3678905687545033,0.05159587233020553,-0.007079433645312165,-0.026037916966642632,0.4893627164754558,3.498187513497656,8.29317845059004,1.3705300643949803,4.018082054156497,-5.477078558573823,4.549475054994389,-1.0510560172780579,-3.8874695676528552,0.14340299999999995,0.12862200000000001,-0.6650419999999999,-0.03806200000000004,0.022869999999999946,-0.924507,0.181465,0.10575200000000007,0.25946500000000006,0.0,0.9029572611020303,single,-0.6650419999999999
90,0.75,stair_acsent,0.06708268330732915,-0.04620184807393233,-0.050042001680067075,-0.30364439510504215,0.7259525843171305,-0.8337270097911738,-0.17412696507858672,0.9812792511700414,0.30145205808231706,-0.0034801392055750194,-0.018600744029763062,-0.0061202448097922415,6.235916573930172,-12.816152701516684,-13.420983808419596,0.6454667550994125,3.110006030925972,-7.972940198270249,-6.609385759724027,-1.3826125506361275,2.390216267472736,0.1413930000000001,0.13718400000000008,-0.662113,-0.03865000000000007,0.02310000000000001,-0.924141,0.18004300000000018,0.11408400000000007,0.26202800000000004,0.0,0.9668523319119691,single,-0.662113
91,0.758333,stair_acsent,0.02580103204129069,0.037921516860685546,0.0570022800912038,0.3782666699567295,0.09612873829451375,-0.09462441447910871,-0.1680067202688182,1.014760590423615,0.25477019080763624,0.002160086403464951,-0.004080163206525663,-0.006000240009600531,-4.953996311777066,10.09520760045812,12.845827645658277,0.7344587555224411,4.0179214272859,-5.6020481548878704,0.6768541472506836,1.7425394003644954,0.014401152069087974,0.13977799999999996,0.145324,-0.660465,-0.038847000000000076,0.022749999999999937,-0.924666,0.17862500000000003,0.12257400000000007,0.264201,0.0,0.9873820470454098,single,-0.660465
92,0.766667,stair_acsent,-0.032157427405826555,0.06815454763617772,-0.000479961603072237,0.07037949931385823,-0.09727915026932707,0.17454951094106524,-0.1661867050635922,1.043436525077991,0.18862491000719597,-0.001919846412288948,-0.0011999040076739317,0.0007199424046075229,-6.954458776951953,3.627673479180747,-6.897317217935728,0.21838435387880892,3.440836891573802,-7.936798752152705,-0.4895527736685772,0.3456034555857629,0.806357381114482,0.13866100000000015,0.15345200000000003,-0.6588890000000001,-0.038594999999999935,0.02217200000000008,-0.924656,0.17725600000000008,0.13127999999999995,0.265767,0.0,0.9960405187838547,single,-0.6588890000000001
93,0.775,stair_acsent,0.012600504020163363,0.05448217928717911,0.06252250090003499,0.2642086974644246,-0.11863425547509711,-0.05528469565511718,-0.16992679707189223,1.100684027361098,0.15744629785191766,0.002280091203647086,-0.002160086403464951,-0.005400216008640311,5.371166617783479,-1.6407498318731006,7.560597924289806,-0.44882899415576766,6.869975072975749,-3.7415831219582603,0.5040126744192988,-0.11522649655478402,-0.734448387525238,0.13714000000000004,0.16217000000000004,-0.658098,-0.038680999999999965,0.02169999999999994,-0.925222,0.175821,0.1404700000000001,0.26712400000000003,0.0,0.9895880514541975,single,-0.658098
94,0.783333,stair_acsent,-0.014280571222846672,0.06624264970598848,0.011040441617662525,0.02892246503968113,-0.17962551313860217,-0.012949662437795568,-0.15636625465019394,1.0924036961478525,0.0872434897395877,-0.002760110404402308,0.009120364814601788,-0.0010800432017279101,-3.225858063483773,1.4113129027732476,-6.178094237654258,1.627330183811163,-0.9936794927691873,-8.424673960438088,-0.6048483869014089,1.353708294499801,0.5184414744884723,0.13595599999999997,0.170721,-0.6574629999999999,-0.03858499999999987,0.02122400000000002,-0.925323,0.17454099999999984,0.149497,0.2678600000000001,0.0,0.9840168702555967,single,-0.6574629999999999
95,0.791667,stair_acsent,0.028677705783549126,0.04499640028797832,0.05531557475402462,0.20860821777319835,-0.40440376870805816,-0.13575855472428208,-0.13354931605470496,1.1255099592032485,0.048356131509477276,0.003719702423793135,-0.0027597792176619956,-0.00011999040076805765,5.154580874297513,-2.549345982482601,5.312590969085885,2.737813606370146,3.9724337719457328,-4.6661096988373085,0.7775153381563947,-1.4255032436121542,0.11519712034555377,0.13460399999999995,0.17972599999999994,-0.657521,-0.03879300000000008,0.02082600000000001,-0.925785,0.17339700000000002,0.15889999999999993,0.26826399999999995,0.0,0.9922779239355799,single,-0.657521
96,0.8,stair_acsent,-0.03264130565223195,0.07776311052441848,-0.0012000480019279335,-0.14151914517662764,-0.32528107629262026,0.2568308442518112,-0.1190447617904836,1.1258850354014116,0.010800432017284785,0.0008400336013548828,0.0002400096003775928,0.0003600144005759652,-7.358575715322312,3.932162514873397,-6.7821460165549405,1.7406161363520112,0.04501094421734372,-4.5068642136316255,-0.34557408165585507,0.3599890577270582,0.05760288027649356,0.1338839999999999,0.18845999999999996,-0.6574209999999999,-0.03851399999999994,0.020179999999999976,-0.9257719999999999,0.17239799999999983,0.16827999999999999,0.268351,0.0,0.9984251354306015,single,-0.6574209999999999
97,0.808333,stair_acsent,-0.13752550102005304,0.01944077763110488,-0.4714988599543977,-4.009982919904306,-1.105556871557059,0.12491167382455368,-0.10296411856471993,1.171006840273627,-0.018000720028805997,-0.0019200768030740608,0.0032401296051841467,0.003600144005760533,-12.586606908414982,-6.998959905593919,-56.43811495889525,1.9297543772667478,5.414833177993004,-3.456276496590789,-0.3312264975913799,0.3600288017288589,0.38883110586638636,0.13417200000000018,0.198056,-0.6536420000000001,-0.03738399999999986,0.02004499999999998,-0.921813,0.17155600000000004,0.17801100000000003,0.26817099999999994,0.0,0.9913163353149741,single,-0.6536420000000001
98,0.816667,stair_acsent,-0.023038156947440425,0.07499400047995944,0.029037676985836647,0.3745004921828661,0.012402737890192065,0.16416107276442682,-0.07079433645309406,1.1457883369330402,-0.07631389488840473,-0.04751619870411086,0.023158147348211814,0.013558915286776777,13.737382298129559,6.665853473584609,60.05957966645435,3.8600650481912195,-3.0259783226045758,-6.997021221454078,-5.471096940369145,2.3899709314887825,1.1949569571653669,0.13377400000000006,0.20698000000000005,-0.65452,-0.037587999999999955,0.01961299999999999,-0.9219419999999999,0.17136200000000001,0.18736700000000006,0.26742199999999994,0.0,0.9090492637675021,single,-0.65452
99,0.825,stair_acsent,-0.0034801392055484196,0.07392295691828472,0.06708268330734338,0.3392400149664398,-0.3937205890772123,0.15653680629993005,-0.06696267850714792,1.1508460338413626,-0.0934837393495784,-0.002640105604220172,-0.01056042241689401,0.0010800432017279101,2.347056011267513,-0.12853036861571152,4.5655833819161264,0.4598173462073897,0.6069479069149789,-2.0604637538910153,5.385346585850367,-4.046390227421832,-1.4975245511879254,0.13324499999999984,0.21595399999999998,-0.655858,-0.03758100000000009,0.018908999999999954,-0.9224920000000001,0.17082599999999992,0.19704500000000003,0.26663400000000004,0.0,0.9817685274759498,single,-0.655858
100,0.833333,stair_acsent,0.0874834993399708,0.13776551062041548,-0.08268330733229903,-1.0201330876998296,0.6755614188018094,-0.4674997051091989,-0.030001200047985167,1.139925597023867,-0.1459258370334801,0.009240369614770478,-0.007560302412100682,-0.009480379215168472,10.916073268392996,7.66141290077169,-17.972637782268304,4.435554837293004,-1.310504838292992,-6.293303454206347,1.4257140548410656,0.360028801727267,-1.2673013820828438,0.132266,0.22430499999999998,-0.656385,-0.038233000000000184,0.01769799999999999,-0.921882,0.17049900000000018,0.20660699999999999,0.265497,0.0,0.9745911108487935,single,-0.656385
101,0.841667,stair_acsent,0.006479481641468453,0.1053515718742547,0.055435565154782686,-0.017275892503165458,0.30046970009853247,0.06891782444635801,-0.017158627309815593,1.1376289896808256,-0.1508279337652986,-0.00755939524837098,0.010439164866817684,0.009599232061435037,-9.71970454745641,-3.8893615006192137,16.57293886334061,1.5409854497443576,-0.2755708354981369,-0.5882045514540979,-2.0158105187354605,2.1597632924067947,2.289370203576117,0.132069,0.232908,-0.658104,-0.038350000000000106,0.016907000000000005,-0.922264,0.1704190000000001,0.216001,0.26415999999999995,0.0,0.9732155789576303,single,-0.658104
102,0.85,stair_acsent,-0.01284051362055445,0.09636385455418282,-0.02028081123244645,-0.11602684758845791,-0.1805606502239561,0.08700885205295453,-0.0003600144005730556,1.1336853474139048,-0.17532701308052365,0.05724228969159547,-0.01368054722189602,-0.02256090243609773,-2.318492171129615,-1.0785692211774822,-9.086328619612365,2.0159141856765497,-0.4732560022705897,-2.940007118111757,7.776513253326178,-2.894481229894867,-3.859370514524549,0.1321730000000001,0.241552,-0.659396,-0.037765999999999966,0.01598999999999995,-0.922283,0.16993900000000006,0.22556200000000004,0.262887,0.0,0.8949493320641285,single,-0.659396
103,0.858333,stair_acsent,-0.002400096003829221,0.0934837393495705,0.05796231849274081,0.16803804264708644,-0.1353016862900029,0.06330066821042965,0.007680307212269494,1.0831633265330542,-0.18168726749070072,-0.007920316812687057,0.013320532821322787,0.003600144005760485,1.2529002300162229,-0.34562764965946446,9.389551149068396,0.964877188628647,-6.062885021102886,-0.7632610596636316,-7.8198255735368125,3.2402592155548655,3.1394511510690157,0.13225699999999985,0.249799,-0.661393,-0.03781200000000018,0.015322000000000058,-0.922736,0.17006900000000003,0.23447699999999994,0.261343,0.0,0.9734832835785359,single,-0.661393
104,0.866667,stair_acsent,0.01031917446601979,0.13870890328774327,-0.019438444924405617,-0.2461668129119377,0.14072876000302836,0.0917317454026729,0.02375809935206907,1.0541156707463448,-0.19210463162946637,0.008519318454542199,-0.013198944084479856,-0.007559395248380239,1.5261903611529979,5.426585545737105,-9.287348622167851,1.9291807223181745,-3.4854398592164135,-1.2499836979560486,1.972598424193586,-3.1820826620833684,-1.3390375874898952,0.13236900000000018,0.25742799999999993,-0.662832,-0.03782699999999983,0.014055999999999957,-0.922637,0.17019600000000001,0.24337199999999998,0.25980500000000006,0.0,0.9709437629378455,single,-0.662832
105,0.875,stair_acsent,-0.00996039841591658,0.0882035281411169,0.055322212888520676,0.19483992921524282,-0.4391218108383248,0.1267542640729016,0.01692067682706662,1.0537621504860197,-0.23640945637825742,0.0003600144005730508,-0.0010800432017324755,-0.0019200768030723696,-2.4336460916760214,-6.060887453093263,8.97163780306324,-0.8205235239412483,-0.04242412820413889,-5.316791641520565,-0.9791556527024018,1.4543262789808389,0.6767452832482714,0.13259299999999996,0.26547400000000004,-0.665263,-0.037741000000000025,0.01331199999999999,-0.923114,0.17033399999999999,0.25216200000000005,0.25785099999999994,0.0,0.9962796361378947,single,-0.665263
106,0.883333,stair_acsent,-0.017640705628239366,0.11844473778951962,-0.013080523220931872,-0.04849643782085671,-0.26695125600251046,0.1287342987574894,0.05268210728427389,0.9966398655946205,-0.2589703588143507,0.006960278411123393,-0.007200288011514309,-0.0034801392055679413,-0.9216737324280277,3.629090321421169,-8.208656679401448,4.291543316597518,-6.854948384903278,-2.707416588994744,0.7920633638005897,-0.7344587555240378,-0.18721497689854377,0.13317899999999994,0.272792,-0.667312,-0.037536000000000014,0.01226499999999997,-0.923034,0.17071499999999995,0.260527,0.255722,0.0,0.9823301109936173,single,-0.667312
107,0.891667,stair_acsent,-0.017638588912874734,0.10535157187424278,0.0022798176145897952,0.12251512395805132,-0.43470537282359983,0.15841590336374392,0.011639068874491756,0.9895608351331955,-0.2765778737701001,0.0016798656107461687,-0.000959923206144474,-0.004079673626109851,0.0002539855249138529,-1.5710542254951907,1.8430934527863876,-4.9247706275236816,-0.8494157021148351,-2.1127327760678565,-0.6335988481374194,0.7487838739344697,-0.071938375394998,0.13342299999999985,0.28016100000000005,-0.669636,-0.03737500000000016,0.011379000000000028,-0.923087,0.170798,0.268782,0.253451,0.0,0.992474646939357,single,-0.669636
108,0.9,stair_acsent,0.001200048001901287,0.11760470418816474,0.032401296051841035,0.043928410880542265,-0.16967148279288233,0.09040570962532865,-0.00408016320651234,0.9377175087003427,-0.25141005640225667,0.0006000240009639668,-0.0015600624025009842,-0.0026401056042243,2.260726858847467,1.470434695058431,3.6147220013501875,-1.8863833050526857,-6.221448029863509,3.0202588944969824,-0.12958617662092853,-0.07201958434615477,0.17275507282917857,0.13337900000000014,0.28699500000000006,-0.6720010000000001,-0.03737999999999997,0.010386000000000006,-0.923379,0.1707590000000001,0.27660900000000005,0.2513779999999999,0.0,0.9947921050576802,single,-0.6720010000000001
109,0.908333,stair_acsent,0.0116404656186265,0.15840633625346345,-0.01068042721708947,-0.21681945320923363,0.23992380355540624,0.06768989938786894,-0.002880115204611091,0.9350774030961283,-0.21864874594983882,-0.00048001920075519197,-0.0003600144005730556,-0.00024000960038384123,1.2529002300162377,4.8963917035040305,-5.170013592815421,0.1440115206889787,-0.31682534551954555,3.9315145148707717,-0.12961036862104508,0.14401152069218046,0.288023041382513,0.1332580000000001,0.2934669999999999,-0.673734,-0.037480999999999876,0.009062999999999932,-0.923292,0.17073899999999997,0.284404,0.24955799999999995,0.0,0.9989229239555502,single,-0.673734
110,0.916667,stair_acsent,-0.00455963522917953,0.1531077513798817,-0.03155747540196919,-0.4205710095187795,-0.30192715340708537,0.048490967740042384,-0.016678665706756683,0.8552915766738624,-0.27021838252939273,0.00035997120230084253,-0.0004799616030722306,-0.001679865610751142,-1.943856593209252,-0.6357793224840074,-2.5050453785552627,-1.655693604769077,-9.5735332880088,-6.18786136063757,0.10079078510391505,-0.01439251289886898,-0.1727688997320962,0.13315699999999997,0.299319,-0.675723,-0.03743999999999992,0.007782999999999984,-0.923043,0.1705969999999999,0.291536,0.24731999999999998,0.0,0.99702702408861,single,-0.675723
111,0.925,stair_acsent,0.012000480019199396,0.124444977799106,0.01572062882515201,-0.28040730883874937,-0.16973301478291625,-0.15911360670426325,-0.03864154566181833,0.8159126365054568,-0.2664106564262559,0.0006000240009639668,0.000120004800195458,0.00012000480019171084,1.9872933215383242,-3.4396704165097294,5.67359945123257,-2.635651020648212,-4.725661846682519,0.45694541019282703,0.028807488139100352,0.07199884834605617,0.2159930890367029,0.13273500000000005,0.30508100000000005,-0.678074,-0.037534999999999874,0.0067470000000000585,-0.923173,0.17026999999999992,0.298334,0.24509900000000007,0.0,0.9989607279445691,single,-0.678074
112,0.933333,stair_acsent,-0.01512060482417492,0.15336613464538737,-0.018840753630140906,0.0701990565311695,-0.18888610395307004,0.18063970427308382,-0.048721948877944336,0.7479899195967893,-0.28153126125045436,0.0006000240009639748,-0.0006000240009639748,-0.003840153606144374,-3.254660367619653,3.470677648659742,-4.147531795907024,-1.2096967738060842,-8.151052071123015,-1.8145451607102614,9.628100415687995e-16,-0.08640691241562935,-0.47523801828106577,0.132455,0.31003600000000003,-0.6802630000000001,-0.03740399999999999,0.005464000000000024,-0.923048,0.16985899999999998,0.304572,0.24278499999999992,0.0,0.993445349970727,single,-0.6802630000000001
113,0.941667,stair_acsent,-0.014038876889866075,0.14062874970003034,0.005039596832251761,-0.03695039925697599,-0.20183436323322554,0.04773447617336679,-0.14494840412768042,0.7079433645308341,-0.3645308375329928,0.0019198464122889224,-0.0015598752099747583,-0.001319894408446969,0.12979696835959162,-1.528363924328886,2.8654128224613014,-11.54625092989385,-4.805202191739252,-9.959152421710803,0.15836602007738632,-0.11517293124679341,0.3024069111707926,0.13136400000000004,0.314764,-0.683343,-0.03727099999999983,0.004279000000000033,-0.923101,0.16863499999999987,0.31048499999999996,0.23975799999999992,0.0,0.9953270452581662,single,-0.683343
114,0.95,stair_acsent,0.017280691227666546,0.1522860914436549,-0.04152166086642993,0.11340059368191714,0.5529414485020356,0.3265929522466318,-0.10620424816993072,0.6625465018600802,-0.36349453978159507,0.00048001920075519197,0.0007200288011461112,-0.004320172806912473,3.758498514044511,1.3989369667136293,-5.587574426818927,4.649484694317779,-5.4478414341478745,0.12436070459591392,-0.1727861768311225,0.2735994253115193,-0.3600478097282529,0.13033499999999987,0.319016,-0.686026,-0.03741100000000008,0.0030160000000000187,-0.922791,0.16774599999999995,0.316,0.236765,0.0,0.992656682367024,single,-0.686026
115,0.958333,stair_acsent,0.01764070562821272,0.11592463698548162,0.043801752070076465,0.14713196707163503,-0.6777470246636301,0.14166699098785368,-0.058202328093105084,0.5623424936997484,-0.22452898115924683,-0.004920196807867223,-0.0013200528021100684,0.005520220808832439,0.04320345620378895,-4.363549076943853,10.23921912114557,5.7604608276521585,-12.024961977718876,16.67653409604556,-0.6480518431084114,-0.24481958517414748,1.1808944696681714,0.12970300000000012,0.322736,-0.6882619999999999,-0.03759899999999994,0.002039000000000013,-0.92311,0.16730200000000006,0.320697,0.23484800000000006,0.0,0.9874807133449168,single,-0.6882619999999999
116,0.966667,stair_acsent,-0.007919366450671823,0.16474682025437332,-0.04103671706262909,-0.2267027581565666,0.025174998988260918,0.011225696893782035,-0.0568754499640127,0.558915286777053,-0.26901847852171884,-0.0026397888168906074,0.002399808015361153,-0.010679145668346723,-3.06696329240273,5.8581933368000145,-10.179801911771648,0.15921263848000672,-0.411231932168869,-5.338312618487122,0.2736270687516916,0.44634759028932003,-1.9437684757834217,0.12929499999999994,0.32602100000000006,-0.690162,-0.037555000000000005,0.0006860000000000754,-0.922857,0.16684999999999994,0.325335,0.23269499999999999,0.0,0.9812345089389725,single,-0.690162
117,0.975,stair_acsent,0.04332173286929521,0.17448697947918873,0.016080643225725274,0.10229774953540682,0.1936073615978822,0.016200209401554543,-0.02112084483378802,0.5015000600024033,-0.2668906756270213,-0.009240369614797248,0.0021600864034516565,-0.00012000480019171244,6.14917788551152,1.1688658616123249,6.854357408898942,4.290724244596784,-6.890102817070712,0.2553465612261574,-0.7921013798039962,-0.028767744138905416,1.267147590082216,0.12875800000000015,0.328746,-0.69252,-0.037992999999999943,-0.0007500000000000284,-0.922992,0.1667510000000001,0.329496,0.230472,0.0,0.9841829201809744,single,-0.69252
118,0.983333,stair_acsent,0.02892115684629266,0.15276611064442136,-0.03060122404896246,-0.16812194852721288,-0.31428522874896203,0.09444632913816352,0.0073202928116964435,0.42613704548181397,-0.2592103684147416,-0.011280451218053295,-0.0019200768030740352,0.004680187207487964,-1.7281382482902299,-2.606608524513054,-5.6020481548887,3.4130730403797362,-9.043923499410662,0.921673732422856,-0.24481958517413155,-0.48963917034989496,0.5760460827648693,0.12857799999999986,0.331024,-0.6944250000000001,-0.03832800000000014,-0.002039000000000013,-0.922698,0.166906,0.333063,0.22827299999999995,0.0,0.9793952926825421,single,-0.6944250000000001
119,0.991667,stair_acsent,-0.024478041756670767,0.19246460283178055,-0.006239500839925759,0.03613046535008584,0.09991596576744928,-0.03592464308746076,0.03779697624190869,0.3909287257019507,-0.2559395248380139,-0.004079673626094032,0.0005999520038436266,0.0023998080153591035,-6.407391241056363,4.763437987444134,2.9231729312499204,3.656909458868781,-4.2246604007515565,0.39246983162079524,0.8640241890999883,0.30237926648880203,-0.2736236131664115,0.12909700000000002,0.332678,-0.6965060000000001,-0.038157999999999914,-0.00363800000000003,-0.9226260000000001,0.16725499999999993,0.336316,0.22612,0.0,0.9920482779969533,single,-0.6965060000000001
120,1.0,stair_acsent,0.025561022440899778,0.17520700828031918,-0.12732509300373038,-1.4494275507957401,0.49321747476610367,0.38868306266351776,0.07380295211808828,0.348853954158164,-0.26617064682586833,-0.0008400336013548828,0.0008400336013415596,-0.0015600624024964046,6.004927900824473,-2.0709941859427925,-14.530852293748243,4.320889940739162,-5.0491745522364715,-1.2277837498925208,0.3887723538628508,0.028810944137517332,-0.4752034582809902,0.12949900000000003,0.33412500000000006,-0.6976629999999999,-0.03837800000000002,-0.005090999999999957,-0.921578,0.16787700000000005,0.339216,0.2239150000000001,0.0,0.9967318423460139,single,-0.6976629999999999
121,1.008333,stair_acsent,0.02376095043800819,0.2109684387375559,0.001800072002878601,-0.20864712650091002,1.159305143413807,-0.24722568563681596,0.06840273610944013,0.281771270850832,-0.26197047881915736,-0.0006000240009639748,-0.00024000960037759599,-0.0024000960038400776,-0.21601728103823384,4.291543316601111,15.495639626378274,-0.6480518431115085,-8.050244006640183,0.5040403224182176,0.028802304139074787,-0.1296103686210447,-0.10080806448382104,0.12987100000000007,0.334715,-0.699861,-0.038580999999999976,-0.0068509999999999405,-0.9216129999999999,0.16845200000000005,0.3415659999999999,0.22175199999999995,0.0,0.9958573712594083,single,-0.699861
122,1.016667,stair_acsent,-0.0017998560115042128,0.16642668586513276,0.0403167746580274,0.2950815237268218,-0.6382633057650476,0.004774848937819393,0.0697144228461649,0.22354211663066825,-0.2729781617470581,0.003359731221518936,-0.0008399328053863948,-0.0028797696184304695,-3.0670514098286787,-5.344582778068492,4.621634587850793,0.15738981722159356,-6.986939551255493,-1.3208162860451926,0.47513261608865864,-0.0719850257989914,-0.05755622925250639,0.1304669999999999,0.33519099999999996,-0.702472,-0.03853799999999996,-0.008245000000000058,-0.9219729999999999,0.16900499999999985,0.343436,0.21950099999999995,0.0,0.9924932707866636,single,-0.702472
123,1.025,stair_acsent,0.029281171246839457,0.1872074882995344,-0.07668306732268702,-0.37031370119810525,-0.07302557382923554,0.07510572976272817,0.05796231849274158,0.19680787231489805,-0.3008520340813638,0.0015600624024743586,0.00036001440058637876,-0.0019200768030719789,3.7298724658999105,2.4937960439699784,-14.040542659392234,-1.4103089347682018,-3.20823764739835,-3.344998480055919,-0.2159688970412329,0.1439994246937219,0.11516774455280204,0.130706,0.335271,-0.70434,-0.03876900000000005,-0.009801999999999977,-0.92135,0.16947500000000004,0.34507299999999996,0.21701000000000004,0.0,0.9958333000008204,single,-0.70434
124,1.033333,stair_acsent,0.013920556822273247,0.19404776191047057,-0.05064202568103037,-0.43142804729874223,0.0840193981917965,0.012362777542029737,0.05580223208930176,0.14508580343213662,-0.3068522740909587,0.00516020640825807,-0.0008400336013548716,-0.004080163206528107,-1.843347464846507,0.8208656679390437,3.1250499989987035,-0.25922073724226374,-6.2068965417929345,-0.7200576034555167,0.4320345620765209,-0.14401152069377526,-0.25922073724422057,0.13105500000000014,0.334863,-0.706475,-0.03884200000000004,-0.011426000000000047,-0.920962,0.1698970000000002,0.34628900000000007,0.21448699999999998,0.0,0.9889469563745321,single,-0.706475
125,1.041667,stair_acsent,0.008519318454542311,0.1840652747780255,0.020998320134393997,0.09600814467833281,0.14635590510616286,0.1157888706779681,0.04043676505877323,0.1057115430765517,-0.3299736021118376,0.004559635229206295,-0.00011999040075806964,-0.0041996640268779665,-0.6480967563872135,-1.1978026316828962,8.596153805546644,-1.8437085469797005,-4.724533280007879,-2.7743374155122806,-0.0720627764640973,0.08639827220984109,-0.014338951325877392,0.1313209999999998,0.33420999999999995,-0.7094,-0.03887499999999999,-0.012961,-0.921172,0.1701959999999998,0.34717099999999995,0.21177199999999996,0.0,0.9896664181403076,single,-0.7094
126,1.05,stair_acsent,0.011280451218026498,0.18636745469817453,-0.011040441617662232,-0.2082599776242922,0.28293946524725305,-0.04351809887988616,0.038881555262208725,0.08052322092883966,-0.35497419896795446,0.004920196807867157,0.0006000240009506356,-0.004920196807872569,0.33134918558552,0.27627264132353146,-3.8448052024547783,-0.18663264089337292,-3.022719566508052,-3.000191630399183,0.04326912020411085,0.08640518441241962,-0.0864673924150474,0.13155099999999997,0.33332800000000007,-0.7122660000000001,-0.03892799999999985,-0.014508999999999994,-0.9211210000000001,0.17047899999999983,0.34783700000000006,0.208855,0.0,0.988359946776317,single,-0.7122660000000001
127,1.058333,stair_acsent,0.03456138245530645,0.22044881795273075,-0.05952238089524259,-0.8004868714521318,-0.18413574418148024,-0.02617591136271219,0.0722428897156149,0.0468018720748836,-0.3651746069842815,0.005280211208440344,0.0007200288011594343,-0.003360134405375859,2.793823501413676,4.089927187634288,-5.818065435927133,4.003520275219787,-4.046723731424022,-1.2240979258762916,0.04320345620703113,0.01440115207113882,0.18721497689868288,0.13186500000000012,0.331881,-0.7148129999999999,-0.039171999999999985,-0.01634000000000002,-0.9206529999999999,0.1710370000000001,0.348221,0.20584000000000002,0.0,0.9895000562035329,single,-0.7148129999999999
128,1.066667,stair_acsent,0.00767938564915569,0.1797456203503705,-0.02543796496280158,0.0035139689587052885,0.1273734545453253,0.08236912050377088,0.04787616990638507,0.013078953683701633,-0.37508999280057187,0.0032397408207342263,0.0011999040076739157,-0.0031197504199665846,-3.225581570212449,-4.883992992843765,4.089802727674676,-2.9237724753095335,-4.04642649282238,-1.1897511178654059,-0.24483685957596615,0.05758041834826946,0.028843770747452913,0.13219999999999987,0.33049199999999995,-0.717727,-0.03920900000000005,-0.017828000000000066,-0.920467,0.17140899999999992,0.34832,0.20274000000000003,0.0,0.9922417547631128,single,-0.717727
129,1.075,stair_acsent,-0.005640225609040045,0.17532701308051699,-0.04020160806431985,-0.5027276789897628,0.701677109940593,0.202258339854861,0.06480259210368293,-0.03936157446297828,-0.3667346693867792,0.0019200768030740608,0.00108004320173249,-0.0014400576023042965,-1.5984172876750098,-0.530254082545729,-1.7717080405038286,2.031251913752312,-6.293115102205735,1.0026789168118047,-0.1583660167598917,-0.014383872067853923,0.20157120096751513,0.132787,0.328703,-0.720448,-0.0391459999999999,-0.019279999999999964,-0.920144,0.1719329999999999,0.347983,0.19969599999999998,0.0,0.9956134820993862,single,-0.720448
130,1.083333,stair_acsent,0.022680907236288423,0.2148085923436983,-0.025801032041277025,-0.3254083258101522,0.489419629099907,-0.023089999187253456,0.04608184327374958,-0.057722308892355786,-0.3667346693867694,-0.0002400096003909128,0.0004800192007685024,0.0003600144005763768,3.3986718883148894,4.737979030742906,1.7281382482950403,-2.2465797227808735,-2.203376266575926,1.1724424117006127e-12,-0.2592207372452821,-0.07200576034609109,0.2160172810369185,0.13298200000000016,0.32643199999999994,-0.7232890000000001,-0.039336999999999955,-0.02106600000000003,-0.919926,0.1723190000000001,0.347498,0.19663699999999995,0.0,0.9989229239555262,single,-0.7232890000000001
131,1.091667,stair_acsent,-0.005759539236840278,0.19078473722102357,0.0004799616030722434,-0.21396573364657026,0.09451487173513323,-0.002264955256793086,0.02519798416124615,-0.07511399088073283,-0.3508519318454602,-0.0023998080153478955,0.00143988480921673,-0.0005999520038398879,-3.4125805703298826,-2.882632004160691,3.153466959965175,-2.5058626244905002,-2.086834891813939,1.9057760428737103,-0.25915507738865173,0.11517465904106622,-0.11518675358966678,0.1332399999999998,0.32421599999999995,-0.7262170000000001,-0.03930900000000004,-0.022643999999999997,-0.9199350000000001,0.17254899999999984,0.34685999999999995,0.19371799999999995,0.0,0.9952296374522671,single,-0.7262170000000001
132,1.1,stair_acsent,0.011400456018235278,0.31861274450977034,-0.0009600384015370048,0.42637123906109264,-0.19403078056091716,0.09043199074471096,-0.10176407056281592,-0.07116284651385386,-0.27925117004679645,-0.002520100804037968,-0.0008400336013415484,0.0010800432017278813,2.059281801881106,15.339974473628288,-0.17280691282961994,-15.236056009127548,0.4741562902770782,8.592435113244031,-0.01443571207129131,-0.2736011533131212,0.20160748896768746,0.1322969999999999,0.32096800000000003,-0.7285360000000001,-0.03942500000000004,-0.02530599999999994,-0.919918,0.17172199999999993,0.34627399999999997,0.19138199999999994,0.0,0.9952206875693562,single,-0.7285360000000001
133,1.108333,stair_acsent,0.009960398415943358,0.24840993639746012,-0.10176407056283196,-0.80760270545521,0.2810602959420535,-0.20665861664895055,-0.019080763230531823,-0.07164286571463094,-0.3606144245769873,-0.0038401536061481215,0.0019200768030607374,0.0009600384015361976,-0.17281382482802501,-8.42467396043572,-12.096967738065027,9.922393775625208,-0.057604608277580474,-9.763981102867104,-0.15841267276013027,0.33122649758818085,-0.014401152069084938,0.1320549999999998,0.318301,-0.730693,-0.03954000000000013,-0.02736000000000005,-0.9190619999999999,0.17159499999999994,0.34566100000000005,0.1883689999999999,0.0,0.9926675855914969,single,-0.730693
134,1.116667,stair_acsent,0.01727861771057366,0.17410607151427515,0.012958963282936905,0.1761712592620348,-0.5400244243168154,0.06567345218897688,-0.027117830573534403,-0.10247180225582132,-0.3380129589632787,-0.0033597312214922927,-0.0011999040076739157,-0.0004799616030718143,0.8781160660703436,-8.915750525940053,13.76566280846748,-0.9643709314857833,-3.699176450826752,2.7119589169316534,0.05764607447274119,-0.37436774786832605,-0.17278617765874743,0.13168500000000005,0.315996,-0.733618,-0.03971199999999997,-0.028820999999999986,-0.9191739999999999,0.17139700000000002,0.344817,0.18555599999999994,0.0,0.9940004799616216,single,-0.733618
135,1.125,stair_acsent,0.017040681627275626,0.29689187567502684,-0.06624264970598848,-0.19663384152794483,0.5314366199901528,-0.11576604985448298,-0.06372254890196377,-0.13836553462138126,-0.3216128645145821,-0.001320052802110086,0.0001200048001954596,0.0004800192007680988,-0.02855347213464958,14.734885894726126,-9.504573741620797,-4.392741909087928,-4.307420180674459,1.9680900574459093,0.244771201173914,0.15839539276003686,0.11520230455297274,0.1310119999999999,0.31236900000000006,-0.735746,-0.03986500000000004,-0.03129399999999993,-0.9186179999999999,0.17087699999999995,0.343663,0.18287199999999992,0.0,0.9976504379926281,single,-0.735746
136,1.133333,stair_acsent,0.07224288971558826,0.20592823712949315,0.113284531381263,-0.5978853866261373,0.8510482970669293,-0.31244323723306583,-0.11592463698548316,-0.07476299051962629,-0.2672506900276044,-0.00312012480500201,0.0009600384015370304,0.0026401056042243353,6.624529951795649,-10.916073268394879,21.54412349541019,-6.264501150068387,7.632610596634533,6.523721887312878,-0.2160172810382744,0.10080806448356876,0.25922073724424055,0.1294439999999999,0.31003,-0.738917,-0.04049300000000011,-0.033001999999999976,-0.91954,0.169937,0.34303199999999995,0.18062299999999998,0.0,0.9930025778292861,single,-0.738917
137,1.141667,stair_acsent,0.05087592992560316,0.22726181905446807,-0.040196784257256014,-0.8648390345920585,-0.2513411126694974,-0.34465123790028707,-0.15082793376530526,0.022078233741302626,-0.17266618670506179,0.00035997120230084253,0.0,-0.00035997120230375665,-2.5638300683927215,2.5598250449933713,-18.416284573856235,-4.188060568733121,11.620017309926588,11.349232460108215,0.41757811462716893,-0.11519539255303853,-0.3599804183499003,0.12776299999999985,0.30832000000000004,-0.740021,-0.04091400000000012,-0.03489599999999993,-0.919208,0.16867699999999997,0.34321599999999997,0.17918699999999999,0.11612311710250783,0.9991515397394006,single,-0.740021
138,1.15,stair_acsent,0.057362294491777606,0.22812912516501369,-0.040441617664710765,-0.15297443822531515,-0.29229508025425044,-0.1583780538753017,-0.014520580823237591,-0.048001920076804885,-0.06312252490099646,-0.0003600144005730556,0.001800072002878601,-0.0002400096003842576,0.7783948837362904,0.10408089650133451,-0.02938118414193599,16.35753665451445,-8.409954856367232,13.145765247097843,-0.08640172841400513,0.21601728103667556,0.01439596806906278,0.12716399999999983,0.306019,-0.74021,-0.04139500000000007,-0.03678199999999998,-0.918873,0.1685589999999999,0.34280099999999997,0.17866300000000002,0.36563436339205435,0.9969144268529692,single,-0.74021
139,1.158333,stair_acsent,0.07788311532459959,0.22404896195846866,-0.06780271210848768,-0.5882147182998123,0.3109825442246906,-0.11333343973609679,-0.12576503060121438,-0.03468138725548766,-0.13284531381255313,0.0019200768030740096,0.0032401296051840604,-0.0007200288011519209,2.4625970038187472,-0.489639170352209,-3.2834626717600424,-13.349867968075705,1.598527879673226,-8.36706935216074,0.27362188931321557,0.1728138248296453,-0.05760460827644964,0.125467,0.30386300000000005,-0.740752,-0.042027999999999954,-0.038621999999999934,-0.918314,0.16749499999999995,0.342485,0.177562,0.18967974004423355,0.9936091262415802,single,-0.740752
140,1.166667,stair_acsent,0.026757859371260916,0.1280297576193977,-0.12095032397408544,-0.31483768103594656,-0.19272691071745718,0.9222684270457243,-0.03911687065035453,-0.04019678425726375,-0.16786657067434727,0.0022798176145898256,0.002639788816890678,-0.002039836813054953,-6.13453995120466,-11.52138281006393,-6.3772032476120435,10.396947438308315,-0.6617946966374125,-4.202214646243677,0.043165444146367034,-0.07203513178466449,-0.15836429228498405,0.12491799999999986,0.302461,-0.741143,-0.04223200000000005,-0.03966700000000001,-0.917323,0.1671499999999999,0.342128,0.17618,0.2050183782369409,0.9932655554593754,single,-0.741143
141,1.175,stair_acsent,0.06660266410654643,0.18012720508819732,0.009840393615747638,-0.5768760934105136,-0.11663849450444491,-0.020350878766013825,-0.00024000960036426637,-0.029401176047040792,-0.0774030961238444,0.0024000960038291887,0.0022800912036470555,-0.0020400816032640533,4.781567830947416,6.251943774006806,15.695513931336947,4.665409942396447,1.295524806218981,10.856051188107678,0.014433984068086042,-0.04316544020684222,-2.9376000132046746e-05,0.12436100000000017,0.300715,-0.74187,-0.042767,-0.04114899999999999,-0.917422,0.16712800000000017,0.341864,0.17555199999999993,0.3620011468735816,0.993519000061607,single,-0.74187
142,1.183333,stair_acsent,0.013440537621518424,0.2174486979479242,-0.043441737669503995,0.11612071579348333,-0.16616986963063168,0.2773219041705505,-0.009960398415943358,-0.023040921636862083,-0.12972518900756133,0.002400096003855899,0.0038401536061481215,0.00024000960038384123,-6.379710366618084,4.478758293499007,-6.394111518691002,-1.1664933176022059,0.7632610596638387,-6.278902302138175,3.205376781633641e-12,0.1872149768992056,0.2736218893133224,0.124166,0.298711,-0.742589,-0.04285899999999998,-0.042928999999999995,-0.917058,0.16702499999999998,0.34164,0.17446899999999999,0.27978092807938415,0.9924419202257132,single,-0.742589
143,1.191667,stair_acsent,0.06851451883847766,0.16942644588432423,0.0016798656107461464,-0.7010756816464196,0.14320291043104266,0.030647645270081427,-0.022078233741295965,-0.009719222462202678,-0.15478761699063784,0.0035997120230350688,0.002399808015361153,-0.0020398368130548987,6.60834907810881,-5.762209270890282,5.414159260889104,-1.4540239171289313,1.598476022877286,-3.0072507779069255,0.14394240690894655,-0.17282764468286027,-0.2735596848378597,0.12341100000000016,0.29721800000000004,-0.7438929999999999,-0.04339999999999988,-0.044320999999999944,-0.9170889999999999,0.16681100000000004,0.341539,0.17319600000000002,0.2389065830011673,0.99202818517399,single,-0.7438929999999999
144,1.2,stair_acsent,0.06036241449659748,0.21372854914197154,-0.03552142085683015,-0.23259034114501723,-0.0966137077832534,0.28142423719169646,0.05004200168005442,-0.02820112804512029,-0.15672626905076364,0.008280331213260217,0.004320172806903313,-0.0026401056042243353,-0.9782916526917379,5.316465049519706,-4.464332949427174,8.654774441539786,-2.2179173866455995,-0.23264755311722354,0.5616967706978508,0.23045299310478548,-0.07203513634578687,0.1233249999999999,0.295202,-0.744903,-0.04383399999999993,-0.04606600000000005,-0.916815,0.16715899999999984,0.34126800000000007,0.17191200000000006,0.2217982897761241,0.98382406316604,single,-0.744903
145,1.208333,stair_acsent,0.03600144005759771,0.20616824672986525,-0.027961118444741948,-0.4091721968791324,-0.041284480191153786,0.017647927850658638,-0.004200168006721065,-0.026401056042247645,-0.07824312972518928,-0.0018000720028918764,0.0001200048001954564,0.001680067202688093,-2.923433870034723,-0.9072725803559525,0.9072725803537829,-6.509320735242354,0.2160172810359548,9.418353453206887,-1.2096967738091824,-0.5040403224178307,0.5184414744884618,0.12298999999999993,0.29326399999999997,-0.745322,-0.044148999999999994,-0.04778300000000002,-0.9165679999999999,0.16713899999999993,0.341047,0.1712459999999999,0.36219332663490555,0.9958913079354681,single,-0.745322
146,1.216667,stair_acsent,0.06359491240699898,0.19606431485481826,0.01883849292056224,-0.4086983202715811,-0.0836562801404218,0.17731797740607796,-0.026877849772018986,-0.02723782097431984,-0.07535397168226561,0.007799376049913964,0.003359731221505704,-0.0022798176145906583,3.310951805783753,-1.2123748350188603,5.615504123506729,-2.721104123505922,-0.10040375954790136,0.3466712314523305,1.151841619007202,0.38873607167150337,-0.47514816622016154,0.12223600000000001,0.29140299999999997,-0.746107,-0.04461399999999993,-0.049389000000000016,-0.9167439999999999,0.16684999999999994,0.340792,0.17063699999999993,0.3591440969949943,0.9853451156223021,single,-0.746107
147,1.225,stair_acsent,0.06108244329774196,0.23760950438016887,-0.029761190447607177,-0.3199786826479524,-0.07180778957609248,0.0882301072462656,0.02028081123245923,-0.04044161766470303,-0.06300252010080265,0.0032401296051840604,0.002520100804024645,0.002280091203647888,-0.3015083534449745,4.985622167928702,-5.832195291991908,5.659265691164933,-1.584518983605299,1.4822334791146938,-0.5471314586259238,-0.1007596804849447,0.547210946626481,0.121896,0.289086,-0.746384,-0.045096000000000025,-0.05134800000000006,-0.916477,0.16699200000000003,0.34043400000000007,0.17009299999999994,0.3707268902818027,0.9921740879449193,single,-0.746384
148,1.233333,stair_acsent,0.053282131285238565,0.23136925477019782,-0.003360134405379606,-0.5483544041132759,0.11353361997327996,0.19187258796117096,-0.012120484819381692,-0.02808112324493149,-0.030001200048002222,0.002040081603256197,0.00216008640346498,0.0002400096003842576,-0.9360748844957961,-0.7488599075928365,3.1682534552055457,-3.8883110586632927,1.4833186631191226,3.9603168190088485,-0.1440115206921726,-0.04320345620540841,-0.2448195851750449,0.12135100000000021,0.28692399999999996,-0.746606,-0.04552299999999998,-0.05325800000000003,-0.916447,0.1668740000000002,0.340182,0.16984100000000002,0.42859490293492614,0.9950319043368221,single,-0.746606
149,1.241667,stair_acsent,0.05231581473483317,0.2566594672426189,-0.029637628989680267,-0.22427324138383498,0.2005999747690701,0.13727523100796843,0.013198944084453037,-0.028557715382771076,0.005039596832251761,0.0021598272138316985,0.002279817614589765,0.0021598272138229563,-0.11594871015183457,3.034582730072101,-3.1530471063475476,3.038088421386433,-0.057186481622219974,4.2045592608895745,0.01436832380315579,0.01436659600729349,0.23035968483785507,0.12102499999999994,0.28454699999999994,-0.746317,-0.04594100000000001,-0.05537800000000004,-0.916182,0.16696599999999995,0.339925,0.16986500000000004,0.44689756311671647,0.9936475561257951,single,-0.746317
150,1.25,stair_acsent,0.08340333613343291,0.15864634585382772,0.09660386415456042,-0.7941171504919982,0.14708335081732782,0.17585131129734544,-0.016920676827066845,-0.0350414016560683,-0.032761310452417855,-0.0002400096003909192,0.0027601104044156313,0.0019200768030719789,3.7306517939037596,-11.762045048456987,15.14958516071545,-3.6144990893459923,-0.778073475734703,-4.536290325773426,-0.2879919373842121,0.057637440276715565,-0.028771200138123083,0.1201890000000001,0.282933,-0.7473949999999999,-0.04663799999999996,-0.05667699999999998,-0.916971,0.16682700000000006,0.33960999999999997,0.16957600000000006,0.4152206688437623,0.9943819465157855,single,-0.7473949999999999
151,1.258333,stair_acsent,0.07824312972520135,0.2380895235809437,0.001560062402501005,-0.4823161712403323,-0.03031892849023454,-0.055519274888247774,0.011280451218053445,-0.04056162246489956,-0.0032401296051841467,0.0012000480019279496,0.001560062402501005,0.003480139205568404,-0.6192495389693516,9.533562669760796,-11.405712438744784,3.3842707362439155,-0.662452995179565,3.5426834090044377,0.1728138248312591,-0.1440115206905841,0.1872149768986487,0.11963100000000004,0.280611,-0.747435,-0.04727999999999999,-0.05864799999999992,-0.916955,0.16691100000000003,0.3392589999999999,0.16952,0.4296241787786948,0.9933364009564478,single,-0.747435
152,1.266667,stair_acsent,0.09515238780897979,0.26433885289177456,-0.033597312215016176,-0.2854384558647356,-0.445772892646229,0.05759740687483331,-0.022438204943596808,-0.02687784977201161,-0.009239260859130448,-0.0019198464122889224,0.0027597792176619956,0.0022798176145905976,2.028948654161064,3.1496675438961663,-4.218547470304405,-4.045915066192705,1.6419213694369867,-0.719838163420477,-0.3743573811155325,0.14395450145920102,-0.14402706875183552,0.11865100000000006,0.278184,-0.747232,-0.04808900000000005,-0.06082799999999999,-0.916656,0.1667400000000001,0.339012,0.16942400000000002,0.4396478898766963,0.9932300172466954,single,-0.747232
153,1.275,stair_acsent,0.09864394575781663,0.24468978759150747,-0.014520580823237591,-0.5585293872054433,-0.3022144918435094,-0.10329924636992817,-0.03504140165608829,-0.01764070562822628,-0.0008400336013449015,-0.0032401296051841467,0.0016800672026831415,0.006240249609984452,0.41900371400898434,-2.3579821553182843,2.2892993389870107,-1.512444103263122,1.1085016373197425,1.0079475888378284,-0.15844032076025877,-0.1295706246224486,0.47527085028127813,0.117537,0.27599799999999997,-0.747118,-0.048937999999999926,-0.06285300000000005,-0.916483,0.16647499999999993,0.338851,0.1693650000000001,0.4345995246887721,0.9879512816658054,single,-0.747118
154,1.283333,stair_acsent,0.06828273130925618,0.23952958118324288,-0.0037201488059525624,-0.8604171754558155,0.047173964051940444,0.0480623379661223,-0.025801032041263702,-0.007080283211332079,0.004560182407297442,-0.006120244809795074,0.0022800912036470555,0.006480259210368537,-3.64349147348613,-0.6192495389732988,1.2961036862216295,1.1088887093273039,1.2673013820825652,0.6480518431107942,-0.3456276496592916,0.07200576034608228,0.028802304138255293,0.1167530000000001,0.27394299999999994,-0.747049,-0.04955799999999999,-0.06483000000000005,-0.916398,0.1663110000000001,0.338773,0.16934900000000008,0.4547654591067962,0.984665763444869,single,-0.747049
155,1.291667,stair_acsent,0.1466282697384305,0.2407007439404836,0.103671706263498,-0.995640473617686,0.5793776995245646,0.019778608461866496,-0.0175185985121169,-0.006119510439161112,-0.024238060955124978,-0.006239500839925843,0.0005999520038436347,0.0031197504199662516,9.400712554496737,0.14052828860580036,12.885991728995993,0.9938125184961554,0.1152835099797199,-3.4555127624697586,-0.014309578849384531,-0.20160057593033992,-0.4032287965445584,0.11538500000000007,0.271886,-0.748115,-0.05083199999999999,-0.06683099999999997,-0.9172359999999999,0.16621700000000006,0.338717,0.16912099999999997,0.4491234254759592,0.9883304579946541,single,-0.748115
156,1.3,stair_acsent,0.10596423856953699,0.305532221288852,0.025921036841472483,-0.33976760816508256,0.4357249498899747,-0.1027950155687102,-0.011400456018261925,0.02220088803551992,0.009720388815552181,-0.009480379215161268,0.002760110404415558,0.008040321612864504,-4.879878935424552,7.780088485343484,-9.33045354878485,0.7342064675212852,3.3985837603120768,4.0751769795603705,-0.3889209618667189,0.25922937724371603,0.5904921628342932,0.11440699999999993,0.26952499999999996,-0.74825,-0.051793999999999896,-0.06935400000000003,-0.917385,0.16620099999999982,0.338879,0.16913500000000004,0.45536145830377794,0.9787774640779796,single,-0.74825
157,1.308333,stair_acsent,0.1176047041881663,0.26173046921876975,-0.024480979239167627,-0.7408740870253558,-0.4007729949303225,-0.10678193178032054,-0.0074402976119053235,0.0955238209528346,0.025921036841473174,-0.01092043681748039,0.002640105604220172,0.006240249609984452,1.396911750705559,-5.2564205052301265,-6.04848386903163,0.47523801828352785,8.799103914234411,1.94415552933171,-0.1728138248312894,-0.014401152069529235,-0.21601728103684967,0.11336499999999994,0.26813999999999993,-0.74783,-0.05286499999999994,-0.07151300000000005,-0.917129,0.16622999999999988,0.339653,0.16929899999999998,0.3345707725262692,0.9785804597854535,single,-0.74783
158,1.316667,stair_acsent,0.09635229181666703,0.29769618430524797,-0.01523878089752667,-0.17830237450728872,-0.39250276513530585,0.05705724948000103,0.01223902087833522,0.018478521718267558,0.005279577633791206,-0.011519078473733534,0.006479481641468453,0.007319414446844023,-2.550085477741674,4.3155405671319835,1.1089750829902671,2.3613293124838486,-9.244696332441379,-2.4767769627647964,-0.07183125225019675,0.4606882694082375,0.12948942126944607,0.11266399999999988,0.265813,-0.747659,-0.053764000000000145,-0.07394,-0.916941,0.16642800000000002,0.339753,0.16928200000000004,0.46202620285922147,0.9748202749622932,single,-0.747659
159,1.325,stair_acsent,0.10992439697587006,0.30157206288251653,0.01260050402016353,-0.4534082923359227,-0.18864706096972383,-0.2832846477485081,0.0019200768030740608,0.009480379215168182,-0.005160206408258207,-0.013320532821309641,0.0074402976119053235,0.010920436817472895,1.6287177678150908,0.46512403423360144,3.340847824035816,-1.2383228219442284,-1.0798202931836622,-1.2528241980138617,-0.21618316903589635,0.1153025285535677,0.4321399700742716,0.11176399999999997,0.26337900000000003,-0.747807,-0.054791000000000034,-0.07639099999999999,-0.9169550000000001,0.166555,0.33977,0.16914800000000008,0.48172798016631524,0.9687283158129645,single,-0.747807
160,1.333333,stair_acsent,0.1216848673947021,0.29569182767310437,0.00348013920556165,-0.8530999184764134,0.25534839622968736,-0.20865921678733979,-0.011640465618626191,0.006480259210368121,-0.03984159366374573,-0.012360494419772283,0.010800432017284641,0.01116044641785644,1.4113129027759321,-0.705656451387503,-1.0944875572544968,-1.627330183811354,-0.3600288017280702,-4.161932947976349,0.11520921655314316,0.4032322579358285,0.028802304138190342,0.11065299999999989,0.260969,-0.7481679999999999,-0.05590800000000007,-0.07876499999999997,-0.916891,0.16656099999999996,0.339734,0.16872300000000007,0.42998320072774987,0.9669181688709205,single,-0.7481679999999999
161,1.341667,stair_acsent,0.10619150467963061,0.33837293016559855,0.029157667386608813,-0.13240193779714465,-0.19941316199604914,0.17680242880639213,-0.028197744180464324,0.009479241660666816,-0.004559635229182982,-0.010559155267589354,0.00863930885528706,0.014278857691385087,-1.8590548014245012,5.121322593291936,3.0810568971739443,-1.986714490261393,0.35984910610736165,4.233496332441014,0.21614340678941238,-0.2593140343169693,0.3741794184699672,0.10953299999999988,0.25822799999999996,-0.7484489999999999,-0.05688100000000018,-0.08151300000000006,-0.9170149999999999,0.16641400000000006,0.339741,0.168566,0.4498402808589447,0.9670851606231691,single,-0.7484489999999999
162,1.35,stair_acsent,0.12912516500658058,0.3136925477019032,0.06192247689908351,-0.2126902847845925,-0.16242568540750088,-0.034790162640902386,-0.018360734429385225,0.0014400576023055071,0.011640465618626191,-0.008400336013415484,0.011400456018235278,0.01692067682707264,2.752149325206957,-2.96176436621804,3.93193441887365,1.1804883896650578,-0.9647406766304053,1.9440898653316798,0.2590686732477898,0.3313509135903239,0.31703097752160153,0.10830399999999996,0.25562599999999996,-0.7488680000000001,-0.05802699999999983,-0.0840320000000001,-0.91739,0.16633099999999978,0.33965800000000007,0.16852199999999995,0.4636876675944664,0.9632257129819007,single,-0.7488680000000001
163,1.358333,stair_acsent,0.13956558262330923,0.3439337573502881,0.027361094443778718,-0.47782007907686347,-0.08777999241903392,0.0018200373735276962,-0.017640705628212957,-0.013920556822273616,-0.02928117124684945,-0.005160206408258207,0.01368054722189602,0.02328093123724967,1.2529002300166499,3.629090321419077,-4.14753179590845,0.08640691241716969,-1.8433474648481056,-4.910792855571344,0.38883110586311126,0.2736218893148642,0.7632610596636372,0.10699400000000003,0.25264400000000004,-0.74934,-0.05923299999999987,-0.08678399999999997,-0.917424,0.1662269999999999,0.339428,0.168084,0.43848298819543363,0.9541807033087859,single,-0.74934
164,1.366667,stair_acsent,0.13726901847852474,0.34869210463163586,0.105951523878085,0.07034960321858125,-0.2968200707779837,0.07039740646966752,-0.019438444924405357,-0.002399808015361153,-0.01835853131749617,-0.0037197024238197784,0.01931845452363397,0.03599712023038149,-0.27556565212196704,0.570955997281946,9.430097124346734,-0.21571145862639624,1.382379266488166,1.3106119425669782,0.1728466504005781,0.6764947566280184,1.525820613526725,0.105688,0.24971799999999994,-0.750376,-0.06040800000000002,-0.08952900000000008,-0.918007,0.16609600000000002,0.339247,0.16763099999999997,0.45525852372533154,0.9316294504559484,single,-0.750376
165,1.375,stair_acsent,0.1755670226809079,0.3838953558142303,0.07320292811712528,-0.3595578313023932,-0.22003577725322843,0.07552657228387401,-0.0558022320892766,-0.008280331213246894,-0.014160566422654543,-0.003360134405366283,0.022920916836679947,0.043081723268930935,4.5959443420597035,4.224559124276341,-3.9299886908628365,-4.363829012945107,-0.7056910113867508,0.5037759384185365,0.04314988820994825,0.43231277007632446,0.8501863720808241,0.10376000000000007,0.24645,-0.751104,-0.061898999999999926,-0.09253699999999998,-0.918258,0.165659,0.338987,0.16715400000000002,0.40306109265572104,0.9184747174239647,single,-0.751104
166,1.383333,stair_acsent,0.16068642745709724,0.4008160326413105,0.08592343693747095,-0.19508630556446838,-0.30679852015040143,0.1465402824604316,-0.04920196807872618,0.0014400576023055455,-0.01944077763110821,-0.00432017280692996,0.025321012840509197,0.06780271210848532,-1.7857428565715585,2.030562441747313,1.5265221193262677,0.79206336380061,1.1664933175990073,-0.6336506910420876,-0.11520921655630456,0.2880230413811679,2.966637326239603,0.10201100000000007,0.243122,-0.7519819999999999,-0.06327400000000005,-0.09566600000000003,-0.9184089999999999,0.16528500000000013,0.33878800000000003,0.166427,0.4117948845080692,0.8791577548847591,single,-0.7519819999999999
167,1.391667,stair_acsent,0.13990880729541535,0.3884089272858063,0.07355411567075607,-0.18468419353062768,-0.045312532296154055,-0.11328566551575216,-0.02087832973363537,0.006239500839932337,-0.02027837772978176,-0.021118310535151504,0.03647708183344956,0.07943364530837466,-2.493114970204191,-1.4887335439769758,-1.4841998160204937,3.3985647162335724,0.5758871175458069,-0.10050397152310331,-2.015615278164317,1.3386211894576767,1.395600335959833,0.10067099999999995,0.23993700000000007,-0.752764,-0.064616,-0.09859899999999999,-0.9183600000000001,0.16528699999999996,0.33853600000000006,0.16559600000000008,0.4503890517641511,0.8501272340920849,single,-0.752764
168,1.4,stair_acsent,0.19704788191529563,0.4129365174607055,0.16344653786151286,-0.12999583186794259,-0.48768475517385446,0.08274965812961065,0.007680307212296243,0.02040081603264191,-0.02148085923436774,0.009120364814588465,0.030961238449549244,0.08664346573863038,6.856963232915012,2.9434285581302553,10.787522163777465,3.427173520452643,1.6994258001571703,-0.14430355269242648,3.628786193416566,-0.6619276831753711,0.8652130601531011,0.09909299999999988,0.23666600000000004,-0.754305,-0.06618200000000019,-0.10178199999999993,-0.919,0.16527500000000006,0.33844799999999997,0.16469500000000004,0.4489932540648987,0.8458998387061714,single,-0.754305
169,1.408333,stair_acsent,0.15480619224766215,0.4339373574942998,0.1071642865714649,-0.22233407421425055,0.10569310259755632,-0.06646892699940296,0.011760470418808323,0.00888035521420397,-0.02868114724588804,0.014760590423628117,0.03828153126124476,0.10812432497299691,-5.069205528337061,2.5202016120957573,-6.754140320418454,0.489639170348255,-1.3825105986364739,-0.8640691241473869,0.6768541472506365,0.8784702762144955,2.5778062203727536,0.09790100000000002,0.23312399999999994,-0.755437,-0.06734899999999988,-0.10507900000000003,-0.918992,0.1652499999999999,0.338203,0.163555,0.4462573627641677,0.8072550597563799,single,-0.755437
170,1.416667,stair_acsent,0.18658507319417142,0.4355651547876146,0.15766738660906543,-0.12248795143664004,-0.325345070973515,0.012927236906268777,0.018958483321346954,0.013558915286780885,-0.02855771538277184,0.029637628989667732,0.049796016318688636,0.12023038156947666,3.8131606607283266,0.1953200495938126,6.059887213535096,0.8636924529084195,0.5613822981253904,0.014810638722846487,1.7851018197792055,1.3816276766791569,1.4526105827309785,0.09650399999999992,0.22960700000000006,-0.7569889999999999,-0.06865700000000019,-0.108294,-0.919304,0.1651610000000001,0.33790100000000006,0.1623150000000001,0.43856323527662106,0.7775553942508492,single,-0.7569889999999999
171,1.425,stair_acsent,0.18396735869434536,0.44617784711387665,0.18420736829473625,-0.15345001453243035,-0.055143441519127284,-0.017286832578137495,0.015840633625347256,0.011760470418814985,-0.03180127205087997,0.00528021120846685,0.04956198247929791,0.1395655826233026,-0.3141383055113425,1.2735740221123084,3.1849251992884136,-0.3741569297971491,-0.2158220170365857,-0.38924236986776384,-2.9230070540262156,-0.028085184134251897,2.320316939136638,0.09510299999999994,0.22598700000000005,-0.758789,-0.07014600000000004,-0.111599,-0.919676,0.16524899999999998,0.33758600000000005,0.160887,0.43762667855346093,0.7530023471171675,single,-0.758789
172,1.433333,stair_acsent,0.173166926677052,0.4648985959438473,0.21576863074522773,-0.0390457275232127,-0.005832959294619399,0.012691650818748448,0.027121084843401123,0.012120484819395016,-0.030001200048002222,-0.012480499219981395,0.059282371294864994,0.1639265570622839,-1.296103686222664,2.2465797227854107,3.7875029941787797,1.3537082944982564,0.043203456207852486,0.21601728103657342,-2.131370506234058,1.1664933176007646,2.9234338700325844,0.09388600000000014,0.22221400000000002,-0.760837,-0.071693,-0.11497899999999994,-0.920108,0.16557900000000014,0.33719299999999996,0.15927100000000005,0.4296332741264185,0.7087284651861371,single,-0.760837
173,1.441667,stair_acsent,0.1855051595872373,0.46400287976960936,0.2025437964962815,-0.2359564763942212,0.18628125647657293,-0.08082191001937629,0.029157667386608035,0.01475881929445444,-0.03203743700504142,0.0010799136069291708,0.07055435565153798,0.18178545716342584,1.480469511661291,-0.10747734272113528,-1.5868531616206074,0.24437035555638306,0.3165748110222466,-0.24432888853361923,1.627119369679681,1.3525299204071148,2.1428965804105835,0.09258300000000008,0.21847000000000005,-0.762792,-0.0732299999999999,-0.11825799999999997,-0.920281,0.165813,0.336728,0.157489,0.4237258292545456,0.6749998472183356,single,-0.762792
174,1.45,stair_acsent,0.0840033601343969,0.6182647305892347,0.2376095043801752,0.48049241754110106,-0.43993789230469876,0.5541477011356735,0.02508100324011828,0.016920676827073506,-0.03564142565702561,0.011640465618599855,0.08520340813632485,0.20220808832353468,-12.180703162467458,18.512162584858604,4.208053268198012,-0.489219266349429,0.25943328124554016,-0.4324959380756299,1.2673169340778567,1.7579566164390985,2.4508137717639538,0.09209200000000006,0.213459,-0.765069,-0.07383300000000004,-0.12270000000000003,-0.920576,0.1659250000000001,0.33615900000000004,0.15550699999999995,0.4220812878934725,0.6337759027691388,single,-0.765069
175,1.458333,stair_acsent,0.20520820832834158,0.45505820232808725,0.27097083883354645,-0.07330395823757603,-0.009459309894463834,-0.07291024071186207,0.030601224048948727,0.009840393615740975,-0.026401056042240984,-0.06996279851193928,0.08124324972999242,0.24600984039361098,14.5451635898167,-19.585566814009912,4.003520275215489,0.6624529951794491,-0.849667972078772,1.1088887093225088,-9.792783407000805,-0.4752380182806147,5.256420505229274,0.09063699999999986,0.20974899999999996,-0.767547,-0.07612600000000014,-0.125815,-0.9207839999999999,0.166763,0.335564,0.15323699999999996,0.4306721953335656,0.5527364051727621,single,-0.767547
176,1.466667,stair_acsent,0.20926325893928496,0.45860331173506896,0.2769378449724047,-0.3770522657812276,0.4309922012137466,-0.09861901047450665,0.02303815694746768,0.0062395008399391645,-0.026517878569714805,-0.03479721622269102,0.08999280057595904,0.2517398608111402,0.48656714794138,0.42537909850993333,0.7159834579863653,-0.9074954525415394,-0.4320725672908422,-0.014017581890307518,4.219532312124901,1.0498621125470111,0.6875474463078134,0.08908500000000008,0.20597900000000002,-0.770076,-0.07816000000000001,-0.12888699999999997,-0.920994,0.1672450000000001,0.334866,0.150918,0.44053745506376174,0.5506717732313997,single,-0.770076
177,1.475,stair_acsent,0.2152886115444668,0.4791791671666812,0.3652946117844706,-0.3676500254119313,0.21225588485176522,0.17441808022804317,0.01596063842552939,0.0034801392055683117,-0.02760110404416224,-0.08052322092884633,0.11136445457817265,0.3015720628825102,0.7230712354712261,2.4692014198502172,10.603236146893597,-0.8493361960804234,-0.33113664159016015,-0.12999225662395505,-5.487340058340875,2.5647010683083202,5.980103452702405,0.08742399999999995,0.202015,-0.77335,-0.08062500000000017,-0.13195200000000007,-0.921525,0.16804900000000011,0.33396700000000007,0.14817500000000006,0.44654507890086553,0.5,flight,-0.77335
178,1.483333,stair_acsent,0.29461178447136643,0.43669746789871366,0.40321612864515305,-0.6300765394254647,0.06224354152908321,-0.0631065045175335,0.007680307212296243,0.007320292811709864,-0.02412096483859457,-0.049201968078699525,0.1204848193927774,0.31777271090843895,9.519161517688751,-5.098007832469448,4.55076405384409,-0.9936794927676972,0.460836866211639,0.4176334100045245,3.758700690045252,1.0944875572548702,1.9441555293326402,0.08503300000000014,0.19843700000000003,-0.776911,-0.08348999999999984,-0.134587,-0.9222370000000001,0.16852299999999998,0.33302400000000004,0.14532600000000007,0.45608104843169966,0.5,flight,-0.776911
179,1.491667,stair_acsent,0.16138708903289434,0.511759059275263,0.3934485241180581,0.18389313336380794,0.8058801039405566,0.11350869160014274,0.0005999520038169754,0.0008399328053730732,-0.0278377729781594,-0.06347492200623922,0.10367170626350856,0.3156947444204441,-15.985684597848701,9.006670431551326,-1.1720187817488468,-0.849574659044782,-0.7775809942808666,-0.44598129824391675,-1.7126174619077978,-2.017412182537642,-0.24933603167684637,0.0836929999999998,0.19417899999999993,-0.780422,-0.085364,-0.137988,-0.922885,0.1690569999999998,0.33216699999999993,0.142463,0.45357182865771256,0.5,flight,-0.780422
180,1.5,stair_acsent,0.18300732029281322,0.4669386775471035,0.4188167526701098,-0.21207390837467613,0.8784194934935933,-0.032327284321681825,-0.003840153606121475,-0.0020400816032628585,-0.025681027241092245,-0.11376455058204483,0.1554062162486436,0.36397455898236275,2.5945315324515876,-5.3786609538173416,3.04430919861418,-0.532833986552081,-0.3456155536584613,0.2588198412417107,-6.034996828969888,6.208389533797612,5.793809499810284,0.08213599999999999,0.19027099999999997,-0.784126,-0.08783700000000016,-0.14058400000000004,-0.923342,0.16997300000000015,0.330855,0.139216,0.4565890479504851,0.5,flight,-0.784126
181,1.508333,stair_acsent,0.3817352694107653,0.4587783511340521,0.4329773190927743,-1.1375944345870386,0.98441774424951,-0.3672611411204542,-0.007560302412114106,0.0001200048001954596,-0.01836073442937572,-0.20256810272410022,0.23028921156846532,0.36121444857794627,23.848307826467526,-0.9792783406998076,1.6993359441575218,-0.4464357141476858,0.25922073724449035,0.8784702762170399,-10.65685253114799,8.986318891134335,-0.33122649758988454,0.07889199999999996,0.18644899999999998,-0.787887,-0.09270599999999996,-0.14248800000000006,-0.92394,0.17159799999999992,0.32893700000000003,0.13605299999999998,0.466905474500189,0.5,flight,-0.787887
182,1.516667,stair_acsent,0.30477561795056,0.5248380129589579,0.5145188384929117,-0.1390350747191458,-0.07797088059278495,-0.5168919506307273,-0.008639308855273508,-0.000839932805379734,-0.02123830093592622,-0.1573074154067737,0.2789776817854576,0.356611471082311,-9.234419421670829,7.926525296964885,9.784199592049047,-0.12947041554588357,-0.11518329800518194,-0.3452803583573889,5.430848010238322,5.842149054114702,-0.5523131144270732,0.07628000000000013,0.18206799999999995,-0.792352,-0.096557,-0.14453700000000003,-0.925256,0.17283700000000013,0.326605,0.13290400000000002,0.461760674283195,0.5,flight,-0.792352
