frame_id,timestamp,gait_type,root_linear_velocity_x,root_linear_velocity_y,root_linear_velocity_z,root_angular_velocity_x,root_angular_velocity_y,root_angular_velocity_z,left_linear_velocity_x,left_linear_velocity_y,left_linear_velocity_z,right_linear_velocity_x,right_linear_velocity_y,right_linear_velocity_z,root_acceleration_x,root_acceleration_y,root_acceleration_z,left_acceleration_x,left_acceleration_y,left_acceleration_z,right_acceleration_x,right_acceleration_y,right_acceleration_z,left_pos_rel_x,left_pos_rel_y,left_pos_rel_z,right_pos_rel_x,right_pos_rel_y,right_pos_rel_z,step_length,step_width,step_height,left_contact_prob,right_contact_prob,support_type,max_foot_height
1,0.008333,stair_decsent,0.0,0.0,0.0,0.0,0.0,0.0,0.00012000480018213529,0.0015600624025009907,-0.0007200288011594278,-0.0022800912036470954,-0.00312012480499532,0.006240249609977317,0.0,0.0,0.0,0.0,0.0,0.0,0.0,0.0,0.0,-0.140822,-0.03644799999999998,-0.002605999999999997,0.0939509999999999,-0.012846999999999997,0.0008000000000000229,0.2347729999999999,0.023600999999999983,0.00340600000000002,0.9971293451549134,0.9537067677240187,double,0.0008000000000000229
2,0.016667,stair_decsent,0.0,0.0,0.0,0.0,0.0,0.0,0.0029997600191914724,-0.002879769618433405,0.0038396928245778734,-0.004319654427636786,-0.00491960643148707,0.0045596352291795645,0.0,0.0,0.0,0.345542982842493,-0.5327372235342447,0.5471228252624551,-0.24472800863807181,-0.21592052153728697,-0.20165759308828318,-0.14079700000000006,-0.036472000000000004,-0.002573999999999965,0.09391499999999997,-0.01288800000000001,0.0008380000000000054,0.23471200000000003,0.023583999999999994,0.0034119999999999706,0.9905667735260607,0.9525829435966175,double,0.0008380000000000054
3,0.025,stair_decsent,0.0,0.0,0.0,0.0,0.0,0.0,-0.00024000960039091698,-0.0009600384015370216,-0.0002400096003775938,-0.0003600144005730523,-0.0018000720028785845,0.0,0.0,0.0,0.0,-0.38878790586612133,0.23037696110601025,-0.4895838743496301,0.47517581028005923,0.3743591057972502,-0.5471781146261327,-0.14079900000000012,-0.03648000000000001,-0.0025759999999999117,0.093912,-0.012902999999999998,0.0008380000000000054,0.23471100000000011,0.023577000000000015,0.003413999999999917,0.9983028758401842,0.9628004659104851,double,0.0008380000000000054
4,0.033333,stair_decsent,0.0,0.0,0.0,0.0,0.0,0.0,-0.0024000960038292308,-0.0030001200047998617,0.001080043201719157,-0.0067202688107591505,-0.005400216008642415,0.00108004320173248,0.0,0.0,0.0,-0.25922073724208733,-0.24481958517494778,0.15841267275852042,-0.7632610596647184,-0.43203456207414265,0.1296103686226425,-0.14081900000000003,-0.03650500000000001,-0.002566999999999986,0.09385599999999994,-0.012948000000000015,0.0008470000000000422,0.23467499999999997,0.023556999999999995,0.003414000000000028,0.9933484182774202,0.9513790892756406,double,0.0008470000000000422
5,0.041667,stair_decsent,0.0,0.0,0.0,0.0,0.0,0.0,-0.0004799616030589126,-0.001919846412282276,-0.0008399328053730795,-0.007799376049913815,-0.00815934725221466,0.001679865610746159,0.0,0.0,0.0,0.230397696276736,0.12962246130520585,-0.23037869055582388,-0.12948251009775186,-0.3310692636875743,0.07197293124714169,-0.14082299999999992,-0.03652099999999997,-0.002573999999999965,0.09379099999999996,-0.013015999999999972,0.0008610000000000007,0.23461399999999988,0.023504999999999998,0.003434999999999966,0.9964169920672143,0.946630480580587,double,0.0008610000000000007
6,0.05,stair_decsent,0.0,0.0,0.0,0.0,0.0,0.0,-0.0003600144005996987,-0.0033601344053795753,0.0015600624025009907,-0.007440297611905255,-0.006000240009606385,0.00012000480019545849,0.0,0.0,0.0,0.014394240064708257,-0.17284147283058912,0.2880109453827037,0.043091136206475415,0.2591032332423227,-0.18719078489747995,-0.14082600000000012,-0.036549,-0.0025609999999999244,0.09372899999999995,-0.013066000000000022,0.0008620000000000294,0.23455500000000007,0.023482999999999976,0.003422999999999954,0.9937965268933551,0.949838261073614,double,0.0008620000000000294
7,0.058333,stair_decsent,0.0,0.0,0.0,0.0,0.0,0.0,0.0,-0.0028801152046110646,0.001080043201719157,-0.008760350414015329,-0.005160206408251498,-0.0007200288011461046,0.0,0.0,0.0,0.04320345621021225,0.057604608276552345,-0.057604608278151184,-0.15841267276011928,0.10080806448516579,-0.10080806448356691,-0.14082600000000012,-0.03657300000000002,-0.0025519999999999987,0.09365599999999996,-0.013108999999999982,0.0008560000000000789,0.23448200000000008,0.02346400000000004,0.0034080000000000776,0.9948733926885178,0.9489322665966008,double,0.0008560000000000789
8,0.066667,stair_decsent,0.0,0.0,0.0,0.0,0.0,0.0,-0.0007199424046016905,-0.0026397888168906273,0.002399808015361171,-0.0049196064314804095,-0.004439644828414836,-0.0035997120230484175,0.0,0.0,0.0,-0.08638617765799021,0.028836859577686252,0.158359108908329,0.4608524097114134,0.08646047274258002,-0.34553434388076704,-0.14083200000000007,-0.03659499999999999,-0.0025319999999999787,0.093615,-0.013145999999999991,0.0008259999999999934,0.23444700000000007,0.023448999999999998,0.003357999999999972,0.9939341849099701,0.953851200413987,double,0.0008259999999999934
9,0.075,stair_decsent,0.0,0.0,0.0,0.0,0.0,0.0,0.0001200048002087818,-0.0010800432017258194,0.00036001440057305256,-0.007680307212296179,-0.004320172806909939,-0.0027601104044156083,0.0,0.0,0.0,0.10079769648511616,0.18717696089821304,-0.2447850251755814,-0.33129734559171625,0.01433721606923048,0.10075622448491658,-0.14083099999999993,-0.03660399999999997,-0.0025290000000000035,0.09355099999999994,-0.013181999999999972,0.0008029999999999982,0.23438199999999987,0.023422,0.0033320000000000016,0.9980920452789794,0.9512897775085233,double,0.0008029999999999982
10,0.083333,stair_decsent,0.0,0.0,0.0,0.0,0.0,0.0,0.0007200288011461039,-0.0019200768030740415,0.0021600864034649584,-0.0008400336013282392,-0.0049201968078739005,-0.009000360014392916,0.0,0.0,0.0,0.07200576034289231,-0.10080806448436594,0.21601728103827003,0.8208656679428697,-0.0720057603460892,-0.7488599075935801,-0.14082499999999998,-0.036619999999999986,-0.00251099999999993,0.09354400000000007,-0.013222999999999985,0.0007280000000000619,0.23436900000000005,0.023397,0.003238999999999992,0.9950359319788724,0.9504570545557965,double,0.0007280000000000619
11,0.091667,stair_decsent,0.0,0.0,0.0,0.0,0.0,0.0,0.0008399328053597585,-0.0035997120230417596,0.0027597792176620186,-0.003239740820734253,-0.0028797696184334077,-0.006599472042239895,0.0,0.0,0.0,0.01438732951927702,-0.2015401031878713,0.07195738111315822,-0.28794183098224335,0.24483167619876342,0.28808350997756454,-0.1408180000000001,-0.036650000000000016,-0.0024879999999999347,0.09351700000000007,-0.013247000000000009,0.0006730000000000347,0.23433500000000018,0.023403000000000007,0.0031609999999999694,0.992311661952348,0.9552305056584517,double,0.0006730000000000347
12,0.1,stair_decsent,0.0,0.0,0.0,0.0,0.0,0.0,-0.0014400576022922079,-0.0038401536061414216,0.0014400576023055312,-0.0004800192007818336,-0.0031201248049886558,-0.008520340813637728,0.0,0.0,0.0,-0.27360979330996815,-0.02885414413772492,-0.15837292875992875,0.3311798415879536,-0.02884377613767525,-0.230513473106664,-0.14083,-0.03668199999999999,-0.0024759999999999227,0.09351299999999996,-0.01327299999999998,0.0006019999999999914,0.23434299999999997,0.023409000000000013,0.003077999999999914,0.9927554021055842,0.9540760788862003,double,0.0006019999999999914
13,0.108333,stair_decsent,0.0,0.0,0.0,0.0,0.0,0.0,0.000840033601354887,-0.0021600864034583005,0.00024000960037759398,0.0002400096003909172,-0.0034801392055683754,-0.00840033601342896,0.0,0.0,0.0,0.2736218893132242,0.20161612896713338,-0.14401152069218026,0.08640691241722685,-0.043203456207814704,0.014401152071134926,-0.14082299999999992,-0.03670000000000001,-0.0024739999999999762,0.09351500000000001,-0.01330199999999998,0.000532000000000088,0.23433799999999994,0.02339800000000003,0.003006000000000064,0.9961165470940855,0.9547802379602255,double,0.000532000000000088
14,0.116667,stair_decsent,0.0,0.0,0.0,0.0,0.0,0.0,0.0,-0.003119750419962859,0.0014398848092167015,-0.00035997120230084497,-0.0021598272138250523,-0.007679385649155741,0.0,0.0,0.0,-0.10079596848510754,-0.11515046994295146,0.14397350718011834,-0.07199193696805395,0.15842476502799638,0.08650712314293486,-0.14082299999999992,-0.03672599999999998,-0.0024619999999999642,0.09351200000000004,-0.013319999999999999,0.00046800000000002395,0.23433499999999996,0.023405999999999982,0.002929999999999988,0.9942733297083172,0.9573909182209495,double,0.00046800000000002395
15,0.125,stair_decsent,0.0,0.0,0.0,0.0,0.0,0.0,0.00048001920075518796,-0.00324012960518412,0.0004800192007685112,-0.001560062402500992,-0.0009600384015370224,-0.006600264010563698,0.0,0.0,0.0,0.0576046082749536,-0.014446080069754117,-0.11518848055300505,-0.14401670469220546,0.14398041669123138,0.12949977662211012,-0.14081900000000003,-0.03675299999999998,-0.00245799999999996,0.093499,-0.013328000000000007,0.0004129999999999967,0.23431800000000003,0.023424999999999974,0.002870999999999957,0.994482533611694,0.9598737647963207,double,0.0004129999999999967
16,0.133333,stair_decsent,0.0,0.0,0.0,0.0,0.0,0.0,-0.00036001440057305197,-0.0022800912036470937,0.0,-0.005760230409222125,-0.004080163206525676,0.0,0.0,0.0,0.0,-0.10080806448196798,0.11520921655310516,-0.05760460827655235,-0.5040403224194323,-0.37442995379679006,0.7920633638021952,-0.140822,-0.03677199999999997,-0.00245799999999996,0.09345099999999995,-0.013361999999999985,0.0004129999999999967,0.23427299999999995,0.023409999999999986,0.002870999999999957,0.9961527692984402,0.9595251764711717,double,0.0004129999999999967
17,0.141667,stair_decsent,0.0,0.0,0.0,0.0,0.0,0.0,0.001319894408445317,-0.0052795776337945894,0.00299976001919148,-0.0010799136069025385,-0.0014398848092167062,-0.003719702423806494,0.0,0.0,0.0,0.20157293124770492,-0.35990957885139224,0.3599424069104256,0.5615930888312451,0.31680806303203457,-0.44632858457001473,-0.14081100000000002,-0.036816000000000015,-0.0024330000000000185,0.09344200000000003,-0.013373999999999997,0.00038199999999999346,0.23425300000000004,0.02344200000000002,0.002815000000000012,0.9896432226412083,0.9649628808264472,double,0.00038199999999999346
18,0.15,stair_decsent,0.0,0.0,0.0,0.0,0.0,0.0,0.0007200288011461039,-0.00192007680306738,0.0016800672026964479,-0.003960158406330218,-0.003360134405372911,-0.0026401056042201455,0.0,0.0,0.0,-0.07198675234599934,0.4031562259363023,-0.15836947275831406,-0.34564320165938756,-0.23043916910550857,0.1295568006223866,-0.14080500000000007,-0.036831999999999976,-0.002418999999999949,0.09340900000000008,-0.01340199999999997,0.00036000000000002697,0.23421400000000014,0.023430000000000006,0.002778999999999976,0.9955816788602792,0.9624998227177713,double,0.00036000000000002697
19,0.158333,stair_decsent,0.0,0.0,0.0,0.0,0.0,0.0,-0.0014400576022922079,0.00024000960038425518,-0.001800072002878583,-0.004800192007685103,-0.003000120004806521,-0.00048001920076851036,0.0,0.0,0.0,-0.2592207372420869,0.2592207372436858,-0.4176334100054036,-0.10080806448516559,0.04320345620621502,0.2592207372436858,-0.14081699999999997,-0.036829999999999974,-0.002433999999999936,0.09336900000000004,-0.013427000000000022,0.00035600000000002296,0.234186,0.02340299999999995,0.002789999999999959,0.9961372039050049,0.9626317809683911,double,0.00035600000000002296
20,0.166667,stair_decsent,0.0,0.0,0.0,0.0,0.0,0.0,0.0010799136069025348,-0.004439644828414832,0.004199664026878715,-0.0051595872330231825,-0.0023998080153545083,-0.0016798656107461574,0.0,0.0,0.0,0.3023723553149436,-0.5615136103670606,0.7199107307124181,-0.04312397712239966,0.07203167620014543,-0.14397005159319004,-0.14080800000000004,-0.03686699999999998,-0.002398999999999929,0.09332600000000002,-0.013446999999999987,0.0003420000000000645,0.23413400000000006,0.023419999999999996,0.0027409999999999934,0.9896567470274495,0.9627014028357148,double,0.0003420000000000645
21,0.175,stair_decsent,0.0,0.0,0.0,0.0,0.0,0.0,0.00036001440057305316,-0.00360014400576384,0.0025201008040246953,-0.005520220808831226,-0.00528021120844697,0.0007200288011461063,0.0,0.0,0.0,-0.08639136041395458,0.10074412848325862,-0.2015556489684416,-0.04327776020737363,-0.34566220965948263,0.28799884938104764,-0.14080500000000007,-0.03689700000000001,-0.0023779999999999912,0.09328000000000003,-0.013490999999999975,0.00034800000000001496,0.2340850000000001,0.023406000000000038,0.002726000000000006,0.992651236821126,0.9599519945892707,double,0.00034800000000001496
22,0.183333,stair_decsent,0.0,0.0,0.0,0.0,0.0,0.0,0.0010800432017458023,-0.0022800912036470937,0.003000120004806521,-0.008280331213260135,-0.004200168006721135,-0.00024000960037759357,0.0,0.0,0.0,0.08640691241722652,0.15841267276091986,0.05760460827815014,-0.3312264975913725,0.12961036862184497,-0.11520921655150596,-0.14079599999999992,-0.036916000000000004,-0.0023529999999999385,0.09321099999999993,-0.013525999999999982,0.0003460000000000685,0.23400699999999985,0.023390000000000022,0.002699000000000007,0.9934667454813797,0.9575303627577811,double,0.0003460000000000685
23,0.191667,stair_decsent,0.0,0.0,0.0,0.0,0.0,0.0,-0.0004799616030855554,-0.004199664026878715,0.0038396928245645486,-0.007799376049913808,-0.0057595392368601445,-0.001679865610759479,0.0,0.0,0.0,-0.1871856017316242,-0.23033031236280532,0.1007406791166339,0.05771000280133516,-0.18710957885037297,-0.17276889973384738,-0.14080000000000004,-0.03695100000000001,-0.0023210000000000175,0.09314599999999995,-0.013573999999999975,0.00033199999999999896,0.233946,0.023377000000000037,0.0026530000000000165,0.9904823581839203,0.9570700925257425,double,0.00033199999999999896
24,0.2,stair_decsent,0.0,0.0,0.0,0.0,0.0,0.0,0.0010800432017191559,-0.005160206408251494,0.005520220808844531,-0.01116044641784455,-0.006120244809795177,0.0008400336013548856,0.0,0.0,0.0,0.18720806489916114,-0.11526969655259546,0.20167142497059648,-0.4033445779348061,-0.043286400208212145,0.30240000145378165,-0.1407910000000001,-0.03699399999999997,-0.002274999999999916,0.09305300000000005,-0.013624999999999998,0.00033900000000008923,0.23384400000000016,0.023368999999999973,0.002614000000000005,0.9872778559992015,0.952599798708175,double,0.00033900000000008923
25,0.208333,stair_decsent,0.0,0.0,0.0,0.0,0.0,0.0,0.0018000720028919124,-0.005760230409222144,0.007800312012478328,-0.012840513620554364,-0.006840273610941304,-0.0002400096003909176,0.0,0.0,0.0,0.08640691241722769,-0.07200576034689206,0.2736218893116288,-0.20161612897033707,-0.08640691241403202,-0.12961036862424166,-0.140776,-0.03704200000000002,-0.0022099999999999342,0.09294599999999997,-0.013681999999999972,0.0003370000000000317,0.23372199999999999,0.023360000000000047,0.002546999999999966,0.9835627978628647,0.9502786691246956,double,0.0003370000000000317
26,0.216667,stair_decsent,0.0,0.0,0.0,0.0,0.0,0.0,0.003959683225335938,-0.004319654427643443,0.005399568034552639,-0.015838732901370393,-0.00767938564914908,0.0,0.0,0.0,0.0,0.25913261608399607,0.1728552893662946,-0.28806623205251813,-0.3597575330952754,-0.10068538975375281,0.02879884813905896,-0.14074300000000006,-0.037078,-0.0021649999999999725,0.09281399999999995,-0.01374599999999998,0.0003370000000000317,0.23355700000000001,0.02333200000000002,0.0025020000000000042,0.9867194962676037,0.9456429536502758,double,0.0003370000000000317
27,0.225,stair_decsent,0.0,0.0,0.0,0.0,0.0,0.0,0.004440177607112052,-0.005160206408258156,0.00684027361094128,-0.01584063362534752,-0.010080403216132057,0.0,0.0,0.0,0.0,0.05766163227842476,-0.10087027248466485,0.17289158483003,-0.00022809600109532826,-0.28813363338329223,0.0,-0.140706,-0.037121000000000015,-0.0021079999999999988,0.09268199999999993,-0.013830000000000009,0.0003370000000000317,0.23338799999999993,0.023291000000000006,0.0024450000000000305,0.983915824682569,0.944256576718089,double,0.0003370000000000317
28,0.233333,stair_decsent,0.0,0.0,0.0,0.0,0.0,0.0,0.0033601344053662495,-0.003600144005757166,0.0019200768030740415,-0.018480739229567663,-0.009240369614783831,0.0026401056042201455,0.0,0.0,0.0,-0.1296103686242411,0.1872149768991946,-0.5904472348334614,-0.31682534552023767,0.1008080644843663,0.316825345520238,-0.14067800000000008,-0.03715099999999999,-0.0020919999999999828,0.09252799999999994,-0.013907000000000003,0.0003589999999999982,0.23320600000000002,0.023243999999999987,0.002450999999999981,0.9911905614042509,0.9407731968841483,double,0.0003589999999999982
29,0.241667,stair_decsent,0.0,0.0,0.0,0.0,0.0,0.0,0.007559395248397699,-0.012119030477563953,0.012119030477563953,-0.018718502519803858,-0.012718982481400916,0.00107991360691586,0.0,0.0,0.0,0.5038709914844565,-1.022184601848669,1.2237765388156872,-0.028529312483344758,-0.41740015198189256,-0.18720806303147217,-0.14061499999999993,-0.03725200000000001,-0.001990999999999965,0.0923719999999999,-0.014012999999999998,0.00036800000000003497,0.23298699999999983,0.02323900000000001,0.002359,0.9687800697579902,0.9386490168536472,double,0.00036800000000003497
30,0.25,stair_decsent,0.0,0.0,0.0,0.0,0.0,0.0,0.005640225609013343,-0.009480379215168087,0.0054002160086357495,-0.010680427217089363,-0.009720388815552343,-0.005520220808831208,0.0,0.0,0.0,-0.23030956910888692,0.31665081752020446,-0.8062899878708986,0.9646076206305637,0.3598456337271776,-0.7920478118021195,-0.14056800000000003,-0.037331,-0.0019460000000000033,0.09228299999999989,-0.014093999999999995,0.00032200000000004447,0.23285099999999992,0.023237000000000008,0.0022680000000000478,0.9795296916972216,0.9515523241873273,double,0.00032200000000004447
31,0.258333,stair_decsent,0.0,0.0,0.0,0.0,0.0,0.0,0.0031201248050019893,-0.009720388815552376,0.004200168006721149,-0.011280451218026724,-0.009480379215168118,-0.004680187207489661,0.0,0.0,0.0,-0.30242419344910115,-0.028802304138280225,-0.1440115206905801,-0.07200576034289717,0.028802304138272523,0.10080806448356527,-0.14054199999999994,-0.037412,-0.001910999999999996,0.09218900000000008,-0.014172999999999991,0.0002830000000000332,0.23273100000000002,0.02323900000000001,0.0021940000000000293,0.981601438098999,0.9522923241873538,double,0.0002830000000000332
32,0.266667,stair_decsent,0.0,0.0,0.0,0.0,0.0,0.0,0.0008399328053597571,-0.0051595872330231825,0.0019198464122889352,-0.011999040076819166,-0.006959443244540729,-0.0033597312215056367,0.0,0.0,0.0,-0.2736011518649184,0.5472524097107258,-0.2736167019957057,-0.08622376515388072,0.3024881174258924,0.15844204295464634,-0.14053500000000008,-0.037455000000000016,-0.00189499999999998,0.09208899999999987,-0.014230999999999994,0.0002550000000000052,0.23262399999999994,0.023224000000000022,0.0021499999999999853,0.9907185014111893,0.9547128298516562,double,0.0002550000000000052
33,0.275,stair_decsent,0.0,0.0,0.0,0.0,0.0,0.0,0.0006000240009639668,-0.00552022080883119,0.0033601344053795614,-0.013200528021100683,-0.006000240009599698,-0.002160086403451628,0.0,0.0,0.0,-0.02879020813582016,-0.04327776020736897,0.17284147282978762,-0.14418432068660889,0.1151089925526253,0.14396313669194813,-0.14053000000000004,-0.03750100000000001,-0.001866999999999952,0.09197900000000003,-0.014280999999999988,0.00023700000000004273,0.23250900000000008,0.02322000000000002,0.0021039999999999948,0.9891829134901458,0.9545262577638217,double,0.00023700000000004273
34,0.283333,stair_decsent,0.0,0.0,0.0,0.0,0.0,0.0,-0.0012000480019279415,-0.005760230409215482,0.001920076803074048,-0.008760350414015352,-0.005880235209410941,-0.005400216008635768,0.0,0.0,0.0,-0.21601728103827106,-0.02880230413828064,-0.17281382482965524,0.5328426265553033,0.014401152068733651,-0.3888311058663324,-0.1405400000000001,-0.037549,-0.001850999999999936,0.09190600000000004,-0.01433000000000001,0.000192000000000081,0.23244600000000015,0.02321899999999999,0.002043000000000017,0.9896845498154083,0.9598157291232261,double,0.000192000000000081
35,0.291667,stair_decsent,0.0,0.0,0.0,0.0,0.0,0.0,0.00035997120230084497,-0.0029997600191981307,0.002879769618433403,-0.005639548836108738,-0.002519798416125897,-0.0032397408207342476,0.0,0.0,0.0,0.1871873295210925,0.3312299484062093,0.11515392552908016,0.3744662320502292,0.40322015758159835,0.2592362836454905,-0.14053700000000013,-0.037573999999999996,-0.001826999999999912,0.09185899999999991,-0.014351000000000003,0.00016500000000008175,0.23239600000000005,0.023222999999999994,0.0019919999999999938,0.9930435456639739,0.9684550966887775,double,0.00016500000000008175
36,0.3,stair_decsent,0.0,0.0,0.0,0.0,0.0,0.0,-0.00036001440057305316,-0.004320172806909947,0.002400096003829237,-0.009000360014406268,-0.002640105604220154,-0.001440057602305536,0.0,0.0,0.0,-0.08640172841400455,-0.15845587276032871,-0.05756313627795119,-0.40331347393466205,-0.01443744006891366,0.21597062503644737,-0.1405400000000001,-0.03760999999999998,-0.001807000000000003,0.09178399999999987,-0.01437299999999997,0.00015300000000006975,0.23232399999999997,0.023237000000000008,0.001960000000000073,0.9917413405248086,0.964584184788608,double,0.00015300000000006975
37,0.308333,stair_decsent,0.0,0.0,0.0,0.0,0.0,0.0,0.00012000480020878121,-0.0015600624025009842,0.004200168006721121,-0.004320172806903256,-0.0009600384015370176,-0.00264010560423346,0.0,0.0,0.0,0.057604608278151004,0.3312264975889777,0.2160172810382667,0.5616449306975871,0.20161612896713424,-0.14401152069217796,-0.14053899999999997,-0.03762300000000002,-0.0017719999999999958,0.09174799999999994,-0.014380999999999977,0.00013099999999999223,0.2322869999999999,0.02324200000000004,0.001902999999999988,0.992529761431659,0.9723812922302602,double,0.00013099999999999223
38,0.316667,stair_decsent,0.0,0.0,0.0,0.0,0.0,0.0,-0.0017998560115308798,0.0008399328053797451,-0.002039836813047016,-0.006239500839925759,0.0,-0.0002399808015294577,0.0,0.0,0.0,-0.23036486821930308,0.28797638683474236,-0.7487406791178514,-0.23030093988751074,0.11519539255303853,0.28799193696952435,-0.14055400000000007,-0.03761599999999998,-0.0017889999999999295,0.091696,-0.014380999999999977,0.00012900000000004574,0.23225000000000007,0.023235000000000006,0.0019179999999999753,0.9952548554044808,0.9704131430835596,double,0.00012900000000004574
39,0.325,stair_decsent,0.0,0.0,0.0,0.0,0.0,0.0,0.000480019200781832,-0.0006000240009639668,0.0015600624024876611,-0.004080163206538986,0.0006000240009573052,-0.0007200288011594248,0.0,0.0,0.0,0.2735959693162969,-0.17280172883039793,0.4320051860716023,0.2591308812416614,0.07200576034529013,-0.057608064278166934,-0.14054999999999995,-0.037621000000000016,-0.0017759999999999998,0.09166199999999991,-0.014376,0.00012299999999998423,0.23221199999999986,0.023245000000000016,0.001898999999999984,0.9971016087151148,0.9740326154875958,double,0.00012299999999998423
40,0.333333,stair_decsent,0.0,0.0,0.0,0.0,0.0,0.0,-0.0015600624025009946,0.001920076803074048,-0.003600144005757178,-0.005400216008622444,0.000720028801152768,0.0018000720028919124,0.0,0.0,0.0,-0.2448195851773469,0.30242419345230065,-0.6192495389709411,-0.15841267275692567,0.014401152069538351,0.30242419345389937,-0.140563,-0.037605,-0.0018059999999999743,0.09161700000000006,-0.014369999999999994,0.0001380000000000825,0.23218000000000005,0.023235000000000006,0.0019440000000000568,0.9927195988946751,0.9709971910173564,double,0.0001380000000000825
41,0.341667,stair_decsent,0.0,0.0,0.0,0.0,0.0,0.0,0.0007199424046016899,0.0014398848092167015,-0.00011999040077138885,-0.0051595872330231825,0.0032397408207342476,0.000599952003830301,0.0,0.0,0.0,0.27357869055707734,-0.057618429788498446,0.41758502579623064,0.028873143220453725,0.3023412550493733,-0.14400287965702066,-0.14055700000000004,-0.03759299999999999,-0.001807000000000003,0.09157400000000004,-0.014342999999999995,0.00014300000000000423,0.2321310000000001,0.023249999999999993,0.0019500000000000073,0.9973094904313526,0.9702968954333051,double,0.00014300000000000423
42,0.35,stair_decsent,0.0,0.0,0.0,0.0,0.0,0.0,0.0,0.002040081603262845,-0.001920076803074048,-0.0015600624025009946,0.0008400336013415652,0.0012000480019279415,0.0,0.0,0.0,-0.08639654441397956,0.07202649634539122,-0.2160190090366811,0.43196025807298655,-0.2879763853825379,0.07201440034773095,-0.14055700000000004,-0.037576,-0.001823000000000019,0.091561,-0.014336000000000015,0.00015300000000006975,0.23211800000000005,0.023239999999999983,0.001976000000000089,0.9953307662186766,0.9766733464338193,double,0.00015300000000006975
43,0.358333,stair_decsent,0.0,0.0,0.0,0.0,0.0,0.0,0.0013200528021100684,0.0006000240009573052,0.002280091203660409,-0.0009600384015370176,0.003960158406336867,-0.000120004800195458,0.0,0.0,0.0,0.15841267276011795,-0.17281382482965724,0.5040403224210296,0.07200576034609078,0.3744299537975866,-0.15841267276171775,-0.14054600000000006,-0.03757100000000002,-0.0018039999999999168,0.091553,-0.01430300000000001,0.000152000000000041,0.23209900000000006,0.02326800000000001,0.0019559999999999578,0.9954964877598167,0.9736456131239386,double,0.000152000000000041
44,0.366667,stair_decsent,0.0,0.0,0.0,0.0,0.0,0.0,0.0005999520038436226,0.002039836813060324,0.000599952003830301,-0.00227981761458978,0.002039836813053663,0.0017998560115175463,0.0,0.0,0.0,-0.08640518337730323,0.1727637163550537,-0.20160057593353808,-0.1583608366993954,-0.23042015758137774,0.230364868216103,-0.14054100000000003,-0.037553999999999976,-0.001798999999999995,0.091534,-0.014286000000000021,0.00016700000000002824,0.23207500000000003,0.023267999999999955,0.0019660000000000233,0.9963179040397666,0.9744243934654266,double,0.00016700000000002824
45,0.375,stair_decsent,0.0,0.0,0.0,0.0,0.0,0.0,-0.00036001440057305316,0.0,0.00240009600384256,-0.004320172806903284,0.004440177607105405,0.002880115204611072,0.0,0.0,0.0,-0.1152005765530635,-0.2447902091756065,0.21602592103831314,-0.24485241717430808,0.28805241738290505,0.1296362886227683,-0.140544,-0.037553999999999976,-0.001778999999999975,0.09149800000000008,-0.014249000000000012,0.00019100000000005224,0.23204200000000008,0.023304999999999965,0.0019700000000000273,0.9959550885203062,0.968913588281545,double,0.00019100000000005224
46,0.383333,stair_decsent,0.0,0.0,0.0,0.0,0.0,0.0,-0.0018000720028919124,0.00648025921036825,-0.002880115204611072,0.0007200288011461063,0.00528021120844697,0.00024000960037759439,0.0,0.0,0.0,-0.1728138248312568,0.7776622117326613,-0.633650691042079,0.6048483869014044,0.10080806448356736,-0.316825345521839,-0.1405590000000001,-0.03749999999999998,-0.001802999999999999,0.09150400000000003,-0.014205000000000023,0.00019299999999999873,0.23206300000000013,0.023294999999999955,0.0019959999999999978,0.9878060713831078,0.9711492000596493,double,0.00019299999999999873
47,0.391667,stair_decsent,0.0,0.0,0.0,0.0,0.0,0.0,-0.0004799616030589122,0.0023998080153545083,0.004079673626107326,-0.005999520038409583,0.002879769618433403,0.0038396928245778704,0.0,0.0,0.0,0.15840057593388518,-0.48961497420371225,0.8351078510581224,-0.8062813582380229,-0.2880299484057553,0.43192743270941597,-0.140563,-0.03748000000000001,-0.0017690000000000206,0.09145399999999992,-0.014181,0.00022500000000003073,0.23201699999999992,0.023299000000000014,0.0019940000000000513,0.9920709432839071,0.9672547759430369,double,0.00022500000000003073
48,0.4,stair_decsent,0.0,0.0,0.0,0.0,0.0,0.0,-0.0012000480019279335,0.0037201488059526123,0.003000120004806511,-0.002880115204611053,0.006000240009599698,0.0004800192007685088,0.0,0.0,0.0,-0.0864138244172589,0.15844723276108227,-0.12955161662076214,0.374343553797974,0.3744714257969857,-0.4031769619355991,-0.14057300000000006,-0.03744900000000001,-0.0017439999999999678,0.0914299999999999,-0.014131000000000005,0.00022900000000003473,0.23200299999999996,0.023318000000000005,0.0019730000000000025,0.9917874854323481,0.9691484041165972,double,0.00022900000000003473
49,0.408333,stair_decsent,0.0,0.0,0.0,0.0,0.0,0.0,-0.003480139205575043,0.005160206408258173,-0.0010800432017324826,-0.000840033601328242,0.003720148805952637,-0.000960038401537024,0.0,0.0,0.0,-0.27362188931322634,0.17281382482966084,-0.4896391703514945,0.244819585177345,-0.27362188931322057,-0.17281382482965754,-0.14060200000000012,-0.037405999999999995,-0.0017530000000000046,0.09142300000000003,-0.014100000000000001,0.00022100000000002673,0.23202500000000015,0.023305999999999993,0.0019740000000000313,0.989471521110233,0.9737053499707335,double,0.00022100000000002673
50,0.416667,stair_decsent,0.0,0.0,0.0,0.0,0.0,0.0,-0.0027597792176486924,0.002639788816897286,0.0002399808015427777,-0.001079913606929178,0.0017998560115175463,0.0004799616030722338,0.0,0.0,0.0,0.08643628364847009,-0.3024259168899549,0.15839020917629698,-0.02878329800827163,-0.230416701996051,0.17278617765889806,-0.140625,-0.03738399999999997,-0.001750999999999947,0.09141399999999988,-0.014085000000000014,0.00022500000000003073,0.23203899999999988,0.02329899999999996,0.0019759999999999778,0.9936224227185546,0.9766514153977703,double,0.00022500000000003073
51,0.425,stair_decsent,0.0,0.0,0.0,0.0,0.0,0.0,-0.002280091203647101,0.00408016320652569,0.003120124804988666,0.0007200288011727528,0.002760110404415613,-0.0012000480019146184,0.0,0.0,0.0,0.057564864274762095,0.1728518408290421,0.34563110565773375,0.2160017290413939,0.11523513655323042,-0.20160921696710143,-0.140644,-0.037349999999999994,-0.0017249999999999766,0.09142000000000006,-0.014062000000000019,0.00021500000000007624,0.23206400000000005,0.023287999999999975,0.0019400000000000528,0.9906337297700234,0.9754422749077011,double,0.00021500000000007624
52,0.433333,stair_decsent,0.0,0.0,0.0,0.0,0.0,0.0,-0.0019200768030740352,0.004200168006721121,-0.000120004800195458,0.00204008160325617,0.004080163206532325,-0.0013200528021233915,0.0,0.0,0.0,0.04320345620701601,0.014401152069534405,-0.3888311058663279,0.15841267275691964,0.15841267276091517,-0.014401152071135558,-0.14066,-0.03731499999999999,-0.0017260000000000053,0.09143699999999999,-0.014027999999999985,0.00020399999999998197,0.232097,0.023287000000000002,0.0019299999999999873,0.9923003413916849,0.9727851398306242,double,0.00020399999999998197
53,0.441667,stair_decsent,0.0,0.0,0.0,0.0,0.0,0.0,-0.0014398848092300326,0.0033597312214989983,0.0016798656107594903,0.00035997120230084735,0.0033597312214989983,0.0002399808015427793,0.0,0.0,0.0,0.057618429786897685,-0.10084434667892096,0.21596717194083975,-0.20159712034501226,-0.08644492261019084,0.18718905731535634,-0.14067200000000013,-0.037287000000000015,-0.0017119999999999358,0.09143999999999997,-0.014000000000000012,0.00020600000000003948,0.2321120000000001,0.023287000000000002,0.0019179999999999753,0.9932953145291316,0.9751742139774899,double,0.00020600000000003948
54,0.45,stair_decsent,0.0,0.0,0.0,0.0,0.0,0.0,-0.0016800672026831191,0.004080163206532325,-0.002880115204611053,0.0006000240009639668,0.0019200768030740352,0.0003600144005730508,0.0,0.0,0.0,-0.028823040135975704,0.08645529641585542,-0.547219586627928,0.028807488139099773,-0.172765440828628,0.014404608067955236,-0.1406860000000001,-0.03725299999999998,-0.0017359999999999598,0.091445,-0.013983999999999996,0.00020900000000001473,0.2321310000000001,0.023268999999999984,0.0019449999999999745,0.9912178493539289,0.9771439864862703,double,0.00020900000000001473
55,0.458333,stair_decsent,0.0,0.0,0.0,0.0,0.0,0.0,-0.0006000240009639708,0.005160206408251511,-0.001440057602305536,0.001320052802110077,0.002520100804031357,-0.0010800432017191595,0.0,0.0,0.0,0.12961036862104297,0.12961036862104755,0.17281382482965565,0.08640691241403002,0.07200576034529262,-0.1728138248280588,-0.14069100000000012,-0.03721000000000002,-0.0017479999999999718,0.09145599999999998,-0.013963000000000003,0.000200000000000089,0.2321470000000001,0.023247000000000018,0.0019480000000000608,0.9910152096303051,0.9754483081990928,double,0.000200000000000089
56,0.466667,stair_decsent,0.0,0.0,0.0,0.0,0.0,0.0,-0.00011999040075806724,0.0029997600192047916,-0.0008399328053730787,-0.0019198464122889352,0.0017998560115175463,0.002879769618420081,0.0,0.0,0.0,0.0575994240707827,-0.2592328280593614,0.07200921489470323,-0.38875680518346645,-0.08642246130475283,0.475139527254528,-0.14069200000000004,-0.03718499999999997,-0.001754999999999951,0.09143999999999997,-0.013948000000000016,0.00022400000000000198,0.232132,0.023236999999999952,0.001978999999999953,0.9948042632362261,0.9737082128601806,double,0.00022400000000000198
57,0.475,stair_decsent,0.0,0.0,0.0,0.0,0.0,0.0,0.0006000240009639708,0.0014400576022988744,-0.0001200048001954588,0.0008400336013548883,0.002520100804031357,0.0021600864034649653,0.0,0.0,0.0,0.08640518441402133,-0.1871717768997865,0.08639481641397116,0.3311988495912433,0.0864328324149541,-0.0863654404122306,-0.140687,-0.03717300000000001,-0.0017559999999999798,0.09144700000000006,-0.013927000000000023,0.0002420000000000755,0.23213400000000006,0.02324599999999999,0.0019980000000000553,0.9973922147265131,0.9743136346982998,double,0.0002420000000000755
58,0.483333,stair_decsent,0.0,0.0,0.0,0.0,0.0,0.0,0.0007200288011461016,0.0036001440057638156,-0.0006000240009639668,0.006600264010550342,0.0036001440057638156,-0.0032401296051841034,0.0,0.0,0.0,0.014401152067938352,0.2592207372452817,-0.057604608276551776,0.6912552993154242,0.1296103686226394,-0.64805184311161,-0.14068100000000006,-0.03714299999999998,-0.0017610000000000126,0.09150199999999997,-0.013896999999999993,0.00021500000000007624,0.23218300000000003,0.02324599999999999,0.001976000000000089,0.9937997519900748,0.9665954078956775,double,0.00021500000000007624
59,0.491667,stair_decsent,0.0,0.0,0.0,0.0,0.0,0.0,0.0010799136069025348,0.004079673626107326,-0.0009599232061444676,-0.002879769618433403,0.0032397408207342476,0.003359731221492315,0.0,0.0,0.0,0.04318272207300611,0.057538951325115224,-0.043184449865670806,-1.1375130344352933,-0.04324492260973935,0.7919199456055209,-0.14067200000000013,-0.037109,-0.0017690000000000206,0.09147799999999995,-0.013869999999999993,0.00024299999999999322,0.23215000000000008,0.02323900000000001,0.0020120000000000138,0.9927867015451353,0.9707396153251604,double,0.00024299999999999322
60,0.5,stair_decsent,0.0,0.0,0.0,0.0,0.0,0.0,0.000960038401537024,0.00036001440057971477,0.0006000240009639708,0.005160206408258173,0.002160086403458304,-0.003360134405366261,0.0,0.0,0.0,-0.014385600067864048,-0.44637696214180017,0.18720115289912903,0.9648357166316567,-0.12956371262161842,-0.8064161318683059,-0.14066400000000012,-0.03710599999999997,-0.0017639999999999878,0.09152099999999996,-0.013851999999999975,0.00021500000000007624,0.23218500000000009,0.023253999999999997,0.001979000000000064,0.9980200218135438,0.9693339040567086,double,0.00021500000000007624
61,0.508333,stair_decsent,0.0,0.0,0.0,0.0,0.0,0.0,-0.00012000480018213478,0.004920196807867223,-0.0016800672026831191,-0.0033601344053662383,0.004080163206525663,0.002280091203647086,0.0,0.0,0.0,-0.12961036862104333,0.5472437786256437,-0.2736218893132222,-1.0224817969068012,0.23041843310540636,0.6768541472474887,-0.14066500000000004,-0.037065000000000015,-0.0017779999999999463,0.09149300000000005,-0.013817999999999997,0.0002340000000000675,0.2321580000000001,0.023247000000000018,0.0020120000000000138,0.991332473826956,0.9702858682705751,double,0.0002340000000000675
62,0.516667,stair_decsent,0.0,0.0,0.0,0.0,0.0,0.0,0.0025197984161325748,0.0027597792176620325,0.000479961603072237,0.0017998560115042367,0.0035997120230351165,0.00011999040075806804,0.0,0.0,0.0,0.316751045874097,-0.2592293724748263,0.2591827220728784,0.6191493180790143,-0.05764953005646142,-0.2591913610378006,-0.140644,-0.03704200000000002,-0.0017739999999999423,0.09150799999999992,-0.013788000000000022,0.00023499999999998522,0.23215199999999991,0.023253999999999997,0.0020089999999999275,0.9937203749827523,0.9731993521576192,double,0.00023499999999998522
63,0.525,stair_decsent,0.0,0.0,0.0,0.0,0.0,0.0,-0.00012000480020878121,0.0019200768030740352,0.0,0.0007200288011461016,0.0037201488059526123,-0.0007200288011461016,0.0,0.0,0.0,-0.3167890575232623,-0.1007683204833786,-0.05759769627651926,-0.12958444862092053,0.01445299206978223,-0.1008063364819592,-0.14064500000000013,-0.037026,-0.0017739999999999423,0.09151399999999987,-0.01375700000000002,0.00022900000000003473,0.232159,0.023268999999999984,0.002002999999999977,0.9967936278367322,0.9735416793951839,double,0.00022900000000003473
64,0.533333,stair_decsent,0.0,0.0,0.0,0.0,0.0,0.0,0.0019200768030740608,0.0015600624024943435,0.0006000240009506516,0.00624024961000402,0.0043201728069166365,-0.0034801392055617427,0.0,0.0,0.0,0.2448195851773504,-0.04320345620781171,0.07200576034449263,0.6624529951827636,0.0720057603460974,-0.33122649758978356,-0.14062900000000012,-0.03701300000000002,-0.0017690000000000206,0.09156600000000004,-0.013720999999999983,0.000200000000000089,0.23219500000000015,0.023292000000000035,0.0019690000000001096,0.9957571896004678,0.9663939843299092,double,0.000200000000000089
65,0.541667,stair_decsent,0.0,0.0,0.0,0.0,0.0,0.0,-0.00035997120230084253,0.005039596832258421,-0.0041996640268653655,-0.00011999040078470967,0.003839692824571184,0.000599952003830297,0.0,0.0,0.0,-0.2735838739350715,0.4175107307132291,-0.5759164900187161,-0.7631677478748118,-0.05765298564260247,0.4895717793846902,-0.1406320000000001,-0.036970999999999976,-0.0018039999999999168,0.0915649999999999,-0.013689000000000007,0.00020500000000001073,0.232197,0.02328199999999997,0.0020089999999999275,0.9890500769362492,0.9734297777193816,double,0.00020500000000001073
66,0.55,stair_decsent,0.0,0.0,0.0,0.0,0.0,0.0,0.0016800672026831191,0.0014400576022988647,0.0006000240009506435,0.005040201608076004,0.006000240009599698,-0.004080163206525663,0.0,0.0,0.0,0.24481440117412137,-0.43196198607458797,0.5759856027620291,0.619247810975722,0.2592760332447504,-0.5616362906943406,-0.14061800000000013,-0.03695900000000002,-0.001798999999999995,0.091607,-0.013639000000000012,0.00017100000000003224,0.23222500000000013,0.023320000000000007,0.0019700000000000273,0.9961788525192079,0.9655752811557929,double,0.00017100000000003224
67,0.558333,stair_decsent,0.0,0.0,0.0,0.0,0.0,0.0,-0.0009600384015370304,0.0064802592103682935,-0.004440177607098773,0.0008400336013282475,0.0054002160086424646,0.0,0.0,0.0,0.0,-0.3168253455202416,0.6048483869038132,-0.6048483869014116,-0.5040403224226323,-0.07200576034528251,0.48963917034989807,-0.14062600000000014,-0.03690500000000002,-0.0018359999999999488,0.09161399999999986,-0.013593999999999995,0.00017100000000003224,0.23224,0.023311000000000026,0.002006999999999981,0.9868100827282762,0.9708213976265172,double,0.00017100000000003224
68,0.566667,stair_decsent,0.0,0.0,0.0,0.0,0.0,0.0,0.002279817614616408,0.000839932805379734,0.002279817614589765,-0.000479961603058909,0.008759299256058218,-0.0002399808015294545,0.0,0.0,0.0,0.38875162180866496,-0.6767850257965582,0.8063349198090337,-0.1583867535861707,0.4030577450702817,-0.02879539255213015,-0.14060699999999993,-0.036897999999999986,-0.0018169999999999575,0.09160999999999997,-0.013521000000000005,0.00016900000000008575,0.2322169999999999,0.02337699999999998,0.0019860000000000433,0.9944470668838536,0.9655137984935425,double,0.00016900000000008575
69,0.575,stair_decsent,0.0,0.0,0.0,0.0,0.0,0.0,-0.0002400096003909192,0.007200288011521066,-0.005160206408258207,0.003480139205575066,0.0054002160086424646,-0.0016800672026964648,0.0,0.0,0.0,-0.30239136145534024,0.7632731556631933,-0.8928385962856162,0.47523110628033255,-0.40310611393445145,-0.17281728083127607,-0.14060899999999998,-0.03683799999999998,-0.0018599999999999728,0.09163900000000003,-0.013475999999999988,0.00015500000000001624,0.232248,0.023361999999999994,0.002014999999999989,0.9852305230069878,0.9687824890337435,double,0.00015500000000001624
70,0.583333,stair_decsent,0.0,0.0,0.0,0.0,0.0,0.0,-0.000240009600390916,0.005280211208446935,-0.002880115204611053,0.005040201608049358,0.00720028801152097,-0.0007200288011461016,0.0,0.0,0.0,3.8382292197674606e-16,-0.23041843310621904,0.2736218893132299,0.18721497689599007,0.2160172810366612,0.1152092165547053,-0.14061100000000004,-0.03679399999999999,-0.0018839999999999968,0.0916809999999999,-0.013415999999999983,0.00014900000000006575,0.23229199999999994,0.02337800000000001,0.0020330000000000625,0.9899676497428014,0.9649724736422604,double,0.00014900000000006575
71,0.591667,stair_decsent,0.0,0.0,0.0,0.0,0.0,0.0,0.0016798656107461464,0.00611951043916761,-0.0027597792176619956,0.00011999040078470967,0.00707943364530541,0.002039836813046989,0.0,0.0,0.0,0.23036659600876502,0.10070785105839558,0.014439163300822696,-0.5903781146225835,-0.014501363836760114,0.3311573811126793,-0.14059700000000008,-0.03674299999999997,-0.001906999999999992,0.09168200000000004,-0.013357000000000008,0.00016599999999999948,0.23227900000000012,0.023385999999999962,0.0020729999999999915,0.9884666259856825,0.9669892887626318,double,0.00016599999999999948
72,0.6,stair_decsent,0.0,0.0,0.0,0.0,0.0,0.0,0.000840033601354894,0.004920196807867288,-0.0019200768030740608,0.009960398415916713,0.008520340813631152,-0.0007200288011461112,0.0,0.0,0.0,-0.10078387248185049,-0.14392339269174767,0.10076832048337243,1.1808961976637578,0.17291577683016374,-0.3311971215880386,-0.14059,-0.03670200000000001,-0.001923000000000008,0.09176499999999987,-0.01328600000000002,0.000160000000000049,0.23235499999999987,0.023415999999999992,0.002083000000000057,0.9910867314872003,0.9572912821788746,double,0.000160000000000049
73,0.608333,stair_decsent,0.0,0.0,0.0,0.0,0.0,0.0,0.0027601104044022713,0.006240249609983953,-0.0014400576023055264,0.00900036001440621,0.009240369614790463,0.0016800672026831191,0.0,0.0,0.0,0.23041843310300844,0.1584126727609096,0.05760460827655494,-0.11520921654992194,0.08640691241561368,0.2880230413811617,-0.1405670000000001,-0.036650000000000016,-0.00193500000000002,0.09183999999999992,-0.01320899999999997,0.00017400000000000748,0.23240700000000003,0.023441000000000045,0.0021090000000000275,0.9883771429051114,0.9572296493972845,double,0.00017400000000000748
74,0.616667,stair_decsent,0.0,0.0,0.0,0.0,0.0,0.0,0.002879769618433422,0.008999280057601113,-0.005759539236853522,-0.010319174466046434,0.016438684905207467,0.02195824334053819,0.0,0.0,0.0,0.014357957047174392,0.3310571691405299,-0.5182963324391673,-2.3181586849595335,0.8637287365511213,2.4331864816240922,-0.14054300000000008,-0.03657499999999997,-0.001982999999999957,0.09175399999999989,-0.013071999999999973,0.0003570000000000517,0.23229699999999998,0.023502999999999996,0.0023400000000000087,0.981556964064145,0.9277555708375023,double,0.0003570000000000517
75,0.625,stair_decsent,0.0,0.0,0.0,0.0,0.0,0.0,0.004680187207502953,0.00504020160806268,-0.002400096003842544,0.01392055682227343,0.00888035521420409,0.0016800672026831191,0.0,0.0,0.0,0.21605875303846434,-0.4751084182813412,0.40314931393387304,2.90888410996277,-0.9070358443541756,-2.4334784756816252,-0.14050399999999996,-0.03653299999999998,-0.002002999999999977,0.0918699999999999,-0.01299800000000001,0.0003710000000000102,0.23237399999999986,0.023534999999999973,0.0023739999999999872,0.9878586741783311,0.9485980909322487,double,0.0003710000000000102
76,0.633333,stair_decsent,0.0,0.0,0.0,0.0,0.0,0.0,0.005760230409195459,0.004200168006721121,-0.0007200288011461016,0.013800552022091296,0.007320292811716428,0.002760110404415595,0.0,0.0,0.0,0.12961036861784486,-0.10080806448356605,0.201616128968731,-0.014401152067938742,-0.18721497689759448,0.12961036862264144,-0.14045600000000014,-0.036497999999999975,-0.0020089999999999275,0.09198499999999998,-0.012936999999999976,0.00039400000000000546,0.23244100000000012,0.023561,0.002402999999999933,0.9880579981291309,0.9495303342805493,double,0.00039400000000000546
77,0.641667,stair_decsent,0.0,0.0,0.0,0.0,0.0,0.0,0.006119510439167692,0.004799616030715709,-0.0027597792176620325,0.013798896088323484,0.0032397408207342692,0.0005999520038436266,0.0,0.0,0.0,0.04311015478428547,0.0719280086386599,-0.24475046994431757,-0.0001986961564450196,-0.48962706875236167,-0.2591982722068611,-0.1404050000000001,-0.03645799999999999,-0.0020319999999999228,0.09210000000000007,-0.012909999999999977,0.0003990000000000382,0.23250500000000018,0.023548000000000013,0.002430999999999961,0.9862461012206614,0.9520453273413327,double,0.0003990000000000382
78,0.65,stair_decsent,0.0,0.0,0.0,0.0,0.0,0.0,0.005880235209430887,-0.0002400096003842544,-0.0009600384015370176,0.005040201608049358,-0.0004800192007685088,0.002880115204611053,0.0,0.0,0.0,-0.02871417613546188,-0.6047792669026693,0.21597753703648234,-1.0510853810481329,-0.4463890581426572,0.27363052931326254,-0.14035599999999993,-0.03645999999999999,-0.0020399999999999308,0.09214199999999995,-0.012913999999999981,0.0004230000000000622,0.23249799999999987,0.02354600000000001,0.002462999999999993,0.9900617958727538,0.9656618827957217,double,0.0004230000000000622
79,0.658333,stair_decsent,0.0,0.0,0.0,0.0,0.0,0.0,0.004080163206512394,0.002880115204611091,-0.004200168006721177,0.00312012480500201,-0.001200048001921288,0.0006000240009506516,0.0,0.0,0.0,-0.21601728104146273,0.37442995379759675,-0.3888311058663374,-0.23041843310300794,-0.0864069124148309,-0.27362188931482323,-0.14032200000000006,-0.03643599999999997,-0.002074999999999938,0.09216800000000003,-0.012923999999999991,0.00042799999999998395,0.23249000000000009,0.023511999999999977,0.002502999999999922,0.9891239040567177,0.9693093848961497,double,0.00042799999999998395
80,0.666667,stair_decsent,0.0,0.0,0.0,0.0,0.0,0.0,0.004319654427636754,0.0007199424046016851,-0.0028797696184333834,-0.00155987520998808,-0.0040796736261072995,0.00155987520998808,0.0,0.0,0.0,0.028736647603114708,-0.25920000000112664,0.15843513178399132,-0.5615550773926151,-0.3455274327077021,0.11517293124999053,-0.14028600000000013,-0.03643000000000002,-0.002098999999999962,0.09215499999999999,-0.01295799999999997,0.0004410000000000247,0.23244100000000012,0.02347200000000005,0.0025399999999999867,0.9912645669675171,0.9668701591512313,double,0.0004410000000000247
81,0.675,stair_decsent,0.0,0.0,0.0,0.0,0.0,0.0,0.002760110404428918,-0.0013200528021100684,-0.002280091203647086,0.000240009600390916,-0.002880115204611053,-0.0036001440057571543,0.0,0.0,0.0,-0.1871527688956954,-0.24480921717409634,0.07196428834588924,0.21599481703816015,0.1439527686902966,-0.6192270749724245,-0.14026300000000003,-0.036441,-0.0021179999999999533,0.09215700000000004,-0.012981999999999994,0.0004110000000000502,0.23242000000000007,0.023459000000000008,0.0025290000000000035,0.9936405003817683,0.9670155385968757,double,0.0004110000000000502
82,0.683333,stair_decsent,0.0,0.0,0.0,0.0,0.0,0.0,-0.001560062402501005,0.0022800912036471162,-0.0062402496099906975,-0.005640225609040045,-0.003960158406336919,-0.0020400816032695203,0.0,0.0,0.0,-0.5184414744905751,0.43203456207334906,-0.47523801828196904,-0.7056564513897774,-0.12961036862185,0.1872149768975937,-0.14027600000000007,-0.03642200000000001,-0.0021700000000000053,0.09210999999999991,-0.013014999999999999,0.00039400000000000546,0.23238599999999998,0.02340700000000001,0.0025640000000000107,0.9886258912691495,0.9623812071105093,double,0.00039400000000000546
83,0.691667,stair_decsent,0.0,0.0,0.0,0.0,0.0,0.0,-0.00035997120230084253,-0.004319654427643415,-0.0023998080153478313,-0.00611951043916761,-0.0005999520038369578,-0.003839692824564523,0.0,0.0,0.0,0.1439994240700928,-0.7919061232649964,0.4608161260670551,-0.05750957884899941,0.40319251289896035,-0.2159360716696651,-0.14027900000000004,-0.03645799999999999,-0.0021899999999999142,0.09205899999999989,-0.013019999999999976,0.0003620000000000845,0.23233799999999993,0.023438000000000014,0.0025519999999999987,0.9917423314846688,0.9623979205927629,double,0.0003620000000000845
84,0.7,stair_decsent,0.0,0.0,0.0,0.0,0.0,0.0,-0.005880235209404319,-0.008520340813631152,-0.006960278411136808,-0.006120244809795237,-0.0004800192007685152,-0.0037201488059526618,0.0,0.0,0.0,-0.6624581791795904,-0.5041025304197498,-0.5472783386282274,-8.812800043527952e-05,0.014392512068695996,0.01434585606766619,-0.140328,-0.03652899999999998,-0.0022479999999999167,0.09200799999999987,-0.01302399999999998,0.00033100000000008123,0.23233599999999988,0.023504999999999998,0.002578999999999998,0.979208785959577,0.9622462443067773,double,0.00033100000000008123
85,0.708333,stair_decsent,0.0,0.0,0.0,0.0,0.0,0.0,-0.0012000480019279335,-0.019200768030720367,-0.004080163206538986,-0.0016800672026831191,-0.0004800192007685088,-0.008280331213260108,0.0,0.0,0.0,0.5616449306943917,-1.2817025341520667,0.3456276496577235,0.5328426265585143,7.676458439534921e-16,-0.5472437786280363,-0.14033800000000007,-0.03668899999999997,-0.0022820000000000062,0.09199399999999991,-0.013027999999999984,0.00026199999999998447,0.23233199999999998,0.023660999999999988,0.0025439999999999907,0.9672230882425322,0.9604555356515977,double,0.00026199999999998447
86,0.716667,stair_decsent,0.0,0.0,0.0,0.0,0.0,0.0,-0.010079193664503522,-0.02375809935205543,-0.009959203263732133,-0.0005999520038436186,0.0010799136069091885,-0.009479241660659903,0.0,0.0,0.0,-1.06541224652934,-0.5468360116792692,-0.7054283725933648,0.12960345558429232,0.1871769627643011,-0.14385774506836888,-0.14042200000000005,-0.036887,-0.0023649999999999505,0.09198899999999988,-0.013019000000000003,0.00018300000000004424,0.23241099999999992,0.023868,0.0025479999999999947,0.9538955545829473,0.9585876623161071,double,0.00018300000000004424
87,0.725,stair_decsent,0.0,0.0,0.0,0.0,0.0,0.0,-0.021240849633970157,-0.02004080163206219,-0.02208088323532505,0.0060002400096131015,0.001800072002878601,-0.013800552022078158,0.0,0.0,0.0,-1.3394522944277856,0.4460935701419986,-1.4546597829824826,0.7920547238037658,0.08642246441490688,-0.5185779864896549,-0.14059899999999992,-0.037053999999999976,-0.0025489999999999124,0.09203899999999998,-0.013004000000000016,6.8000000000068e-05,0.2326379999999999,0.02404999999999996,0.0026169999999999805,0.938981495801122,0.9485703277324753,double,6.8000000000068e-05
88,0.733333,stair_decsent,0.0,0.0,0.0,0.0,0.0,0.0,-0.004800192007685088,-0.035401416056647546,-0.03360134405376897,-0.0003600144005730508,0.005160206408258139,-0.010440417616711736,0.0,0.0,0.0,1.9729578334675388,-1.8433474648488288,-1.3825105986372097,-0.7632610596647217,0.4032322579358603,0.4032322579342863,-0.14063899999999996,-0.03734900000000002,-0.0028289999999999704,0.092036,-0.012961,-1.8999999999991246e-05,0.23267499999999997,0.02438800000000002,0.002809999999999979,0.9182593460261483,0.9524806753925239,double,-1.8999999999991246e-05
89,0.741667,stair_decsent,0.0,0.0,0.0,0.0,0.0,0.0,-0.016198704103671347,-0.04535637149027977,0.02495800335972968,0.005879529637624912,-0.06827453803695577,-0.057955363570916,0.0,0.0,0.0,-1.3677120345555946,-1.1944990921085048,7.02655956485469,0.7486853897525796,-8.811464416272416,-5.701337407511943,-0.14077399999999995,-0.03772700000000001,-0.0026209999999999845,0.09208499999999997,-0.013529999999999986,-0.0005020000000000024,0.23285899999999993,0.024197000000000024,0.002118999999999982,0.9095919684444949,0.8292290522051273,double,-0.0005020000000000024
90,0.75,stair_decsent,0.0,0.0,0.0,0.0,0.0,0.0,-0.013800552022091296,-0.03144125765030402,0.026161046441863744,0.008400336013442242,0.0048001920076784265,-0.01944077763110462,0.0,0.0,0.0,0.28778976138006007,1.6698804560153235,0.14437094469387488,0.30250886545269645,8.76931837809119,4.621935190184954,-0.14088900000000004,-0.037988999999999995,-0.002402999999999933,0.09215499999999999,-0.013490000000000002,-0.0006639999999999979,0.23304400000000003,0.024498999999999993,0.001738999999999935,0.9280546451642213,0.9464179458017772,double,-0.0006639999999999979
91,0.758333,stair_decsent,0.0,0.0,0.0,0.0,0.0,0.0,-0.008880355214197428,-0.034801392055683576,0.04236169446777094,-0.002280091203647086,0.007560302412094021,-0.01008040321612536,0.0,0.0,0.0,0.5904472348366552,-0.4032322579358626,1.9441555293300283,-1.2817025341520802,0.3312264975897735,1.123289861391962,-0.14096299999999995,-0.03827900000000001,-0.0020499999999999963,0.092136,-0.013427000000000022,-0.0007479999999999709,0.23309899999999995,0.024851999999999985,0.0013020000000000254,0.9074360467939944,0.9656381060496979,double,-0.0007479999999999709
92,0.766667,stair_decsent,0.0,0.0,0.0,0.0,0.0,0.0,-0.007319414446854944,-0.03407727381809552,0.057955363570916,-0.011879049676034535,0.007439404847613013,0.0008399328053730844,0.0,0.0,0.0,0.18729790824843928,0.08688723753156471,1.8710906051290075,-1.151782874056576,-0.014506547213943923,1.3103354957401616,-0.14102400000000004,-0.038563000000000014,-0.001566999999999985,0.09203699999999992,-0.013365000000000016,-0.0007409999999999917,0.23306099999999996,0.025197999999999998,0.0008259999999999934,0.8872852840950098,0.968337599077948,double,-0.0007409999999999917
93,0.775,stair_decsent,0.0,0.0,0.0,0.0,0.0,0.0,-0.01284051362055428,-0.048001920076797586,0.05916236649465542,-0.01104044161766238,0.0050402016080693425,0.0019200768030740352,0.0,0.0,0.0,-0.6625584031800447,-1.6710243920199217,0.14484614469451804,0.1006369924843576,-0.2879159053814545,0.12962246462269847,-0.14113100000000012,-0.03896299999999997,-0.0010740000000000194,0.09194499999999994,-0.013322999999999974,-0.0007249999999999757,0.23307600000000006,0.025639999999999996,0.0003490000000000437,0.871231811097672,0.9760308996581131,double,-0.0007249999999999757
94,0.783333,stair_decsent,0.0,0.0,0.0,0.0,0.0,0.0,0.024000960038399112,-0.0817232689307631,0.18732749309972985,-0.012120484819381692,0.0006000240009573131,0.003360134405379606,0.0,0.0,0.0,4.4211536852218565,-4.046723731425155,15.380430409825465,-0.1296103686210635,-0.5328426265585107,0.17281382482966326,-0.14093100000000014,-0.03964400000000001,0.0004870000000000152,0.09184400000000004,-0.013317999999999997,-0.0006969999999999477,0.23277500000000018,0.026326000000000016,0.0011839999999999629,0.6451896075358532,0.9790134511147416,double,0.0004870000000000152
95,0.791667,stair_decsent,0.0,0.0,0.0,0.0,0.0,0.0,0.01235901127911993,-0.0632349412047031,0.13870890328774144,-0.024598032157428507,-0.035757139428847874,-0.04319654427646079,0.0,0.0,0.0,-1.3969220973457035,2.2184218533789113,-5.83376407631246,-1.497185905693151,-4.362510610727731,-5.586354533458128,-0.14082799999999995,-0.04017100000000001,0.001643000000000061,0.09163900000000003,-0.013616000000000017,-0.0010569999999999746,0.23246699999999998,0.026554999999999995,0.0027000000000000357,0.7180949915477894,0.8979436750887559,double,0.001643000000000061
96,0.8,stair_decsent,0.0,0.0,0.0,0.0,0.0,0.0,-0.015840633625347468,0.014040561622468889,-0.09012360494420425,-0.026041041641681608,-0.002400096003835882,-0.005280211208453596,0.0,0.0,0.0,-3.3840927522461635,9.27343127651166,-27.460999427810478,-0.17316806483296476,4.003005331214671,4.550141973839798,-0.14095999999999997,-0.04005399999999998,0.0008920000000000039,0.09142199999999989,-0.013635999999999981,-0.0011010000000000186,0.23238199999999987,0.026417999999999997,0.0019930000000000225,0.8257765637200603,0.9555347532392711,double,0.0008920000000000039
97,0.808333,stair_decsent,0.0,0.0,0.0,0.0,0.0,0.0,0.039481579263173736,-0.14844593783752008,0.10020400816033095,-0.025561022440900118,-0.011160446417857985,-0.0037201488059393386,0.0,0.0,0.0,6.63893110386676,-19.49915990159492,22.8402271816317,0.05760460827811049,-1.0512841010467038,0.18721497690078867,-0.14063099999999995,-0.04129100000000002,0.001727000000000034,0.09120899999999987,-0.013728999999999991,-0.0011319999999999109,0.23183999999999982,0.02756200000000003,0.002858999999999945,0.6657420846400883,0.9531029218036273,double,0.001727000000000034
98,0.816667,stair_decsent,0.0,0.0,0.0,0.0,0.0,0.0,0.06311495080393838,-0.14710823134148548,0.15226781857450863,-0.014998800095983894,-0.0034797216222703414,-0.01835853131750283,0.0,0.0,0.0,2.8357777226739214,0.16051193856906482,6.247157477103106,1.267365292166564,0.9216132464107974,-1.756465384156873,-0.14010499999999992,-0.04251699999999997,0.0029959999999999987,0.09108399999999994,-0.013757999999999992,-0.0012849999999999806,0.23118899999999987,0.02875899999999998,0.004280999999999979,0.5889742672017946,0.9600657436450749,double,0.0029959999999999987
99,0.825,stair_decsent,0.0,0.0,0.0,0.0,0.0,0.0,0.01584063362532103,-0.111724468978762,0.21264850594023904,0.028801152046084265,0.045001800072004994,-0.0739229569182714,0.0,0.0,0.0,-5.673144987233623,4.246221332380153,7.245972322780626,5.256204505228436,5.818015323926051,-6.66799779200397,-0.13997300000000013,-0.04344799999999999,0.0047679999999999945,0.09132399999999996,-0.013382999999999978,-0.0019009999999999305,0.23129700000000009,0.03006500000000001,0.006668999999999925,0.5320873210379523,0.8479832618093672,double,0.0047679999999999945
100,0.833333,stair_decsent,0.0,0.0,0.0,0.0,0.0,0.0,0.10248409936399003,-0.1801272050882064,0.15276611064443468,-0.010320412816516277,0.012120484819388192,0.010800432017271462,0.0,0.0,0.0,10.397631793911993,-8.20865667940047,-7.186174882491793,-4.6947755745350275,-3.9459156669406776,10.167213360799533,-0.139119,-0.04494900000000002,0.006041000000000074,0.09123799999999993,-0.013282000000000016,-0.001811000000000007,0.23035699999999992,0.031667,0.007852000000000081,0.4923779492113636,0.9679381498454405,single,0.006041000000000074
101,0.841667,stair_decsent,0.0,0.0,0.0,0.0,0.0,0.0,0.058195344372458005,-0.17110631149507702,0.270098392128628,0.006599472042253162,-0.017638588912881163,0.006239500839938998,0.0,0.0,0.0,-5.314225460946926,1.0824206375245156,14.078747478304829,2.0302237651511055,-3.5708031836176057,-0.5472679598431042,-0.13863399999999992,-0.046375,0.008292000000000077,0.09129300000000007,-0.013428999999999969,-0.001758999999999955,0.229927,0.03294600000000003,0.010051000000000032,0.3994899999999997,0.9669342313291586,single,0.008292000000000077
102,0.85,stair_decsent,0.0,0.0,0.0,0.0,0.0,0.0,0.0715228609144155,-0.18264730589224015,0.2289691587663419,0.0074402976119053235,0.003000120004799889,0.002880115204611091,0.0,0.0,0.0,1.5993659596733003,-1.3849747266486547,-4.9357054316916456,0.10090310448243957,2.4767441398873444,-0.40314240193542994,-0.1380380000000001,-0.04789700000000002,0.010199999999999987,0.09135500000000008,-0.013403999999999971,-0.001734999999999931,0.22939300000000018,0.03449300000000005,0.011934999999999918,0.3806500000000008,0.9857937990662962,single,0.010199999999999987
103,0.858333,stair_decsent,0.0,0.0,0.0,0.0,0.0,0.0,0.09612384495380395,-0.21660866434656642,0.23400936037441486,0.02004080163204194,0.009000360014399546,-0.003000120004806511,0.0,0.0,0.0,2.9522361741735694,-4.075526035560557,0.6048483869042273,1.512120967255078,0.7200576034560942,-0.7056564513881649,-0.13723700000000005,-0.04970199999999997,0.012149999999999994,0.09152199999999988,-0.01332899999999998,-0.0017599999999999838,0.22875899999999993,0.03637299999999999,0.013909999999999978,0.3609000000000002,0.9630450375273836,single,0.012149999999999994
104,0.866667,stair_decsent,0.0,0.0,0.0,0.0,0.0,0.0,0.0865130789536808,-0.22522198224142406,0.22846172306215834,0.014638828893709889,0.0007199424046083555,-0.005519558435324065,0.0,0.0,0.0,-1.1531996640416622,-1.0335154661456312,-0.6656632244128332,-0.648184873809945,-0.9935706275247467,-0.3023084269879492,-0.13651600000000008,-0.051578999999999986,0.014054000000000011,0.09164400000000006,-0.013322999999999974,-0.0018059999999999743,0.22816000000000014,0.03825600000000001,0.015859999999999985,0.34140000000000015,0.9738976824269576,single,0.014054000000000011
105,0.875,stair_decsent,0.0,0.0,0.0,0.0,0.0,0.0,0.0907236289451549,-0.261130445217809,0.2160086403456158,0.004680187207476307,-0.010200408016320819,0.003960158406343528,0.0,0.0,0.0,0.5052862104253075,-4.30918792468316,-1.494429703173227,-1.1950848057402543,-1.310494470290307,1.1376115254611248,-0.1357600000000001,-0.053755,0.015854000000000035,0.09168299999999996,-0.013407999999999975,-0.0017729999999999135,0.22744300000000006,0.04034700000000002,0.01762699999999995,0.3237300000000005,0.9801648928944591,single,0.015854000000000035
106,0.883333,stair_decsent,0.0,0.0,0.0,0.0,0.0,0.0,0.11184447377896928,-0.32593303732149104,0.2116884675386992,0.006720268810759123,-0.0019200768030740352,-0.009600384015370176,0.0,0.0,0.0,2.5346027641682816,-7.776622117326507,-0.5184414744889694,0.244819585177344,0.9936794927693207,-1.62733018381299,-0.13482799999999995,-0.05647099999999999,0.017618000000000023,0.09173900000000001,-0.013423999999999991,-0.0018529999999999935,0.22656699999999996,0.043047,0.019471000000000016,0.30528999999999984,0.9802083013290687,single,0.017618000000000023
107,0.891667,stair_decsent,0.0,0.0,0.0,0.0,0.0,0.0,0.1204703623710116,-0.39464842812575057,0.2175425965922816,0.0064794816414685385,0.0007199424046083555,-0.011399088072948977,0.0,0.0,0.0,1.0350238291387528,-8.245187281528668,0.7024392912865893,-0.028892148942954842,0.3167769627648675,-0.2158272207317988,-0.13382399999999994,-0.05975999999999998,0.019431000000000087,0.09179300000000001,-0.013417999999999985,-0.0019479999999999498,0.22561699999999996,0.046341999999999994,0.021379000000000037,0.28620999999999963,0.9781138546930479,single,0.019431000000000087
108,0.9,stair_decsent,0.0,0.0,0.0,0.0,0.0,0.0,0.14472578903153885,-0.4333373334933383,0.184447377895103,0.0010800432017191524,0.004680187207489629,-0.011160446417857836,0.0,0.0,0.0,2.9107676299684573,-4.64285435828484,-3.9715851070656982,-0.647958531111168,0.4752483862812021,0.028638144136702216,-0.13261800000000012,-0.06337099999999998,0.020967999999999987,0.09180199999999994,-0.013378999999999974,-0.0020409999999999595,0.22442000000000006,0.04999200000000001,0.023008999999999946,0.26991000000000054,0.9797497455529974,single,0.020967999999999987
109,0.908333,stair_decsent,0.0,0.0,0.0,0.0,0.0,0.0,0.1782071282851547,-0.5202208088323587,0.17064682587304061,0.006840273610941349,0.0064802592103682935,-0.019080763230531823,0.0,0.0,0.0,4.01792142729103,-10.42643409804646,-1.6561324879470178,0.6912552993186426,0.21601728103668313,-0.9504760365623497,-0.13113299999999994,-0.06770599999999999,0.02239000000000002,0.09185899999999991,-0.013324999999999976,-0.0021999999999999797,0.22299199999999986,0.05438100000000001,0.02459,0.2541,0.9645325412069301,single,0.02239000000000002
110,0.916667,stair_decsent,0.0,0.0,0.0,0.0,0.0,0.0,0.20134389248858092,-0.5968322534197226,0.1263498920086348,-0.0009599232061444612,0.002879769618426723,-0.010319174466046297,0.0,0.0,0.0,2.7761896092423863,-9.192637939448442,-5.315206847180882,-0.9359487421509181,-0.43202418909785734,1.051306547214478,-0.1294550000000001,-0.07268,0.02344299999999999,0.0918509999999999,-0.013301000000000007,-0.0022860000000000102,0.221306,0.05937899999999999,0.025729000000000002,0.24270999999999998,0.9820726863202782,single,0.02344299999999999
111,0.925,stair_decsent,0.0,0.0,0.0,0.0,0.0,0.0,0.21324852994121352,-0.6391455658226299,0.0772830913236633,-0.002880115204611053,0.0004800192007685088,-0.006840273610941258,0.0,0.0,0.0,1.4286136388614596,-5.0778006003728775,-5.888251612261047,-0.2304322571062743,-0.2879815693817597,0.41748480200468324,-0.12767799999999996,-0.07800599999999999,0.02408700000000008,0.09182699999999988,-0.013297000000000003,-0.002342999999999984,0.21950499999999984,0.06470899999999999,0.026430000000000065,0.23569999999999935,0.9876043438278792,single,0.02408700000000008
112,0.933333,stair_decsent,0.0,0.0,0.0,0.0,0.0,0.0,0.2277691107644273,-0.6821072842913772,0.04956198247929923,-0.004800192007658505,0.0020400816032628585,-0.006720268810745889,0.0,0.0,0.0,1.742539400361684,-5.155612440747353,-3.326666127968838,-0.2304184331030205,0.1872149768983996,0.014401152069527101,-0.12578,-0.08368999999999999,0.024500000000000077,0.09178700000000006,-0.013280000000000014,-0.002398999999999929,0.21756700000000007,0.07040999999999997,0.026899000000000006,0.23100999999999994,0.9858219860007118,single,0.024500000000000077
113,0.941667,stair_decsent,0.0,0.0,0.0,0.0,0.0,0.0,0.23278137748980537,-0.7366210703143699,0.014518838492911662,-0.008999280057600994,-0.0013198944084453037,0.0016798656107461464,0.0,0.0,0.0,0.6014238931339141,-6.541131032276482,-4.204840891095189,-0.503850257972457,-0.4031648682155191,1.0079354957393774,-0.12383999999999995,-0.08982899999999999,0.024621000000000004,0.09171200000000002,-0.013290999999999997,-0.0023849999999999705,0.21555199999999997,0.076538,0.027005999999999974,0.22994000000000026,0.9845843593787612,single,0.024621000000000004
114,0.95,stair_decsent,0.0,0.0,0.0,0.0,0.0,0.0,0.2284891395655734,-0.7595103804152237,-0.02040081603264191,-0.011520460818444364,0.004680187207489692,-0.0032401296051841467,0.0,0.0,0.0,-0.5150891544740205,-2.746827085185891,-4.190526164113031,-0.30255379345294536,0.7200385954560243,-0.5904230428333539,-0.12193600000000004,-0.096158,0.024451,0.09161599999999992,-0.013251999999999986,-0.0024119999999999697,0.21355199999999996,0.08290600000000001,0.02686299999999997,0.2313700000000003,0.9785832613733471,single,0.024451
115,0.958333,stair_decsent,0.0,0.0,0.0,0.0,0.0,0.0,0.2299291971678892,-0.7915516620664782,-0.05508220328812976,0.027601104044155948,-0.010920436817473582,0.027481099243973812,0.0,0.0,0.0,0.17281382483088886,-3.8451076024546254,-4.161932947976443,4.694775574534999,-1.8721497689863447,3.6866949296961273,-0.12002000000000002,-0.10275399999999998,0.023992000000000013,0.09184599999999987,-0.013342999999999994,-0.002182999999999935,0.2118659999999999,0.08941099999999999,0.02617499999999995,0.23825000000000052,0.9325815780945863,single,0.023992000000000013
116,0.966667,stair_decsent,0.0,0.0,0.0,0.0,0.0,0.0,0.22414206863450523,-0.8276937844972357,-0.08231341492680096,-0.011039116870647982,-0.001559875209981419,-0.003359731221505614,0.0,0.0,0.0,-0.6943998720163108,-4.336707755070466,-3.267483997920685,-4.63645559332897,1.1231775386959555,-3.7006036075688975,-0.11815200000000003,-0.109652,0.02330600000000005,0.09175399999999989,-0.013355999999999979,-0.002210999999999963,0.20990599999999993,0.09629600000000002,0.025517000000000012,0.24482999999999988,0.9805933068651203,single,0.02330600000000005
117,0.975,stair_decsent,0.0,0.0,0.0,0.0,0.0,0.0,0.21684867394697355,-0.8459138365534699,-0.11976479059163128,-0.027361094443765395,-0.055562222488899006,0.033721348853951554,0.0,0.0,0.0,-0.8752423721986975,-2.186493706496374,-4.494344853573823,-1.9587156574004034,-6.480540895105975,4.449907605359115,-0.11634499999999992,-0.116701,0.022307999999999995,0.091526,-0.01381899999999997,-0.0019299999999999873,0.20787099999999992,0.10288200000000003,0.024237999999999982,0.2576200000000002,0.8824684507415081,single,0.022307999999999995
118,0.983333,stair_decsent,0.0,0.0,0.0,0.0,0.0,0.0,0.23220928837150964,-0.8443537741509609,-0.06648265930636518,-0.09216368654747374,-0.04656186247449872,0.046321852874114465,0.0,0.0,0.0,1.8433474648429176,0.1872149769001485,6.394111518692653,-7.776622117329661,1.0800864051842372,1.5121209672582334,-0.11441000000000012,-0.12373699999999999,0.02175400000000005,0.0907579999999999,-0.01420699999999997,-0.0015439999999999898,0.20516800000000002,0.10953000000000002,0.02329800000000004,0.2670199999999996,0.8113802604827033,single,0.02175400000000005
119,0.991667,stair_decsent,0.0,0.0,0.0,0.0,0.0,0.0,0.17122630189585736,-0.9130069594432503,-0.2431005519558416,-0.032037437005041844,-0.017398608111351938,0.0017998560115175582,0.0,0.0,0.0,-7.317372987239336,-8.237723217217393,-21.192451721799547,7.214572779269528,3.499310578731335,-5.342212246531936,-0.11298300000000006,-0.131346,0.01972800000000008,0.09049099999999988,-0.014351999999999976,-0.0015290000000000026,0.20347399999999993,0.11699400000000001,0.02125700000000008,0.2874299999999992,0.9391644197737636,single,0.01972800000000008
120,1.0,stair_decsent,0.0,0.0,0.0,0.0,0.0,0.0,0.16008640345613115,-0.8838353534141341,-0.17040681627266074,-0.007800312012478276,-0.002760110404415595,-0.010440417616698412,0.0,0.0,0.0,-1.3368412864185963,3.500732752804038,8.723597225870702,2.9085713419612946,1.7566899924320512,-1.4688915910495521,-0.11164900000000011,-0.138711,0.01830799999999999,0.0904259999999999,-0.014374999999999971,-0.0016159999999999508,0.202075,0.12433600000000003,0.019923999999999942,0.3007600000000006,0.9777973101637285,single,0.01830799999999999
121,1.008333,stair_decsent,0.0,0.0,0.0,0.0,0.0,0.0,0.16320652826113527,-0.9131165246609954,-0.2089283571342864,-0.0032401296051841467,-0.001560062402501005,-0.009120364814588465,0.0,0.0,0.0,0.37442995379864985,-3.5138811048675764,-4.622769814187688,0.5472437786264455,0.1440115206905797,0.15841267276010543,-0.11028900000000008,-0.14632,0.016567,0.0903989999999999,-0.014388000000000012,-0.0016919999999999158,0.20068799999999998,0.131932,0.018258999999999914,0.31741000000000086,0.9836604358050373,single,0.016567
122,1.016667,stair_decsent,0.0,0.0,0.0,0.0,0.0,0.0,0.14314854811614958,-0.9167266618670412,-0.2562994960403047,-0.029157667386608035,-0.010199184065274909,-0.0059995200383962215,0.0,0.0,0.0,-2.4067650761921695,-0.43318181018068547,-5.684081942166782,-3.109855745311218,-1.0366116705992126,0.374471415429832,-0.10909600000000008,-0.15395999999999999,0.014431000000000083,0.0901559999999999,-0.014473000000000014,-0.0017419999999999103,0.19925199999999998,0.13948699999999997,0.016172999999999993,0.33827000000000007,0.9475546007812639,single,0.014431000000000083
123,1.025,stair_decsent,0.0,0.0,0.0,0.0,0.0,0.0,0.11784471378855722,-0.9323172926917159,-0.2830913236529487,-0.006720268810732566,0.00036001440057971716,-0.012360494419785935,0.0,0.0,0.0,-3.036581582574413,-1.8709505369824617,-3.2151479194340844,2.692595532926398,1.26715450208265,-0.7633474596651592,-0.10811400000000004,-0.16172899999999998,0.012072000000000083,0.09010000000000007,-0.014469999999999983,-0.0018449999999999855,0.1982140000000001,0.147259,0.013917000000000068,0.3608299999999993,0.9765435719803547,single,0.012072000000000083
124,1.033333,stair_decsent,0.0,0.0,0.0,0.0,0.0,0.0,0.13296531861275526,-0.9185167406696133,-0.3739349573982903,-0.006000240009612941,0.0008400336013415484,-0.00672026881074571,0.0,0.0,0.0,1.8145451607101613,1.6561324879518033,-10.901672116325454,0.0864069124108499,0.05760460827574977,0.6768541472507051,-0.10700599999999993,-0.169383,0.008956000000000075,0.09004999999999996,-0.014463000000000004,-0.0019009999999999305,0.1970559999999999,0.15492,0.010857000000000006,0.39142999999999994,0.9849196089874388,single,0.008956000000000075
125,1.041667,stair_decsent,0.0,0.0,0.0,0.0,0.0,0.0,0.08879289656827177,-0.9071274298056308,-0.3717302615790862,-0.002039836813047043,0.006479481641468625,-0.00707943364531226,0.0,0.0,0.0,-5.300266624008199,1.3666079750399274,0.26454233491770696,0.47521036675857614,0.6766796304448265,-0.043096332441391494,-0.10626599999999997,-0.176943,0.00585800000000003,0.09003300000000003,-0.014409000000000005,-0.0019599999999999618,0.196299,0.16253399999999998,0.007817999999999992,0.4218200000000001,0.983647715305366,single,0.00585800000000003
126,1.05,stair_decsent,0.0,0.0,0.0,0.0,0.0,0.0,0.07044281771269445,-0.9037561502459952,-0.3901356054242106,-0.003840153606148019,0.007440297611905125,-0.000360014400573046,0.0,0.0,0.0,-2.2020975465711032,0.40456972994545853,-2.2087296105993173,-0.2160466570383949,0.11530252855352008,0.8063625638712464,-0.10567900000000008,-0.184474,0.002607000000000026,0.090001,-0.014346999999999999,-0.001962999999999937,0.19568000000000008,0.170127,0.004569999999999963,0.45430000000000037,0.9860323370839451,single,0.002607000000000026
127,1.058333,stair_decsent,0.0,0.0,0.0,0.0,0.0,0.0,0.06240249609985368,-0.9067562702508175,-0.3967358694347848,0.04128165126603901,0.026041041641668632,0.031201248049913515,0.0,0.0,0.0,-0.9648771886284461,-0.360028801730749,-0.7920633638034604,5.414833177989613,2.2321785707144697,3.7875029941781895,-0.105159,-0.19202999999999998,-0.0006990000000000052,0.0903449999999999,-0.014129999999999976,-0.00170300000000001,0.1955039999999999,0.1779,0.0010040000000000049,0.48995999999999995,0.9034508118897964,single,-0.0006990000000000052
128,1.066667,stair_decsent,0.0,0.0,0.0,0.0,0.0,0.0,0.05435565154788016,-0.8940484761219033,-0.4031677465802607,-0.011039116870647982,0.014518838492918323,0.011879049676034377,0.0,0.0,0.0,-0.9655441027085984,1.524813310404861,-0.7717635163757968,-6.2779899372074155,-1.3825537735481426,-2.318478326599351,-0.10470599999999997,-0.199481,-0.004058999999999924,0.09025299999999992,-0.014008999999999994,-0.0016039999999999388,0.19495899999999988,0.185472,0.002454999999999985,0.5,0.9391728801188775,single,-0.0016039999999999388
129,1.075,stair_decsent,0.0,0.0,0.0,0.0,0.0,0.0,0.054602184087348654,-0.8827553102124167,-0.4137765510620471,-0.0045601824072942325,0.0022800912036471162,0.01920076803071396,0.0,0.0,0.0,0.02958508813974483,1.3552341185031433,-1.2731074621128593,0.7775032357318864,-1.4687084230494802,0.8786413482154866,-0.1042510000000001,-0.206837,-0.00750699999999993,0.09021499999999993,-0.013990000000000002,-0.0014440000000000008,0.19446600000000003,0.192847,0.0060629999999999296,0.5,0.9062597644034182,single,-0.0014440000000000008
130,1.083333,stair_decsent,0.0,0.0,0.0,0.0,0.0,0.0,0.04788191527661481,-0.857674306972264,-0.41569662786511,-0.003960158406330152,-0.007440297611905125,0.011160446417857689,0.0,0.0,0.0,-0.8064645158686817,3.009840782449572,-0.23041843310487323,0.07200576034610226,-1.1664933175989525,-0.9648771886302808,-0.10385200000000006,-0.213984,-0.010970999999999953,0.09018199999999998,-0.014052000000000009,-0.001350999999999991,0.19403400000000004,0.199932,0.009619999999999962,0.5,0.8804907000317939,single,-0.001350999999999991
131,1.091667,stair_decsent,0.0,0.0,0.0,0.0,0.0,0.0,0.03947684185265538,-0.8378929685625313,-0.4079673626109939,-0.015598752099827928,-0.04283657307415443,0.02471802255820055,0.0,0.0,0.0,-1.0085281286248606,2.373570723510092,0.9274376354831112,-1.396519521658027,-4.247213278407725,1.6267789945216127,-0.10352300000000003,-0.220967,-0.014370999999999912,0.09005200000000002,-0.014409000000000005,-0.0011449999999999516,0.19357500000000005,0.206558,0.01322599999999996,0.5,0.7813096539435601,single,-0.0011449999999999516
132,1.1,stair_decsent,0.0,0.0,0.0,0.0,0.0,0.0,0.05436217448698293,-0.825633025320998,-0.4177367094683795,0.005880235209404162,-0.015240609624383297,-0.0004800192007685024,0.0,0.0,0.0,1.7863113685740177,1.4712520390655248,-1.1723685176269523,2.5775815803710205,3.3116480798956736,-3.023885966514894,-0.10307,-0.227847,-0.01785199999999998,0.09010099999999999,-0.014535999999999993,-0.0011489999999999556,0.19317099999999998,0.213311,0.016703000000000023,0.5,0.8057321705938092,single,-0.0011489999999999556
133,1.108333,stair_decsent,0.0,0.0,0.0,0.0,0.0,0.0,0.04452178087122316,-0.7872314892595772,-0.4123364934597415,-0.007920316812687163,-0.01248049921996807,0.009120364814588465,0.0,0.0,0.0,-1.1808944696699704,4.608368662117026,0.6480518431102894,-1.6561324879504922,0.3312264975897338,1.1520921655294678,-0.1026990000000001,-0.23440699999999998,-0.021287999999999974,0.09003499999999987,-0.014639999999999986,-0.0010729999999999906,0.19273399999999996,0.219767,0.020214999999999983,0.5,0.768901994237554,single,-0.0010729999999999906
134,1.116667,stair_decsent,0.0,0.0,0.0,0.0,0.0,0.0,0.04583633309336472,-0.7613390928725648,-0.40856731461482665,-0.004319654427636754,-0.001559875209981419,0.0032397408207342263,0.0,0.0,0.0,0.15773364796514863,3.1068390193199127,0.4522652801673645,0.4320449226122367,1.3103700515942605,-0.7056184297881202,-0.10231699999999999,-0.240752,-0.024692999999999965,0.08999899999999994,-0.014652999999999972,-0.0010459999999999914,0.19231599999999993,0.22609900000000002,0.023646999999999974,0.5,0.7541627186396174,single,-0.0010459999999999914
135,1.125,stair_decsent,0.0,0.0,0.0,0.0,0.0,0.0,0.03108124324973138,-0.7134285371414929,-0.4092163686547528,-0.010200408016307632,-0.0008400336013482324,0.006960278411136808,0.0,0.0,0.0,-1.770681608500357,5.74949666759539,-0.07788960037515441,-0.7057186593868873,0.08638444841391975,0.44648237014311964,-0.10205799999999998,-0.246697,-0.02810299999999999,0.08991400000000005,-0.014660000000000006,-0.0009879999999999889,0.19197200000000003,0.232037,0.027115,0.5,0.7082210387163604,single,-0.0009879999999999889
136,1.133333,stair_decsent,0.0,0.0,0.0,0.0,0.0,0.0,0.026761070442801422,-0.6699867994719847,-0.40837633505339793,-0.016680667226702573,-0.001680067202689803,0.009360374414979384,0.0,0.0,0.0,-0.5184414744905793,5.213217049022993,0.10080806448516504,-0.7776622117358695,-0.10080806448356874,0.288023041382767,-0.10183500000000012,-0.25228,-0.03150599999999992,0.08977499999999994,-0.01467400000000002,-0.0009099999999999664,0.19161000000000006,0.23760599999999998,0.030595999999999957,0.5,0.662038094929879,single,-0.0009099999999999664
137,1.141667,stair_decsent,0.0,0.0,0.0,0.0,0.0,0.0,0.020158387329033686,-0.6333093352531747,-0.4071274298056233,-0.014878809695225826,0.005399568034559264,0.006359491240697064,0.0,0.0,0.0,-0.7922585929646851,4.400943630766707,0.1498566412016615,0.21620560732862168,0.8494882694083289,-0.3600771747398964,-0.10166699999999995,-0.257558,-0.03489900000000001,0.08965099999999993,-0.014629000000000003,-0.0008569999999999967,0.19131799999999988,0.242929,0.03404200000000002,0.5,0.6311498984961417,single,-0.0008569999999999967
138,1.15,stair_decsent,-2.58982359294375,-4.444497779911239,3.2805712228489505,-309.3825308188077,-165.35816755046784,-25.79362191724495,-0.10440417616706545,-0.5281411256450309,-0.1933277331093163,0.10440417616706545,0.004200168006721177,-0.17640705628224945,-310.791262803765,-533.3610680320749,393.6842941136422,-14.948105543753783,12.620689980576591,25.6569898831524,14.314530884710472,-0.14393376069099936,-21.932863017274475,-0.08095600000000003,-0.22492299999999998,-0.06384699999999999,0.11210200000000015,0.022442000000000017,-0.029664000000000024,0.19305800000000017,0.247365,0.03418299999999996,0.5,0.3164532438400312,flight,-0.029664000000000024
139,1.158333,stair_decsent,0.0,0.0,0.0,0.0,0.0,0.0,0.12540501620064134,-0.6183847353894045,-0.63266530661226,-0.10248409936398865,-0.005640225609026572,0.16596663866554648,310.7912628037567,533.3610680320606,-393.6842941136317,27.57820621237283,-10.829666355978883,-52.72261772506132,-24.827586167172743,-1.180894469668496,41.08648685320892,-0.07991100000000007,-0.23007599999999997,-0.06911900000000004,0.11124800000000001,0.022394999999999998,-0.028281,0.19115900000000008,0.252471,0.04083800000000004,0.5,0.2663862041046097,flight,-0.028281
140,1.166667,stair_decsent,0.0,0.0,0.0,0.0,0.0,0.0,0.0005999520038436347,-0.5133189344852506,-0.4020878329733689,0.002519798416132608,-0.005519558435324138,-0.007559395248384503,0.0,0.0,0.0,-14.975409670842343,12.606887557494115,27.66708346998985,12.599459776832644,0.014478902532089792,-20.821458353003873,-0.07990600000000003,-0.23435399999999998,-0.07247000000000003,0.11126900000000006,0.022349000000000008,-0.028344000000000036,0.1911750000000001,0.256703,0.044126,0.5,0.5425845600922887,single,-0.028344000000000036
141,1.175,stair_decsent,0.0,0.0,0.0,0.0,0.0,0.0,-0.0205208208328235,-0.4566182647305816,-0.3942157686307362,0.0020400816032561425,-0.018600744029762813,-0.004560182407294111,0.0,0.0,0.0,-2.5345941241649785,6.804352544661945,0.9446855085362503,-0.05756832027798599,-1.5698050635351548,0.3599199377283499,-0.08007699999999995,-0.23815899999999998,-0.07575500000000002,0.111286,0.02219399999999999,-0.02838200000000002,0.19136299999999995,0.26035299999999995,0.047373,0.5,0.4941701179044872,flight,-0.02838200000000002
142,1.183333,stair_decsent,0.0,0.0,0.0,0.0,0.0,0.0,-0.01680067202688471,-0.4274570982839356,-0.40525621024840924,-0.0009600384015370304,-0.009480379215168182,0.0001200048001954596,0.0,0.0,0.0,0.4464357141412246,3.4994799527956655,-1.3249059903603908,-0.36002880172725316,1.0944875572536559,0.5616449306959814,-0.08021699999999998,-0.241721,-0.07913199999999998,0.11127799999999999,0.022114999999999996,-0.02838099999999999,0.19149499999999997,0.26383599999999996,0.05075099999999999,0.5,0.4841172993351004,flight,-0.02838099999999999
143,1.191667,stair_decsent,0.0,0.0,0.0,0.0,0.0,0.0,-0.027477801775861888,-0.36549076073913767,-0.3906887449004094,-0.013438924885995813,0.0019198464122889224,0.011999040076792443,0.0,0.0,0.0,-1.2811530776310414,7.435365676121603,1.7479560052795466,-1.4973465904078098,1.3679176418834915,1.425370203575341,-0.08044600000000002,-0.24476699999999998,-0.08238800000000002,0.1111660000000001,0.022131000000000012,-0.028281,0.19161200000000012,0.26689799999999997,0.054107000000000016,0.5,0.46980307801269366,flight,-0.028281
144,1.2,stair_decsent,0.0,0.0,0.0,0.0,0.0,0.0,-0.03600144005759867,-0.3099723988959589,-0.42337693507740404,-0.011040441617662525,-0.006720268810752551,0.014160566422651212,0.0,0.0,0.0,-1.0228775089087796,6.662469919978312,-3.9227397308286265,0.28782950538021235,-1.0368553009770254,0.25939353724454445,-0.08074599999999998,-0.24735,-0.08591599999999999,0.11107400000000012,0.02207500000000001,-0.02816300000000005,0.1918200000000001,0.26942499999999997,0.05775299999999994,0.5,0.46804625715662884,flight,-0.02816300000000005
145,1.208333,stair_decsent,0.0,0.0,0.0,0.0,0.0,0.0,-0.03168126725069451,-0.2883715348613893,-0.37993519740788995,-0.0135605424217002,-0.006360254410172664,0.01056042241689373,0.0,0.0,0.0,0.5184414744874695,2.592207372443207,5.2132170490235605,-0.3024241934522537,0.04320345620783395,-0.43203456207337326,-0.08101000000000003,-0.24975299999999998,-0.089082,0.11096100000000009,0.02202200000000004,-0.028075000000000072,0.1919710000000001,0.27177500000000004,0.06100699999999992,0.5,0.46945569390413316,flight,-0.028075000000000072
146,1.216667,stair_decsent,0.0,0.0,0.0,0.0,0.0,0.0,-0.043676505879534186,-0.24046076313895332,-0.39116870650349206,-0.01871850251980417,-0.005639548836095529,0.021238300935936778,0.0,0.0,0.0,-1.4393134903815576,5.748832700076418,-1.3479132584116063,-0.6189056993165429,0.08647775066920432,1.281242922851362,-0.08137400000000006,-0.251757,-0.09234200000000004,0.11080500000000004,0.021975000000000022,-0.02789799999999998,0.1921790000000001,0.273732,0.06444400000000006,0.5,0.45188981759705604,flight,-0.02789799999999998
147,1.225,stair_decsent,0.0,0.0,0.0,0.0,0.0,0.0,-0.03756150246009867,-0.20076803072122543,-0.4024960998439829,-0.007440297611905125,0.0032401296051840604,0.011520460818430734,0.0,0.0,0.0,0.7338297635227898,4.763318422864177,-1.3593415745218556,1.3534387264969214,1.0656040371150166,-1.1661874615991688,-0.08168700000000007,-0.25343,-0.095696,0.11074300000000004,0.02200200000000002,-0.027801999999999993,0.1924300000000001,0.275432,0.06789400000000001,0.5,0.4765137459894617,flight,-0.027801999999999993
148,1.233333,stair_decsent,0.0,0.0,0.0,0.0,0.0,0.0,-0.04188167526700299,-0.15180607224289136,-0.4064562582503372,0.0025201008040380353,0.007680307212289581,-0.049441977679117094,0.0,0.0,0.0,-0.5184414744875024,5.87567004420191,-0.47523801828325535,1.1952956217380597,0.5328426265577296,-7.315785251115851,-0.082036,-0.254695,-0.09908300000000003,0.11076400000000008,0.02206600000000003,-0.028214000000000072,0.19280000000000008,0.27676100000000003,0.07086899999999996,0.5,0.41650270823154445,flight,-0.028214000000000072
149,1.241667,stair_decsent,0.0,0.0,0.0,0.0,0.0,0.0,-0.022798176145897648,-0.12526997840172688,-0.4379649628029775,0.025197984161272124,0.04043676505879213,-0.06455483561314175,0.0,0.0,0.0,2.2898367075960158,3.184076534816928,-3.780742086949847,2.721128312603062,3.930460504739897,-1.8133978802525248,-0.08222599999999991,-0.255739,-0.10273300000000007,0.11097400000000013,0.022403000000000006,-0.028752,0.19320000000000004,0.278142,0.07398100000000007,0.5,0.3662776801721461,flight,-0.028752
150,1.25,stair_decsent,0.0,0.0,0.0,0.0,0.0,0.0,-0.02352094083764392,-0.07368294731789339,-0.45841833673346566,0.022920916836653298,0.023040921636868744,-0.05172206888276421,0.0,0.0,0.0,-0.0867352324188502,6.190691357714384,-2.4545030517806756,-0.27325900931463415,-2.0875847140193864,1.5399936073896143,-0.082422,-0.256353,-0.10655300000000001,0.11116499999999996,0.02259500000000003,-0.02918300000000007,0.19358699999999995,0.27894800000000003,0.07736999999999994,0.5,0.3981910161677693,flight,-0.02918300000000007
151,1.258333,stair_decsent,0.0,0.0,0.0,0.0,0.0,0.0,-0.030601224048949542,-0.020160806432257237,-0.4638185527421148,0.01500060002401943,0.019800792031677936,-0.03468138725548858,0.0,0.0,0.0,-0.8496679720755654,6.422913822829311,-0.6480518431116284,-0.9504760365575352,-0.38883110586713526,2.044963593816847,-0.08267699999999989,-0.256521,-0.11041800000000002,0.11129000000000011,0.022760000000000002,-0.029472000000000054,0.193967,0.279281,0.08094599999999996,0.5,0.4288997580069844,flight,-0.029472000000000054
152,1.266667,stair_decsent,0.0,0.0,0.0,0.0,0.0,0.0,-0.0357571394288612,0.0005999520038394556,-0.4628029757619354,0.008879289656816284,0.03203743700504142,-0.022078233741295965,0.0,0.0,0.0,-0.6186603527611729,2.4910917249935842,0.1218594888624181,-0.734498484185637,1.4682799344088542,1.512257441107814,-0.08297500000000002,-0.25651599999999997,-0.11427500000000002,0.11136400000000002,0.02302700000000002,-0.029656000000000016,0.19433900000000004,0.279543,0.084619,0.5,0.4334858502982481,flight,-0.029656000000000016
153,1.275,stair_decsent,0.0,0.0,0.0,0.0,0.0,0.0,-0.040321612864501984,0.0453618144725793,-0.4659786391455665,0.005640225609040045,0.027961118444736033,-0.021600864034556536,0.0,0.0,0.0,-0.5477587226258045,5.371638361783302,-0.3810948498297247,-0.38870323386250666,-0.48917779434842495,0.05728665627498303,-0.08331099999999991,-0.256138,-0.11815799999999999,0.11141100000000015,0.023260000000000003,-0.029835999999999974,0.19472200000000006,0.279398,0.08832200000000001,0.5,0.44036607936191885,flight,-0.029835999999999974
154,1.283333,stair_decsent,0.0,0.0,0.0,0.0,0.0,0.0,0.006600264010550254,0.06612264490579542,-0.5390615624624953,0.0032401296051840604,0.0028801152046110143,-0.0033601344053795167,0.0,0.0,0.0,5.630850459024531,2.4913993079582086,-8.770301610095704,-0.2880230413843685,-3.0098407824462474,2.1889751145057845,-0.083256,-0.255587,-0.12265000000000004,0.11143800000000015,0.023284000000000027,-0.029864,0.19469400000000014,0.278871,0.09278600000000004,0.5,0.4908585184351105,flight,-0.029864
155,1.291667,stair_decsent,0.0,0.0,0.0,0.0,0.0,0.0,0.001679865610746191,0.07967362610991248,-0.4808015358771369,-0.014998800096010937,-0.04091672666187211,0.04631629469642486,0.0,0.0,0.0,-0.5904005759304243,1.6259876654808396,6.990643938728035,-2.1884964844246877,-5.25520060792944,5.960694636645707,-0.08324200000000004,-0.254923,-0.12665700000000002,0.111313,0.02294299999999999,-0.029478000000000004,0.19455500000000003,0.27786599999999995,0.09717900000000002,0.5,0.39400810199400815,flight,-0.029478000000000004
156,1.3,stair_decsent,0.0,0.0,0.0,0.0,0.0,0.0,0.004440177607111978,0.1360854434177343,-0.5238209528380986,0.0,-0.018240729629183106,0.0001200048001954564,0.0,0.0,0.0,0.3312506895914723,6.769688864493078,-5.1625365367767815,1.7999280086416265,2.721228493062356,-5.5437765386089755,-0.08320499999999997,-0.253789,-0.13102199999999997,0.111313,0.022791000000000006,-0.029476999999999975,0.19451799999999997,0.27658,0.101545,0.5,0.46959812603742673,flight,-0.029476999999999975
157,1.308333,stair_decsent,0.0,0.0,0.0,0.0,0.0,0.0,0.03396135845434247,0.1588863554542199,-0.5429017160686578,-0.0019200768030740608,-0.02148085923436774,0.003120124804988687,0.0,0.0,0.0,3.5426834090040518,2.7362188931340223,-2.289783178994283,-0.23041843310621365,-0.38883110586639413,0.36002880172726004,-0.08292199999999994,-0.252465,-0.13554600000000006,0.11129699999999998,0.02261200000000002,-0.029451000000000005,0.19421899999999992,0.275077,0.10609500000000005,0.5,0.4636816090674309,flight,-0.029451000000000005
158,1.316667,stair_decsent,0.0,0.0,0.0,0.0,0.0,0.0,0.053035757139434855,0.15922726181905306,-0.5304775617950533,0.0010799136069291708,-0.02027837772978509,0.006239500839925676,0.0,0.0,0.0,2.2887447426316583,0.040905491340672305,1.4907792504924817,0.35997005159625733,0.14428623765090462,0.3742951805779896,-0.08247999999999989,-0.251138,-0.13996700000000006,0.11130600000000013,0.02244299999999999,-0.029399000000000064,0.193786,0.27358099999999996,0.110568,0.5,0.464593229324444,flight,-0.029399000000000064
159,1.325,stair_decsent,0.0,0.0,0.0,0.0,0.0,0.0,0.05184207368294635,0.15456618264730743,-0.5257410296411866,0.0022800912036471162,-0.01248049921996807,0.0062402496099906975,0.0,0.0,0.0,-0.14324774468840976,-0.5593518746844681,0.5684065947277999,0.14402707268906234,0.9357828524921505,8.985600204264645e-05,-0.0820479999999999,-0.24985,-0.14434800000000003,0.11132500000000012,0.022338999999999998,-0.029347000000000012,0.19337300000000002,0.27218899999999996,0.11500100000000002,0.5,0.47643552627650154,flight,-0.029347000000000012
160,1.333333,stair_decsent,0.0,0.0,0.0,0.0,0.0,0.0,0.047281891275650856,0.1861274450978007,-0.5431417256690209,-0.0006000240009639587,-0.00948037921516793,0.00840033601344213,0.0,0.0,0.0,-0.5472437786265946,3.787502994178892,-2.0881670500220717,-0.3456276496593093,0.3600288017280798,0.2592207372436572,-0.0816539999999999,-0.248299,-0.14887400000000006,0.11132000000000009,0.022260000000000002,-0.029276999999999997,0.19297399999999998,0.270559,0.11959700000000006,0.5,0.4788652955226708,flight,-0.029276999999999997
161,1.341667,stair_decsent,0.0,0.0,0.0,0.0,0.0,0.0,0.0633549316054562,0.2071034317254657,-0.547876169906413,-0.00287976961843346,-0.0038396928245712863,0.00707943364531226,0.0,0.0,0.0,1.9286105507326197,2.516917041956492,-0.5680878614581474,-0.27354759028912223,0.6768282206139609,-0.15849560452722533,-0.08112600000000003,-0.246573,-0.15344000000000002,0.11129600000000006,0.022228000000000026,-0.029217999999999966,0.1924220000000001,0.268801,0.12422200000000005,0.5,0.4857449136971419,flight,-0.029217999999999966
162,1.35,stair_decsent,0.0,0.0,0.0,0.0,0.0,0.0,0.0883235329413245,0.2052082083283295,-0.5261010440417591,-0.004560182407294111,-0.0021600864034582606,0.009720388815552181,0.0,0.0,0.0,2.9963520143847187,-0.2274359050925421,2.6131196285435654,-0.20165760096731328,0.20156083296687824,0.3169272975206859,-0.08038999999999996,-0.244863,-0.15782400000000008,0.11125800000000008,0.022210000000000008,-0.02913699999999997,0.19164800000000004,0.267073,0.1286870000000001,0.5,0.48174659882654197,flight,-0.02913699999999997
163,1.358333,stair_decsent,0.0,0.0,0.0,0.0,0.0,0.0,0.08820352814111806,0.19644785791431832,-0.5096603864154614,-0.0019200768030740608,0.0006000240009639748,0.009120364814588465,0.0,0.0,0.0,-0.01440115207085526,-1.0512841010453937,1.9729578334690747,0.31682534552022973,0.3312264975905749,-0.07200576034606046,-0.07965500000000003,-0.243226,-0.16207100000000008,0.11124200000000006,0.02221500000000004,-0.029061000000000003,0.1908970000000001,0.26544100000000004,0.13301000000000007,0.5,0.4844340312359676,flight,-0.029061000000000003
164,1.366667,stair_decsent,0.0,0.0,0.0,0.0,0.0,0.0,0.14290856731463344,0.2336213102951751,-0.5568754499639861,0.002279817614589765,-0.0020398368130603107,0.008999280057587673,0.0,0.0,0.0,6.564079574455839,4.460457449106852,-5.66535439747112,0.5039470143585065,-0.3167579570463481,-0.014529008519413422,-0.07846399999999987,-0.24127899999999997,-0.16671199999999997,0.11126100000000005,0.022197999999999996,-0.028986000000000067,0.18972499999999992,0.26347699999999996,0.1377259999999999,0.5,0.4841582878192303,flight,-0.028986000000000067
165,1.375,stair_decsent,0.0,0.0,0.0,0.0,0.0,0.0,0.10332413296531964,0.21024840993639898,-0.5148205928237196,0.002760110404402308,-0.005040201608062748,0.009240369614783925,0.0,0.0,0.0,-4.750322134803092,-2.804860237462659,5.046784728221151,0.057637440275116726,-0.36005817772740484,0.02893190413971616,-0.07760299999999987,-0.239527,-0.171002,0.11128399999999994,0.02215600000000001,-0.028909000000000074,0.1888869999999998,0.261683,0.1420929999999999,0.5,0.4818642256305826,flight,-0.028909000000000074
166,1.383333,stair_decsent,0.0,0.0,0.0,0.0,0.0,0.0,0.09600384015359645,0.2029281171246866,-0.4423376935077537,-0.0003600144005730556,-0.01272050882035233,0.010320412816516415,0.0,0.0,0.0,-0.8784702762178401,-0.8784702762165411,8.698295849749979,-0.3744299537951989,-0.9216737324240551,0.12961036862264483,-0.07680299999999995,-0.237836,-0.17468800000000007,0.11128099999999996,0.022050000000000014,-0.028823000000000043,0.18808399999999992,0.259886,0.14586500000000002,0.5,0.47269249819592724,flight,-0.028823000000000043
167,1.391667,stair_decsent,0.0,0.0,0.0,0.0,0.0,0.0,0.1175905927525766,0.17470602351811793,-0.3791696664266758,-0.0013198944084453037,-0.017038636909044204,0.013078953683708292,0.0,0.0,0.0,2.5902030956299487,-3.386380322362428,7.579556885178474,-0.1151763868337222,-0.5181339199294266,0.33099842418908765,-0.07582299999999997,-0.23637999999999998,-0.177848,0.11126999999999998,0.02190800000000004,-0.028714000000000017,0.18709299999999995,0.258288,0.149134,0.5,0.4641331049252829,flight,-0.028714000000000017
168,1.4,stair_decsent,0.0,0.0,0.0,0.0,0.0,0.0,0.1698067922716857,0.15288611544461886,-0.33037321492860083,-0.002640105604220172,-0.01740069602784202,0.012720508820358991,0.0,0.0,0.0,6.266194590076753,-2.6184937085682547,5.855808412105536,-0.15843168076021605,-0.04344883220902676,-0.04301510420608478,-0.07440800000000003,-0.23510599999999998,-0.180601,0.11124800000000001,0.021763000000000032,-0.028607999999999967,0.18565600000000004,0.256869,0.15199300000000004,0.5,0.46380739315429403,flight,-0.028607999999999967
169,1.408333,stair_decsent,0.0,0.0,0.0,0.0,0.0,0.0,0.11124444977800384,0.17508700348013637,-0.2886115444617723,0.002520100804037968,-0.013440537621504744,0.010080403216125227,0.0,0.0,0.0,-7.027762209730091,2.6642131327873657,5.01160092005614,0.6192495389725248,0.4752380182811961,-0.31682534552186703,-0.07348099999999991,-0.233647,-0.183006,0.11126900000000006,0.02165100000000003,-0.028523999999999994,0.18474999999999997,0.255298,0.154482,0.5,0.47168561964216843,flight,-0.028523999999999994
170,1.416667,stair_decsent,0.0,0.0,0.0,0.0,0.0,0.0,0.10523158147348612,0.11015118790496913,-0.2132229421646343,-0.0005999520038436347,-0.01427885769138925,0.016918646508273266,0.0,0.0,0.0,-0.7214864776239304,-7.791674535057412,9.045908602968492,-0.37437638683485264,-0.10059036115725008,0.8205235531735264,-0.07260399999999989,-0.232729,-0.18478300000000003,0.11126400000000003,0.021531999999999996,-0.028383000000000047,0.18386799999999992,0.25426099999999996,0.15639999999999998,0.5632474861688139,0.46308845712571106,single,-0.028383000000000047
171,1.425,stair_decsent,0.0,0.0,0.0,0.0,0.0,0.0,0.05412216488659202,0.11064442577702904,-0.2091683667346584,-0.004440177607111978,-0.006480259210368121,0.020160806432263777,0.0,0.0,0.0,-6.133375325440202,0.05919091228368045,0.4865685143376721,-0.46084550621244164,0.9358692524926189,0.3890747538690092,-0.07215299999999991,-0.23180699999999999,-0.18652599999999997,0.11122699999999996,0.021477999999999997,-0.02821499999999999,0.18337999999999988,0.253285,0.15831099999999998,0.5954330046897036,0.463938052811267,single,-0.02821499999999999
172,1.433333,stair_decsent,0.0,0.0,0.0,0.0,0.0,0.0,-0.012360494419772612,0.13908556342253822,-0.2384495379815301,-0.012480499219954748,-0.012120484819388355,0.02544101764070466,0.0,0.0,0.0,-7.97823824629368,3.413073040382748,-3.513881104868829,-0.9648771886286863,-0.6768541472483242,0.6336506910405533,-0.07225599999999988,-0.230648,-0.18851300000000004,0.11112300000000008,0.021377000000000035,-0.028003,0.18337899999999996,0.252025,0.16051000000000004,0.5394575724139363,0.44863219794595277,single,-0.028003
173,1.441667,stair_decsent,0.0,0.0,0.0,0.0,0.0,0.0,-0.021838252939779833,0.15346772258219255,-0.24802015838731872,-0.019438444924405357,-0.006719462443004568,0.038876889848810714,0.0,0.0,0.0,-1.137240043197402,1.7257210414751876,-1.1483825780883794,-0.8348866935985788,0.6480708394988896,1.612175690917441,-0.072438,-0.229369,-0.19057999999999997,0.11096100000000009,0.021321000000000034,-0.02767900000000001,0.1833990000000001,0.25069,0.16290099999999996,0.512537038066545,0.42669665611464896,single,-0.02767900000000001
174,1.45,stair_decsent,0.0,0.0,0.0,0.0,0.0,0.0,0.02748109924397418,0.13176527061082585,-0.16140645625825667,-0.021720868834751998,0.016080643225725274,0.04932197287890831,0.0,0.0,0.0,5.918559004410712,-2.604398412500527,10.394060017888258,-0.27390182531461194,2.7361221251326113,1.253460102015804,-0.07220899999999997,-0.22827099999999997,-0.191925,0.1107800000000001,0.021455000000000002,-0.02726800000000007,0.18298900000000007,0.24972599999999998,0.16465699999999994,0.649724943490239,0.4062651458433397,single,-0.02726800000000007
175,1.458333,stair_decsent,0.0,0.0,0.0,0.0,0.0,0.0,0.05520220808831116,0.08808352334093192,-0.13320532821313283,-0.0423616944677837,0.0014400576023055071,0.08616344653785958,0.0,0.0,0.0,3.326666127965498,-5.242019353161306,3.3842707362442517,-2.4769981558899965,-1.7569405524324386,4.421153685221483,-0.07174900000000006,-0.227537,-0.19303500000000007,0.11042700000000005,0.021467000000000014,-0.026550000000000074,0.18217600000000012,0.249004,0.166485,0.7183893037545441,0.33995897710480605,single,-0.026550000000000074
176,1.466667,stair_decsent,0.0,0.0,0.0,0.0,0.0,0.0,0.05015598752100281,0.10835133189345071,-0.14122870170386442,-0.04583633309336594,-0.03551715862731271,0.11759059275259305,0.0,0.0,0.0,-0.6054980282347547,2.431942470904629,-0.9627278006637565,-0.41692328120738026,-4.434511186659337,3.770955869298544,-0.07133100000000003,-0.22663399999999997,-0.19421200000000005,0.11004499999999995,0.021170999999999995,-0.02556999999999998,0.18137599999999998,0.24780499999999997,0.16864200000000007,0.6917739808722123,0.2814823583761238,single,-0.02556999999999998
177,1.475,stair_decsent,0.0,0.0,0.0,0.0,0.0,0.0,0.067802712108501,0.12504500180006997,-0.24228969158765842,-0.03864154566181781,-0.04020160806431877,0.13020520820832637,0.0,0.0,0.0,2.1176916581660725,2.003320521615141,-12.127803898210995,0.8634090281468866,-0.5621564186974657,1.5138144072642628,-0.07076599999999988,-0.225592,-0.19623100000000004,0.10972300000000001,0.02083600000000002,-0.02448499999999998,0.1804889999999999,0.246428,0.17174600000000007,0.5317356074048835,0.26392836194008423,single,-0.02448499999999998
178,1.483333,stair_decsent,0.0,0.0,0.0,0.0,0.0,0.0,0.015000600023992783,0.025681027241089747,-0.19320772830913416,-0.0429617184687488,-0.07572302892115666,0.1621264850594028,0.0,0.0,0.0,-6.3365069104174605,-11.924153913234264,5.890071196270816,-0.5184414744907033,-4.262741012461084,3.830706450387222,-0.07064099999999995,-0.22537799999999997,-0.19784100000000004,0.10936499999999993,0.02020500000000003,-0.023133999999999988,0.1800059999999999,0.245583,0.17470700000000006,0.6741943343391579,0.1932940083162381,single,-0.023133999999999988
179,1.491667,stair_decsent,0.0,0.0,0.0,0.0,0.0,0.0,-0.029157667386608035,0.026517878569714097,-0.10631149508038584,-0.03767698584112348,-0.1018718502519777,0.18778497720181372,0.0,0.0,0.0,-5.298568203815752,0.10041412630481679,10.426713850341692,0.6341171859401583,-3.1376075510944132,3.0787727552688655,-0.07088399999999995,-0.225157,-0.198727,0.10905100000000001,0.01935600000000004,-0.02156900000000006,0.17993499999999996,0.24451300000000004,0.17715799999999993,0.8110298271809582,0.13844230981872307,single,-0.02156900000000006
180,1.5,stair_decsent,0.0,0.0,0.0,0.0,0.0,0.0,0.030241209648376486,0.007440297611904491,-0.19380775231009814,-0.026881075243010203,-0.13428537141486221,0.2035281411256506,0.0,0.0,0.0,7.128150370213016,-2.2894012909888133,-10.499970866400227,1.2955610942173736,-3.889778130671404,1.8892552410700847,-0.07063200000000003,-0.225095,-0.20034200000000002,0.10882700000000001,0.018237000000000003,-0.01987300000000003,0.17945900000000004,0.243332,0.180469,0.6728433366912084,0.09114367705516163,single,-0.01987300000000003
181,1.508333,stair_decsent,0.0,0.0,0.0,0.0,0.0,0.0,0.03216128645147719,0.01284051362054529,-0.14388575543021254,-0.01944077763110488,-0.14736589463578761,0.2073682947317987,0.0,0.0,0.0,0.23041843310941135,0.6480518431106262,5.990879260756758,0.8928714282857784,-1.5697255755340838,0.4608368662124267,-0.07036399999999987,-0.22498799999999997,-0.20154099999999997,0.10866500000000001,0.017008999999999996,-0.018144999999999967,0.17902899999999988,0.24199699999999996,0.183396,0.7533426930155462,0.07476718665378179,single,-0.018144999999999967
182,1.516667,stair_decsent,0.0,0.0,0.0,0.0,0.0,0.0,0.003479721622250359,0.038996880249579605,-0.06527477801777007,-0.024238060955127663,-0.16426685865130108,0.2215022798176013,0.0,0.0,0.0,-3.441512458510513,3.1385129144509376,9.432562684478265,-0.5756279486468379,-2.027953445585954,1.6959425348935047,-0.07033500000000004,-0.22466299999999997,-0.20208500000000007,0.10846299999999998,0.015640000000000043,-0.016299000000000063,0.178798,0.24030300000000002,0.185786,0.8731398213141118,0.03861818530748201,single,-0.016299000000000063
183,1.525,stair_decsent,0.0,0.0,0.0,0.0,0.0,0.0,0.01308052322094537,0.016680667226689247,-0.032401296051841465,-0.02208088323532505,-0.16392655706228806,0.22140885635426777,0.0,0.0,0.0,1.1521422775345131,-2.6780526848542614,3.944975634936866,0.2588716812435657,0.04083782419453057,-0.011211264050584476,-0.0702259999999999,-0.22452399999999997,-0.20235500000000006,0.10827900000000001,0.014274000000000009,-0.014453999999999967,0.1785049999999999,0.23879799999999998,0.1879010000000001,0.9354677356170593,0.03938035941048679,single,-0.014453999999999967
184,1.533333,stair_decsent,0.0,0.0,0.0,0.0,0.0,0.0,0.03204128165126756,0.053642145685826016,-0.13332533301331498,-0.03564142565702466,-0.16032641305651993,0.22920916836672672,0.0,0.0,0.0,2.2753820269197,4.435554837289827,-12.111368890132214,-1.6273301838112773,0.4320345620746517,0.9360748844904377,-0.06995899999999988,-0.22407699999999997,-0.20346600000000004,0.10798200000000002,0.012938000000000005,-0.012544,0.1779409999999999,0.23701499999999998,0.19092200000000004,0.7545991490849072,0.030036311066359733,single,-0.012544
185,1.541667,stair_decsent,0.0,0.0,0.0,0.0,0.0,0.0,0.029277657787366882,-0.041996640268778834,-0.015358771298298466,-0.035997120230378286,-0.16522678185744993,0.24778017758579587,0.0,0.0,0.0,-0.3316083350012874,-11.475736255652347,14.154855017400859,-0.042679934407683216,-0.587997216334305,2.2283428388612316,-0.06971499999999997,-0.224427,-0.20359400000000005,0.10768200000000006,0.011561000000000043,-0.010479000000000016,0.17739700000000003,0.23598800000000003,0.19311500000000004,0.9109184067027933,2.583813344742003e-05,single,-0.010479000000000016
186,1.55,stair_decsent,0.0,0.0,0.0,0.0,0.0,0.0,0.04872194887794304,0.0038401536061438554,-0.08580343213728653,0.028801152046083498,-0.20448817952718218,0.31861274450977034,0.0,0.0,0.0,2.333408267199786,5.500635290402243,-8.453697448576364,7.776103717323972,-4.711556182615092,8.50024804079842,-0.06930900000000007,-0.22439499999999998,-0.20430900000000007,0.10792200000000007,0.009857000000000005,-0.007824000000000053,0.17723100000000014,0.234252,0.19648500000000002,0.8354230672238528,0.0,single,-0.007824000000000053
187,1.558333,stair_decsent,0.0,0.0,0.0,0.0,0.0,0.0,0.05496219848794836,-0.008640345613824114,-0.06804272170886708,0.007200288011514404,-0.2076083043321763,0.25969038761551355,0.0,0.0,0.0,0.7488599075969492,-1.4977198151887776,2.1313705062306028,-2.592207372443213,-0.37442995379745075,-7.070965665937517,-0.068851,-0.22446699999999997,-0.20487600000000006,0.10798200000000002,0.008126999999999995,-0.005659999999999998,0.17683300000000002,0.23259399999999997,0.19921600000000006,0.8535104211849744,0.0,single,-0.005659999999999998
188,1.566667,stair_decsent,0.0,0.0,0.0,0.0,0.0,0.0,0.05435565154788016,-0.028197744180466073,-0.04739620830332616,0.009479241660659903,-0.2514998800095957,0.2982961363090916,0.0,0.0,0.0,-0.07277981042334915,-2.346700091989658,2.4773834179914522,0.27345256169252236,-5.26656775586982,4.632319257688712,-0.06839799999999996,-0.22470199999999999,-0.20527099999999998,0.10806099999999996,0.006031000000000009,-0.00317400000000001,0.17645899999999992,0.230733,0.20209699999999997,0.8709430552732431,0.0,single,-0.00317400000000001
189,1.575,stair_decsent,0.0,0.0,0.0,0.0,0.0,0.0,0.03156126245048657,-0.005760230409216353,-0.06708268330734338,0.04020160806431985,-0.28165126605064317,0.29533181327252583,0.0,0.0,0.0,-2.735436109131621,2.692609356924268,-2.3624714993420617,3.6868314416968953,-3.6183110573680213,-0.3557329937076405,-0.06813500000000006,-0.22474999999999998,-0.20583000000000007,0.10839599999999994,0.0036840000000000206,-0.0007130000000000747,0.176531,0.228434,0.205117,0.8760669990417193,0.0,single,-0.0007130000000000747
190,1.583333,stair_decsent,0.0,0.0,0.0,0.0,0.0,0.0,0.019320772830922227,-0.0007200288011519209,-0.024000960038398474,0.11700468018722586,-0.3169326773070873,0.3384135365414611,0.0,0.0,0.0,-1.4689175110481376,0.6048483869031974,5.170013592817011,9.21673732424153,-4.2339387083215545,5.170013592815856,-0.06797399999999998,-0.22475599999999998,-0.20603000000000005,0.10937100000000011,0.0010430000000000161,0.00210699999999997,0.17734500000000009,0.225799,0.20813700000000002,0.9486337554899623,0.0,single,0.00210699999999997
191,1.591667,stair_decsent,0.0,0.0,0.0,0.0,0.0,0.0,0.025677945764331717,-0.014158867290617026,-0.04307655387569055,0.2957763378929669,-0.5169186465082866,0.48620110391170296,0.0,0.0,0.0,0.7627997280309108,-1.6125316162065468,-2.288888149423139,21.45088285406101,-23.996396592416975,17.733089437274376,-0.06776000000000004,-0.224874,-0.20638900000000004,0.11183600000000005,-0.0032649999999999624,0.0061590000000000256,0.1795960000000001,0.22160900000000003,0.21254800000000007,0.9131505146910515,0.0,single,0.0061590000000000256
192,1.6,stair_decsent,0.0,0.0,0.0,0.0,0.0,0.0,0.025441017640717302,0.009720388815553014,-0.031201248049912686,0.08640345613825048,-0.3861754470178738,0.26713068522739847,0.0,0.0,0.0,-0.028432512134214633,2.8656253577546646,1.4250937028414326,-25.125750840599157,15.689811531310507,-26.289501822188967,-0.06754799999999994,-0.22479299999999997,-0.20664899999999997,0.1125560000000001,-0.006482999999999961,0.008384999999999976,0.18010400000000004,0.21831,0.21503399999999995,0.9309740544514642,0.0,single,0.008384999999999976
193,1.608333,stair_decsent,0.0,0.0,0.0,0.0,0.0,0.0,0.013920556822273616,0.015360614424576664,-0.02844113764551121,0.08700348013919013,-0.3913356534261423,0.2492499699988017,0.0,0.0,0.0,-1.3825105986372004,0.676854147248734,0.3312264975880838,0.0720057603431714,-0.6192495389737817,-2.145771658297964,-0.06743199999999994,-0.22466499999999998,-0.20688600000000001,0.11328099999999997,-0.009743999999999975,0.010461999999999971,0.1807129999999999,0.214921,0.21734799999999999,0.9413430716341582,0.0,single,0.010461999999999971
194,1.616667,stair_decsent,0.0,0.0,0.0,0.0,0.0,0.0,0.06443484521238368,0.002399808015358655,-0.08795296376289634,0.04823614110871255,-0.45176385889128745,0.2830573554115649,0.0,0.0,0.0,6.061229708436487,-1.5551723553177237,-7.140847866256861,-4.6517085469735155,-7.250804591450048,4.056561724593586,-0.06689499999999993,-0.22464499999999998,-0.207619,0.11368299999999998,-0.013508999999999993,0.012820999999999971,0.1805779999999999,0.211136,0.22043999999999997,0.818239074982702,0.0,single,0.012820999999999971
195,1.625,stair_decsent,0.0,0.0,0.0,0.0,0.0,0.0,-0.0003600144005730556,0.01284051362054529,-0.02136085443417894,0.03468138725548858,-0.4234969398775995,0.2494899795991926,0.0,0.0,0.0,-7.775694181322132,1.2529347900140082,7.991372774357135,-1.6266355278080031,3.392165968281315,-4.028246227333805,-0.0668979999999999,-0.224538,-0.207797,0.11397199999999996,-0.017037999999999998,0.014900000000000024,0.18086999999999986,0.2075,0.22269700000000003,0.9584570335353393,0.0,single,0.014900000000000024
196,1.633333,stair_decsent,12.676467058682475,-16.46693867754725,-14.99699987999534,124.64162559718889,-17.95789703343167,80.67009406213319,0.004080163206512394,0.03156126245049823,-0.15144605784231333,0.021960878435142914,-0.45721828873155107,0.24336973478938406,1521.2368965177716,-1976.111685773119,-1799.7119740784203,0.532842626555321,2.2465797227832844,-15.610848842929988,-1.5265221193262672,-4.046723731423481,-0.7344587555272538,-0.17249700000000012,-0.087056,-0.08408899999999997,0.008521999999999919,0.116371,0.14189799999999997,0.18101900000000004,0.203427,0.22598699999999994,0.7420773724154733,0.0,single,0.14189799999999997
197,1.641667,stair_decsent,0.5814734821214146,-1.6981041516678534,0.6793856491480696,-21.530039349591704,-19.74298310768962,-21.053482953040792,0.03851691864650987,0.005759539236860939,-0.008999280057600994,0.06251499880009476,-0.44216462682984947,0.20422366210702764,-1451.2831265371933,1772.1183736356234,1881.0157822346162,4.1320800863927545,-3.0959591089077385,17.092245954488988,4.866105155381754,1.8062949246102091,-4.697152949646764,-0.177022,-0.072856,-0.08982600000000007,0.004197000000000006,0.126838,0.1379379999999999,0.18121900000000002,0.199694,0.22776399999999997,0.9333810096352663,0.0,single,0.1379379999999999
198,1.65,stair_decsent,0.0678027121085028,0.10668426737069592,-0.2510500420016936,-7.089586590781541,-6.787069151264403,-7.429656070865138,0.012480499219981395,0.0002400096003842576,-0.0004800192007685152,-0.13128525141004901,-0.4760590423616986,0.27265090603625014,-61.64295811987476,216.58327361557255,-111.65674920794093,-3.1244953109958855,-0.6623700511792551,1.0223521969077831,-23.25696030362961,-4.067492563524474,8.211597735416191,-0.17748300000000006,-0.073743,-0.08773799999999998,0.002537999999999929,0.12198200000000001,0.14230200000000004,0.180021,0.195725,0.23004000000000002,0.9791799453103145,0.0,single,0.14230200000000004
199,1.658333,stair_decsent,0.08256330253207582,-0.5433817352694018,0.3778951158046338,-17.67403470014145,-9.826013256373654,-9.936792130170675,-0.009360374414979136,-0.0025201008040321394,-0.0016800672026830968,-0.08220328813152943,-0.5483019320772756,0.1555262210488349,1.7713417044969106,-78.0110407584407,75.47643799427775,-2.6210096765822812,-0.33122649758986544,-0.14401152069057488,5.890071196270099,-8.669493545610916,-14.055524419466362,-0.17824899999999988,-0.06923599999999999,-0.09090100000000001,0.0011650000000000826,0.121941,0.14044899999999994,0.17941399999999996,0.19117699999999999,0.23134999999999994,0.9836030030648724,0.0,single,0.14044899999999994
200,1.666667,stair_decsent,-5.9577633789297755,-6.885769138469053,2.970962323014216,-208.74491556703205,287.9142632221194,38.74420313390696,-0.0861531077513811,-0.11831053515718977,0.42956563474923154,-0.12586993040557926,-0.6829853611711196,0.021838252939767093,-724.7812192778938,-761.0256063354658,311.1431734112829,-9.214390849100482,-13.893740623129329,51.74534460666221,-5.239577906653547,-16.160718633770887,-16.04127287125874,-0.12931500000000007,-0.012836,-0.11208099999999999,0.04976799999999981,0.17363499999999998,0.11587099999999995,0.17908299999999988,0.186471,0.22795199999999993,0.5,0.0,flight,0.11587099999999995
201,1.675,stair_decsent,0.0,0.0,0.0,0.0,0.0,0.0,0.06216248649946111,0.09528381135245197,-0.28141125645025805,-0.11904476179045535,-0.6859474378975038,-0.046561862474491435,714.9602038797158,826.325349630257,-356.5297399512977,17.79858325343089,25.632346875031562,-85.32063976952804,0.8190529959346914,-0.3554634257031205,-8.208342183398216,-0.12879700000000005,-0.012042000000000004,-0.11442600000000003,0.04877599999999993,0.16791899999999998,0.115483,0.17757299999999998,0.17996099999999998,0.22990900000000003,0.5,0.0,flight,0.115483
202,1.683333,stair_decsent,-4.557782311292509,4.1803672146886255,1.466698667946726,-128.6505067245533,-97.9734849120654,-122.81865627098091,-0.10536421456857584,-0.07836313452538182,0.2698907956318212,-0.31537261490460805,-0.6635065402616173,-0.2456498259930445,-546.9557555853295,501.66413232793275,176.0108805888323,-20.104008288496157,-20.838467044022007,66.15889260555434,-23.56028478508994,2.6930154369238846,-23.891511282677893,-0.09169499999999986,-0.04753,-0.12439900000000004,0.08412799999999998,0.12755499999999997,0.10121400000000003,0.17582299999999984,0.175085,0.22561300000000006,0.5,0.0,flight,0.10121400000000003
203,1.691667,stair_decsent,0.0,0.0,0.0,0.0,0.0,0.0,0.08711303095749662,0.09011279097672137,-0.28821694264457476,-0.08495320374369157,-0.9787616990640671,-0.2175425965922787,546.8901261450053,-501.6039374476354,-175.98976097272796,23.09542182938217,20.21549382074657,-66.967571187472,27.64811748991057,-37.82759284886578,3.3725977202742476,-0.09096900000000008,-0.046779,-0.12680099999999994,0.08342000000000005,0.11939799999999999,0.09940099999999996,0.17438900000000013,0.166177,0.2262019999999999,0.5,0.0,flight,0.09940099999999996
204,1.7,stair_decsent,0.0,0.0,0.0,0.0,0.0,0.0,-0.013800552022064833,0.009720388815553272,-0.0038401536061481215,-0.06456258250329201,-1.1149645985839527,-0.301092043681748,0.0,0.0,0.0,-12.11011436212197,-9.647474158306592,34.126579747801415,2.446972427745079,-16.345001742456123,-10.026334704124576,-0.09108399999999994,-0.046697999999999996,-0.12683299999999997,0.08288200000000012,0.110107,0.09689199999999998,0.17396600000000007,0.156805,0.22372499999999995,0.971147502777149,0.0,single,0.09689199999999998
205,1.708333,stair_decsent,0.0,0.0,0.0,0.0,0.0,0.0,-0.010800432017271318,0.005880235209407492,-0.0026401056042201017,-0.10620424816992789,-1.027241089643566,-0.4742589703588007,0.0,0.0,0.0,0.3600288017272846,-0.46083686621213404,0.14401152069218753,-4.997199767986937,10.527242162532723,-20.78086243574339,-0.09117399999999987,-0.046649,-0.12685499999999994,0.0819970000000001,0.10154700000000001,0.09294000000000002,0.17317099999999996,0.14819600000000002,0.21979499999999996,0.9790372913460932,0.0,single,0.09294000000000002
206,1.716667,stair_decsent,0.0,0.0,0.0,0.0,0.0,0.0,-0.10139188864893482,0.17854571634269636,0.07391408687304556,-0.10739140868731788,-1.0569954403647923,-0.5985121190304881,0.0,0.0,0.0,-10.870105187384835,20.71820027997266,9.185768235813189,-0.14244786625750028,-3.5702364676298184,-14.909185105794302,-0.09201900000000007,-0.045161,-0.126239,0.08110200000000001,0.092738,0.08795200000000003,0.17312100000000008,0.137899,0.21419100000000002,0.6362915539336459,0.0,single,0.08795200000000003
207,1.725,stair_decsent,0.0,0.0,0.0,0.0,0.0,0.0,-0.050042001680053086,0.03156126245049739,0.05580223208928844,-0.07872314892595444,-1.0638425537021308,-0.7009480379215028,0.0,0.0,0.0,6.162232925582724,-17.638840020664393,-2.1735095144313936,3.440328784514932,-0.8216864679393173,-12.292801979000718,-0.09243599999999996,-0.044898,-0.12577399999999994,0.08044600000000002,0.08387299999999999,0.08211100000000005,0.17288199999999998,0.128771,0.207885,0.8644537355963489,0.0,single,0.08211100000000005
208,1.733333,stair_decsent,0.0,0.0,0.0,0.0,0.0,0.0,0.030721228849158323,-0.15264610584423544,0.026761070442814745,-0.0718828753150152,-1.094683787351503,-0.7647905916236807,0.0,0.0,0.0,9.691975342519159,-22.105768426105186,-3.485078800728904,0.8208656679394353,-3.7010960817679672,-7.661412900777442,-0.09217999999999993,-0.04617,-0.12555099999999997,0.079847,0.074751,0.07573799999999997,0.17202699999999993,0.120921,0.20128899999999994,0.7366836375581585,0.0,single,0.07573799999999997
209,1.741667,stair_decsent,0.0,0.0,0.0,0.0,0.0,0.0,0.12251019918405698,-0.04223662107031383,-0.0964722822174251,-0.07367410607150081,-1.177945764338843,-0.8530117590592593,0.0,0.0,0.0,11.01379533656083,13.248078326604363,-14.786819373678773,-0.2149304963385651,-9.990637987441723,-10.585693236810409,-0.09115899999999999,-0.046522,-0.126355,0.07923300000000011,0.064934,0.06862900000000005,0.1703920000000001,0.111456,0.19498400000000005,0.7307439142347056,0.0,single,0.06862900000000005
210,1.75,stair_decsent,0.0,0.0,0.0,0.0,0.0,0.0,0.006840273610941349,0.0144005760230413,-0.0032401296051841467,-0.07140285611426,-1.1958478339133676,-0.9326773070922924,0.0,0.0,0.0,-13.880946306626267,6.7967355206235025,11.188305845702844,0.2725608973047911,-2.1483342823142726,-9.56024817389101,-0.09110200000000002,-0.046402,-0.126382,0.07863799999999999,0.054969000000000004,0.06085700000000005,0.16974,0.101371,0.18723900000000004,0.9728858189662923,0.0,single,0.06085700000000005
211,1.758333,stair_decsent,0.0,0.0,0.0,0.0,0.0,0.0,0.0006000240009639748,0.008520340813632817,0.003480139205575066,-0.07860314412574777,-1.3012120484819503,-0.9542781711268622,0.0,0.0,0.0,-0.7488599075935954,-0.7056564513870799,0.8064645158717478,-0.8640691241435058,-12.644211516690707,-2.5922073724433026,-0.09109699999999998,-0.046331,-0.12635299999999994,0.07798300000000014,0.04412600000000001,0.05290499999999998,0.16908000000000012,0.09045700000000001,0.17925799999999992,0.9846279831012855,0.0,single,0.05290499999999998
212,1.766667,stair_decsent,0.0,0.0,0.0,0.0,0.0,0.0,-0.005639548836082057,0.009359251259898506,0.0040796736261072995,-0.0891528677705969,-1.3995680345572257,-1.0045596352291661,0.0,0.0,0.0,-0.748688845337891,0.10066120065582948,0.07193837539383599,-1.265865568136435,-11.80177418709799,-6.03329302883412,-0.09114399999999989,-0.046253,-0.12631899999999996,0.07723999999999998,0.032462000000000005,0.044533000000000045,0.16838399999999987,0.07871500000000001,0.170852,0.9805603617920596,0.0,single,0.044533000000000045
213,1.775,stair_decsent,0.0,0.0,0.0,0.0,0.0,0.0,-0.006960278411150132,-0.0038401536061439577,0.001320052802110086,-0.044281771270832236,-1.392175687027494,-1.0738029521181025,0.0,0.0,0.0,-0.15849388876372092,-1.5839919436028544,-0.3311677455894922,5.384746969850603,0.8871171882553452,-8.309530407888756,-0.091202,-0.046285,-0.12630799999999998,0.07687100000000013,0.020861000000000005,0.03558499999999998,0.16807300000000014,0.06714600000000001,0.16189299999999995,0.98656964521443,0.0,single,0.03558499999999998
214,1.783333,stair_decsent,0.0,0.0,0.0,0.0,0.0,0.0,0.03876155046202659,0.0028801152046085163,-0.04740189607584631,-0.0433217328693207,-1.4560182407296043,-1.1096843873754763,0.0,0.0,0.0,5.486838938338644,0.8064645158709175,-5.846867740064268,0.11520921655004426,-7.661412900769137,-4.3059444686635215,-0.09087899999999993,-0.046261,-0.126703,0.07651000000000008,0.008728,0.026337999999999973,0.167389,0.054988999999999996,0.15304099999999998,0.8978332978602919,0.0,single,0.026337999999999973
215,1.791667,stair_decsent,0.0,0.0,0.0,0.0,0.0,0.0,0.007559395248371181,0.016798656107511033,-0.012359011279093616,-0.09155267578594717,-1.7688984881209846,-0.9629229661627191,0.0,0.0,0.0,-3.7439591089100075,1.6700913010442502,4.204809790827136,-5.787250169981688,-37.542626276864205,17.609961748591306,-0.09081600000000001,-0.046121,-0.12680599999999997,0.07574700000000001,-0.0060140000000000055,0.018313000000000024,0.16656300000000002,0.040107,0.145119,0.9630283718637491,0.0,single,0.018313000000000024
216,1.8,stair_decsent,0.0,0.0,0.0,0.0,0.0,0.0,0.012720508820345328,0.045961838473538304,-0.06648265930637763,-0.030721228849157504,-1.5792631705267923,-0.9989199567982542,0.0,0.0,0.0,0.6193584029730057,3.499721872798123,-6.495097567176655,7.300065635040034,22.757148397238563,-4.319811668730883,-0.09071000000000007,-0.045738,-0.12736000000000003,0.07549099999999997,-0.019173999999999997,0.009989000000000026,0.16620100000000004,0.026564000000000004,0.13734900000000005,0.8636360473568784,0.0,single,0.009989000000000026
217,1.808333,stair_decsent,0.0,0.0,0.0,0.0,0.0,0.0,0.025921036841473174,0.039241569662786975,-0.02808112324492483,-0.0032401296051841467,-1.727589103564159,-0.973718948757967,0.0,0.0,0.0,1.5841267276044602,-0.8064645158708016,4.6083686621208635,3.297863823829786,-17.79982395744247,3.024241934511864,-0.09049400000000007,-0.045411,-0.12759399999999999,0.07546399999999998,-0.03357,0.00187499999999996,0.16595800000000005,0.011840999999999997,0.12946899999999995,0.9087075757184482,0.0,single,0.00187499999999996
218,1.816667,stair_decsent,0.0,0.0,0.0,0.0,0.0,0.0,-0.04979601631867399,-0.03611711063114955,0.07055435565155128,0.025197984161272124,-1.5205183585313053,-1.139908807295402,0.0,0.0,0.0,-9.085319553653298,-9.042318249812329,11.835310642725625,3.4123006679212926,24.846501683807553,-19.941187729473686,-0.0909089999999999,-0.045712,-0.12700599999999995,0.07567400000000002,-0.046242,-0.007624999999999993,0.16658299999999993,0.0005299999999999958,0.11938099999999996,0.8439906873955033,0.0,single,-0.007624999999999993
