frame_id,timestamp,gait_type,root_linear_velocity_x,root_linear_velocity_y,root_linear_velocity_z,root_angular_velocity_x,root_angular_velocity_y,root_angular_velocity_z,left_linear_velocity_x,left_linear_velocity_y,left_linear_velocity_z,right_linear_velocity_x,right_linear_velocity_y,right_linear_velocity_z,root_acceleration_x,root_acceleration_y,root_acceleration_z,left_acceleration_x,left_acceleration_y,left_acceleration_z,right_acceleration_x,right_acceleration_y,right_acceleration_z,left_pos_rel_x,left_pos_rel_y,left_pos_rel_z,right_pos_rel_x,right_pos_rel_y,right_pos_rel_z,step_length,step_width,step_height,left_contact_prob,right_contact_prob,support_type,max_foot_height
1,0.008333,stand,-0.026881075243009957,0.29629185167406685,0.03420136805471975,0.04370680740468048,-0.2976546621822537,0.2579668360455551,0.42505700228010995,0.8697947917916755,0.1824072962918509,0.003960158406330221,-0.003240129605184117,-0.0006000240009598058,0.0,0.0,0.0,0.0,0.0,0.0,0.0,0.0,0.0,0.12047399999999997,-0.17837800000000004,-0.850302,-0.0424770000000001,0.13699599999999995,-0.9022939999999999,0.16295100000000007,0.315374,0.05199199999999993,0.0,0.9914136213713964,single,-0.850302
2,0.016667,stand,-0.026877849772018472,0.3002159827213761,0.024358051355899232,0.046322424690926005,-0.19528762695003746,0.29124499283327776,0.45356371490279507,0.9388048956083576,0.11003119750419979,-0.0027597792176486946,-0.0026397888168906273,-0.005159587233021522,0.00038702555693358024,0.4708580570325491,-1.181103515577216,3.4205318721724396,8.280550014000724,-8.684437099550168,-0.8063280086367789,0.07203513178467595,-0.5471038195418425,0.12447799999999987,-0.17305599999999993,-0.849588,-0.04227599999999998,0.13447200000000004,-0.90254,0.16675399999999985,0.30752799999999997,0.052952,0.0,0.9893013231940808,single,-0.849588
3,0.025,stand,-0.006480259210368234,0.2865714628585145,0.028681147245888543,-0.03922703288155835,-0.17651512690654927,0.23472179747057942,0.5149405976239103,0.9813992559702277,0.019200768030722112,-0.0012000480019279385,-0.00204008160326284,-0.0028801152046085666,2.4478087797492187,-1.6374078798585907,0.5187922584890569,7.3655205473557235,5.111527704532598,-10.900087540318934,0.18717523289580656,0.07196774434510829,0.2735475853129672,0.1288229999999999,-0.16726600000000003,-0.8496670000000001,-0.04223200000000005,0.13206700000000005,-0.902803,0.17105499999999996,0.29933300000000007,0.05313599999999996,0.0,0.9937868616476587,single,-0.8496670000000001
4,0.033333,stand,-0.01608064322573845,0.29281171246849846,0.021000840033592368,-0.029690732875228155,-0.17967767016963437,0.3527021214925168,0.5527421096844005,1.0834033361334496,-0.015480619224769484,-0.0012000480019279385,-0.0019200768030740432,-0.0025201008040321837,-1.1520921655310472,0.7488599075943817,-0.921673732424838,4.536362901774895,12.240979258756981,-4.1619329479769105,0.0,0.01440115206873835,0.04320345620741425,0.1335630000000001,-0.160678,-0.8499709999999999,-0.042108000000000034,0.12961100000000003,-0.902999,0.17567100000000013,0.290289,0.053028000000000075,0.0,0.9943535364560545,single,-0.8499709999999999
5,0.041667,stand,0.0034797216222770284,0.27885769138469496,0.046436285097195364,-0.05288962273474673,-0.2646997074937193,0.29514141548433886,0.5967122630189458,1.0433165346772266,-0.09911207103431811,-0.0038396928245778734,-0.0005999520038369624,0.0021598272138233887,2.347056017280475,-1.6743485821698465,3.0520092468926077,5.275996320439792,-4.810031372236981,-10.03497141943228,-0.3167320401547798,0.15840230372415173,0.5615464384275944,0.13850699999999994,-0.15430700000000003,-0.8511839999999999,-0.04216900000000012,0.127282,-0.903368,0.18067600000000006,0.28158900000000003,0.05218400000000001,0.0,0.9925897898913438,single,-0.8511839999999999
6,0.05,stand,0.0015600624025009907,0.2733709348373938,0.036721468858757766,-0.06657888807901971,-0.26479770172292866,0.2347801069821885,0.6497059882395332,1.087723508940353,-0.1470058802352082,-0.0003600144005730523,-0.0014400576023055323,-0.0036001440057605,-0.23036832110596875,-0.6584371231610687,-1.1658245815957755,6.3595014065267526,5.329050073578104,-5.7474870035869525,0.4175781140051387,-0.10081670448440776,-0.6912241953178793,0.14390799999999992,-0.14752100000000007,-0.852715,-0.04218500000000014,0.12499199999999999,-0.9037040000000001,0.18609300000000006,0.27251300000000006,0.05098900000000006,0.0,0.9935097480940878,single,-0.852715
7,0.058333,stand,0.011400456018235477,0.27805112204487675,0.04368174726989451,-0.021069624629290476,-0.22841125884074445,0.3780523177765274,0.7089883595343843,1.1272050882035396,-0.17124684987399635,-0.003960158406330221,-0.0018000720028852463,0.002280091203647928,1.180894469666925,0.5616449306951851,0.8352668200092095,7.114169122147023,4.737979030743625,-2.909032717963298,-0.43203456207334323,-0.043203456207813996,0.7056564513870669,0.149721,-0.14044499999999993,-0.8545060000000001,-0.042313000000000045,0.12265999999999999,-0.9040490000000001,0.19203400000000004,0.2631049999999999,0.049543000000000004,0.004570000000000074,0.9918143198009247,single,-0.8545060000000001
8,0.066667,stand,0.005879529637624878,0.26241900647948097,0.038156947444195996,-0.00023701109157688765,-0.3040523420756108,0.15752792855502887,0.7654187664986695,1.1606671466282614,-0.18958483321334269,-0.0021598272138317145,-0.002519798416125899,-0.0032397408207342506,-0.6624581690197502,-1.8757038115425708,-0.6629229452482016,6.771107147142445,4.015125800902547,-2.200381970163946,0.21602246130291655,-0.08636026076801688,-0.6623268567773192,0.15605099999999994,-0.132959,-0.8564039999999999,-0.042380000000000084,0.120452,-0.904394,0.19843100000000002,0.253411,0.04799000000000009,0.020100000000000062,0.9922701591512268,single,-0.8564039999999999
9,0.075,stand,0.015840633625347544,0.27217088683547935,0.0344413776551107,-0.06521067688624789,-0.17096432796870104,0.27884068807832146,0.7872314892595855,1.1890075603024164,-0.2198487939517583,-0.00468018720747633,-0.001320052802110075,0.0024000960038400576,1.1953802937384705,1.1702724536179523,-0.44588621013864177,2.617631436567392,3.400985680325811,-3.631820561432334,-0.3024552974492521,0.14397523269120666,0.6768074912485675,0.16247900000000004,-0.125319,-0.858523,-0.042551000000000005,0.11817299999999997,-0.904661,0.20503000000000005,0.243492,0.04613800000000001,0.03862000000000004,0.9909619396554483,single,-0.858523
10,0.083333,stand,0.02988119524780313,0.2571702868114663,0.03780151206047689,0.07572809187756785,-0.3025802620567904,0.2610403485753166,0.8101524060962373,1.1941677667106658,-0.24192967718708608,-0.00588023520940426,-0.0026401056042268073,0.0014400576023046985,1.6849347920863524,-1.8001440086419094,0.40323225793426015,2.750620045200017,0.6192495389714905,-2.6498119807185603,-0.14401152069217912,-0.1584126727609182,-0.11520921655290511,0.16898100000000005,-0.11751099999999998,-0.860854,-0.042848999999999915,0.116008,-0.904964,0.21182999999999996,0.23351899999999998,0.04410999999999998,0.05890000000000001,0.9889922893669252,single,-0.860854
11,0.091667,stand,0.016198704103671267,0.23650107991360714,0.04715622750179709,-0.25930691957391533,-0.16322195463171335,0.12432580652044191,0.8969282457403293,1.2451403887689023,-0.24094072474202197,-0.00011999040078471066,-0.00023998080152945648,-0.008519318454523838,-1.6417675958881537,-2.480106419229564,1.1224760548740351,10.412267775868974,6.116225348960467,0.1186648002236756,0.6911740831076978,0.2879919369687248,-1.1950295244574687,0.17632099999999995,-0.10910499999999995,-0.863255,-0.04298500000000005,0.11403500000000005,-0.9054279999999999,0.219306,0.22314,0.042172999999999905,0.07827000000000006,0.98579409596418,single,-0.863255
12,0.1,stand,0.0405616224648925,0.25813032521301,0.043201728069125964,-0.046071407775091104,-0.35542828276278776,0.29853622607901764,0.8898355934237567,1.2097683907356225,-0.2862114484579379,-0.0019200768030740415,-0.003000120004806521,-0.003960158406336047,2.9236671500325464,2.5956132604587587,-0.47455891427710606,-0.8511523240816653,-4.244809556375832,-5.432704154076069,-0.21601900903508092,-0.3312299535913911,0.5471210906261595,0.18339800000000017,-0.10117500000000001,-0.866,-0.043339000000000016,0.11185899999999999,-0.905821,0.2267370000000002,0.213034,0.039820999999999995,0.10179000000000005,0.9911227084998643,single,-0.866
13,0.108333,stand,0.022560902436106704,0.238329533181326,0.040921636865478936,-0.23606293865945135,-0.1657724164720568,0.16252698683098424,0.9092763710548363,1.3590543621744917,-0.2206888275531015,-0.008760350414015336,-0.0006000240009573081,0.00456018240729586,-2.1601728103667117,-2.3761900914057383,-0.27362188931321607,2.332986635194955,17.915033173991283,7.863029029741561,-0.8208656679396736,0.2880230413835611,1.0224817969077058,0.19078700000000004,-0.09183599999999997,-0.86818,-0.04360000000000008,0.10986800000000002,-0.906124,0.23438700000000012,0.201704,0.03794400000000009,0.12055999999999994,0.9835093434058797,single,-0.86818
14,0.116667,stand,0.055435565154783054,0.2455003599712078,0.03383729301655918,-0.08572519118215274,-0.1921651369618023,0.34671076409564683,0.9280057595392249,1.2435805135589122,-0.2765778737700983,-0.0004799616030589122,-0.002759779217662014,-0.0028797696184300722,3.9446439547247807,0.8604303803553889,-0.8500532576097608,2.2473468303802058,-13.855753373599642,-6.7061490541152775,0.9935671719410145,-0.2591498940130434,-0.89272282526109,0.19805899999999999,-0.08351800000000004,-0.8707670000000001,-0.04406599999999994,0.10779899999999998,-0.9064300000000001,0.24212499999999992,0.19131700000000001,0.035663,0.14337,0.9933042680414472,single,-0.8707670000000001
15,0.125,stand,0.0248409936397538,0.23532941317652611,0.027721108844351545,-0.12357915300118531,-0.12853580224620817,0.21633582202452176,0.9300372014880778,1.2848913956558299,-0.27193087723509013,-0.0006000240009639698,-0.003000120004799864,-0.000600024000960639,-3.671495441621178,-1.220562437859319,-0.733971459523298,0.24378278517374943,4.957504151796199,0.5576618906766071,-0.014408064071169768,-0.028842048138467566,0.27358041731302474,0.20560200000000006,-0.074772,-0.873264,-0.04427800000000004,0.10581299999999999,-0.906666,0.2498800000000001,0.180585,0.03340199999999993,0.16598000000000002,0.9948036397228814,single,-0.873264
16,0.133333,stand,0.0453618144725776,0.24864994599783524,0.029401176047047946,-0.035908011092295265,-0.1990320511488909,0.33563557118089593,0.9681987279491129,1.3453738149525936,-0.27265090603624076,-0.0018000720028919063,-0.0014400576023055312,-0.0014400576023038656,2.462597003819007,1.5985278796722808,0.20161612896872677,4.5795663579785275,7.258180642837349,-0.08640691241457205,-0.14401152069217996,0.1872149768983957,-0.10080806448376646,0.21329200000000004,-0.065633,-0.875781,-0.04467100000000013,0.10372900000000002,-0.906923,0.25796300000000016,0.169362,0.031142000000000003,0.18857999999999997,0.9954699181355489,single,-0.875781
17,0.141667,stand,0.036117110631135756,0.2362610991120714,0.027597792176620232,-0.22286889171252497,-0.07360054736028743,0.31579154921693087,0.9461243100551882,1.2662586993040628,-0.2577393808495323,-0.0004799616030589138,0.0019198464122889415,-0.0051595872330215346,-1.109275718915511,-1.4865427028754334,-0.2163887533510582,-2.6487182498109885,-9.493054433469041,1.7892398832143626,0.15840057593388476,0.40315622925299743,-0.4463078510580367,0.22087600000000007,-0.05704899999999996,-0.878159,-0.044975999999999905,0.10177600000000003,-0.907196,0.265852,0.158825,0.02903699999999998,0.20962999999999993,0.9907898736583722,single,-0.878159
18,0.15,stand,0.04068162726510128,0.22116884675387466,0.019800792031677738,-0.16084305340491806,-0.07376233958581205,0.2701282578210208,0.9139565582623378,1.369374774990999,-0.22356894275771055,-0.003720148805965948,0.006120244809788515,-0.005760230409216295,0.5477639066321276,-1.8111427286927562,-0.9356774444908781,-3.8602846265271014,12.374424059394716,4.100616595682433,-0.38883801786955857,0.5040679704187653,-0.07208006434594506,0.22815300000000005,-0.047480999999999995,-0.8801869999999999,-0.04534600000000011,0.09998399999999996,-0.907409,0.27349900000000016,0.14746499999999996,0.02722200000000008,0.22777999999999998,0.9846814239458597,single,-0.8801869999999999
19,0.158333,stand,0.0460818432737237,0.24300972038881524,0.01836073442938553,-0.15119261581323393,-0.07566078410119983,0.39827501424161904,0.9133565342613738,1.32713308532341,-0.21624864994599743,-0.0024000960038292286,0.0016800672026897863,0.0024000960038400537,0.6480518431084143,2.621009676579931,-0.17281382482805785,-0.07200576034609846,-5.0692055283318105,0.8784702762166222,0.15841267276331672,-0.5328426265569093,0.979278340700389,0.23538000000000014,-0.03844700000000001,-0.882142,-0.04574999999999996,0.09797299999999998,-0.9075420000000001,0.2811300000000001,0.13641999999999999,0.02540000000000009,0.24599999999999994,0.9936878539789458,single,-0.882142
20,0.166667,stand,0.05531557475402499,0.2357811375089984,0.002639788816890625,-0.10217232522034969,-0.02328333718226784,0.5026156853136723,0.8803695704343556,1.3396928245740305,-0.19474442044636486,0.0002399808015427777,-0.0015598752099814294,-0.002399808015358671,1.107959140904881,-0.8673605567334814,-1.8863625644942272,-3.9581190097213974,1.5070481462227587,2.5803011158666367,0.3167838739347257,-0.3887619885614606,-0.5759424069112935,0.24225600000000003,-0.029247000000000023,-0.883787,-0.046208999999999945,0.095995,-0.9075840000000001,0.28846499999999997,0.12524200000000002,0.023797000000000068,0.26203,0.9952128992866236,single,-0.883787
21,0.175,stand,0.03540141605663446,0.24444977799112158,0.00408016320652569,-0.14192875441022715,0.007567559786953206,0.39844988691581357,0.8970358814352475,1.376815072602909,-0.12564502580103226,0.003360134405366261,-0.004440177607105405,-0.0006000240009598073,-2.3897946354722883,1.0402784689935438,0.17285184082984142,2.0000373215998954,4.454847957383717,8.292259047801846,0.3744334097952107,-0.34565011365942433,0.21598272103670565,0.249436,-0.019811000000000023,-0.884868,-0.04647599999999996,0.09392099999999998,-0.907623,0.29591199999999995,0.113732,0.02275499999999997,0.27245,0.990665817121031,single,-0.884868
22,0.183333,stand,0.04512180487221333,0.23904956198247834,-0.003960158406330218,-0.1495830513654091,0.013061330132518522,0.4727685781674055,0.7811112444497891,1.3170526821072848,-0.15324612984519373,0.004440177607112052,-0.002520100804031349,-0.0018000720028802486,1.1664933176021677,-0.6480518431109125,-0.9648771886302534,-13.911512898770948,-7.171773730424109,-3.312264975898409,0.12961036862423975,0.2304184331062108,-0.14401152069128048,0.25556899999999994,-0.010828000000000004,-0.886112,-0.04681500000000005,0.09190799999999999,-0.907605,0.302384,0.102736,0.021492999999999984,0.28507000000000005,0.9909774442428476,single,-0.886112
23,0.191667,stand,0.04739620830332647,0.24814014878809842,0.0074394048476129635,-0.12476771520850205,0.016405742049514244,0.5901128051885642,0.7447804175666027,1.3281737461003102,-0.1073914086873049,0.0021598272138317128,0.004919606431487066,-0.004679625629949284,0.2729065792072399,1.0907831540220871,1.3678381634201067,-4.359350477944121,1.3344209254890174,5.502126368837147,-0.2736201575810339,0.892693452785986,-0.34551879374478434,0.2613810000000001,-0.001827000000000023,-0.887069,-0.0471919999999999,0.08988099999999999,-0.907706,0.308573,0.09170800000000001,0.020637000000000016,0.29363000000000006,0.9881249237346525,single,-0.887069
24,0.2,stand,0.052922116884664985,0.25573022920916744,-0.01572062882515206,-0.09089415000327271,0.17974165497616454,0.6356965478170418,0.6716668666746487,1.2358094323772908,-0.14052562102484067,-0.003240129605184114,-0.007320292811716453,0.0014400576023038656,0.6631355551828285,0.9108460843716555,-2.7793152133403343,-8.773977066117121,-11.084161013202854,-3.976264531085533,-0.6480207391114631,-1.468846663050943,0.7343913635249183,0.266537,0.006339999999999957,-0.888109,-0.047659999999999814,0.08768899999999996,-0.907563,0.31419699999999984,0.081349,0.01945399999999997,0.30546,0.9864436471836171,single,-0.888109
25,0.208333,stand,0.0522020880835457,0.25105004200167863,-0.006840273610954626,-0.14895565062455055,-0.006071711027158753,0.5723087217356863,0.6009840393615907,1.2978519140765685,-0.0702028081123241,-0.001080043201745806,-0.003960158406336893,0.004680187207487995,-0.08640691241081103,-0.561644930695886,1.0656852531138195,-8.482278568709726,7.445395619738136,8.43907511250651,0.25922073724208733,0.4032322579358656,0.3888311058663312,0.27110999999999996,0.015062999999999993,-0.888637,-0.04810400000000015,0.08556399999999997,-0.907467,0.3192140000000001,0.07050099999999998,0.018830000000000013,0.3117,0.9896246151051244,single,-0.888637
26,0.216667,stand,0.04715622750178369,0.24850011999039928,-0.02591792656587398,-0.09982158244202521,0.2154413947211828,0.5603003659370502,0.5423566114710647,1.2233021358291336,-0.08819294456443554,-0.001199904007660602,-0.002039836813053663,0.0010799136069116935,-0.6054548334247661,-0.30596616406039673,-2.2891352237724183,-7.034728568577626,-8.945257769070656,-2.1586436827587496,-0.014382146138084473,0.23042015758138085,-0.4319982722073792,0.27523699999999995,0.023187000000000013,-0.889156,-0.048506999999999856,0.083476,-0.907242,0.3237439999999998,0.06028899999999998,0.018086000000000046,0.31914000000000003,0.9956644501662669,single,-0.889156
27,0.225,stand,0.06624264970600113,0.25573022920916744,-0.020640825633019298,-0.02723340571102786,0.11960553904742596,0.7322784752643091,0.461778471138854,1.198367934717387,-0.09588383535341335,0.003600144005757166,-0.0016800672026897863,-0.0007200288011519328,2.2904622829974106,0.8676478121646645,0.633277443040283,-9.669763630410495,-2.992223822362484,-0.9229438124298347,0.5760288027622422,0.04317408020687346,-0.21600172903679646,0.2785329999999999,0.031042000000000014,-0.889783,-0.04902899999999999,0.08133099999999999,-0.907076,0.3275619999999999,0.05028899999999997,0.017293000000000003,0.32706999999999997,0.9932706892910708,single,-0.889783
28,0.233333,stand,0.04812192487697988,0.2548901956078259,-0.027001080043205394,0.01956796510625061,0.1986761363906524,0.5877869188122904,0.37369494779791895,1.203288131525261,-0.08580343213728546,0.0031201248049753326,-0.0006000240009573072,-0.0027601104044164366,-2.174573962441046,-0.10080806448356525,-0.7632610596647175,-10.570445618736947,0.5904472348342769,1.2096967738062987,-0.05760460827815108,0.1296103686226423,-0.24481958517514726,0.2812460000000001,0.03894500000000001,-0.890273,-0.049404,0.079202,-0.906874,0.3306500000000001,0.04025699999999999,0.016600999999999977,0.33398999999999995,0.9929854482512512,single,-0.890273
29,0.241667,stand,0.08207343412528564,0.26085913126950017,-0.02783777297816301,0.07063877403978168,0.17850576891823375,0.7387890767472581,0.33753299736020653,1.1085913126949867,-0.10751139908807332,0.00815934725221468,-0.0038396928245712225,-0.002519798416126738,4.07385520138059,0.716214982202339,-0.10039512058526719,-4.339086925571455,-11.36270924289352,-2.604747654282207,0.6046583210030428,-0.3887291605008307,0.028835131784221184,0.28337499999999993,0.046009999999999995,-0.890937,-0.050020000000000175,0.07699600000000001,-0.906663,0.3333950000000001,0.030986000000000014,0.015726000000000018,0.34273999999999993,0.984394839472932,single,-0.890937
30,0.25,stand,0.06636265450618327,0.24684987399495664,-0.03924156966278242,-0.01060336740726743,0.30772041006400763,0.504808370405603,0.2858514340573748,1.0350414016560645,-0.11436457458298352,0.004920196807893885,-0.0006000240009639688,-0.001080043201727483,-1.8853689690510453,-1.6811781200700242,-1.3685103425680312,-6.202035677766915,-8.826342378365787,-0.8224139559474611,-0.3887136018625696,0.3887758098652647,0.17277753682938363,0.285204,0.052578000000000014,-0.891563,-0.05053200000000002,0.074934,-0.906345,0.33573600000000003,0.022355999999999987,0.014781999999999962,0.35218000000000005,0.9915450772479152,single,-0.891563
31,0.258333,stand,0.0884435377415084,0.25477019080763125,-0.01596063842554303,0.09178896742829616,0.08769779069719673,0.6086429093641624,0.23472938917554922,0.9224768990759653,-0.11436457458298306,0.005760230409195498,0.00120004800192128,-0.002880115204608574,2.6498119807182507,0.9504760365624174,2.79382350140879,-6.13489078145034,-13.50828064083757,5.4958238048467325e-14,0.10080806447877287,0.21601728103747186,-0.21601728103697293,0.28642299999999987,0.05814200000000003,-0.8923829999999999,-0.05122100000000018,0.07282100000000002,-0.9062359999999999,0.33764400000000006,0.014678999999999998,0.013853000000000004,0.36146999999999996,0.9890816880163856,single,-0.8923829999999999
32,0.266667,stand,0.09923206143507443,0.26313894888408906,-0.029397648188137684,0.052277856200507344,0.2030186051133109,0.6152990065611277,0.18814494840412915,0.8338132949364022,-0.13342932565394777,0.006959443244554051,0.002039836813053663,-0.010319174466042203,1.2945192816853879,1.0041706355240951,-1.612312186536434,-5.589685717712986,-10.638781394236021,-2.2875871215460393,0.14389402872072857,0.10076659600820523,-0.8926157021158654,0.287164,0.06289800000000001,-0.89325,-0.05198999999999998,0.07064500000000001,-0.906077,0.33915399999999996,0.007747000000000004,0.012827000000000033,0.37173,0.9789788369759138,single,-0.89325
33,0.275,stand,0.11484459378376247,0.21456858274331025,-0.007560302412100682,0.007146770242674101,0.16352688736201013,0.5016384247703043,0.12288491539663166,0.7320292811712431,-0.13512540501620032,0.01140045601823543,0.006120244809795156,-0.012720508820352992,1.8735788249955563,-5.828677083976792,2.6205863165770924,-7.8315172215885305,-12.214570234628427,-0.2035376649769043,0.5329428505557856,0.4896685463508311,-0.2881716493832688,0.287231,0.06720999999999999,-0.894313,-0.05285200000000012,0.06890800000000002,-0.90612,0.34008300000000014,0.0016980000000000328,0.011807000000000012,0.38193,0.9697584199687002,single,-0.894313
34,0.283333,stand,0.11376455058201743,0.26353054122165326,-0.025921036841473,0.01004211880361131,0.31629702237655255,0.46488672303553,0.0602424096963883,0.6189847593903767,-0.15300612024480997,0.004080163206539014,0.00648025921036825,-0.010200408016320887,-0.1296103686241501,5.875670044202943,-2.2033762665753467,-7.517401380084424,-13.56588524911397,-2.1457716582994952,-0.8784702762146208,0.04320345620701971,0.3024241934515915,0.28678500000000007,0.07017199999999996,-0.895372,-0.05376599999999998,0.06676599999999999,-0.905989,0.34055100000000005,0.0034059999999999646,0.010617000000000099,0.39383,0.9787416803916822,single,-0.895372
35,0.291667,stand,0.13978881689463157,0.2264218862490965,-0.008639308855286887,0.13715244810253766,0.1105670988243146,0.5116377396711206,0.01127909767216419,0.4756419486441108,-0.17626589872810136,0.0032397408207342476,0.0009599232061444676,-0.0039596832253417655,3.122662144542131,-4.452682382116236,2.0736414670249697,-5.87512743271227,-17.199761308647197,-2.7909501419836054,-0.10084261888706088,-0.6623873295204916,0.7488270687519937,0.285714,0.07224900000000001,-0.896769,-0.05490399999999984,0.06488700000000003,-0.90595,0.34061799999999987,0.00736199999999998,0.009180999999999995,0.40819,0.9913242892714649,single,-0.896769
36,0.3,stand,0.11904476179048439,0.25405016200648517,-0.03132125285012209,0.11528415794358209,0.32432470941012914,0.46079998905653896,-0.015480619224747872,0.34201368054722503,-0.15072602904116203,0.002400096003829237,0.0006000240009573092,-0.0006000240009598073,-2.4893861879451866,3.315525711915124,-2.721942157066514,-3.2112944794086316,-16.03603361297085,3.064906958711076,-0.10076140848494093,-0.04318963220774742,0.40317523393519344,0.2845930000000001,0.07298199999999999,-0.897764,-0.05587600000000004,0.06277499999999997,-0.905694,0.34046900000000013,0.010207000000000022,0.007929999999999993,0.4207,0.9957571896004831,single,-0.897764
37,0.308333,stand,0.1392055682227343,0.228489139565577,-0.013440537621504923,0.0479634014723097,0.2908016221236292,0.4561785063834389,-0.04200168006721121,0.19584783391335173,-0.1308052322092879,-0.0003600144005730508,0.0002400096003842544,0.00024000960038342167,2.4193935476118846,-3.0674453907245955,2.1457716583003834,-3.182654607279878,-17.540603220193532,2.390591243474623,-0.3312264975881767,-0.043203456207014684,0.10080806448376642,0.283083,0.07271,-0.8987419999999999,-0.05703900000000006,0.06087300000000001,-0.9055799999999999,0.34012200000000004,0.011836999999999986,0.006838000000000011,0.5329049668750252,0.9991753458887159,double,-0.8987419999999999
38,0.316667,stand,0.1459083273338002,0.23926085913127035,-0.016798656107501652,0.17774036695471204,0.1591885980820386,0.4063796981799954,-0.0866330693544655,0.04439644828414196,-0.11327093832493469,-0.00035997120230084735,-0.0031197504199628797,0.008279337652987762,0.8042667519877513,1.2925029476473961,-0.40294198296097294,-5.3553382874075535,-18.172712458508595,2.1039469503663693,5.183377994171351e-06,-0.40313895132555233,0.9646421949369315,0.281145,0.07108600000000004,-0.8995460000000001,-0.05825799999999992,0.058853000000000044,-0.905371,0.3394029999999999,0.012232999999999994,0.005824999999999969,0.6928265468226043,0.9852417768758561,double,-0.8995460000000001
39,0.325,stand,0.13188527541101122,0.2359294371774889,0.012240489619576989,-0.12505795397983988,0.13770603533051984,0.3553640517750319,-0.08040321612863861,-0.08568342733709222,-0.045721828873154666,0.0006000240009639668,-0.004680187207489629,0.009720388815553142,-1.6828335440764317,-0.3997866259188083,3.4848368807246515,0.7476122915908876,-15.610209482927354,8.106217382908886,0.11520403255307933,-0.18725990489940517,0.1729330568301181,0.27937600000000007,0.06840600000000002,-0.900029,-0.05935199999999985,0.05684800000000001,-0.905392,0.3387279999999999,0.011558000000000013,0.005363000000000007,0.7362323961439832,0.981991503562021,double,-0.900029
40,0.333333,stand,0.15228609144368052,0.2061682467298694,-0.00888035521421081,-0.029170454541133234,0.23953609937500814,0.4113156043353891,-0.057362294491777224,-0.1078843153726198,-0.030481219248770532,-0.001320052802110077,-0.010320412816516345,0.012840513620544372,2.4481958517543925,-3.5714857131428768,-2.534602764165109,2.7650211972712646,-2.6642131327886283,1.8289463127786116,-0.23041843310621007,-0.6768541472490975,0.3744299537971004,0.2776289999999999,0.06578899999999999,-0.9002089999999999,-0.06063200000000002,0.05504399999999998,-0.905211,0.3382609999999999,0.010745000000000005,0.005002000000000062,0.7400953553624179,0.9724554779521983,double,-0.9002089999999999
41,0.341667,stand,0.14638828893688477,0.22990160787136688,-0.009959203263732199,0.19457166019638192,0.13480665429166167,0.41112262220379514,-0.08171346292295788,-0.053755699544036896,-0.07871370290376725,0.00299976001919147,-0.008039356851449925,0.010799136069114437,-0.7076796864405743,2.8477755149385007,-0.12945140982978018,-2.9219064592249375,6.49491430628544,-5.787435043796097,0.5183360716704515,0.2737048194224163,-0.2449457105147508,0.275728,0.06342500000000001,-0.900782,-0.061827000000000076,0.053061000000000025,-0.905038,0.33755500000000005,0.010363999999999984,0.0042560000000000375,0.7481912625741467,0.9770114062947064,double,-0.900782
42,0.35,stand,0.13944557782309952,0.21516860674427565,-0.012480499219967987,0.049621836029589264,0.19443212591208203,0.4623681411583168,-0.05160206408258173,0.004320172806916608,-0.05292211688467598,0.003840153606148096,-0.003960158406336893,0.00708028321132889,-0.833158660000632,-1.7680308564852105,-0.3025676174529935,3.6135124013412003,6.969383457452736,3.0951141268560343,0.10085126448537475,0.48952339434933906,-0.44628019414203246,0.27413599999999994,0.061668,-0.901119,-0.06295699999999993,0.051234999999999975,-0.904875,0.33709299999999986,0.010433000000000026,0.0037559999999999816,0.8390370087903076,0.9850407920706269,double,-0.901119
43,0.358333,stand,0.14436577463099245,0.2034081363254524,0.00588023520940424,-0.15615731954412748,0.09886473471838159,0.3474323029437536,0.000720028801172748,0.054722188887550045,-0.016440657626304773,0.002520100804038002,-0.0021600864034582896,0.0066002640105603345,0.5904472348365432,-1.411312902774895,2.2033762665753214,6.278902302142597,6.048483869030749,4.377950229013687,-0.15841267276012103,0.21601728103667298,-0.057604608276557466,0.27293900000000004,0.060428999999999955,-0.901305,-0.06413899999999995,0.049521999999999955,-0.904869,0.337078,0.010907,0.0035640000000000116,0.8691215329043196,0.9876869122991907,double,-0.901305
44,0.366667,stand,0.13138948884090076,0.20638348932085404,0.007919366450685196,-0.17057783588530467,0.1718858829412829,0.4197882654974061,0.0520758339332641,0.0734341252699785,-0.020278377729781895,0.00299976001919147,0.00011999040077138885,0.003719702423805649,-1.5570297324324067,0.3570137983443285,0.2446761748597258,6.162203639559791,2.245252745671759,-0.4604895732513941,0.057554501458299476,0.27358732952119946,-0.3456397392314234,0.2722779999999998,0.05932099999999996,-0.90154,-0.06520900000000007,0.047802999999999984,-0.904904,0.33748699999999987,0.011517999999999973,0.0033640000000000336,0.8125593007044911,0.9920332036289006,double,-0.90154
45,0.375,stand,0.14412576503057584,0.20928837153485805,0.013680547221882607,-0.11706152679282404,-0.04687266076051145,0.33691048509439603,0.07848313932559176,0.050642025681031384,-0.04056162246489846,0.002400096003829237,0.001320052802110077,0.0027601104044164457,1.5284142793321858,0.3485998096728686,0.6913693473175837,3.169003407215615,-2.735161357127946,-2.434086731683261,-0.07196256034588201,0.14401324869059057,-0.11515564855264679,0.27173100000000017,0.05799900000000002,-0.9019919999999999,-0.06638999999999995,0.04607,-0.904995,0.3381210000000001,0.011929000000000023,0.003003000000000089,0.8002523984406298,0.9935190000616066,double,-0.9019919999999999
46,0.383333,stand,0.14100564022562714,0.20232809312372796,0.019800792031691127,-0.06216350185274615,-0.05765855046401087,0.39010441945616836,0.04716188647544302,0.04164166566662511,-0.019320772830913456,0.003480139205575043,0.003840153606148096,0.0009600384015361912,-0.3744299537919958,-0.835266820008413,0.7344587555272453,-3.7587006900454596,-1.080086405184963,2.549003916234856,0.129610368624242,0.3024241934523011,-0.21601728103687254,0.2709489999999999,0.05665999999999999,-0.9023180000000001,-0.06753600000000004,0.04441600000000001,-0.9051520000000001,0.3384849999999999,0.012243999999999977,0.002834000000000003,0.8619689677751726,0.9912155721204735,double,-0.9023180000000001
47,0.391667,stand,0.13162946964241692,0.22306215502759752,-0.005519558435324028,0.051596941759265366,-0.02629152697926372,0.3808375025093957,0.01763858891290126,-0.0005999520038369618,-0.0008399328053755765,0.0034797216222770253,0.004799616030715677,-0.0015598752099830946,-1.1250504659479494,2.4878883973925534,-3.0381990001218058,-3.5425123065204858,-5.068588633364774,2.217523401192448,-5.010598728311465e-05,0.11512628084564197,-0.30236544414678224,0.2699990000000001,0.05479600000000001,-0.902279,-0.06860399999999989,0.042596999999999996,-0.905119,0.338603,0.012199000000000015,0.0028399999999999537,0.9421520587230252,0.9897831855255981,double,-0.902279
48,0.4,stand,0.1392055682227343,0.19008760350413628,0.012840513620540955,-0.14261355580037738,-0.030784405136071745,0.40408118969107437,-0.008160326413051327,-0.017280691227652994,-0.00012000480019129449,0.0031201248049753222,0.005880235209410902,-0.0018000720028802425,0.9091681963659365,-3.9571044669940116,2.203296778574932,-3.0959936788614524,-2.0017687776090196,0.08639481641477008,-0.04315334420997259,0.12967948862297138,-0.028824768138383167,0.2687710000000001,0.053068000000000004,-0.902387,-0.06973800000000008,0.04106200000000004,-0.905241,0.33850900000000017,0.012005999999999961,0.002853999999999912,0.9396084512139564,0.9885069339585205,double,-0.902387
49,0.408333,stand,0.13608544341773327,0.2031681267250695,0.02316092643705739,0.07458597221768049,-0.10123296809144937,0.40432008155328514,-0.003240129605184125,-0.0152406096243836,-0.009480379215168951,0.005520220808831226,0.004440177607098744,-0.0016800672026881264,-0.37442995379827765,1.5697255755350126,1.2384990779450928,0.5904472348334591,0.24481958517573488,-1.1232898613917772,0.2880230413843646,-0.17281382483045263,0.01440115206913673,0.2676100000000001,0.051248000000000016,-0.902659,-0.07082600000000006,0.039406,-0.905448,0.3384360000000002,0.01184200000000002,0.0027890000000000414,0.9417120737346255,0.9878652655609355,double,-0.902659
50,0.416667,stand,0.12299016078714335,0.19342452603791704,0.017998560115188786,0.10427600531138571,-0.18479112245250723,0.2554330345716989,0.013078953683695058,0.0032397408207342476,-0.006959443244540729,0.004559635229206204,0.004199664026878715,-0.0017998560115192117,-1.571308211013907,-1.1691385513741848,-0.619434403871922,1.9581333439979802,2.2174646562416402,0.3024881174259923,-0.11526104867110888,-0.02885932088073295,-0.014373507179155882,0.266694,0.04966300000000001,-0.902867,-0.0718129999999999,0.037829,-0.905613,0.3385069999999999,0.011834000000000011,0.002746000000000026,0.9472643639315251,0.9892416785406366,double,-0.902867
51,0.425,stand,0.13740549621984333,0.19176767070682735,0.015840633625347572,-0.012093438415917864,-0.1082145150932476,0.3441620938474744,0.024960998439935975,0.015720628825152114,-0.006000240009600571,0.002280091203647101,0.00360014400576384,0.0010800432017283193,1.7299094483019333,-0.1988305929544822,-0.258961537242436,1.4259024068451873,1.4977664711889953,0.11510899255252136,-0.27355622531610563,-0.07194528034499899,0.3456017296588909,0.265757,0.04819600000000002,-0.903049,-0.07293899999999987,0.03626100000000004,-0.905736,0.3386959999999999,0.011934999999999973,0.002686999999999995,0.9229582811528054,0.9926730432881217,double,-0.903049
52,0.433333,stand,0.14016560662427133,0.18888755550222167,0.017760710428421502,0.01682159799650644,-0.15890076975740006,0.36020129873154166,0.025921036841472827,0.009480379215168056,-0.0013200528021117337,0.004920196807867223,0.0033601344053729,0.0006000240009598033,0.3312264975912624,-0.34562764965866677,0.2304184331061949,0.11520921655308392,-0.7488599075943876,0.561644930695886,0.31682534552023406,-0.02880230413907823,-0.05760460827655274,0.26480499999999996,0.04670099999999999,-0.903208,-0.07406599999999997,0.034714999999999996,-0.9058790000000001,0.3388709999999999,0.011985999999999997,0.00267100000000009,0.9272368821057699,0.9900196208249434,double,-0.903208
53,0.441667,stand,0.12970962323012883,0.18646508279337756,0.014278857691382398,0.028509481001880173,-0.03825193831707527,0.33064392105408,0.02507799376051439,-0.00467962562995098,0.0010799136069117006,0.0023998080153478634,0.0031197504199695406,0.0010799136069117006,-1.254617637886076,-0.2906734711835994,-0.41778890533226826,-0.101157077148841,-1.6990646562417946,0.2879729312483139,-0.3024224613054204,-0.028843770746743557,0.0575821461425366,0.2639330000000002,0.04510799999999998,-0.9033180000000001,-0.07512699999999994,0.03318700000000002,-0.905989,0.33906000000000014,0.01192099999999996,0.002670999999999979,0.9307337992347084,0.9931976036510366,double,-0.9033180000000001
54,0.45,stand,0.1422056882275275,0.18096723868954795,0.012480499219967906,0.17957302632481945,-0.1174285844417556,0.30970027356457214,0.021960878435115978,-0.01272050882035216,-0.0021600864034566243,0.0030001200047931873,0.002760110404415595,0.002520100804032173,1.4995877831991615,-0.6597676831668775,-0.2158116490356996,-0.37406880179988,-0.9649445806313628,-0.388815553866352,0.07204032034625242,-0.04315852820760162,0.17282937682952912,0.262931,0.04349399999999998,-0.90344,-0.076287,0.03170200000000001,-0.906072,0.339218,0.01179199999999997,0.0026319999999999677,0.9312288025440129,0.9920121902685323,double,-0.90344
55,0.458333,stand,0.13716548661947905,0.1723268930757226,0.017280691227639786,-0.004165139018689674,-0.10614792339091615,0.26507205210888757,0.01920076803074048,-0.004920196807867256,-0.002640105604223485,0.002640105604246801,0.002640105604220154,0.002880115204607741,-0.6048483869012903,-1.036882948977003,0.5760460827639377,-0.331226497584964,0.9360748844935706,-0.05760460827635446,-0.04320345620381464,-0.014401152069535697,0.04320345620731656,0.26194800000000007,0.04201700000000003,-0.9036059999999999,-0.07740799999999992,0.03028799999999998,-0.906192,0.339356,0.011729000000000045,0.0025860000000000882,0.9408130011352196,0.9921409325555299,double,-0.9036059999999999
56,0.466667,stand,0.14266858651306497,0.15610751139908752,0.02543796496281507,-0.21454476450578672,-0.08061307665711484,0.21811079656965723,0.010319174466019723,0.0032397408207342476,-0.0025197984161267296,0.00023998080151613449,0.002519798416132558,0.004079673626109824,0.6603191616973729,-1.9461701075876014,0.9787945446574606,-1.0657059712887866,0.9791141862972756,0.014435707714993416,-0.28799193697272185,-0.014435707713894434,0.14393549574059064,0.260845,0.04074300000000003,-0.9038390000000001,-0.07859499999999997,0.029008000000000034,-0.90637,0.33943999999999996,0.011734999999999995,0.00253099999999995,0.9561809431851143,0.9919981405392565,double,-0.9038390000000001
57,0.475,stand,0.1479659186367506,0.1699267970718867,0.021960878435129446,-0.10684346826901245,-0.04343184959814251,0.31604645596217046,0.003000120004819854,0.004680187207482999,-0.005160206408256507,0.003360134405392907,0.003120124804988666,0.004320172806912445,0.6357052830535996,1.6583806159605456,-0.41726707400523627,-0.8783216682107149,0.17286048082908378,-0.31686163352091495,0.37443340980160567,0.07204204834466696,0.028861056138560038,0.2596370000000001,0.03936599999999996,-0.904065,-0.07979999999999987,0.027617999999999976,-0.906517,0.339437,0.01174799999999998,0.0024520000000000097,0.9628382918572181,0.9895000562035107,double,-0.904065
58,0.483333,stand,0.14028561142445348,0.14904596183846877,0.0008400336013415596,0.023276449462981158,-0.047382721512983776,0.14466871787070498,-0.0032401296051841034,0.004080163206532325,-0.004200168006720288,0.0004800192007551856,0.002400096003842544,0.004920196807872219,-0.9216737324249478,-2.505800460028543,-2.5346027641651023,-0.7488599075967756,-0.07200576034449443,0.11520921655300792,-0.34562764966251164,-0.08640691241403087,0.07200576034558642,0.25844100000000014,0.038158000000000025,-0.904107,-0.08096499999999995,0.02639600000000003,-0.9064829999999999,0.3394060000000001,0.011761999999999995,0.0023759999999999337,0.9650860790482789,0.9908410311277611,double,-0.904107
59,0.491667,stand,0.14434845212383776,0.16246700263979127,0.011879049676034457,-0.10148427407076721,-0.053631306726472275,0.19789869108822344,-0.006959443244554051,0.0032397408207342476,-0.005399568034557635,0.004679625629964271,0.00227981761458978,0.0037197024238064817,0.48750188377541165,1.610396064473541,1.3245759628861153,-0.44628193416965967,-0.10084261888625824,-0.14391649002127976,0.503912458508409,-0.014432252130161234,-0.1440478022637072,0.25717999999999996,0.036831,-0.904251,-0.0821289999999999,0.025061,-0.906551,0.33930899999999986,0.011770000000000003,0.0022999999999999687,0.9613577223685725,0.989336895058963,double,-0.904251
60,0.5,stand,0.1464058562342496,0.15228609144365388,0.008520340813624433,-0.07407678971629017,-0.0454343679067651,0.2655877826786319,-0.005400216008622444,0.003840153606141434,-0.004320172806912445,0.006240249609977332,0.001800072002878589,0.0008400336013440632,0.24689836918418773,-1.2217582138650456,-0.4030611859366413,0.18711475290190932,0.07205241634551639,0.12953260862176805,0.18728236889632371,-0.057571776276394114,-0.34557408165875747,0.2559150000000001,0.035594000000000015,-0.904358,-0.08329699999999995,0.023807000000000023,-0.906615,0.33921200000000007,0.011786999999999992,0.0022569999999999535,0.9642461498478748,0.9890853524943979,double,-0.904358
61,0.508333,stand,0.14736589463578564,0.1291251650066023,0.004320172806916579,-0.042946357059806525,-0.014741601394169324,0.06943923003320836,-0.006960278411150039,0.005280211208446935,-0.00252010080403134,0.00588023520940424,0.004200168006721121,0.0028801152046077218,0.11520921655298773,-2.7794223493401526,-0.504040322417837,-0.18721497690238667,0.17281382482965257,0.2160172810369731,-0.04320345620701921,0.2880230413827579,0.244819585175045,0.254629,0.03456199999999998,-0.904415,-0.084476,0.02276600000000001,-0.906627,0.339105,0.011795999999999973,0.0022119999999999918,0.9627255164290298,0.9870349143000632,double,-0.904415
62,0.516667,stand,0.14194864410846422,0.14242860571154312,0.022558195344368495,-0.24178087560393524,-0.047621574188989185,0.18094517717485947,-0.005879529637624912,0.0035997120230417774,-0.0045596352291820885,0.0047996160307223696,0.0002399808015361185,0.0002399808015361185,-0.6500180618336275,1.596285181778366,2.1883876334835635,0.12967947846473882,-0.2016437707469603,-0.24472455305384688,-0.12966392832755896,-0.47518444986621367,-0.31679078510578573,0.2533970000000001,0.03340500000000002,-0.9046409999999999,-0.08561899999999989,0.021581000000000017,-0.906813,0.339016,0.011824000000000001,0.0021720000000000628,0.9645043099757682,0.9919806664843678,double,-0.9046409999999999
63,0.525,stand,0.15012600504021456,0.14352574102964424,-0.00972038881555231,-0.008021428175077767,0.09200392830627616,0.20690154775195863,-0.004200168006721121,0.001200048001921272,-0.0037201488059526123,0.012240489619590312,-0.017160686427457536,0.014640585623424528,0.981322564712625,0.1316615046323201,-3.8735850425921843,0.20153145696673275,-0.28797120138251475,0.10074240048355607,0.8929405482860807,-2.088163594022991,1.7281417042947738,0.252111,0.032219,-0.9045909999999999,-0.08676799999999996,0.020241999999999982,-0.9066099999999999,0.33887899999999993,0.011977000000000015,0.002018999999999993,0.9702471910173334,0.9572258680136889,double,-0.9045909999999999
64,0.533333,stand,0.1406456258250284,0.1293651746069816,0.002400096003842576,-0.09937622323528271,-0.07461850240492135,0.15348542848413807,-0.003720148805965985,0.0009600384015370304,-0.0031201248049920177,0.005280211208440344,-0.015360614424579162,0.021600864034562364,-1.137691013462888,-1.6993359441572986,1.454516358981759,0.057604608274947844,-0.028802304138274785,0.07200576034568584,-0.8352668200108042,0.21601728103664836,0.8352668200093483,0.2509079999999999,0.031149000000000038,-0.904637,-0.08789599999999997,0.019035999999999997,-0.90645,0.3388039999999999,0.01211300000000004,0.0018129999999999535,0.9736210337904138,0.954955995807002,double,-0.904637
65,0.541667,stand,0.13342932565394688,0.14206863450924037,-0.011999040076792443,-0.016768191977645227,0.08745987980390277,0.1222944270570532,-0.0026397888168906074,-0.0005999520038436186,-0.0035997120230375663,0.007079433645312071,-0.004199664026878687,0.019558435325173415,-0.8658867495898085,1.5242932448114557,-1.727758109027467,0.1296328280627993,-0.18718387393576158,-0.057545862496465684,0.2158894212709039,1.339206911171153,-0.24507183937952168,0.24977399999999994,0.029959999999999987,-0.904567,-0.08894899999999994,0.017816999999999972,-0.906187,0.3387229999999999,0.012143000000000015,0.0016199999999999548,0.9762932707866915,0.9646333509642666,double,-0.904567
66,0.55,stand,0.132965318612757,0.11136445457818078,0.0013200528021100684,-0.01870139339456297,-0.005481007998293717,0.049690596971230294,-0.00024000960036426957,-0.0009600384015370176,-0.0030001200048006818,0.004440177607112037,-0.0003600144005730508,0.009600384015360184,-0.0556830722656752,-3.6846489776862428,1.5983550796714814,0.2879850253841747,-0.043212096207055975,0.07195392034523966,-0.31672339351974355,0.4607763862121229,-1.1950139577358923,0.248664,0.029023999999999994,-0.9046029999999999,-0.09001999999999999,0.016886000000000012,-0.906118,0.338684,0.012137999999999982,0.001515000000000044,0.9795848107599964,0.9823607003797311,double,-0.9046029999999999
67,0.558333,stand,0.13704548181927118,0.11928477139085611,-0.017040681627262303,0.027152963462072525,0.08119250741958649,0.15521461283013388,0.0007200288011461112,-0.003000120004799889,-0.0042001680067203446,0.00420016800669453,-0.003360134405379606,0.004320172806912473,0.48963917034851817,0.9504760365625103,-2.2033762665753676,0.11520921654990875,-0.2448195851749538,-0.1440115206911885,-0.02880230414226676,-0.36002880172885904,-0.6336506910413727,0.24752799999999997,0.028005000000000002,-0.904496,-0.09112700000000018,0.01586399999999999,-0.90594,0.33865500000000015,0.012141000000000013,0.0014440000000000008,0.9768740322610486,0.9885017141871468,double,-0.904496
68,0.566667,stand,0.12455003599710396,0.11003119750419896,0.0077993760499137565,-0.03350369843607294,-0.16717540296223501,2.5200877527896403e-05,0.000479961603058909,-0.0020398368130536497,-0.0005999520038394556,0.0,-0.0016798656107461464,0.0025197984161267127,-1.4993335519758966,-1.1103400391957141,2.9805684757830417,-0.028805759309719264,0.11522476502834557,0.43199136103682045,-0.5039798424159465,0.20161612606592835,-0.216027644682715,0.246494,0.02707100000000001,-0.904566,-0.09216500000000005,0.01493300000000003,-0.905984,0.33865900000000004,0.012137999999999982,0.0014180000000000303,0.9821871102062734,0.9949526320037947,double,-0.904566
69,0.575,stand,0.12168486739470535,0.11556462258490345,0.0038401536061481215,-0.10646100896291197,0.019140062725059963,0.07472640948979101,0.002400096003855899,-0.0032401296051841467,-0.0032401296051841467,0.001680067202709788,-0.0006000240009639748,-0.0006000240009598112,-0.3438339856472616,0.6640375711873927,-0.47512569827981177,0.23042534510944532,-0.1440408966915286,-0.3168339855207867,0.2016161289703352,0.1295861766209266,-0.37439366579701816,0.24550000000000005,0.02608100000000002,-0.904625,-0.09316499999999994,0.013965000000000005,-0.906021,0.338665,0.012116000000000016,0.0013959999999999528,0.9774187503251,0.9968629970915779,double,-0.904625
70,0.583333,stand,0.12408496339853295,0.11136445457818744,-0.002040081603269493,-0.08825362281326686,0.035109750597539846,0.15778240106619706,0.0008400336013282363,-0.0016800672026897807,-0.0015600624024959882,-0.000720028801172748,0.0010800432017324755,-0.003000120004799849,0.28802304138096546,-0.5040403224188155,-0.7056564513881664,-0.18721497690239483,0.18721497689839908,0.2016161289677369,-0.2880230413875586,0.20161612896873193,-0.2880230413824586,0.24447299999999994,0.025138999999999967,-0.904621,-0.0942050000000001,0.013046000000000002,-0.906029,0.33867800000000003,0.012092999999999965,0.0014079999999999648,0.9818504392277012,0.9945518466851074,double,-0.904621
71,0.591667,stand,0.11807055435566216,0.0961123110151176,0.017998560115188664,-0.016902187057898397,-0.24105044267556208,0.041343030679266306,0.0009599232061444612,-0.0011999040076805766,-0.0014398848092158593,-0.000479961603058909,0.0029997600191981107,-0.0075593952483801385,-0.7216713514363742,-1.8301108187028718,2.404444650642909,0.01438560172980849,0.0576149742031678,0.014420157581008886,0.028805759312915423,0.23034759028865137,-0.5470692636885355,0.24349699999999985,0.02432799999999996,-0.904783,-0.09519300000000008,0.012270000000000003,-0.906242,0.33868999999999994,0.012057999999999958,0.001458999999999988,0.9819002950214389,0.9864216901073786,double,-0.904783
72,0.6,stand,0.11676467058681142,0.10404416176647241,-0.002520100804024712,-0.03378702346852271,0.011707671139342067,0.10853241579510194,-0.0007200288011461112,-0.00012000480018879799,-0.0025201008040322066,0.000840033601354894,0.0032401296051841467,-0.003960158406336919,-0.15671232075492053,0.9518601645691693,-2.4623378038177806,-0.2016023049670692,0.12959308862255953,-0.12963110462214775,0.15840576076008822,0.028845504138490123,0.4319256980731132,0.242518,0.02345999999999998,-0.904783,-0.09615899999999988,0.011429999999999996,-0.906254,0.3386769999999999,0.012029999999999985,0.001471,0.9809171828655023,0.9913578952356183,double,-0.904783
73,0.608333,stand,0.10464418576742833,0.09192367694707616,0.007320292811709766,-0.11304674600219423,-0.06042248433436131,0.06906832308309815,-0.0013200528021100684,0.0003600144005730508,-0.002160086403455791,-0.0009600384015370176,0.002760110404415595,-0.006960278411135883,-1.4545163589803238,-1.4545163589819028,1.1808944696669192,-0.07200576034608841,0.05760460827575264,0.043203456207417966,-0.21601728103827,-0.05760460827655705,-0.3600288017279432,0.24163500000000004,0.022696999999999967,-0.904862,-0.09703899999999988,0.010687000000000002,-0.906373,0.3386739999999999,0.012009999999999965,0.001510999999999929,0.9806283743844458,0.987418558780499,double,-0.904862
74,0.616667,stand,0.1031917446604377,0.0999520038396901,0.031437485001198216,-0.3538172412171676,-0.08123844537476178,0.12465424444301944,0.0004799616030589154,-0.002879769618426761,-0.0019198464122872829,-0.0020398368130736593,0.0020398368130536766,-0.003959683225341792,-0.17427899051963425,0.9633221613407714,2.893831556214133,0.21598444986429013,-0.38874298284135234,0.0288264928207955,-0.12956544414886587,-0.08642591689007947,0.360042618885782,0.24077899999999985,0.021840000000000026,-0.90514,-0.09791600000000011,0.009871000000000019,-0.906668,0.33869499999999997,0.011969000000000007,0.0015280000000000848,0.9788963779783453,0.9918348709452751,double,-0.90514
75,0.625,stand,0.10956438257529555,0.10152406096243968,-0.009000360014392885,0.02209987584612161,-0.0023126973686431844,0.21148536985743935,0.0,-0.0034801392055683576,-0.004080163206528161,-0.003480139205548373,0.0018000720028785772,-0.0063602544101769125,0.7647471396685247,0.1886544009059846,-4.852735511291363,-0.057597696274920604,-0.07204723234628513,-0.2592483852443141,-0.17284320082499793,-0.028772928138137345,-0.28808006538282854,0.2398659999999999,0.02096500000000001,-0.9050990000000001,-0.09885799999999989,0.009039999999999992,-0.9066460000000001,0.3387239999999998,0.011925000000000019,0.001546999999999965,0.97559208129465,0.9875496023861221,double,-0.9050990000000001
76,0.633333,stand,0.10008400336013415,0.07188287531501424,0.01212048481938153,-0.1450026975054252,-0.13833088514110115,0.029591349165768697,-0.00024000960036426957,0.0,-0.002520100804032173,-0.005640225609039971,0.0014400576023055264,-0.007920316812672067,-1.1376910134599016,-3.5570845610734816,2.534602764163486,-0.028802304135877664,0.41763341000460136,0.1872149768985938,-0.25922073724848055,-0.043203456207014185,-0.1872149768984937,0.23903000000000008,0.020365999999999995,-0.9052209999999999,-0.09973900000000002,0.008452999999999988,-0.906813,0.3387690000000001,0.011913000000000007,0.0015920000000000378,0.9798608266111218,0.9836176476021092,double,-0.9052209999999999
77,0.641667,stand,0.09167266618670401,0.07631389488840576,-0.01103911687064813,0.12861271231362162,-0.031245501447356036,0.19939338514609245,-0.0005999520038436266,0.00035997120230084735,-0.0014398848092150459,-0.0025197984161325748,0.013198944084473196,-0.005759539236861015,-1.0092797184341473,0.5316798144218321,-2.778929888412502,-0.04318963324686334,0.043193088828995606,0.12961555013404524,0.37442130944413415,1.410953501580002,0.2592725672919443,0.23826100000000006,0.019733,-0.905141,-0.10052400000000006,0.007927000000000017,-0.9067689999999999,0.3387850000000001,0.011805999999999983,0.0016279999999999628,0.9810518806367228,0.9756339374662253,double,-0.905141
78,0.65,stand,0.09240369614783801,0.0786031441257667,0.006720268810759123,-0.09707091870439634,-0.0725081868214967,0.1638017101303236,-0.0015600624025009842,0.0004800192007685088,-0.0002400096003842544,-0.0004800192007551856,0.00252010080403134,-0.006000240009600531,0.08772710442025643,0.27472089731920485,2.1312115302300705,-0.11521785655314455,0.014406336069562094,0.143990784691082,0.2447832971771728,-1.2815124541511833,-0.02888524813866729,0.23747800000000008,0.019081999999999988,-0.9051990000000001,-0.10129799999999989,0.007292999999999994,-0.906875,0.33877599999999997,0.011788999999999994,0.0016759999999998998,0.9804903445968024,0.9891239040567061,double,-0.9051990000000001
79,0.658333,stand,0.08688347533903464,0.08076323052921941,0.005400216008635803,-0.17800305907390465,0.0458736579526056,0.22150548651190416,0.0,-0.0003600144005730556,-0.0007200288011519401,-0.0006000240009639748,0.001680067202689803,-0.0025201008040322066,-0.6624529951762185,0.259220737243817,-0.15841267276171025,0.18721497689919578,-0.100808064483568,-0.05760460827645387,-0.014401152071137681,-0.10080806448356472,0.4176334100046029,0.2367539999999999,0.018406000000000033,-0.90525,-0.10202700000000009,0.006634000000000029,-0.906941,0.338781,0.011772000000000005,0.001690999999999998,0.9817483055457243,0.9948539220247707,double,-0.90525
80,0.666667,stand,0.08999280057593001,0.0605951523878125,0.00911927045835906,-0.061740635567650665,-0.07204758691983748,0.1656504390988881,0.00011999040075806644,-0.0002399808015361153,-0.0007199424046075133,-0.0007199424046016851,-0.00011999040077138805,-0.0007199424046075133,0.37308918129293867,-2.4199757789064984,0.44625083390007536,0.014397696275265843,0.014402879654060402,1.0366755990736292e-05,-0.014389057311940168,-0.2159896332446817,0.21600172779273816,0.23600500000000002,0.017898999999999998,-0.9053319999999999,-0.10278299999999985,0.006127999999999967,-0.9070229999999999,0.33878799999999987,0.011771000000000031,0.001690999999999998,0.9818094775943085,0.9982913359440674,double,-0.9053319999999999
81,0.675,stand,0.06648265930639183,0.08388335533421364,-0.01140045601823543,-0.2957919200091259,0.18199753544999578,0.2282822405279824,0.0003600144005996972,-0.0004800192007685088,-0.0014400576023038609,-0.000480019200781832,0.000120004800195458,0.002520100804032173,-2.8213298055367915,2.7946961414137816,-2.462465675818361,0.028804032142281263,-0.02880576013829263,-0.08641728041477795,0.02879193613582768,0.028800576139066968,0.38882073786627536,0.23545400000000005,0.01719599999999999,-0.905249,-0.10334100000000013,0.00542999999999999,-0.906907,0.3387950000000002,0.011765999999999999,0.0016580000000000483,0.9808198959958309,0.9957196418738639,double,-0.905249
82,0.683333,stand,0.08688347533900799,0.062282491299651556,0.005760230409222182,0.2027726372915048,-0.12364550809006358,0.2277031985582805,-0.000360014400599702,0.0010800432017258282,-0.0016800672026881377,-0.0012000480019013031,-0.003360134405379606,0.0014400576023038802,2.448195851748032,-2.592207372442371,2.0593647458847677,-0.08640691242042552,0.18721497689839808,-0.02880230413827901,-0.08640691241083374,-0.4176334100054117,-0.12961036862214118,0.2347269999999999,0.01668599999999998,-0.9053110000000001,-0.10407499999999992,0.004882999999999971,-0.906943,0.3388019999999998,0.011803000000000008,0.0016319999999999668,0.9802975577972493,0.9935872556734793,double,-0.9053110000000001
83,0.691667,stand,0.08159347252219927,0.05903527717782442,0.005639548836082057,-0.16819701236634244,0.012211212802043004,0.171762641679931,-0.0009599232061444612,0.00011999040077138805,-0.0015598752099830842,-0.00035997120232748577,-0.005879529637624834,0.005639548836092881,-0.6347495580523973,-0.38963452385734487,-0.014480630326388761,-0.07198329800153044,-0.11519712034490436,0.014421885373776411,0.10080115185670878,-0.3023032436099362,0.5038986361637832,0.23403899999999989,0.016195000000000015,-0.9053709999999999,-0.10475800000000013,0.0043420000000000125,-0.9069429999999999,0.338797,0.011853000000000002,0.0015720000000000178,0.9812208330252012,0.9864084422545862,double,-0.9053709999999999
84,0.7,stand,0.09912396495859846,0.056042241689667524,-0.006000240009599778,-0.19631288329096894,0.048991266084450896,0.22344822929908595,-0.0006000240009373283,0.0002400096003842576,-0.0018000720028802666,0.0001200048002087828,-0.007800312012485041,0.0032401296051841467,2.1037432420976057,-0.3591786257238596,-1.396830534703221,0.04318963221014475,0.014402880068747227,-0.028824768138387687,0.05759942428132401,-0.23050310510743127,-0.28794182538206603,0.23320800000000008,0.015730000000000022,-0.9053359999999999,-0.10558299999999998,0.00380999999999998,-0.906866,0.33879100000000006,0.011920000000000042,0.0015300000000000313,0.98151239700579,0.985921084667077,double,-0.9053359999999999
85,0.708333,stand,0.07848313932556458,0.046921876875078435,0.005760230409222106,-0.1854207331056065,-0.051674837418057555,0.13560192661655818,-0.0009600384015370176,-0.0002400096003842544,-0.0012000480019204393,0.0019200768030740352,-0.00588023520940424,0.00456018240729667,-2.4769981558902905,-1.0944875572529762,1.411312902774731,-0.04320345621021094,-0.05760460827655226,0.07200576034559279,0.21601728103507079,0.23041843310701945,0.15841267276041252,0.23254600000000014,0.01533699999999999,-0.905394,-0.1062209999999999,0.003369999999999984,-0.906876,0.33876700000000004,0.011967000000000005,0.0014819999999999833,0.9825876000246364,0.9871916775498378,double,-0.905394
86,0.716667,stand,0.08939284857211303,0.0502759779217662,-0.0037197024238064566,-0.04033086113531646,-0.0899805889862093,0.14553503153484712,-0.0021598272138316985,0.0013198944084453037,-0.00035997120230334037,0.0021598272138050553,-0.003359731221505614,0.005039596832253425,1.3090603847550237,0.40245992880822384,-1.1375009398882279,-0.1439631404241267,0.18717350717897124,0.10080115186190215,0.02876774786789276,0.30243628364514114,0.057525128984491476,0.23178300000000007,0.01492899999999997,-0.905366,-0.10694800000000004,0.0029229999999999534,-0.906803,0.3387310000000001,0.012006000000000017,0.0014370000000000216,0.9813688857385978,0.989282648582541,double,-0.905366
87,0.725,stand,0.09972398895956243,0.04152166086642993,-0.014520580823237591,0.05545290310654707,0.20341772928621837,0.1296368981278502,-0.001560062402501005,0.0009600384015370304,-0.0025201008040322066,0.0012000480019279496,-0.0056402256090200605,0.0015600624024960088,1.2397864379514567,-1.0505600690431234,-1.2961572542219169,0.07197465634593771,-0.043184448206921466,-0.2592259212443161,-0.11517811254975573,-0.2736702733126686,-0.417560834004254,0.230939,0.01459100000000002,-0.905266,-0.107769,0.0025300000000000322,-0.906669,0.338708,0.012060999999999988,0.001402999999999932,0.9807774903053087,0.9900436989762402,double,-0.905266
88,0.733333,stand,0.07824312972520031,0.04836193447738396,0.004080163206525663,-0.3858670038713011,-0.15970769863692133,0.17063165943216765,-0.003720148805939289,0.0009600384015370176,-0.0013200528021125664,0.00204008160325617,-0.0016800672026897807,0.0031201248049919765,-2.5778062203722585,0.820865667941198,2.2321785707144097,-0.25922073724208267,-1.5352916879069842e-15,0.14401152069118386,0.10080806448196529,0.4752380182803629,0.1872149768985913,0.23025600000000002,0.014195999999999986,-0.905311,-0.10840400000000017,0.002112999999999976,-0.906677,0.3386600000000002,0.01208300000000001,0.0013659999999999783,0.9795692048162874,0.993185037386541,double,-0.905311
89,0.741667,stand,0.0737940964722865,0.02651787856971112,0.0037197024238065065,-0.12427606826790699,-0.06235629609709266,0.061952407145673107,-0.0025197984161325748,-0.0002399808015361185,-0.0025197984161267465,0.0015598752099881005,-0.003959683225342625,-0.0028797696184300918,-0.533841283047016,-2.6210770227589353,-0.043251833779596696,0.14403052433485977,-0.14399078510596866,-0.14395795704513883,-0.05762015757956228,-0.2735320401551305,-0.7199297364317377,0.22961999999999994,0.013973000000000013,-0.9053629999999999,-0.10900600000000016,0.0018589999999999995,-0.906732,0.3386260000000001,0.012114000000000014,0.0013690000000000646,0.9803573257874751,0.9914356399066591,double,-0.9053629999999999
90,0.75,stand,0.08472338893554188,0.04200168006720455,-0.006960278411136715,-0.06687571491564692,-0.007276005763069343,0.20347247298264864,-0.0032401296051841034,0.0015600624024943227,0.0002400096003842544,0.0013200528021100684,0.0007200288011527632,0.0033601344053762307,1.311567558292971,1.8581305049194001,-1.2816489661518273,-0.08644320041419964,0.2160138250366535,0.3311902095897023,-0.028779840138969292,0.5615879066957121,0.7488184355941794,0.22888700000000006,0.013635999999999981,-0.905303,-0.10970100000000005,0.0015149999999999886,-0.906646,0.3385880000000001,0.012120999999999993,0.001342999999999983,0.9805630967567993,0.9938646099243267,double,-0.905303
91,0.758333,stand,0.07392295691827042,0.042121684867393344,-0.008880355214197428,-0.012771923090482615,-0.10549403958601346,0.1151010383111736,-0.002520100804038002,0.0003600144005797124,-0.0026401056042243,0.00984039361576109,-0.011280451218046633,0.011520460818432552,-1.2961036862200186,0.014401152068738344,-0.2304184331046088,0.08640691241402837,-0.14401152069058026,-0.34562764965901144,1.0224817969099949,-1.440115206912198,0.9792783407003824,0.22825000000000006,0.013288000000000022,-0.905251,-0.11023499999999986,0.0010700000000000154,-0.9064760000000001,0.3384849999999999,0.012218000000000007,0.0012250000000000316,0.9816374727829295,0.9685179529261834,double,-0.905251
92,0.766667,stand,0.06059515238780664,0.02375809935204909,0.00611951043915437,-0.36830268489603524,0.050004095057770884,0.2120847045576723,-0.0023998080153478634,0.0005999520038369659,-0.0010799136069117006,0.0,-0.001439884809216711,0.0027597792176620325,-1.5992086069671048,-2.2034539855224815,1.799839891210929,0.01443397992442275,0.02879020917413665,0.18720806303247042,-1.180752773669444,1.180773507179023,-1.0511976962767662,0.22772500000000018,0.013095000000000023,-0.905311,-0.11073999999999984,0.0008600000000000274,-0.906504,0.338465,0.012234999999999996,0.0011929999999999996,0.9835714711306458,0.9948119663342638,double,-0.905311
93,0.775,stand,0.13812552502101516,0.05292211688467813,-0.006240249609977291,0.026392731010630464,-0.2416588041706829,-0.011424577352146111,-0.0018000720028919003,0.0004800192007685088,-0.0022800912036479186,0.002400096003829221,-0.0006000240009639668,0.0002400096003842544,9.30401687666005,3.499822096799342,-1.483230535117198,0.07197120034272898,-0.014392512068697535,-0.1440270726912532,0.2880230413811605,0.10078732848346823,-0.30238444945131016,0.22655899999999995,0.012658000000000003,-0.905278,-0.11187100000000005,0.00041399999999996995,-0.90645,0.33843,0.012244000000000033,0.0011719999999999509,0.9833726660480759,0.9958573712594248,double,-0.905278
94,0.783333,stand,0.043081723268930935,0.0369614784591357,-0.03444137765511099,-0.32797214295137544,-0.15932115908175612,0.24968462740851388,-0.0016800672026831415,0.001800072002878601,-0.00048001920076768247,0.001560062402501005,-0.0012000480019146262,0.0010800432017283265,-11.405712438747761,-1.9153532251941165,-3.3842707362455244,0.014401152071134031,0.1584126727601229,0.2160172810368718,-0.1008080644819661,-0.07200576034449357,0.10080806448386893,0.226186,0.012365000000000015,-0.904995,-0.11221700000000001,9.60000000000405e-05,-0.906154,0.338403,0.012268999999999974,0.0011590000000000211,0.9842289237648847,0.9962581929409426,double,-0.904995
95,0.791667,stand,0.06515478761698537,0.007679385649149029,0.023638108951284046,0.026796341095330252,0.14924989544626147,0.3894816380986071,-0.0005999520038436186,0.0005999520038369578,0.00011999040076805765,-0.00011999040075806644,-0.0007199424046083459,0.0010799136069116863,2.648555837299528,-3.5135700515942463,6.968980874297407,0.12960345558429504,-0.14400287965462372,0.07199539255288404,-0.20159020917435308,0.05760806303171067,-1.5550133986097935e-05,0.225638,0.012305999999999984,-0.905191,-0.11276099999999989,2.6000000000026002e-05,-0.906342,0.3383989999999999,0.012279999999999958,0.0011510000000000131,0.9870618285680046,0.9978276176923451,double,-0.905191
96,0.8,stand,0.043801752070076465,0.037921516860678885,0.01896075843033611,-0.11917487255222702,-0.0945432820265793,0.08599578519143919,-0.0007200288011461016,0.000120004800195458,-0.0028801152046085544,0.00012000480018213478,-0.0008400336013482211,0.00024000960038342167,-2.56246676429963,3.629200913420104,-0.5613045146943375,-0.01440979206798061,-0.057595968275710764,-0.3600270737281411,0.028800576135869463,-0.014411520069587756,-0.10079251248389069,0.2252670000000001,0.011990999999999974,-0.905373,-0.11312499999999992,-0.0002970000000000472,-0.906498,0.338392,0.012288000000000021,0.0011250000000000426,0.983798034560128,0.9985302473642206,double,-0.905373
97,0.808333,stand,0.06384255370214591,0.07824312972518803,0.008880355214210869,0.000555694133899059,0.07745564931485996,-0.04632687837794484,0.0,-0.0007200288011527728,-0.00048001920076768247,0.0009600384015370304,-0.0002400096003842576,0.0002400096003842576,2.404992395544177,4.8387870952249505,-1.2096967738059925,0.08640691241402954,-0.10080806448436799,0.2880230413825626,0.1008080644851678,0.07200576034609012,1.0031439757426276e-13,0.22473500000000013,0.011332999999999982,-0.905451,-0.11364899999999989,-0.0009510000000000352,-0.90657,0.338384,0.012284000000000017,0.0011189999999999811,0.9873677217986856,0.9983028758401842,double,-0.905451
98,0.816667,stand,0.09851211903049874,0.11447084233261376,0.006239500839938998,-0.05239075216411184,-0.036755469623413146,-0.20004534058262566,0.0002399808015427761,0.0004799616030722306,-0.0007199424046075133,0.0010799136069025276,0.0027597792176619956,0.002399808015358655,4.160015038199252,4.3469777546706805,-0.316877174738643,0.028795392553728615,0.14398732952063767,-0.0287884813822689,0.014383873933944845,0.3599458624965479,0.25915507739073446,0.223916,0.010382999999999976,-0.905509,-0.11446100000000015,-0.0018820000000000503,-0.906602,0.33837700000000015,0.012265000000000026,0.0010930000000000106,0.9875734567687455,0.9936444090144556,double,-0.905509
99,0.825,stand,0.057722308892350666,0.057842313692546124,-0.0001200048001954596,0.09446251234837359,-0.002989070686680842,0.03256275566858574,-0.0001200048002087828,-0.0009600384015370304,-0.0003600144005763864,-0.0009600384015370304,-0.0022800912036471162,-0.0025201008040322066,-4.894973015498433,-6.795695264618763,-0.7631712036642884,-0.04320000021019587,-0.17280691282962607,0.04319308820726391,-0.24480403317407615,-0.6048086429028151,-0.5904126748339021,0.2234339999999999,0.009892999999999985,-0.905511,-0.11495000000000011,-0.002383000000000024,-0.906622,0.338384,0.012276000000000009,0.0011110000000000841,0.9871694661252315,0.9941141889797349,double,-0.905511
100,0.833333,stand,0.06132245289810705,0.09984399375974991,0.016680667226689025,0.059121819911553554,0.32124113817857713,-0.36587131833334363,0.0007200288011461016,-0.0008400336013415596,-0.0015600624024959882,0.0014400576023188495,0.0,-0.00048001920076767607,0.43203456207324686,5.040403224193401,2.016161289677717,0.1008080644851651,0.014401152069539219,-0.14401152069117926,0.2880230413843598,0.27362188931322534,0.24481958517514962,0.22292899999999993,0.009054000000000006,-0.905663,-0.11544899999999991,-0.0032150000000000234,-0.906765,0.33837799999999985,0.01226900000000003,0.0011020000000000474,0.9857923970057841,0.9974700766749092,double,-0.905663
101,0.841667,stand,0.06791456683466068,0.053515718742500426,-0.009839212862974067,0.20134077180164,-0.16302636948562454,0.2825019007664704,0.0009599232061444612,-0.001679865610752807,0.00011999040076805765,0.0008399328053597516,-0.00035997120230084253,0.000479961603071398,0.790990393154978,-5.5589482862069985,-3.1821310402763245,0.02878502579773912,-0.10077177938699797,0.20159020917494996,-0.07200921489789937,-0.043193088828994454,0.11518848138217744,0.22237099999999987,0.00859399999999999,-0.9055799999999999,-0.11600800000000011,-0.0036640000000000006,-0.906679,0.338379,0.012257999999999991,0.0010990000000000721,0.9857791595829495,0.9982796725728091,double,-0.9055799999999999
102,0.85,stand,0.05400216008641132,0.02640105604224169,-0.02292091683666662,0.002688651308912888,-0.0751938996313042,0.16159592998918873,-0.00012000480018213638,-0.0004800192007685152,-0.0001200048001921288,-0.0006000240009639748,0.0007200288011527728,0.0004800192007685152,-1.6695555920136191,-3.253889679618263,-1.569867271533982,-0.12959654462097775,0.143987328691264,-0.028800576138268166,-0.17280172882800188,0.12960518462181989,6.912000134069252e-06,0.2219199999999999,0.008369999999999989,-0.90539,-0.1164630000000002,-0.0038779999999999926,-0.9064840000000001,0.3383830000000001,0.012247999999999981,0.0010940000000000394,0.9882114379200961,0.9982449369199935,double,-0.90539
103,0.858333,stand,0.060122404896179114,0.051842073682945654,0.002520100804024679,-0.04097599388989893,-0.024414933094925213,0.041317622396241094,-0.00012000480018213478,-0.001200048001921272,0.0006000240009598033,-0.00024000960036426957,0.0001200048001887964,-0.0003600144005763816,0.7344587555223528,3.0530442386540093,3.053044238652489,1.9191146098837303e-16,-0.08640691241482704,0.08640691241472807,0.04320345621021285,-0.07200576034609071,-0.10080806448396656,0.22141800000000011,0.00792799999999999,-0.9054059999999999,-0.1169659999999999,-0.004309000000000007,-0.906508,0.338384,0.012236999999999998,0.0011020000000000474,0.9867349157645662,0.9992516385882073,double,-0.9054059999999999
104,0.866667,stand,0.06887449004080606,0.03455723542116776,0.0039596832253492855,-0.11895345247078307,-0.019359075983562374,0.14114124641547404,0.0011999040076606101,-0.001439884809216711,-0.0014398848092150459,0.000959923206144474,0.00011999040077138965,0.0,1.0501662040589153,-2.07401467023974,0.17273607167321994,0.15837638683018387,-0.02877811462628275,-0.24476947566293025,0.14398041834758224,-1.7277918654602155e-06,0.04319827220738945,0.22085399999999988,0.007627999999999968,-0.905451,-0.11753199999999997,-0.004595999999999989,-0.906541,0.33838599999999985,0.012223999999999957,0.0010900000000000354,0.9851607720175348,0.9983876774361431,double,-0.905451
105,0.875,stand,0.06180247209888888,0.03984159366374626,-0.0006000240009639668,-0.11574719606697045,0.07786962400672386,0.037376555114200266,-0.0004800192007551856,0.000120004800195458,0.0010800432017283122,0.001440057602292203,-0.0006000240009639668,0.00048001920076767607,-0.8486761000740614,0.6341483550436193,-0.5471867546277731,-0.2015988489638532,0.18719424089909548,0.30240345745149977,0.057618432275018255,-0.08640518441561904,0.057604608276451946,0.22033499999999995,0.007296999999999998,-0.905437,-0.11803500000000011,-0.004933000000000021,-0.906532,0.33837000000000006,0.012230000000000019,0.0010949999999999571,0.9870700218135579,0.9972795970821515,double,-0.905437
106,0.883333,stand,0.05904236169445996,0.026161046441857082,0.010920436817466921,-0.24788310829704369,0.01792700892143171,-0.008367058694111302,-0.00012000480018213478,-0.0018000720028785772,-0.0003600144005763816,0.0018000720028919003,0.0002400096003842544,0.0001200048001921272,-0.33122649759137235,-1.6417313358801298,1.382510598635646,0.04320345620701419,-0.2304184331062075,-0.1728138248295557,0.043203456210211884,0.1008080644843655,-0.04320345620731398,0.2198420000000001,0.007064000000000015,-0.905531,-0.11851199999999995,-0.005149000000000015,-0.9066219999999999,0.33835400000000004,0.01221300000000003,0.0010909999999999531,0.9860239354140687,0.9969667284914996,double,-0.905531
107,0.891667,stand,0.04931605471561573,0.03431725461963164,-0.010079193664503655,-0.1487293101712248,0.07358809006619921,0.04919000998584604,-0.0008399328053864059,-0.00011999040077138965,-0.0010799136069117006,0.0008399328053597628,-0.0002399808015361185,-0.001079913606910868,-1.1670634723835238,0.978666687997913,-2.5197540775102825,-0.08638444986852355,0.20159366475968285,-0.08638099428069632,-0.11520748710488876,-0.05759424069118978,-0.14397869055711565,0.21942400000000006,0.0067769999999999775,-0.905456,-0.11891600000000002,-0.005437000000000025,-0.906547,0.3383400000000001,0.012214000000000003,0.0010909999999999531,0.9868010784852574,0.9976850178180332,double,-0.905456
108,0.9,stand,0.05724228969159471,0.0728429137165446,0.007800312012478276,0.09045286584730221,-0.17081151225431024,-0.13111542249805624,-0.0010800432017191524,0.0009600384015370176,-0.0007200288011519304,0.0003600144005730508,0.0004800192007685088,0.0006000240009598033,0.9511862445672558,4.623264022190423,2.145626506298075,-0.02881440013593489,0.12960864062263322,0.04318790420734054,-0.057592512274896195,0.08640345641481151,0.2016005769675584,0.21893800000000008,0.006178000000000017,-0.905527,-0.11939000000000011,-0.00603999999999999,-0.9066069999999999,0.3383280000000002,0.012218000000000007,0.0010799999999999699,0.9865091675572967,0.9985857298668235,double,-0.905527
109,0.908333,stand,0.051602064082555424,0.04356174246969945,-0.006600264010550429,-0.0458127192768916,0.016357569737703373,0.04609456251057923,-0.000840033601354894,0.0,-0.0006000240009598112,-0.00012000480018213638,0.0007200288011527728,0.00048001920076768247,-0.6768541472506102,-3.5138811048656438,-1.7281382482933922,0.02880230413587671,-0.11520921655310529,0.014401152069137203,-0.057604608274953985,0.02880230413827747,-0.014401152069137398,0.21850100000000006,0.005815000000000015,-0.9054770000000001,-0.11982099999999996,-0.006396999999999986,-0.906548,0.338322,0.012212,0.0010709999999999331,0.987569466125222,0.9985439197789366,double,-0.9054770000000001
110,0.916667,stand,0.056035517158626306,0.02795776337893412,-0.007319414446854847,-0.029936996609432533,0.0173347144923839,0.020104514524124952,-0.00155987520998808,-0.00011999040076472725,0.0,0.0010799136069025276,0.00011999040077138805,0.0002399808015361153,0.5319718113835912,-1.8723277046754516,-0.08629114906460432,-0.08637408310933291,-0.014397696276065075,0.07199712034554916,0.1439786905549142,-0.07199884813791459,-0.02880230372348996,0.21802100000000002,0.005581000000000003,-0.905416,-0.12027900000000002,-0.006628999999999996,-0.906485,0.33830000000000005,0.012209999999999999,0.0010689999999999866,0.9867025276357004,0.9981454246669412,double,-0.905416
111,0.925,stand,0.060242409696387896,0.03264130565222529,0.018720748829958517,-0.2622895477522695,-0.07219649130316175,0.07354138842798717,-0.0007200288011461016,0.0009600384015303559,-0.0014400576023038609,0.0013200528021100684,-0.000120004800195458,-0.0001200048001921272,0.5048472984233255,0.5620475546971259,3.124944591001231,0.10078560048505639,0.12960864062103428,-0.17281382482945576,0.02881785613915034,-0.028800576139066968,-0.04320000020739721,0.21751300000000007,0.005316999999999961,-0.9055840000000001,-0.12077000000000004,-0.006902000000000019,-0.9066420000000001,0.3382830000000001,0.01221899999999998,0.0010580000000000034,0.9862957751606527,0.9977818039708797,double,-0.9055840000000001
112,0.933333,stand,0.05364214568583827,0.027601104044162977,-0.010800432017284929,-0.05583524399487665,-0.0016182533988131419,0.023386043598400335,-0.001320052802110086,-0.0006000240009573131,-0.0007200288011527728,0.002400096003855899,0.0002400096003842576,-0.0008400336013440688,-0.7920633638005143,-0.6048483869029593,-3.542683409005606,-0.07200576034609263,-0.18721497689759792,0.08640691241462795,0.12961036862424583,0.04320345620781458,-0.08640691241473038,0.217055,0.005081999999999975,-0.9055,-0.121197,-0.007130000000000025,-0.906559,0.338252,0.012212,0.0010590000000000321,0.9867117445571397,0.9957430703920325,double,-0.9055
113,0.941667,stand,0.04007679385649795,0.04211663066954494,-0.013318934485237747,0.12725369060353364,0.05909520194232116,0.06382435358999411,-0.0010799136069025276,0.0005999520038369578,-0.000479961603071398,0.0,0.0007199424046083459,0.0005999520038394556,-1.6277120025606213,1.7417238571372515,-0.3021961204646986,0.02881439827304494,0.14398560172717326,0.028805759309020032,-0.28798848138419497,0.05758732952052851,0.1727844498660323,0.21671200000000002,0.0047359999999999625,-0.905393,-0.12153100000000006,-0.007475000000000009,-0.906443,0.33824300000000007,0.012210999999999972,0.0010499999999999954,0.9872911045082162,0.9984380750188164,double,-0.905393
114,0.95,stand,0.045721828873151106,0.03480139205568404,-0.013800552022078158,0.08023098463886313,0.0309277133669965,0.06700228540184086,-0.0006000240009639748,0.0007200288011527728,-0.00048001920076768247,0.0016800672026831415,0.0,0.0007200288011527728,0.6774312992503552,-0.8778637482132448,-0.05779641627750093,0.05758905627487786,0.014409792069580707,-6.912000034138677e-06,0.20161612896713751,-0.08639654441477888,0.01440979206928096,0.21632600000000002,0.004451999999999956,-0.905282,-0.12189800000000006,-0.007765000000000022,-0.9063220000000001,0.3382240000000001,0.012216999999999978,0.001040000000000041,0.9878449369199941,0.9969535689004176,double,-0.905282
115,0.958333,stand,0.05328213128523786,0.02844113764550417,0.016320652826115976,-0.16713395285735436,-0.09865665340859547,0.09758780329423969,-0.0010800432017457988,0.0010800432017324755,-0.0008400336013440577,-0.0009600384015370176,0.0009600384015370176,0.00048001920076767607,0.9072725803536206,-0.763261059663968,3.6146891693500547,-0.05760460827814977,0.04320345620781246,-0.04320345620741314,-0.31682534552023855,0.11520921655310375,-0.028802304138377016,0.21587299999999998,0.0042240000000000055,-0.905425,-0.12234999999999996,-0.007994000000000001,-0.9064540000000001,0.33822299999999994,0.012218000000000007,0.0010290000000000576,0.9868047159793495,0.9975999039961579,double,-0.905425
116,0.966667,stand,0.04643628509720834,0.031077513798896957,-0.005999520038409543,0.10575498964885006,-0.0016800362363951287,0.0016771711059982114,-0.0010799136069025276,0.0007199424046083459,-0.0003599712023041729,0.0002399808015427761,-0.0003599712023075034,0.000479961603071398,-0.8214358276973202,0.3163398312206344,-2.678206487224064,1.555013718156723e-05,-0.04320863896377813,0.05760287965441338,0.1439907851067656,-0.15838848138283065,-6.911170659716803e-06,0.21547699999999992,0.003971000000000002,-0.9053779999999999,-0.12273500000000004,-0.008256000000000041,-0.9064,0.33821199999999996,0.012227000000000043,0.0010220000000000784,0.9875351851531344,0.9989230531943103,double,-0.9053779999999999
117,0.975,stand,0.04452178087122316,0.027001080043199,-0.00756030241208746,0.09690189286455476,0.0021302918759211107,0.031192502146778132,-0.00048001920075519197,0.0012000480019146262,-0.0001200048001921288,-0.0002400096003909192,0.0008400336013482324,0.0003600144005763864,-0.22974969710610788,-0.4891916183484932,-0.1873013768964276,0.07199020834601479,0.0576149762758052,0.028797120138251087,-0.057601152278135094,0.14400633669215732,-0.014394240069004286,0.21510200000000013,0.0037559999999999816,-0.905316,-0.123108,-0.008473999999999982,-0.906334,0.3382100000000001,0.012229999999999963,0.0010179999999999634,0.9876565826980459,0.9984251354306055,double,-0.905316
118,0.983333,stand,0.04788191527661545,0.014040561622468889,-0.0007200288011594248,-0.016254841794601616,-0.04767573057912265,0.09317375970442733,-0.0006000240009639668,0.0007200288011527632,0.0006000240009598033,-0.0013200528021100684,0.0001200048001887964,0.0006000240009598033,0.4032322579373906,-1.5553244234645454,0.8208656679380784,-0.01440115207113576,-0.05760460827575435,0.08640691241472807,-0.1296103686210422,-0.08640691241562859,0.028802304138175437,0.21469800000000006,0.003644999999999954,-0.9053049999999999,-0.12351800000000002,-0.008590000000000042,-0.906323,0.33821600000000007,0.012234999999999996,0.0010180000000000744,0.9879652021089811,0.997575031870682,double,-0.9053049999999999
119,0.991667,stand,0.049556035517158516,0.016198704103671347,0.010799136069118672,-0.17189487797631742,-0.07473063764492795,0.07982979339194105,-0.0007199424046283379,0.0008399328053797451,-0.001559875209983105,0.0005999520038436266,0.00035997120230750815,-0.0002399808015361185,0.20087835859648132,0.25895638123379777,1.3821892092966357,-0.014389057315139406,0.014387329520876244,-0.2591671719393953,0.23038214614275332,0.028793664761064687,-0.1007925128984793,0.2142789999999999,0.0035169999999999924,-0.905408,-0.12392599999999998,-0.008722000000000008,-0.906415,0.33820499999999987,0.012239,0.0010069999999999801,0.9867427794875232,0.998767215822132,double,-0.905408
120,1.0,stand,0.04680187207486965,0.018480739229567604,-0.0034801392055616963,0.05046800357594162,-0.018968164921094537,0.08072422465042198,-0.0008400336013282363,0.0015600624024943227,-0.00024000960038342167,-0.0007200288011461016,-0.0002400096003842544,-0.0013200528021117337,-0.3305128335880056,0.27385516931432224,-1.713581576224686,-0.014411520064790347,0.08641900841408551,0.15839020876031176,-0.1584040327600771,-0.07200057634606505,-0.12961382462205814,0.21388200000000013,0.00337599999999999,-0.905381,-0.12432199999999982,-0.008877999999999997,-0.906397,0.33820399999999995,0.012253999999999987,0.0010160000000000169,0.9868599479127813,0.9974621829792344,double,-0.905381
121,1.008333,stand,0.0373214928597354,0.012000480019199556,0.013320532821309641,-0.0995232009265819,-0.08259148267563955,-0.01990522192089558,-0.0003600144005730556,0.0006000240009573131,0.0015600624024960088,-0.0009600384015370304,-0.0001200048001954596,0.0001200048001921288,-1.1376910134566591,-0.7776622117326422,2.016161289676166,0.057604608274953215,-0.11520921655310433,0.2160172810367751,-0.028802304139077285,0.014401152068738257,0.17281382482945828,0.21356799999999998,0.0032809999999999784,-0.905479,-0.124641,-0.008979000000000015,-0.9065070000000001,0.338209,0.012259999999999993,0.0010280000000000289,0.9868703246432335,0.9983751273241634,double,-0.905479
122,1.016667,stand,0.027597792176619954,0.03839692824573848,0.013918886489081366,0.19340655001217458,-0.08174459121113246,0.20087266488792221,-0.00011999040078470967,0.0014398848092166917,-0.0007199424046075133,-0.0004799616030855522,-0.00011999040076472725,-0.0003599712023041729,-1.1667507419144914,3.167320401552523,0.07179669639689464,0.02880057592852701,0.10077523497232688,-0.273578690557176,0.057604607445581296,1.7277934644047138e-06,-0.057592512898523886,0.2133369999999999,0.0029730000000000034,-0.905601,-0.12487500000000007,-0.009299999999999975,-0.906626,0.33821199999999996,0.012272999999999978,0.0010250000000000536,0.9870594904313466,0.99898027767505,double,-0.905601
123,1.025,stand,0.04692187687507906,0.022800912036484485,0.015960638425529815,0.01914907636373617,-0.16902631131304488,0.06400452036212373,-0.0010800432017191667,0.0006000240009639748,0.0,-0.0002400096003909192,-0.00036001440057971716,0.0008400336013440688,2.318982923132039,-1.871596808982856,0.2450200331751432,-0.1152109445499179,-0.10078732848346629,0.08639654441467898,0.028795392139041785,-0.028804032139084616,0.14400633669125798,0.21293699999999993,0.0027880000000000127,-0.9057339999999999,-0.12526800000000016,-0.00949300000000003,-0.906752,0.3382050000000001,0.012281000000000042,0.0010180000000000744,0.9877607916034765,0.9984251354306095,double,-0.9057339999999999
124,1.033333,stand,0.05232209288370014,0.012840513620540785,0.020040801632068322,-0.28742524737724384,-0.06515566790421787,0.04799896591965298,-0.0009600384015370048,0.000720028801146092,-0.0004800192007685024,0.0,-0.000360014400573046,-0.00036001440057554406,0.6480518431082428,-1.1952956217380926,0.48963917035142623,0.014401152067941894,0.014401152067936534,-0.05760460827655034,0.028802304139075363,8.005700440911816e-13,-0.14401152069117867,0.21249300000000004,0.002686999999999995,-0.905905,-0.12570400000000004,-0.009602999999999973,-0.906922,0.3381970000000001,0.012289999999999968,0.0010170000000000456,0.9876758479110668,0.999151437920097,double,-0.905905
125,1.041667,stand,0.04283657307417441,0.014038876889853127,0.007199424046083651,0.03189634162235948,-0.11790673710456366,0.029597857418221938,-0.0014398848092034085,0.002399808015361217,-0.0007199424046075325,-0.0004799616030589218,0.0004799616030722434,0.00011999040076806085,-1.1381713234372342,0.1437920889503678,-1.5408420429547536,-0.057576962762948505,0.20155738111532961,-0.028788481382173586,-0.05759078510426337,0.10078905731285162,0.05759596848375498,0.21212399999999998,0.002589999999999981,-0.9059710000000001,-0.1260650000000001,-0.009716000000000002,-0.906981,0.3381890000000001,0.012305999999999984,0.0010099999999999554,0.9850837474686921,0.9988511793763566,double,-0.9059710000000001
126,1.05,stand,0.027241089643582534,0.04404176167046679,0.013080523220918374,-0.1637158552144586,-0.10998946059640262,-0.07487635713895018,-0.0002400096003909128,0.0010800432017257996,-0.0004800192007676697,-0.000720028801146092,-0.0004800192007685024,0.00036001440057554406,-1.8715328729859122,3.600490193281308,0.7057601313854098,0.14399078468888452,-0.15837811276075772,0.02879193613822856,-0.028809216139105486,-0.1152023045530696,0.028804032138183007,0.21189499999999994,0.0022319999999999562,-0.906084,-0.12629800000000002,-0.010087000000000013,-0.907087,0.33819299999999997,0.012318999999999969,0.0010029999999999761,0.9879599444735561,0.9984378875803295,double,-0.906084
127,1.058333,stand,0.04236169446775818,0.012000480019199556,0.007560302412100783,-0.0579957143850759,0.006340368295506326,0.07682314648165064,-0.0014400576023188686,0.0013200528021167475,-0.0007200288011519401,0.0,-0.0007200288011527728,-0.0001200048001921288,1.814545160707522,-3.8451076024562023,-0.6624529951779241,-0.1440115206921837,0.028802304139079575,-0.028802304138278244,0.0864069124140284,-0.028802304138278237,-0.05760460827645233,0.21153,0.002143000000000006,-0.906153,-0.12665099999999985,-0.010193000000000008,-0.907151,0.33818099999999984,0.012336000000000014,0.0009980000000000544,0.9865499908850339,0.9987833988298923,double,-0.906153
128,1.066667,stand,0.05459563234942293,0.005879529637624834,0.013558915286780522,-0.18278269900004254,-0.05731954902239062,0.12172113068938215,-0.00035997120230084253,0.0016798656107461464,0.0005999520038394556,-0.00011999040078470967,0.0,0.000839932805375571,1.4679551093910082,-0.7344552893658118,0.7197759628845325,0.12960000000216199,0.04317408310887882,0.15838502579690253,-0.014397696278462773,0.08639654441477888,0.11518329800428274,0.21107199999999993,0.0021079999999999988,-0.906261,-0.12710700000000008,-0.010241999999999973,-0.907257,0.338179,0.012349999999999972,0.0009959999999999969,0.9870070924549917,0.9985858995656577,double,-0.906261
129,1.075,stand,0.03984159366374679,0.006120244809795237,-0.00216008640346498,0.09898067619291959,-0.0192301107230506,0.08676095007172413,-0.0019200768030740608,0.0004800192007685152,-0.001320052802112584,0.002880115204611091,-0.0015600624024943435,-0.0009600384015353649,-1.7705554644997337,0.028886976139494282,-1.8863556570557598,-0.1872201608992239,-0.14398732869046468,-0.2304097931059711,0.36002707373044857,-0.18721497689839886,-0.21600518503671576,0.2107239999999999,0.0020609999999999795,-0.906254,-0.12741500000000006,-0.010305999999999982,-0.9072469999999999,0.33813899999999997,0.012366999999999961,0.0009929999999999106,0.9861049958795123,0.9943111873861619,double,-0.906254
130,1.083333,stand,0.03636145445817075,0.004680187207489568,-0.0037201488059525624,-0.013458081859564092,0.010134672910590338,0.02771202084089636,-0.00180007200286523,0.0009600384015370048,-0.0007200288011519209,0.0002400096003909128,0.0004800192007685024,-0.0007200288011527536,-0.4176334100055172,-0.1728138248296705,-0.1872149768975825,0.014401152071142287,0.057604608276548806,0.07200576034569214,-0.3168253455202366,0.24481958517494423,0.028802304138078383,0.2104060000000001,0.0020299999999999763,-0.906229,-0.12771599999999994,-0.010340999999999989,-0.907222,0.33812200000000003,0.012370999999999965,0.0009930000000000216,0.9864643044967358,0.9985032771763731,double,-0.906229
131,1.091667,stand,0.032757379409643975,-0.0026397888168973385,0.00143988480921673,-0.05814401554018641,-0.040271719883156004,0.004275795479090801,-0.0009599232061444868,0.00011999040077139125,-0.0007199424046075325,0.0004799616030589218,-0.0005999520038436347,0.0016798656107511866,-0.43245440947046393,-0.8783268567779032,0.6191545014602101,0.10080979082322523,-0.10079769627617345,1.0366755986131245e-05,0.02879193696520441,-0.12958617765924615,0.2879642922850955,0.21012500000000012,0.002053000000000027,-0.906247,-0.12798500000000002,-0.010324,-0.9072199999999999,0.33811000000000013,0.012377000000000027,0.0009729999999998906,0.9882601856609212,0.9969212854335006,double,-0.906247
132,1.1,stand,0.034321372854914614,-0.00948037921516793,0.0014400576023055071,-0.017454252880417555,-0.04275475330477272,-0.0021210847000137758,-0.0014400576023188305,0.0007200288011527536,-0.0018000720028802186,0.002640105604246748,-0.0013200528021100508,-0.0006000240009597953,0.1876867209013095,-0.820903683939814,2.0736000093249267e-05,-0.05761843227821136,0.07200748834529602,-0.12962073662218496,0.2592276492485045,-0.086415552414065,-0.2735976973132056,0.20982699999999999,0.0021380000000000288,-0.906274,-0.12824899999999984,-0.010255999999999987,-0.907237,0.3380759999999998,0.012394000000000016,0.0009629999999999361,0.9863449166371507,0.9949798390343255,double,-0.906274
133,1.108333,stand,0.027961118444756017,-0.012120484819395016,-0.002640105604220172,-0.0008117595861201796,0.012228725009934637,-0.004527567445105057,-0.0003600144005730556,-0.0001200048001954596,0.0010800432017283265,0.0009600384015370304,0.00012000480018879799,-0.00048001920076768247,-0.7632610596614251,-0.31682534552107416,-0.48963917034989995,0.12961036862423914,-0.10080806448436588,0.34562764965901493,-0.20161612897032674,0.1728138248288566,0.014401152069136435,0.20959099999999986,0.0022380000000000178,-0.906243,-0.12847399999999998,-0.010153999999999996,-0.907219,0.33806499999999984,0.012392000000000014,0.0009759999999999769,0.9883320452789779,0.9981999279971193,double,-0.906243
134,1.116667,stand,0.04367650587953302,0.0021598272138250376,-0.020158387329020363,0.2230202788754203,0.014311555289786202,0.12094509787734314,-0.0005999520038436186,0.0004799616030722306,-0.0010799136069116863,0.000479961603058909,-0.0005999520038369578,-0.0003599712023041729,1.8856956365223043,1.7135003639572768,-2.1020256449244132,-0.028790209175733286,0.07199020917538825,-0.2591740831101507,-0.057604607448778225,-0.08638790545065399,0.014404607447025273,0.2092219999999998,0.0022240000000000038,-0.906084,-0.12883400000000012,-0.010176999999999992,-0.9070539999999999,0.3380559999999999,0.012400999999999995,0.0009699999999999154,0.9880911045081984,0.9985858995656767,double,-0.906084
135,1.125,stand,0.025921036841473174,-0.018960758430336365,-0.04020160806431985,0.4351699397399477,0.08081702515649197,0.015002553178874129,-0.0010800432017191667,-0.0003600144005730556,-0.0001200048001921288,-0.00048001920075519197,-0.0004800192007685152,0.0006000240009598112,-2.13074151422777,-2.534571660165798,-2.405282699543942,-0.057613248274997295,-0.1008011524835346,0.11519366455293008,-0.11520230454987518,0.014392512068695996,0.11520403255298127,0.20899699999999988,0.00237900000000002,-0.9057499999999999,-0.129054,-0.010023000000000004,-0.906714,0.3380509999999999,0.012402000000000024,0.0009640000000000759,0.9884520452789929,0.9984899727118655,double,-0.9057499999999999
136,1.133333,stand,0.030961238449522598,-0.02412096483859457,0.0313212528501223,-0.4951690706099164,0.04163963552947269,0.014129242489840436,-0.0008400336013282475,-0.0004800192007685152,-0.00012000480019129609,0.0010800432017191667,-0.0007200288011527728,-0.0013200528021117513,0.6048483869014125,-0.6192495389725492,8.583086633198464,0.028802304139076126,-0.014401152069538063,9.992894828397254e-14,0.18721497689600058,-0.028802304138276703,-0.23041843310591384,0.20873200000000014,0.0025760000000000227,-0.906012,-0.12930299999999995,-0.009828000000000003,-0.9069860000000001,0.3380350000000001,0.012404000000000026,0.0009740000000000304,0.9886351273241882,0.9969144268529744,double,-0.906012
137,1.141667,stand,0.02447804175667044,-0.019438444924405357,0.016798656107501427,-0.2445966718176376,0.012264333362087265,0.004575836680085984,-0.0002399808015427761,-0.0002399808015361153,0.000479961603071398,-0.00035997120230084253,0.0,0.0007199424046075133,-0.7779213694326984,0.5618574411074128,-1.7425722033382245,0.07200057592818176,0.02880230372358988,0.07199020917478875,-0.17278790544996378,0.08639654441477888,0.24477984241891637,0.208526,0.002736000000000016,-0.906148,-0.12951000000000001,-0.009666000000000008,-0.9071199999999999,0.338036,0.012402000000000024,0.0009719999999999729,0.9893002824802839,0.9986584665361796,double,-0.906148
138,1.15,stand,0.023640945637826056,-0.0135605424216939,0.005280211208453667,-0.08320574188800622,0.01566972167729457,-0.010179571472123308,-0.0002400096003909192,-0.0004800192007685152,-0.0006000240009598112,-0.0012000480019279496,-0.0008400336013415707,-0.0006000240009598112,-0.10045555248342641,0.7053765153859967,-1.382268678632889,-3.456000017173426e-06,-0.028805760138293782,-0.12960345662201117,-0.10081324848519319,-0.10080806448356876,-0.1584023047602708,0.20832699999999993,0.0028449999999999864,-0.906197,-0.12971700000000008,-0.009560000000000013,-0.907169,0.338044,0.012405,0.0009719999999999729,0.9889383055457184,0.9973617132768688,double,-0.906197
139,1.158333,stand,0.02124084963396959,-0.015840633625347256,-0.0033601344053795167,0.21126664697092334,-0.05774913792402618,0.03438538190851414,-0.00012000480018213318,-0.0009600384015370048,0.0001200048001921256,0.00012000480018213318,0.0,-0.0001200048001921256,-0.2880230413844261,-0.2736218893139705,-1.036882948977923,0.014401152071136916,-0.057604608276548806,0.08640691241472749,0.15841267276011756,0.10080806448356606,0.05760460827645232,0.20814900000000014,0.0029689999999999994,-0.906168,-0.12989300000000004,-0.009427999999999992,-0.907142,0.3380420000000002,0.012396999999999991,0.0009740000000000304,0.9886351273241663,0.9997171459733758,double,-0.906168
140,1.166667,stand,0.03143748500119864,-0.018238540916725266,-0.010199184065275181,0.10035713543534736,0.006757877356017945,0.10300070910833217,-0.0007199424046283475,-0.0003599712023008521,0.0,-0.0009599232061178436,-0.0011999040076806084,-0.0005999520038394717,1.2234983641983732,-0.2877258568968149,-0.8206203095627302,-0.07198675359325964,0.07200230372404176,-0.014399424069129816,-0.12958099427645756,-0.14397696276465458,-0.057589057313097575,0.20788099999999998,0.0031180000000000097,-0.906083,-0.1301629999999998,-0.009286000000000016,-0.907062,0.3380439999999998,0.012404000000000026,0.0009790000000000632,0.9888684665361485,0.9972506745290877,double,-0.906083
141,1.175,stand,0.019320772830922227,-0.023400936037441176,-0.0008400336013415484,-0.00997090103050959,0.04689603078307971,0.0828466650460692,0.0003600144005996924,0.0001200048001887948,0.003120124804991935,-0.0016800672027097432,-0.0001200048001887948,0.0004800192007676697,-1.4540636229780632,-0.6195121949736972,1.1231429813912719,0.12960000062738763,0.05759942427572765,0.37442995379717753,-0.08642073642048326,0.12959308862256028,0.1296017286219996,0.2077230000000001,0.0033139999999999836,-0.90605,-0.13033800000000006,-0.009091999999999989,-0.907051,0.33806100000000017,0.012405999999999973,0.0010010000000000296,0.9847514701173172,0.9970809793352741,double,-0.90605
142,1.183333,stand,0.03708148325934448,-0.025921036841473174,-0.0014400576023055455,0.010221319665619705,-0.014847571780850485,0.16135437034355793,-0.0012000480019279496,-0.0021600864034583183,-0.004920196807872285,0.0004800192007818384,-0.00036001440057971716,-0.0014400576023038802,2.1313705062309394,-0.3024241934515806,-0.07200576034609416,-0.18721497690239483,-0.2736218893132286,-0.9648771886312604,0.2592207372484821,-0.02880230413907651,-0.23041843310591234,0.20740399999999992,0.0035119999999999596,-0.906079,-0.13064300000000006,-0.008879000000000026,-0.9070509999999999,0.338047,0.012390999999999985,0.0009719999999999729,0.981103577145518,0.9973998959958317,double,-0.906079
143,1.191667,stand,0.020518358531307884,-0.019078473722104514,-0.00155987520998808,-0.05718716373432399,0.11800239297170172,0.11571533501855288,-0.0016798656107461464,0.0007199424046083459,-0.000839932805375571,-0.0007199424046016851,-0.0008399328053730732,-0.0005999520038394556,-1.9874159740864497,0.8210418909729551,-0.01437696276488283,-0.05757350717760897,0.3455758109031248,0.48959251289857003,-0.14398387393610684,-0.05758560172706412,0.1008046074471344,0.20721900000000004,0.003676999999999986,-0.9060729999999999,-0.13081999999999994,-0.008726999999999985,-0.9070429999999999,0.338039,0.01240399999999997,0.0009700000000000264,0.9869476572645773,0.9979025500996603,double,-0.9060729999999999
144,1.2,stand,0.020040801632068856,-0.0116404656186265,-0.00864034561381995,0.06945430915888351,0.0782220584300246,0.15509168816996988,-0.0009600384015370304,-0.0003600144005730556,0.00024000960038342487,-0.0014400576023188686,-0.0002400096003842576,0.0007200288011519401,-0.05730912027349477,0.8925966762844212,-0.8496904360772753,0.08638272041391126,-0.12960000062179425,0.12959827262198556,-0.08641728041727952,0.07199366434523234,0.15840403276027934,0.207044,0.0037710000000000243,-0.905999,-0.1309990000000001,-0.008631999999999973,-0.906965,0.3380430000000001,0.012402999999999997,0.0009660000000000224,0.9885849369199988,0.9972869594851075,double,-0.905999
145,1.208333,stand,0.017040681627248526,-0.017640705628225808,-0.004080163206525609,0.05046275036618632,0.03487573837997637,0.09453480004817852,-0.0014400576023188305,0.0014400576023055071,0.0037201488059525624,0.0004800192007818256,0.0002400096003842512,-0.0002400096003842512,-0.36002880173050256,-0.7200576034560426,0.5472437786264565,-0.057604608278146126,0.2160172810366652,0.41763341000468934,0.23041843310940366,0.05760460827655111,-0.11520921655300306,0.20689000000000002,0.003930000000000045,-0.905934,-0.13113699999999984,-0.008482999999999963,-0.906933,0.33802699999999986,0.012413000000000007,0.0009989999999999721,0.982941478440299,0.999020164909464,double,-0.905934
146,1.216667,stand,0.021478281737479562,-0.01439884809214732,0.0031197504199629213,-0.045242892970365975,0.01610208682911047,0.10281600977893879,-0.0015598752099881214,-0.0008399328053797563,-0.001079913606911715,0.00023998080151613928,-0.0011999040076806084,-0.0004799616030714108,0.5324694156744805,0.388991784986627,0.8639205215369171,-0.014376962763294117,-0.2735769627652156,-0.5759614126307138,-0.028802303727584702,-0.17277581090291422,-0.028791936967502298,0.20669799999999983,0.004042999999999963,-0.905969,-0.13131400000000015,-0.00837300000000002,-0.906963,0.338012,0.012415999999999983,0.0009939999999999394,0.9866019533505647,0.9978092850271816,double,-0.905969
147,1.225,stand,0.009120364814588222,0.019560782431293156,0.0019200768030740096,0.3695035622484745,-0.19554274399637014,-0.11041307349540469,-0.002520100804011322,0.0007200288011527536,-0.0014400576023038418,-0.0016800672026830968,-0.0001200048001954564,0.0004800192007676697,-1.4830093511209796,4.075318675559808,-0.1439665926903745,-0.11523168055000405,0.18720288089913387,-0.04321900820738276,-0.23041497710298842,0.12959308862176083,0.11520230455286974,0.20660100000000003,0.0038860000000000006,-0.9059969999999999,-0.13140400000000008,-0.008537000000000017,-0.906975,0.3380050000000001,0.012423000000000017,0.0009780000000000344,0.9852358263153309,0.9970809793353159,double,-0.9059969999999999
148,1.233333,stand,0.020760830433214965,-0.021600864034563197,-0.013920556822273616,0.052065700564380105,0.08453750640787347,0.08125122877692344,-0.0025201008040380353,0.0009600384015370304,-0.0013200528021117513,0.0,-0.0004800192007685152,-0.0003600144005763864,1.3969117507052502,-4.939595159709196,-1.9009520731246572,-3.205741088135856e-12,0.02880230413827901,0.014401152069133755,0.20161612896713216,-0.04320345620701573,-0.100808064483867,0.206407,0.004074000000000022,-0.905892,-0.13157700000000006,-0.008361000000000007,-0.906862,0.33798400000000006,0.01243500000000003,0.0009699999999999154,0.98529580143077,0.998999959998399,double,-0.905892
149,1.241667,stand,0.0019198464122889224,-0.011399088072948824,0.01679865610751475,0.013494229016305204,-0.05751872481696393,0.10311955521227366,-0.004679625629964239,0.0004799616030722306,-0.004799616030718143,0.0009599232061444612,0.00011999040077138805,0.0002399808015361153,-2.2607372235332255,1.224115186178821,3.6860106707209184,-0.25912224933119604,-0.05760460744717976,-0.41751418629785997,0.11518157021171753,0.07199539255338357,0.07199366476031883,0.20635199999999987,0.004172999999999982,-0.906072,-0.13158500000000006,-0.008265000000000022,-0.907,0.33793699999999993,0.012438000000000005,0.0009280000000000399,0.97951911049919,0.9983388081227642,double,-0.906072
150,1.25,stand,0.008280331213233572,-0.018840753630147568,0.001320052802110086,0.024548113848737597,0.004014292654924942,0.09841568211533828,-0.0009600384015103839,0.0007200288011527728,0.003960158406336919,-0.00012000480018213638,-0.0007200288011527728,0.0,0.7632887076616713,-0.8930355882873889,-1.8575066969164533,0.44636832214735267,0.028809216138310854,1.0512149810458589,-0.12959654462097775,-0.10080633648435959,-0.02879884813825963,0.2062750000000002,0.0043360000000000065,-0.90605,-0.13165499999999986,-0.00811400000000001,-0.907011,0.33793000000000006,0.012450000000000017,0.0009609999999999896,0.9834933482741129,0.9987833988298951,double,-0.90605
151,1.258333,stand,0.020760830433241614,-0.03288131525260998,0.015720628825152218,-0.20474897521224414,-0.051413206880048294,0.16639244594186559,-0.001680067202709788,0.0015600624024943435,-0.000600024000960644,-0.0009600384015370304,-0.0009600384015370304,-0.0010800432017283265,1.4977198151935864,-1.6849347920871887,1.7281382482950034,-0.08640691242042609,0.10080806448356876,-0.5472437786268577,-0.1008080644851676,-0.02880230413827671,-0.12961036862214526,0.20608799999999983,0.004622999999999988,-0.906186,-0.13183600000000006,-0.007848000000000022,-0.907151,0.3379239999999999,0.01247100000000001,0.0009649999999999936,0.9864001584746888,0.997108517881753,double,-0.906186
152,1.266667,stand,0.026997840172776337,-0.02435805135589239,-0.016438684905200587,0.10357292008004118,-0.00591091710262637,0.10899349755875201,-0.0014398848092033701,0.0008399328053730732,0.0007199424046075133,-0.00011999040078470967,0.001679865610752807,0.0007199424046083459,0.7483812982403019,1.022709850818038,-3.8588089429268724,0.028819581654237578,-0.0864086389634347,0.15838329800433731,0.10079769627457574,0.3167631404235442,0.21598099428085657,0.205851,0.004832999999999976,-0.906043,-0.13206200000000012,-0.007630999999999999,-0.907008,0.33791300000000013,0.012463999999999975,0.0009649999999999936,0.9873236929145004,0.996947376705364,double,-0.906043
153,1.275,stand,0.022680907236289027,-0.037321492859715415,-0.016320652826116194,-0.015027394305036596,0.12985907277633527,0.06863366657659752,-0.00012000480018213638,-0.0009600384015303687,-0.0007200288011519401,-0.0009600384015370304,-0.0001200048001954596,0.0009600384015353649,-0.5180526744854614,-1.5556752074670759,0.014164416066769884,0.1583919367600199,-0.21600518503581645,-0.17280345682940915,-0.10080979248197867,-0.21599308903735545,0.02881267213812808,0.2056610000000001,0.005136000000000029,-0.9059130000000001,-0.13225900000000013,-0.007321000000000022,-0.906864,0.3379200000000002,0.012457000000000051,0.0009509999999999241,0.988479944473564,0.9977283457955108,double,-0.9059130000000001
154,1.283333,stand,0.01860074402974949,-0.0476419056762239,-0.0037201488059525624,-0.11736196020023368,0.08833515025020586,0.05100561364224914,-0.00012000480020877961,-0.001200048001921256,-0.0006000240009597953,-0.0019200768030473631,-0.0010800432017257996,-0.001080043201727465,-0.4896391703515499,-1.2384990779441145,1.5121209672582996,-3.1973148739037306e-12,-0.028802304139071522,0.01440115206913989,-0.1152092165498999,-0.11520921655230087,-0.2448195851749423,0.20550500000000005,0.005523,-0.905887,-0.13242999999999983,-0.0069330000000000225,-0.906842,0.3379349999999999,0.012456000000000023,0.0009550000000000392,0.9882049157645623,0.9959108267730532,double,-0.905887
155,1.291667,stand,0.014638828893710085,-0.04235661147108218,-0.013678905687552275,-0.03418070017213936,0.15347193458638003,0.011963128621579841,-0.0015598752099881214,-0.0004799616030722434,-0.0002399808015361217,-0.0002399808015427825,-0.001319894408445339,0.0004799616030714108,-0.4753917849819391,0.6341845698514302,-1.1949552293736383,-0.17277062752332242,0.08640345558543631,0.043201727792618244,0.20159539254914957,-0.02877984241895176,0.18718560172773044,0.20536999999999983,0.005871999999999988,-0.905775,-0.13255400000000006,-0.0065910000000000135,-0.906724,0.3379239999999999,0.012463000000000002,0.0009489999999999776,0.9877606745290561,0.9976253215568691,double,-0.905775
156,1.3,stand,0.01992079683185954,-0.04140165606624669,-0.01248049921996774,-0.05378482455943508,0.0859641939885357,0.06823289895263385,-0.0009600384015370048,0.000360014400573046,-0.002280091203647888,-0.0026401056042201017,-0.0032401296051840604,-0.0037201488059517298,0.6338615070382051,0.114599232549559,0.14381452869128947,0.07198329634598656,0.10080115248353232,-0.2448230411750547,-0.2880264973811685,-0.23043744110628678,-0.5040334104191848,0.20519599999999993,0.006220000000000003,-0.90569,-0.13274199999999992,-0.006272999999999973,-0.906651,0.33793799999999985,0.012492999999999976,0.0009609999999999896,0.9862233000008007,0.9906743923941999,double,-0.90569
157,1.308333,stand,0.011400456018235581,-0.037201488059519956,0.003480139205575066,-0.0471830201623457,-0.020305092098359175,0.03483513761369701,-0.0019200768030740608,0.0001200048001954596,0.0,0.00012000480018213638,0.0,0.0016800672026881377,-1.0224817969067608,0.5040403224201095,1.9153532251941618,-0.1152092165531099,-0.028802304137476132,0.2736218893133216,0.33122649758817513,0.38883110586632547,0.6480518431105144,0.20508499999999996,0.006531000000000009,-0.905719,-0.13283599999999995,-0.005962999999999996,-0.906666,0.3379209999999999,0.012494000000000005,0.0009469999999999201,0.9873236278367337,0.9971927539406351,double,-0.905719
158,1.316667,stand,0.010439164866804363,-0.036837053035757066,-0.006479481641468453,0.044972609126213904,0.05783650691283028,0.027390960992677325,-0.002039836813046989,-0.0009599232061444612,-0.000839932805375571,-0.0011999040076872372,-0.000839932805379734,0.0005999520038394556,-0.11534571051490407,0.04372870455518214,-1.1950588969334583,-0.014370051592623851,-0.129580994281247,-0.10078387393515294,-0.15837638683337696,-0.10078387393565245,-0.12960345558539402,0.20498100000000008,0.006830000000000003,-0.905672,-0.13293299999999997,-0.005663000000000029,-0.906607,0.33791400000000005,0.012493000000000032,0.0009350000000000191,0.9866403332421986,0.9973620298459442,double,-0.905672
159,1.325,stand,0.009600384015370304,-0.03312132485299424,-0.004440177607112096,-0.017340047829726753,0.09704519977432086,0.04413068143137757,-0.00048001920075519197,-0.001200048001921288,-0.0006000240009598112,-0.001800072002865278,-0.004320172806909975,-0.003480139205568404,-0.10065772848122731,0.44590521814026896,0.244726273173692,0.1871856008990533,-0.028816128138345012,0.02879020813821696,-0.07202304034297925,-0.4176455060038729,-0.4896305303501617,0.2048970000000001,0.007095999999999991,-0.90564,-0.13302799999999992,-0.005423000000000011,-0.9065989999999999,0.33792500000000003,0.012519000000000002,0.0009589999999999321,0.9880350365840614,0.990279528876987,double,-0.90564
160,1.333333,stand,0.015600624024956343,-0.028441137645503788,0.020520820832836822,-0.21868623687553673,-0.08984898803401249,0.07321825406644783,-0.003600144005757106,-0.0004800192007685024,-0.0063602544101768275,-0.0022800912036470555,-0.0020400816032628043,0.0006000240009597953,0.7200576034544502,0.5616449306960721,2.995439630379033,-0.37442995379837507,0.08640691241482934,-0.6912552993180026,-0.057604608278143433,0.27362188931322823,0.4896391703501894,0.20473700000000017,0.007328999999999974,-0.905864,-0.13317699999999988,-0.005203000000000013,-0.906765,0.33791400000000005,0.012531999999999988,0.0009010000000000407,0.9787829561025123,0.9948036397228852,double,-0.905864
161,1.341667,stand,0.02195824334053848,-0.0322774178065784,0.0003599712023008521,-0.025070729814200134,-0.013841850292941741,0.2010944095377056,0.0017998560115042607,-0.0022798176145898256,0.0019198464122873083,-0.0007199424046017042,-0.00143988480921673,0.0003599712023041825,0.7628532896067026,-0.46031679398544306,-2.4191084269902032,0.6479481662180789,-0.21595853297592482,0.9935326160864282,0.18720287965507332,0.0720178538572217,-0.028804031516152788,0.204569,0.007579000000000002,-0.905851,-0.13336599999999987,-0.004946000000000006,-0.9067649999999999,0.3379349999999999,0.012525000000000008,0.0009139999999999704,0.9850570169872359,0.9972506745290662,double,-0.905851
162,1.35,stand,0.011640465618626191,-0.03948157926317268,0.0019200768030740096,-0.02849465298968995,0.00531439673872019,0.20367198216751298,-0.0013200528021100508,-0.0014400576023055071,-0.0002400096003842512,-0.001320052802136697,-0.0013200528021100508,-0.0003600144005763768,-1.238182853943611,-0.8645339561495449,0.18722016089921156,-0.37440403379506265,0.10077523248341579,-0.25919308924415235,-0.07201612834933185,0.014380416069444034,-0.08640172841480219,0.204461,0.007896000000000014,-0.905869,-0.1334740000000001,-0.0046279999999999655,-0.906784,0.3379350000000001,0.01252399999999998,0.0009149999999999991,0.9875696248916248,0.9968312773475168,double,-0.905869
163,1.358333,stand,0.010800432017271606,-0.00972038881555244,0.0025201008040380353,0.026822837994812682,-0.01833371273014725,0.028736113070129438,-0.0016800672026831415,-0.0008400336013415707,-0.0013200528021117513,-0.0003600144005730556,-0.0031201248049953488,0.0002400096003842576,-0.10080806448513048,3.571485713142987,0.0720057603460976,-0.04320345620701955,0.07200576034608687,-0.12961036862204608,0.11520921655630029,-0.21601728103747922,0.0720057603456906,0.20435700000000012,0.007970000000000033,-0.9059010000000001,-0.133567,-0.004572999999999994,-0.906803,0.3379240000000001,0.012543000000000026,0.0009019999999999584,0.9871536216509321,0.9947500281017567,double,-0.9059010000000001
164,1.366667,stand,0.01631869450445584,-0.018718502519797012,0.011519078473720213,-0.17874777409181636,0.020298115298333357,-0.01706774099780749,-0.0023998080153744745,0.0013198944084453037,-0.003599712023038399,-0.0009599232061444612,-0.0020398368130536497,-0.001199904007679744,0.6621385273799125,-1.0796872695277782,1.0797909370868861,-0.0863619885638742,0.25917062752422104,-0.27353722353331295,-0.07198329800472775,0.12962418909787507,-0.17277581090280664,0.20420099999999985,0.008137000000000005,-0.906027,-0.13371100000000014,-0.0044339999999999935,-0.9069090000000001,0.337912,0.012570999999999999,0.0008820000000000494,0.9836413723602097,0.9957435811827478,double,-0.906027
165,1.375,stand,0.0116404656186265,0.021120844833794682,-0.008880355214210869,0.13616808173487552,-0.05137113476237788,0.0678451813406222,-0.0009600384015370304,-0.0010800432017258282,0.0014400576023047128,-0.001320052802110086,-0.001800072002878601,0.0004800192007685152,-0.5614099226964337,4.780912918947805,-2.4480299637503022,0.1727792648310881,-0.28800403338187375,0.6047965469030551,-0.04321728020708365,0.028772928138131638,0.20159884896775165,0.20409599999999983,0.007952000000000015,-0.905941,-0.13381900000000013,-0.00462499999999999,-0.906831,0.33791499999999997,0.012577000000000005,0.0008900000000000574,0.9876998639945602,0.9961945882654463,double,-0.905941
166,1.383333,stand,0.015600624024956758,-0.02136085443417894,0.01248049921996807,-0.02794424741853942,0.013103066864713712,0.13992068743455538,-0.0022800912036471162,-0.001800072002878601,-0.0009600384015361976,-0.0007200288011461112,-0.001800072002878601,-0.0006000240009598112,0.4752380182803665,-5.098007832470181,2.5634050683042284,-0.15841267276012214,-0.08640691241483012,-0.2880230413825672,0.07200576034609148,0.0,-0.12961036862214526,0.20394699999999988,0.008115000000000039,-0.906053,-0.13395500000000005,-0.004461999999999966,-0.90694,0.3379019999999999,0.012577000000000005,0.0008869999999999711,0.9860307765174706,0.9966175577972602,double,-0.906053
167,1.391667,stand,0.015718742500585577,-0.01211903047755717,0.0005999520038436186,0.11289398944317892,-0.03317070052396574,0.11227808435169202,-0.0016798656107461464,-0.0011999040076805766,-0.005639548836092881,-0.000479961603058909,-0.001679865610752807,0.0,0.014173083228799952,1.1089301603817736,-1.425551621805179,0.07202130944336037,0.07201439827190063,-0.5614963324402026,0.028805759309719264,0.01442361316604188,0.07199712034554916,0.20380200000000004,0.008205999999999991,-0.906105,-0.13408999999999982,-0.004375000000000018,-0.906945,0.33789199999999986,0.012581000000000009,0.0008399999999999519,0.98159080573055,0.9970881889891718,double,-0.906105
168,1.4,stand,0.016080643225738597,-0.016320652826116194,0.0045601824072942325,0.08002226041300177,-0.003969602428950553,0.06256120602871162,-0.002040081603256197,-0.0002400096003842576,-0.0014400576023047128,-0.0001200048002087828,-0.002400096003842576,-0.000600024000960644,0.04342982421133117,-0.5042148504211044,0.4752466582804092,-0.043227648207134775,0.11519193655302144,0.5039591064188416,0.04319654420378369,-0.08643110441494967,-0.07200576034569177,0.20365100000000003,0.008340000000000014,-0.906155,-0.13422500000000004,-0.004259000000000013,-0.906988,0.33787600000000007,0.012599000000000027,0.0008329999999999727,0.9874889237648874,0.9958718813871399,double,-0.906155
169,1.408333,stand,0.01920076803071345,-0.003960158406336814,0.0001200048001954564,0.1286830454930241,-0.020264911064944963,0.02171880078132818,-0.0033601344053661936,0.0,-0.0015600624024959674,-0.0009600384015370048,-0.0006000240009572972,-0.0002400096003834185,0.37442995379512756,1.4833186631200246,-0.5328426265569061,-0.1584126727601072,0.028802304138275937,-0.014401152069033057,-0.10080806448196415,0.21601728103747117,0.043203456207514604,0.20346300000000017,0.00837300000000002,-0.906169,-0.13439299999999998,-0.004230999999999985,-0.906991,0.33785600000000016,0.012604000000000004,0.0008219999999999894,0.9856056134083784,0.9980711926955105,double,-0.906169
170,1.416667,stand,0.02303815694744104,-0.0175185985121169,0.00443964482840826,0.05107386150547794,0.09075916979131604,0.07847072240466893,-0.002519798416132608,-0.0011999040076806084,-0.0027597792176629016,-0.0003599712023008521,-0.0015598752099814607,-0.000719942404608365,0.4604498340205979,-1.626882662080675,0.5183153381584935,0.10083225212786194,-0.14397696276465458,-0.14395450145991803,0.07200230372404176,-0.11517293124840193,-0.05758732952063303,0.20325000000000015,0.008508999999999989,-0.906229,-0.13458799999999993,-0.0040979999999999905,-0.907034,0.3378380000000001,0.01260699999999998,0.0008050000000000557,0.9854083524382792,0.9970744862734356,double,-0.906229
171,1.425,stand,0.0201608064322771,-0.013800552022084451,0.021240849633982914,-0.04616110551963278,-0.09680566000301585,0.058433835849848806,-0.0032401296051840604,0.0006000240009572972,-0.0013200528021117162,-0.0009600384015370048,0.0001200048001887948,0.0012000480019204232,-0.34529587365461295,0.44618342614093176,2.0162252256779505,-0.08644320041418933,0.21600000103658637,0.1727740808293724,-0.07201094434611091,0.2015936649670258,0.23040806510605483,0.20305499999999999,0.008628999999999998,-0.906417,-0.1347640000000001,-0.0039819999999999856,-0.9072009999999999,0.3378190000000001,0.012610999999999983,0.0007839999999998959,0.9862436835642442,0.9974308507182947,double,-0.906417
172,1.433333,stand,0.028321132845302424,-0.033361334453378494,-0.01260050402016353,-0.08953732408376122,-0.0009789799691572608,0.19078009650450425,-0.003960158406330258,0.0009600384015370304,-0.0006000240009598112,0.0003600144005730556,-0.0004800192007685152,-0.0008400336013440688,0.9792783406966757,-2.347387787266797,-4.06112488349295,-0.08640691241404103,0.04320345620781669,0.08640691241472598,0.1584126727601191,-0.07200576034529167,-0.24481958517514832,0.20278600000000013,0.008915000000000006,-0.9063169999999999,-0.13499700000000003,-0.003707999999999989,-0.907103,0.33778300000000017,0.012622999999999995,0.0007860000000000644,0.9852753244922967,0.9982794661252379,double,-0.9063169999999999
173,1.441667,stand,0.01463882889368305,-0.016558675305971972,-0.01991840652747759,0.3362156757168913,0.07393598916403987,0.119586299388261,-0.003839692824577845,0.0013198944084519646,-0.0015598752099830842,-0.0021598272138050553,-0.0004799616030722306,0.001199904007679744,-1.6417451345835457,2.016157805064362,-0.8780780546333096,0.01445471343321478,0.0431792664884727,-0.115172931248292,-0.30235680518095653,6.911170660497366e-06,0.24477293124835578,0.20263200000000015,0.009064000000000016,-0.906164,-0.13513699999999984,-0.0035740000000000216,-0.9069269999999999,0.337769,0.012638000000000038,0.0007629999999999582,0.9851207523556469,0.9958051001993286,double,-0.906164
174,1.45,stand,0.011280451218053445,-0.03876155046202096,-0.011880475219004096,0.31306088356918904,0.02089056110664024,0.13222835774740788,-0.0033601344053929296,0.0016800672026831415,-0.0024000960038400776,0.0010800432017191667,-0.0007200288011527728,-0.0003600144005763864,-0.40302144193323364,-2.6644515967897746,0.9645903406304532,0.05754931227468134,0.043222464206309874,-0.10083052848397948,0.3888000018629847,-0.028809216138310854,-0.1871976968986133,0.20250999999999997,0.009400999999999993,-0.906085,-0.13522199999999995,-0.00325700000000001,-0.9068309999999999,0.3377319999999999,0.012658000000000003,0.0007459999999999134,0.9851100325528817,0.9977549157645773,double,-0.906085
175,1.458333,stand,0.017160686427457307,-0.05928237129485009,0.022320892835715377,-0.3757904972839067,-0.08466386125164269,0.11172034554353322,-0.0026401056042201017,0.0007200288011527536,-0.0002400096003842512,0.0004800192007551792,0.0006000240009639587,-0.0002400096003842512,0.7056564513865065,-2.462597003819605,4.104328339699853,0.08640691241723453,-0.11520921655230662,0.2592207372441844,-0.07200576034609109,0.15841267276091545,0.014401152069138735,0.202345,0.009900999999999993,-0.906273,-0.13536100000000006,-0.0027579999999999827,-0.907019,0.33770600000000006,0.012658999999999976,0.0007460000000000244,0.9879616076074066,0.9986583055457298,double,-0.906273
176,1.466667,stand,0.026637868970476205,-0.028437724982000447,-0.02291816654668297,0.19301217620500385,-0.14608455891466396,0.12771856199784618,-0.0031197504199495995,0.0011999040076806084,-0.001439884809215065,-0.0017998560115042607,0.0002399808015361217,0.001079913606911715,1.1371709314877703,3.7010614726242173,-5.428252865658652,-0.05755277366564758,0.05758041834987569,-0.14397350717912605,-0.27356314041990437,-0.04320172779311782,0.15837811462634885,0.2020970000000002,0.01014799999999999,-0.906094,-0.13559799999999989,-0.0025189999999999935,-0.9068189999999999,0.3376950000000001,0.012666999999999984,0.0007249999999999757,0.9866841849099894,0.9964789183142237,double,-0.906094
177,1.475,stand,0.025801032041290348,-0.030961238449541757,-0.004440177607098654,0.029868178771168076,-0.11367035641873292,0.04942344878378029,-0.003000120004819794,0.0014400576023055071,-0.001920076803072344,0.0019200768030740096,-0.0010800432017324612,-0.0010800432017282976,-0.10042444848024032,-0.30283372945412995,2.2174473706449045,0.014356224064538983,0.028819584138352873,-0.05762534427664354,0.4464097941411503,-0.15840921676089761,-0.25920518524420677,0.20185699999999995,0.010418000000000038,-0.906073,-0.13579699999999995,-0.0022699999999999942,-0.906791,0.3376539999999999,0.012688000000000033,0.0007179999999999964,0.9864166196273256,0.9959108267730129,double,-0.906073
178,1.483333,stand,0.0196807872314958,-0.0252010080403204,0.0003600144005730556,0.04408156585338479,-0.039618916426954066,0.033646768471596554,-0.002040081603256197,0.0009600384015370304,-0.0020400816032645243,-0.000840033601354894,0.0007200288011527728,0.0009600384015361976,-0.7344587555255735,0.6912552993185418,0.576046082763921,0.11520921655629493,-0.0576046082765488,-0.014401152069144529,-0.3312264975913751,0.21601728103747156,0.24481958517514868,0.20167599999999997,0.010636000000000034,-0.906093,-0.1359680000000001,-0.0020540000000000003,-0.906786,0.33764400000000006,0.012690000000000035,0.0006929999999999437,0.9880022535064202,0.997558591220491,double,-0.906093
