frame_id,timestamp,gait_type,root_linear_velocity_x,root_linear_velocity_y,root_linear_velocity_z,root_angular_velocity_x,root_angular_velocity_y,root_angular_velocity_z,left_linear_velocity_x,left_linear_velocity_y,left_linear_velocity_z,right_linear_velocity_x,right_linear_velocity_y,right_linear_velocity_z,root_acceleration_x,root_acceleration_y,root_acceleration_z,left_acceleration_x,left_acceleration_y,left_acceleration_z,right_acceleration_x,right_acceleration_y,right_acceleration_z,left_pos_rel_x,left_pos_rel_y,left_pos_rel_z,right_pos_rel_x,right_pos_rel_y,right_pos_rel_z,step_length,step_width,step_height,left_contact_prob,right_contact_prob,support_type,max_foot_height
1,0.008333,stand,0.1952478099124019,0.09324372974919329,0.04572182887315069,0.1164787628267377,-0.14667835520385594,0.3087552434960982,-0.00012000480020878171,0.009000360014406246,-0.00708028321132804,0.0067202688107591505,0.0009600384015370216,0.002400096003840056,0.0,0.0,0.0,0.0,0.0,0.0,0.0,0.0,0.0,0.22282799999999992,-0.065365,-0.906302,-0.07358600000000004,0.07511299999999999,-0.905097,0.29641399999999996,0.140478,0.0012050000000000116,0.9809131159130434,0.9759495199807886,double,-0.905097
2,0.016667,stand,0.22006239500839958,0.1045116390688691,0.010199184065274985,-0.06336385141446015,0.020909955310401827,0.14058112474307002,-0.0029997600191914724,0.00887928965681635,-0.006599472042236559,0.005279577633794576,0.00035997120230084524,0.0015598752099830959,2.977512010558877,1.3520409550846897,-4.262376386834137,-0.3455429828392957,-0.014527280728329263,0.057692724872987836,-0.17286911170681232,-0.07200230372404322,-0.10081842978845211,0.22096899999999997,-0.06616200000000005,-0.906442,-0.075376,0.074245,-0.905169,0.29634499999999997,0.14040700000000006,0.0012729999999999686,0.9808955083656394,0.9780750844471782,double,-0.905169
3,0.025,stand,0.21984879395175144,0.09132365294611924,-0.006000240009599723,0.1770714340529819,-0.1083327399566492,0.17576502819066475,-0.005400216008649077,0.00732029281172312,-0.00540021600864075,0.006120244809781858,0.0004800192007685108,0.00036001440057638307,-0.025633152123861552,-1.582621639595566,-1.944008649330938,-0.288066241384568,-0.18708710489538338,0.14391648069072477,0.10088409648233311,0.01440633606956265,-0.14398905669107318,0.21909199999999995,-0.06686199999999998,-0.906437,-0.07715700000000003,0.073488,-0.905116,0.296249,0.14034999999999997,0.0013210000000000166,0.9823686396244413,0.976540687647268,double,-0.905116
4,0.033333,stand,0.2139685587423472,0.06960278411136744,0.015120604824188104,0.1999473705762397,-0.05868240449404932,0.15940437760299206,-0.004200168006721138,0.007800312012478308,-0.004440177607104561,0.00624024960999064,0.0,0.0018000720028794174,-0.7056564513865661,-2.6066085245111963,2.534602764165106,0.14401152069218037,0.057604608274953506,0.11520921655300477,0.014401152071136684,-0.05760460827655236,0.17281382482935728,0.21727399999999997,-0.06737700000000002,-0.9066,-0.07888799999999996,0.07290799999999997,-0.905227,0.2961619999999999,0.140285,0.0013729999999999576,0.983483892041124,0.9754455197185912,double,-0.905227
5,0.041667,stand,0.2501799856011523,0.09227261819053378,-0.015838732901370407,-0.13667192438810186,0.10464247117055447,-0.005168652088766265,-0.0026397888168906273,0.006959443244540735,-0.004319654427645112,0.006719462442997958,-0.0005999520038436232,0.00035997120230417564,4.345023621166918,2.7201624765018404,-3.714823341199725,0.18723052433771425,-0.10089618045807207,0.014461624605165467,0.05750093988568722,-0.07198848138272415,-0.17279827220725238,0.215167,-0.06808799999999993,-0.906504,-0.08091700000000002,0.07213400000000003,-0.905092,0.296084,0.14022199999999996,0.0014119999999999688,0.9856568105935218,0.9746203501637898,double,-0.905092
6,0.05,stand,0.1869674786991551,0.09516380655226733,0.007680307212296173,0.11326125841930376,0.003782255142479909,0.3631620091238295,-0.0014400576022922092,0.006720268810745828,-0.0036001440057605,0.007080283211332203,0.0003600144005730523,0.0013200528021117392,-7.585804260410081,0.34695648166729254,2.8223977095483717,0.14397350469199785,-0.028702080138594394,0.08634470441433,0.04330022420907784,0.11520057655306318,0.11521440055292974,0.21359700000000004,-0.06882500000000003,-0.906598,-0.08241600000000004,0.07134399999999996,-0.905145,0.2960130000000001,0.140169,0.0014530000000000376,0.9870688988557715,0.9734511998979314,double,-0.905145
7,0.058333,stand,0.2272890915636567,0.06756270250809794,-0.023280931237252788,0.1404418287692051,0.006550216009316774,0.10860325145443768,-0.0014400576023188556,0.005040201608062701,-0.0033601344053762446,0.007560302412100714,-0.00012000480018213529,0.00036001440057638307,4.838787095224003,-3.312264975899363,-3.715497233835229,-3.1977003231940767e-12,-0.20161612896713388,0.028802304138276197,0.057604608276552394,-0.057604608274953506,-0.11520921655290484,0.21169099999999996,-0.06934600000000002,-0.906432,-0.08424699999999996,0.07078000000000007,-0.904948,0.2959379999999999,0.14012600000000008,0.0014840000000000408,0.9896226874906378,0.9725436323149577,double,-0.904948
8,0.066667,stand,0.16126709863211083,0.06431485481161277,0.021598272138223896,0.22489509320731402,-0.02047436335624144,0.3682652318447493,-0.0010799136069025357,0.004679625629950953,-0.002159827213822556,0.00815934725221466,-0.0004799616030722342,0.0008399328053755773,-7.922005391354195,-0.38971054673448197,5.385073599169268,0.04321382234417086,-0.04326565612092008,0.1440253409591659,0.07187963044323797,-0.043191361037928824,0.05758560172776507,0.21033800000000002,-0.06984299999999999,-0.9066299999999999,-0.08552300000000002,0.07024000000000008,-0.905121,0.29586100000000004,0.14008300000000007,0.0015089999999999826,0.991223458820299,0.9712158408801221,double,-0.905121
9,0.075,stand,0.231129245169805,0.07440297611905261,-0.009960398415929952,0.009037089321955292,-0.08723581091716145,0.10963898969229886,-0.001560062402500992,0.0016800672026964507,-0.004320172806912437,0.006000240009599728,-0.0004800192007685112,-0.0031201248049919916,8.383792936240756,1.2106229818120546,-3.7871919541766315,-0.05762016027822594,-0.35996140972692964,-0.2592518412444357,-0.2591032332431218,-6.912000033240864e-06,-0.47522592228099986,0.208399,-0.07044899999999998,-0.906583,-0.087399,0.06961600000000001,-0.905064,0.295798,0.140065,0.001519000000000048,0.9918486003950823,0.9735099904861602,double,-0.905064
10,0.083333,stand,0.18900756030241112,0.08628345133805647,0.0020400816032695,-0.09355874964271418,-0.02968871852500535,0.25634767788433926,-0.00012000480018213519,0.002520100804024687,-0.003240129605184114,0.0073202928117097905,-0.0012000480019279376,-0.0015600624024959932,-5.054804376262311,1.4257140548426555,1.4401152069122094,0.17281382483125593,0.10080806448196755,0.12961036862214348,0.1584126727601178,-0.08640691241562773,0.1872149768985956,0.2068230000000001,-0.07114700000000007,-0.9066270000000001,-0.08891300000000002,0.06888699999999992,-0.9050940000000001,0.2957360000000001,0.140034,0.0015330000000000066,0.9931557507771318,0.9720362052903309,double,-0.9050940000000001
11,0.091667,stand,0.21154307655388424,0.06071514278857773,-0.036717062634992643,0.10156771877846492,-0.11975593805008224,0.1482540513204073,0.00035997120230084556,0.002999760019204797,-0.0022798176145914493,0.006599472042239895,-0.0017998560115175494,-0.0005999520038402933,2.704045626526655,-3.067951589810266,-4.650485269769879,0.057592512896925976,0.05755450146149629,0.1152282206134708,-0.08649157301054666,-0.07197120345447709,0.11520403151616278,0.205063,-0.07162800000000002,-0.90634,-0.09062100000000006,0.06836599999999993,-0.9047930000000001,0.29568400000000006,0.13999399999999995,0.001546999999999965,0.9936917805393133,0.9730853924263416,double,-0.9047930000000001
12,0.1,stand,0.18972758910355722,0.06564262570502384,0.014160566422651072,0.14417656263892423,-0.026830035489114674,0.2841129102206103,0.0006000240009639688,0.0021600864034516352,-0.0019200768030715435,0.006600264010563687,-0.002520100804024687,-0.001320052802111738,-2.617963212567743,0.5913216028376462,6.105559709305613,0.02880748813910033,-0.1007648644849587,0.04317062420735696,9.504000045503365e-05,-0.08643283241415302,-0.08641555241466989,0.20348700000000008,-0.07215700000000003,-0.906474,-0.09214699999999998,0.06779800000000002,-0.904922,0.29563400000000006,0.13995500000000005,0.0015519999999999978,0.995080453667652,0.9725012071105327,double,-0.904922
13,0.108333,stand,0.19728789151565823,0.05760230409216805,-0.00900036001439293,-0.08960058777600957,-0.019269480911972336,0.10021133367447221,-0.000840033601354887,0.0006000240009639698,-0.0021600864034566347,0.006960278411136751,-0.001320052802110075,-0.0003600144005763834,0.9072725803553363,-0.9648771886302407,-2.7794223493392565,-0.1728138248312561,-0.18721497689759592,-0.02880230413837651,0.04320345620701599,0.1440115206905812,0.11520921655290478,0.20183600000000002,-0.07263200000000003,-0.906417,-0.09373299999999996,0.067307,-0.90485,0.29556899999999997,0.13993900000000004,0.001566999999999985,0.9960098529254563,0.9725075137356443,double,-0.90485
14,0.116667,stand,0.16234701223902656,0.05783537317014423,-0.012838972882178924,0.1985909137485864,-0.0432095398988763,0.3079242468808493,0.0002399808015427777,0.002639788816890625,-0.0015598752099830946,0.004199664026878715,-0.0039596832253492595,-0.0005999520038394596,-4.19257010758719,0.02796605207297532,-0.46059669639860695,0.12959136103883653,0.2447521977353796,0.07201958165029272,-0.33124722633285736,-0.31673031236371274,-0.028790209174835133,0.20048500000000002,-0.07309200000000005,-0.906323,-0.095051,0.06679199999999996,-0.904748,0.295536,0.139884,0.001574999999999993,0.9948740078321878,0.9745781319179623,double,-0.904748
15,0.125,stand,0.1812072482899331,0.04152166086642958,-0.004200168006721142,0.28992253501071547,-0.12018419202416948,0.2407363103017712,0.00012000480018213538,0.0025201008040380145,-0.0025201008040321854,0.004320172806916601,-0.0027601104044156083,-0.0002400096003842556,2.26331885886314,-1.957723785397175,1.0366980529770538,-0.014397696071119934,-0.014363136067755999,-0.11523168055311311,0.014461632069829115,0.14395449669190594,0.043194816207272814,0.19897599999999993,-0.07341699999999995,-0.9063089999999999,-0.09652499999999997,0.06642300000000001,-0.9047149999999999,0.2955009999999999,0.13983999999999996,0.0015939999999999843,0.9940566990847155,0.9755062959396948,double,-0.9047149999999999
16,0.133333,stand,0.1912876515060582,0.06396255850234073,-0.011520460818430925,-0.022554110650717687,-0.1690456879228731,0.17580956573605788,-0.00036001440057305197,0.002040081603256177,-0.002640105604224309,0.004440177607098729,-0.0013200528021100728,-0.0003600144005755501,1.2096967738059639,2.693015436926812,-0.878470276216222,-0.05760460827495343,-0.0576046082781516,-0.014401152069137566,0.014401152067938062,0.1728138248296573,-0.014401152069038088,0.19737899999999997,-0.07393300000000003,-0.906235,-0.098082,0.06587900000000002,-0.9046219999999999,0.295461,0.13981200000000005,0.0016130000000000866,0.9944069236953124,0.9761263059792067,double,-0.9046219999999999
17,0.141667,stand,0.1711063114950854,0.06503479721622794,-0.0031197504199628693,-0.21153778701884993,0.20124713588161638,0.2051507171911565,-0.0009599232061444707,0.0002399808015427785,-0.002759779217662023,0.002279817614589788,-0.0021598272138183983,-0.0011999040076797558,-2.4215670759506653,0.12865835299822642,1.0080046074475733,-0.07198329800473004,-0.2159948166202787,-0.014359684837738704,-0.2592224613041692,-0.10076486821554206,-0.10077869055726035,0.19594499999999992,-0.07447300000000001,-0.906232,-0.09948900000000005,0.06531900000000002,-0.904606,0.295434,0.13979200000000003,0.0016260000000000163,0.9951136742169138,0.9781368779593203,double,-0.904606
18,0.15,stand,0.16368654746188885,0.03600144005759831,0.00588023520940426,0.21570649188647267,-0.1289282771398908,0.23372557224313448,-0.00012000480018213519,-0.0001200048001954584,-0.0030001200048006917,0.0009600384015370207,0.00036001440057305197,-0.0009600384015361881,-0.8904073002755966,-3.484142224724542,1.080041477183142,0.10079424048509958,-0.04320000020859673,-0.02884204813856578,-0.1583798407599623,0.30239308945055177,0.028785024138193633,0.1945800000000001,-0.07477400000000001,-0.906306,-0.10084499999999996,0.06502200000000002,-0.904663,0.29542500000000005,0.13979600000000003,0.00164299999999995,0.9949918060620225,0.9812289663765112,double,-0.904663
19,0.158333,stand,0.17604704188167464,0.061922476899071224,-0.014640585623419581,-0.1964804124382576,-0.041418670865952356,0.1597237882113618,0.00048001920075518715,0.001800072002878583,0.00048001920076851036,0.0033601344053795727,-0.0019200768030740415,0.00048001920076851036,1.4833186631208182,3.110648846930624,-2.4625970038190115,0.07200576034289234,0.23041843310620902,0.41763341000470405,0.2880230413827613,-0.2736218893132235,0.17281382482955687,0.19311699999999998,-0.07527499999999998,-0.90618,-0.10228399999999993,0.06449000000000005,-0.904537,0.2954009999999999,0.13976500000000003,0.00164299999999995,0.9967936278367447,0.9770705092966566,double,-0.904537
20,0.166667,stand,0.15094792416606434,0.04703623710103895,0.004319654427650105,0.0843498168849741,-0.01376596742439147,0.2380437130617297,0.00035997120230084497,-0.0008399328053730787,-0.0013198944084478104,-0.00035997120231416656,-0.0004799616030722338,-0.0010799136069116935,-3.0116531936177435,-1.7862058792935278,2.2750468023841695,-0.014404607445925373,-0.3167752349714014,-0.2159723553175329,-0.44637696276622696,0.17280000000021675,-0.18717696276460313,0.19186199999999998,-0.07567400000000002,-0.906227,-0.103545,0.06409399999999998,-0.904582,0.295407,0.139768,0.0016450000000000076,0.9973243964162374,0.9814910386887018,double,-0.904582
21,0.175,stand,0.14076563062523623,0.039841593663746525,-0.009840393615747834,0.19475215851371697,-0.12617317608624606,0.33694111430287155,0.00036001440057305316,-0.002160086403451642,-0.0014400576023038704,0.0007200288011594295,-0.002760110404415613,-0.0019200768030723824,-1.2219241018634512,-0.863391748145019,-1.6992737361572032,5.184000024984327e-06,-0.1584247687601784,-0.014420160069130009,0.12960518462421683,-0.27362880131325873,-0.10082361648394228,0.19069199999999986,-0.07602399999999998,-0.906157,-0.10471200000000003,0.06373899999999999,-0.904516,0.2954039999999999,0.13976299999999997,0.0016410000000000036,0.9956317593368122,0.9778591512532904,double,-0.904516
22,0.183333,stand,0.19032761310450785,0.05052202088083575,-0.022440897635911207,-0.217922649026817,0.20540316917923698,0.04426958270793416,0.0009600384015370207,-0.0020400816032695,-0.0012000480019204432,0.0009600384015370207,0.00048001920076851036,0.0012000480019204432,5.947675804544772,1.2817025341520722,-1.5121209672582938,0.0720057603460899,0.01440115206793978,0.02880230413817677,0.028802304137476416,0.38883110586632913,0.37442995379729066,0.189114,-0.07646200000000003,-0.90598,-0.10628999999999988,0.06332199999999999,-0.904319,0.2954039999999999,0.13978400000000002,0.0016610000000000236,0.9957430703920491,0.9807066110914422,double,-0.904319
23,0.191667,stand,0.13546916246702143,0.03131749460042662,0.018478521718261018,-0.06044655742863784,-0.02069712319698732,0.20638438330501552,0.0004799616030855554,-0.0021598272138183914,-0.0022798176145906127,0.0013198944084453126,-0.0013198944084453126,-0.0002399808015361169,-6.582487477500165,-2.304358804944698,4.909937527498462,-0.05760460744558014,-0.014368323799962968,-0.1295619885613353,0.04317926648767596,-0.21597235531723316,-0.17278963324412752,0.18798899999999996,-0.07674099999999995,-0.906153,-0.10740800000000006,0.06305000000000005,-0.9044749999999999,0.295397,0.139791,0.0016780000000000683,0.9947051426706388,0.9800833735018528,double,-0.9044749999999999
24,0.2,stand,0.141605664226564,0.051362054482177316,-0.010920436817466957,0.1531935716984662,-0.2841390983658959,0.2437955393064627,0.00048001920075518715,-0.0024000960038425517,-0.00024000960038425518,0.0014400576023055312,-0.0016800672026964479,0.00012000480019212759,0.7364096675318107,2.4054434035462235,-3.5280161449331513,6.911996835683649e-06,-0.028833408139224782,0.2447867531748897,0.014420160069629009,-0.04322246420870455,0.0432000002073976,0.1868129999999999,-0.07718899999999995,-0.906064,-0.108576,0.062608,-0.904383,0.2953889999999999,0.13979699999999995,0.0016809999999999325,0.9959010557358459,0.9794966152020721,double,-0.904383
25,0.208333,stand,0.14484579383174861,0.023400936037448306,0.024600984039362922,-0.2563512209062226,0.18421012830283057,0.15008943306118744,0.001320052802110077,-0.001440057602305536,-0.00048001920076767927,0.0015600624025009946,-0.001800072002878589,-0.00036001440057555127,0.38883110586638825,-3.355468432104774,4.262741012460095,0.10080806448516645,0.1152092165531043,-0.02880230413817649,0.01440115206953843,-0.014401152067939696,-0.05760460827645267,0.18561699999999992,-0.07739600000000002,-0.906273,-0.10976999999999992,0.062397999999999954,-0.904591,0.29538699999999984,0.13979399999999997,0.0016819999999999613,0.9966472549673513,0.9791648674147163,double,-0.904591
26,0.216667,stand,0.14806815454763092,0.02747780177584875,-0.02591792656587398,0.1047472520928486,-0.09531691379152014,0.10262350995644429,-0.0014398848092033799,-0.0005999520038436226,-0.00011999040076805845,0.0008399328053730787,-0.0016798656107461574,0.00011999040076722585,0.38665235371757883,0.48918475382774657,-6.061784329882032,-0.3311660200760084,0.10080460744683375,0.04319999999995446,-0.08640863896423269,0.014423613166838437,0.0575959684836545,0.18437100000000006,-0.07762999999999998,-0.906058,-0.1109969999999999,0.06215500000000007,-0.904374,0.29536799999999996,0.13978500000000005,0.0016840000000000188,0.9973925276357238,0.9800233735018575,double,-0.904374
27,0.225,stand,0.14940597623906895,0.03996159846394185,0.0021600864034516352,-0.20442186532020984,0.002386498861875571,0.14334661285198183,-0.0021600864034649584,-0.00024000960037759357,-0.0007200288011519328,0.0015600624024876663,-0.0019200768030740415,0.00048001920076851036,0.16054502477355498,1.4981155271922586,3.369496336172518,-0.08642764841732604,0.043194816208571796,-0.07200748834559868,0.086419008414087,-0.028826496139191627,0.0432051842075224,0.18310799999999983,-0.07796499999999995,-0.9060819999999999,-0.11222900000000013,0.06180600000000003,-0.904388,0.29533699999999996,0.13977099999999998,0.0016939999999999733,0.9961840905579418,0.9788598319932859,double,-0.904388
28,0.233333,stand,0.1219248769950684,0.018960758430336174,-0.01428057122284653,0.21925680801159073,-0.03424442194404156,0.19722423548174445,-0.0024000960038292286,-0.0009600384015370207,-0.0018000720028802486,0.0021600864034649584,-0.0022800912036470937,-0.00024000960038425518,-3.2978638238330165,-2.520201612097163,-1.9729578334691167,-0.02880230413587784,-0.08640691241562781,-0.12961036862214265,0.0720057603476889,-0.04320345620701451,-0.0864069124148284,0.182072,-0.07813099999999995,-0.905978,-0.11322699999999997,0.061629000000000045,-0.904271,0.295299,0.13976,0.001706999999999903,0.9947500281017747,0.9776800281017526,double,-0.904271
29,0.241667,stand,0.16114710823135317,0.0315574754019695,0.003359731221505648,-0.4604671884077146,0.07587616334376723,-0.07129655718886717,-0.0032397408207342584,-0.00011999040077138925,-0.0008399328053755793,0.0020398368130470092,-0.001319894408445317,0.0009599232061436382,4.706291245054579,1.5114851177865798,2.116666959965469,-0.10074931808315717,0.10079769627617392,0.11520748710159245,-0.014428796546430216,0.11521439827235169,0.14398041834987957,0.18070199999999992,-0.07839499999999999,-0.9060130000000001,-0.11455300000000013,0.06135500000000005,-0.9042910000000001,0.29525500000000005,0.13975000000000004,0.0017220000000000013,0.9944183322386397,0.9784260401053881,double,-0.9042910000000001
30,0.25,stand,0.10140405616224456,0.026281051242045966,0.0009600384015370207,0.23241869098904802,-0.09018468959973987,0.3106722550629585,0.0007200288011461039,0.0014400576023055312,0.002040081603264504,0.0021600864034649584,-0.003240129605184114,-0.00012000480019212759,-7.169453026414084,-0.6331962270399052,-0.2879746573825303,0.4751913622801343,0.18721324889918628,0.3456155536589561,0.014430528071276734,-0.23043744110629974,-0.12959654462207668,0.17986299999999988,-0.07860199999999995,-0.906004,-0.11538000000000004,0.06110900000000008,-0.9043,0.2952429999999999,0.13971100000000003,0.0017040000000000388,0.9956685451762664,0.9764666670343742,double,-0.9043
31,0.258333,stand,0.13452538101523226,0.014760590423628412,0.019800792031677804,-0.18257766948656934,0.10005489689324348,0.06865905056054931,-0.0020400816032561833,0.002160086403451642,0.0045601824072958675,0.002280091203647101,-0.00240009600384256,0.000120004800192128,3.9747179710773772,-1.3825105986340553,2.2609808748518936,-0.33122649758817885,0.08640691241403009,0.30242419345150245,0.014401152067939878,0.1008080644835661,0.028802304138276273,0.17872500000000002,-0.07870700000000008,-0.906131,-0.11648199999999997,0.060965999999999965,-0.904464,0.295207,0.13967300000000005,0.001666999999999974,0.9909288047758407,0.9778089096596477,double,-0.904464
32,0.266667,stand,0.1189104871610227,0.019438444924405485,-0.014518838492925082,-0.022953499439095554,-0.0739322183519583,0.09318878856297032,-0.0038396928245778704,0.0021598272138317128,-0.0013198944084469777,0.0013198944084453126,-0.0014398848092167015,-0.0010799136069116935,-1.8736373715154235,0.5612976362823456,-4.118026220854674,-0.2159360716728684,-3.1100266370220366e-05,-0.7055527736672473,-0.11521439827235272,0.1152161260650177,-0.14397869055721385,0.17770200000000003,-0.078851,-0.906021,-0.11746199999999996,0.06079199999999996,-0.9043519999999999,0.295164,0.13964299999999996,0.0016690000000000316,0.9923351060328105,0.979590082545849,double,-0.9043519999999999
33,0.275,stand,0.13548541941676837,0.009840393615734445,0.0031201248050019685,-0.1987075611007675,0.19028058682071783,-0.014681479575403658,-0.004920196807867223,0.0015600624024876611,-0.0021600864034566243,0.0014400576023055264,-0.0004800192007685088,0.0009600384015361848,1.989071433546813,-1.151812229529701,2.116760266161884,-0.12966566462130658,-0.0719746563475398,-0.10082707248405653,0.014420160069628388,0.11518848055300476,0.24480403317507135,0.17653200000000013,-0.07891999999999999,-0.906065,-0.11857899999999988,0.06070600000000004,-0.90437,0.295111,0.13962600000000003,0.001695000000000002,0.990674392394207,0.9800565543527526,double,-0.90437
34,0.283333,stand,0.09768390735630558,0.025921036841473,0.0025201008040246953,0.044525326389417884,-0.006272616094385105,0.2559048193603344,-0.004680187207502984,0.0036001440057705013,-0.0008400336013440632,0.0010800432017191595,-0.002640105604220154,-0.00048001920076767927,-4.536362901771616,1.929754377263722,-0.07200576034768687,0.028802304135874136,0.24481958517734856,0.15841267276041815,-0.043203456208612476,-0.2592207372436878,-0.1728138248294573,0.17567899999999992,-0.0791059999999999,-0.906093,-0.11938400000000005,0.06046800000000008,-0.904395,0.29506299999999996,0.13957399999999998,0.0016980000000000883,0.9900597834794783,0.9781990188434879,double,-0.904395
35,0.291667,stand,0.13126949844011607,0.02771778257740485,0.004919606431493727,-0.217289547235895,0.11654288687422512,0.006276153266470258,-0.004079673626094005,0.0017998560115175463,-0.0013198944084469777,0.0013198944084586342,-0.0013198944084453126,0.000959923206143635,4.02994853417452,0.21559224093254709,0.28791764188493274,0.07205586529985349,-0.21601727792812014,-0.057578690557105114,0.02877984242134322,0.1584126704793425,0.1727792664880385,0.17455100000000012,-0.079322,-0.9061450000000001,-0.12046699999999988,0.060226,-0.904428,0.295018,0.139548,0.0017170000000000796,0.9922494910907067,0.9793317087263849,double,-0.904428
36,0.3,stand,0.10812432497300407,0.008280331213246839,-0.029401176047048044,0.32130262348614785,-0.1810958303207039,0.15924718596328957,-0.003840153606148096,0.0020400816032561833,-0.0022800912036479337,0.000480019200768512,-0.0013200528021234004,-0.0016800672026881264,-2.777531917330139,-2.332587467197655,-4.1186586437707735,0.028743552135594534,0.028828224137602013,-0.11522822455309714,-0.10078905648507432,-1.9008001690608985e-05,-0.316811521520673,0.17361800000000005,-0.07937400000000006,-0.905919,-0.12136399999999992,0.06014599999999992,-0.904197,0.29498199999999997,0.13951999999999998,0.0017220000000000013,0.9918167636523552,0.979130196489669,double,-0.904197
37,0.308333,stand,0.12132485299413068,0.018840753630140653,0.005400216008635731,-0.2330668000266041,0.17668976170923056,-0.02795720140763451,-0.004680187207502953,0.002880115204611053,-0.0013200528021125664,0.0007200288011461016,0.000120004800195458,0.002160086403455791,1.58412672760429,1.2673013820825358,4.176334100046038,-0.10080806448516182,0.10080806448516333,0.11520921655290571,0.028802304137476125,0.17281382483125554,0.4608368662119167,0.17256799999999983,-0.079507,-0.905975,-0.12236900000000006,0.05998999999999999,-0.9042239999999999,0.2949369999999999,0.13949699999999998,0.001751000000000058,0.9905804937482738,0.9786898479939231,double,-0.9042239999999999
38,0.316667,stand,0.1046316294696411,0.025317974562030526,0.0002399808015427793,-0.0697246707911984,0.03138808826303266,0.21344908096775475,-0.004679625629937659,0.0023998080153611848,-0.004199664026877911,0.0007199424046016947,-0.0013198944084453212,-0.00035997120230417775,-2.0030265808122967,0.7772043354799508,-0.6191786905559133,6.738391712188895e-05,-0.05763225212981411,-0.3455257049154501,-1.0366755988342702e-05,-0.17277408311024567,-0.30238272207343214,0.17165699999999995,-0.07969799999999994,-0.906012,-0.1232350000000001,0.05976800000000004,-0.9042290000000001,0.29489200000000004,0.13946599999999998,0.001782999999999979,0.9887830544257541,0.9795933863837516,double,-0.9042290000000001
39,0.325,stand,0.09864394575781531,0.02364094563782574,0.0016800672026831191,0.029767750796663474,-0.10400819029395303,0.16299119453530103,-0.0036001440057571543,0.0033601344053795614,0.0003600144005763816,-0.00012000480018213478,0.0,-0.0013200528021117337,-0.7185507874505894,-0.20125152096541213,0.17281728082807318,0.12954297662072486,0.11524377655326684,0.5471832986264579,-0.1007976964819184,0.15839366476002828,-0.11521440055292836,0.1708050000000001,-0.07986699999999991,-0.906023,-0.12405799999999989,0.05957100000000004,-0.904254,0.294863,0.13943799999999995,0.0017690000000000206,0.9917704545736065,0.9801008394301418,double,-0.904254
40,0.333333,stand,0.1204848193927766,-0.00036001440057305316,-0.017760710428408297,0.08080764484328223,0.12361915565327235,0.006947941291409906,-0.002400096003855883,0.002160086403451642,-0.0020400816032645104,0.0008400336013415652,0.000960038401537024,0.0022800912036479337,2.6210096765824242,-2.8802304138244152,-2.332986635196384,0.14401152068898046,-0.14401152069217835,-0.28802304138256307,0.11520921655150634,0.11520921655310529,0.4320345620736441,0.16978099999999996,-0.07984599999999997,-0.905892,-0.12505499999999992,0.059582000000000024,-0.9040870000000001,0.2948359999999999,0.139428,0.0018049999999999455,0.993634213183379,0.97759551760929,double,-0.9040870000000001
41,0.341667,stand,0.10043196544276169,0.0329973602111861,0.013198944084466447,-0.2953250105601371,-0.039826179764085645,0.09724391759491387,-0.0021598272138050696,0.003119750419962859,-0.0011999040076789193,-0.00035997120230084497,0.0,-0.0004799616030714012,-2.4061499820032264,4.002564748231236,3.714861352636755,0.028829948410224772,0.11515046994375039,0.100813246410558,-0.14398905731250408,-0.11519539255303853,-0.33117984241892634,0.16892600000000013,-0.08009500000000003,-0.906012,-0.12589499999999987,0.059307,-0.904201,0.294821,0.13940200000000003,0.001811000000000007,0.9933672810368273,0.980890079993604,double,-0.904201
42,0.35,stand,0.10752430097204009,0.013560542421700471,-0.004440177607098744,0.07822244933216986,0.056241541128889384,0.12980478501283324,-0.002280091203647101,0.001920076803074048,-0.0007200288011519352,0.001440057602305536,0.000480019200768512,0.0022800912036479337,0.8511143080857341,-2.332511435195689,-2.1167792741587945,-0.014432256071286665,-0.14396659269036527,0.05758732827636928,0.21601209703664773,0.057604608276552643,0.33121958558974457,0.16801100000000013,-0.08019200000000004,-0.905981,-0.12677899999999986,0.05919799999999997,-0.9041450000000001,0.29479,0.13939000000000001,0.0018359999999999488,0.994889022625232,0.9770747325050937,double,-0.9041450000000001
43,0.358333,stand,0.10020400816034293,0.020400816032641638,-0.018360734429385468,0.15006782872185176,-0.06273091167442492,0.1480361963670428,-0.002160086403464951,0.002280091203647086,-0.002040081603264497,0.00012000480018213478,-0.0014400576023055264,-0.0014400576023038609,-0.8784702762147041,0.8208656679396541,-1.6705336400200008,0.014401152067940667,0.04320345620701265,-0.15841267276041715,-0.15841267276171797,-0.2304184331062079,-0.44643571414277916,0.16715799999999992,-0.08034300000000005,-0.905845,-0.1276130000000001,0.05901599999999996,-0.904004,0.294771,0.139359,0.0018409999999999815,0.9937579557044895,0.9781898639945593,double,-0.904004
44,0.366667,stand,0.09887209023277359,0.014758819294454537,-0.002639788816890625,0.06001871590727131,-0.06909274753550108,0.16466583505856816,-0.0017998560115042247,0.002399808015361169,-0.0007199424046075181,-0.0002399808015294561,-0.0002399808015294561,0.0017998560115192117,-0.15981736591904744,-0.6769854497464718,1.88636256449422,0.0432241891001591,0.01436486821623268,0.15840403151631602,-0.043194816620061256,0.1439976962774261,0.3887585329761303,0.1663190000000001,-0.08044600000000002,-0.905829,-0.12843899999999997,0.05889100000000003,-0.903967,0.2947580000000001,0.13933700000000004,0.0018620000000000303,0.9948584272729566,0.9783273767053714,double,-0.903967
45,0.375,stand,0.09396375855033963,0.003720148805952637,0.011280451218053369,0.054362393189533245,0.03278641076175475,0.08852239118816002,-0.003000120004819854,0.0007200288011461063,-0.0010800432017283193,0.0007200288011461063,0.0010800432017191595,0.00048001920076767927,-0.5890233628265895,-1.3246934463580855,1.6704956240182443,-0.14403744069550367,-0.2015815689685668,-0.04321382420746456,0.11520576055148983,0.1584092167585046,-0.15838675276029468,0.16551099999999996,-0.08047100000000007,-0.9059320000000001,-0.129216,0.05886899999999995,-0.904057,0.29472699999999996,0.13934000000000002,0.001875000000000071,0.9945518466850889,0.9789433952168913,double,-0.904057
46,0.383333,stand,0.09516380655226757,0.01872074882994532,-0.015840633625347572,0.0653011416770227,-0.10537478570024693,0.13985692453419737,-0.00276011040440229,0.003000120004806531,-0.0016800672026881264,-0.0007200288011461063,-0.000960038401537024,-0.0010800432017283193,0.14401152069218073,1.800144008639472,-3.2546603676228263,0.02880230414227344,0.27362188931482423,-0.07200576034559085,-0.17281382482805907,-0.24481958517414962,-0.18721497689859626,0.16469500000000004,-0.08060199999999995,-0.905814,-0.130015,0.05870500000000001,-0.903934,0.29471,0.13930699999999996,0.0018799999999999928,0.9926512368211307,0.9785091675572908,double,-0.903934
47,0.391667,stand,0.09719222462202744,0.007919366450685196,0.012119030477563911,-0.10071727581176601,0.1114739622645009,0.0768684999315448,-0.0021598272138317128,0.0005999520038436226,-0.0007199424046075181,0.0010799136069025348,-0.0010799136069025348,0.0008399328053755765,0.24339069711541475,-1.2960622005351707,3.354891301045291,0.07202822061082033,-0.287997120345921,0.11520575930892818,0.21597581090096463,-0.014383873933946568,0.2303786905572227,0.16386699999999998,-0.08066299999999993,-0.9059210000000001,-0.13081600000000004,0.05863000000000007,-0.904028,0.29468300000000003,0.139293,0.0018930000000000335,0.9960760305434717,0.9781650645855848,double,-0.904028
48,0.4,stand,0.1149645985839446,0.015960638425542923,-0.01920076803072703,0.00856654797583821,-0.029392483822353953,0.05549754710157631,-0.0019200768030740352,0.004200168006721121,0.0004800192007685088,0.0016800672026964422,0.00012000480018213478,0.0007200288011527632,2.1327701862375004,0.9649912366323885,-3.758526162041379,0.02877120013892675,0.4320432020733809,0.1440011526912303,0.0720213123477625,0.1439959686889073,-0.014389056068980293,0.16289299999999995,-0.08076099999999997,-0.905757,-0.13176,0.05849799999999994,-0.9038619999999999,0.29465299999999994,0.1392589999999999,0.001895000000000091,0.9922614736100805,0.9779970103759081,double,-0.9038619999999999
49,0.408333,stand,0.05772230889235028,0.023880955238203494,0.013440537621505011,0.04879475244088778,-0.13419368627301473,0.26149503498274845,-0.001800072002865266,0.0015600624024876715,0.000120004800192128,0.000960038401537024,-0.0006000240009506475,0.0008400336013440632,-6.869349536972815,0.9504760365607333,3.917113362802367,0.014401152071135185,-0.31682534552183556,-0.0432034562074141,-0.08640691241562704,-0.08640691241243059,0.014401152069038796,0.16239700000000012,-0.08094699999999999,-0.905868,-0.13223299999999993,0.05829400000000007,-0.903967,0.29463000000000006,0.13924100000000006,0.0019010000000000415,0.9960249196139421,0.9786404379926312,double,-0.903967
50,0.416667,stand,0.08855291576675386,0.009959203263745522,0.0011999040076739237,0.09680316394455733,-0.03988745681411133,0.13456530683033655,-0.0015598752099880903,0.0,-0.002639788816894788,0.0002399808015294561,-0.0011999040076872453,-0.000959923206143635,3.699376874778445,-1.6704765988070505,-1.468758532977091,0.028821309440505805,-0.18719251289748862,-0.33114874215105755,-0.08640000000090799,-0.07197984242099797,-0.21597753869542796,0.16164599999999996,-0.08103000000000005,-0.9058999999999999,-0.13296900000000011,0.05820099999999995,-0.9039849999999999,0.29461500000000007,0.139231,0.001915,0.9948896358934519,0.9782579110877412,double,-0.9039849999999999
51,0.425,stand,0.1189247569902756,0.021720868834751852,-0.0129605184207365,-0.33951292221683993,0.06485624615954899,-0.04150016315091855,-0.0012000480019279415,0.002520100804038019,0.00048001920076767927,0.000480019200768512,0.00036001440057305316,-0.000120004800192128,3.6447667374921173,1.411456326773834,-1.6993186641558213,0.043180992206906244,0.3024241934523011,0.3743919377970089,0.02880576013909234,0.18719769689911223,0.10079424048380045,0.16064499999999993,-0.08118999999999998,-0.9057879999999999,-0.13395600000000008,0.058022999999999936,-0.903878,0.294601,0.13921299999999992,0.0019099999999999673,0.9952796416971714,0.9798801553034958,double,-0.903878
52,0.433333,stand,0.058442337693495994,0.022200888035520214,-0.015360614424565634,0.007835923782791627,-0.053633172531039205,0.17479640903192822,-0.0019200768030740352,0.0007200288011461016,-0.002400096003840046,0.002400096003842544,-0.0013200528021100684,0.0010800432017283122,-7.258180642839236,0.057604608276534255,-0.28802304138115015,-0.08640691241402744,-0.21601728103827073,-0.34562764965891196,0.2304184331062071,-0.20161612896713244,0.14401152069127987,0.160142,-0.08136900000000002,-0.90568,-0.13442299999999996,0.05782699999999996,-0.903741,0.29456499999999997,0.139196,0.001939000000000024,0.9947386109692529,0.9757026660480859,double,-0.903741
53,0.441667,stand,0.06995440364770861,0.012718982481407619,0.04127669786415909,-0.08725419585941216,-0.11149067004460432,0.17703710430983158,-0.0013198944084453212,0.0025197984161325748,0.0005999520038394636,0.0007199424046016947,0.00011999040077138965,-0.00035997120230417775,1.3813374075129206,-1.1377376474817193,6.79593379994301,0.07201612606536086,0.21595507739218664,0.35997696276452207,-0.20160230372460508,0.172791361036893,-0.17278790545146364,0.15954800000000002,-0.08145400000000003,-0.9060189999999999,-0.135,0.05772199999999994,-0.904088,0.29454800000000003,0.13917599999999997,0.001930999999999905,0.9951547710424755,0.9793336425119816,double,-0.904088
54,0.45,stand,0.1142445697827985,0.006120244809781833,-0.037801512060476765,-0.01416423904150211,0.0754943992587312,-0.0910709391039538,-0.0003600144005730508,-0.000240009600390916,-0.0016800672026881154,0.0009600384015370176,-0.0008400336013415596,0.0002400096003842544,5.315032537512265,-0.7918801958029231,-9.489764781547525,0.1151902085530141,-0.33119020959120116,-0.2736132493132809,0.02881267213912419,-0.11520748855309555,0.07200057634566538,0.15859299999999998,-0.081507,-0.905718,-0.13594400000000006,0.05766400000000005,-0.903771,0.29453700000000005,0.13917100000000004,0.001947000000000032,0.9971085178817545,0.9783665826980309,double,-0.903771
55,0.458333,stand,0.08712348493939832,0.0106804272170894,-0.015720628825152114,0.016040721573687945,0.1568567475061676,0.02533084264925608,-0.0004800192007818352,0.0012000480019279415,-0.00036001440057555127,0.001440057602305536,0.0,0.0006000240009598073,-3.254660367622734,0.5472437786280544,2.6498119807181935,-0.014401152071137013,0.1728138248312566,0.15841267276041848,0.057604608276553414,0.10080806448356674,0.04320345620731476,0.15786299999999986,-0.08158599999999994,-0.90559,-0.13665800000000006,0.05757500000000004,-0.903635,0.2945209999999999,0.13916099999999998,0.00195500000000004,0.9977638425761834,0.9778498959958378,double,-0.903635
56,0.466667,stand,0.0724742020638407,0.024238060955127823,0.01295896328293699,-0.18571759906447532,-0.05298969200717325,0.14420181012644567,0.00035997120232748815,-0.0010799136069158564,-0.0004799616030722338,0.0013198944084453126,0.00011999040077138885,0.0013198944084469777,-1.7577733232010573,1.6267859056921539,3.4412757509106164,0.10079078511030988,-0.273573507180681,-0.014392512898570005,-0.014418429788843687,0.014397696276864498,0.08637753869536473,0.157262,-0.08179700000000001,-0.905702,-0.13725100000000012,0.057374000000000036,-0.903732,0.29451300000000014,0.13917100000000004,0.0019700000000000273,0.9979410386886893,0.977182557941743,double,-0.903732
57,0.475,stand,0.07284291371655174,0.01692067682706673,0.011880475219004018,-0.17274721711705535,0.0637158087498699,0.0709807107205495,-0.00012000480020878201,0.0001200048001954588,-0.0007200288011519352,0.0006000240009639708,0.0,0.000360014400576384,0.04424716821205407,-0.8781212202161419,-0.1294237446217419,-0.057599424281323815,0.14399596869210587,-0.02880921613820977,-0.08638790441393779,-0.014399424069529479,-0.11519020855281364,0.15665399999999985,-0.08193699999999993,-0.9058069999999999,-0.13785300000000011,0.05723300000000009,-0.903828,0.29450699999999996,0.13917000000000002,0.001978999999999953,0.9987670678821162,0.9790437629715438,double,-0.903828
58,0.483333,stand,0.08016320652824771,0.011520460818444211,-0.006480259210368207,-0.05545437145936465,0.0034964875497730274,0.03222419942368277,-0.000240009600390916,-0.0013200528021100684,-0.0006000240009598033,0.0008400336013415596,-0.0006000240009639668,0.0,0.8784702762145609,-0.6480518431084239,-2.203376266575321,-0.014401152067938737,-0.17281382482965574,0.014401152069138534,0.028802304137476035,-0.07200576034608955,-0.0432034562074142,0.1559839999999999,-0.082044,-0.905758,-0.13851400000000003,0.05713199999999996,-0.903774,0.2944979999999999,0.13917599999999997,0.0019839999999999858,0.9975504122737091,0.978439466125236,double,-0.903774
59,0.491667,stand,0.07559395248379024,0.0002399808015294561,-0.011639068874491678,0.16571855093109428,0.018349017477974534,0.048988930727544816,0.0008399328053864003,0.0007199424046016899,-0.00035997120230417536,0.0004799616030722338,0.0009599232061444676,0.0008399328053755765,-0.5482666240049759,-1.3535493180843226,-0.6190076390836892,0.12958272207551177,0.24477984241801728,0.028804031516154033,-0.04320518337764884,0.18717869055776734,0.10078387393515427,0.15536100000000008,-0.08204,-0.9056639999999999,-0.13913999999999993,0.05713800000000002,-0.90367,0.294501,0.13917800000000002,0.0019939999999999403,0.9980610831703727,0.9777886183722087,double,-0.90367
60,0.5,stand,0.07980319212770183,0.02316092643705739,0.008400336013442297,-0.10865220962097857,-0.030293850495643565,0.12670351233664828,0.00012000480018213558,-0.0012000480019146184,-0.00024000960038342327,0.000480019200768512,0.00036001440057305316,-0.0007200288011519352,0.5051289624278896,2.7506235012034073,2.4048247795432647,-0.08639481641716867,-0.23040806510456174,0.014395968069213056,6.912000033383996e-06,-0.07199193634602374,-0.18720288089853782,0.15469699999999986,-0.08224299999999996,-0.905736,-0.13980100000000006,0.056948,-0.9037459999999999,0.2944979999999999,0.13919099999999995,0.0019900000000000473,0.9979505278679335,0.9785378875803236,double,-0.9037459999999999
61,0.508333,stand,0.0704428177126954,0.002640105604220137,-0.008880355214197428,0.03582787803191155,0.06532473214424188,0.06068019406155762,0.0006000240009639668,-0.0013200528021100684,-0.0014400576023046935,-0.00012000480018213478,0.000240009600390916,0.0009600384015361848,-1.1232898613952236,-2.462597003820613,-2.0737658979526765,0.05760460827815063,-0.01440115206953672,-0.14401152069137949,-0.07200576034449109,-0.014401152067939117,0.2016161289677323,0.154115,-0.0822759999999999,-0.9056740000000001,-0.14038899999999988,0.05692800000000009,-0.903664,0.2945039999999999,0.139204,0.0020100000000000673,0.9965939864862737,0.9782386087717663,double,-0.903664
62,0.516667,stand,0.09215262778978957,-0.001439884809216711,-0.019318454523647548,0.17180651004921263,0.1046433949616242,-0.0019844238783195446,0.0005999520038436266,0.0,0.0005999520038402962,0.0005999520038303051,0.000479961603072237,0.00011999040076722665,2.604968811746376,-0.4895596848376375,-1.2524717193964698,-8.638963323746845e-06,0.1583936647600283,0.24478157021178323,0.08638790544905735,0.028791936966801338,-0.10079769627657342,0.15335199999999993,-0.08226399999999989,-0.905508,-0.14115200000000006,0.056944000000000106,-0.903502,0.294504,0.139208,0.0020059999999999523,0.9985858995656562,0.9786439555438867,double,-0.903502
63,0.525,stand,0.049681987279480706,0.00900036001440621,-0.0030001200047931873,0.15489543590733185,0.0728889708613269,0.13425112237089964,-0.0006000240009639668,-0.000120004800195458,-0.0013200528021125664,0.000120004800195458,-0.000240009600390916,0.0001200048001921272,-5.096680728466181,1.2528794940145058,1.958278473401451,-0.1440028806921383,-0.014401152069537682,-0.23040979310606677,-0.0575959682749124,-0.08640000041559463,1.7280001080700134e-06,0.15293299999999999,-0.08233999999999997,-0.905494,-0.14156499999999994,0.056867,-0.9034760000000001,0.2944979999999999,0.13920699999999997,0.0020179999999999643,0.9975750318706744,0.9793300824547297,double,-0.9034760000000001
64,0.533333,stand,0.06636265450618394,0.02520100804032706,0.02604104164165531,-0.2520254509320406,-0.09276726867772721,0.1252652103920837,0.0003600144005730556,0.0007200288011461112,-0.0001200048001921288,0.0006000240009639748,0.0002400096003909192,0.0010800432017283265,2.00176013760991,1.9441555293316934,3.485078800725881,0.11520921655310586,0.10080806448356858,0.14401152069128148,0.0576046082765536,0.05760460827815188,0.11520921655300709,0.15238299999999994,-0.08254400000000006,-0.905712,-0.14211299999999993,0.056659000000000015,-0.9036839999999999,0.29449599999999987,0.13920300000000008,0.0020280000000000298,0.9986434797425756,0.9776222983955898,double,-0.9036839999999999
65,0.541667,stand,0.06755459563235984,0.012958963282936905,-0.0013198944084453037,-0.09962760754025442,0.032410341884993775,0.0404809623975558,0.0007199424046283283,0.00011999040077138805,0.0005999520038402883,0.0008399328053730732,0.00035997120230084253,0.001199904007679744,0.14302149342163378,-1.4689278566582749,-3.2830496820374857,0.04318790545419606,-0.07199884813711527,0.08638790545145326,0.028786753588804486,0.014394240689935495,0.014382146142478583,0.15182600000000002,-0.08265100000000003,-0.905696,-0.14266900000000005,0.05655399999999999,-0.903663,0.29449500000000006,0.13920500000000002,0.0020329999999999515,0.998425324399218,0.9771562400828011,double,-0.903663
66,0.55,stand,0.08856354254168995,-0.004800192007685088,-0.046321852874114465,0.3280719372988764,0.14595698043321673,-0.02995392430172177,0.0,-0.0003600144005730508,-0.0007200288011527632,0.0012000480019146104,0.0004800192007685088,0.00024000960038342167,2.521174476098647,-2.1311838822299194,-5.400451033921634,-0.08639654441717573,-0.057602880276543485,-0.15840403276047593,0.043215552207072565,0.014406336069562674,-0.1151919365530203,0.1510880000000001,-0.08261399999999997,-0.905316,-0.143397,0.05659800000000004,-0.9032749999999999,0.2944850000000001,0.139212,0.0020410000000000705,0.9986583055457231,0.9773990221308728,double,-0.9032749999999999
67,0.558333,stand,0.044401776071041024,0.018000720028799336,0.021000840033605885,0.1222402749750939,0.029467033346622724,0.20779383627404036,0.0003600144005730556,-0.00108004320173249,-0.00024000960038342487,0.0009600384015370304,0.0,0.0002400096003842576,-5.299623961436377,2.736218893133881,8.079046310778947,0.04320345620701535,-0.08640691241563013,0.057604608276652196,-0.028802304137475365,-0.057604608276552643,1.0031439757426276e-13,0.1507210000000001,-0.08277299999999999,-0.905493,-0.14375899999999997,0.056448000000000054,-0.903448,0.2944800000000001,0.13922100000000004,0.0020449999999999635,0.998060850491048,0.9779006917774224,double,-0.903448
68,0.566667,stand,0.07919366450685145,0.0273578113750905,-0.00659947204223984,-0.23354904852022818,-0.07519646864224874,0.06403775537879103,-0.0005999520038436186,0.0,-0.0005999520038402883,0.0013198944084453037,-0.0002399808015427761,-0.0003599712023041729,4.174692636886268,1.122761140663678,-3.311772507300878,-0.11518675358971285,0.129594816622568,-0.04318963324416375,0.04317926648767345,-0.028795392553728615,-0.0719919369676537,0.15005599999999997,-0.08300099999999999,-0.905443,-0.1444080000000001,0.05621799999999999,-0.903396,0.29446400000000006,0.13921899999999998,0.002047000000000021,0.9985858995656562,0.9772150178180176,double,-0.903396
69,0.575,stand,0.09216368654744833,0.003120124804988687,-0.024000960038399112,-0.06169432578980297,0.1637849738272702,-0.060483756743979815,-0.00012000480018213638,-0.0009600384015370304,-0.002280091203647949,0.0009600384015370304,-0.0007200288011461112,-0.0007200288011519401,1.556464903467779,-2.908638733961603,-2.0882620900227327,0.05759596827810952,-0.11520921655310683,-0.20162476896767983,-0.043184448206921466,-0.05760806427497174,-0.04320864020734075,0.14928700000000017,-0.08303499999999997,-0.905262,-0.14516799999999996,0.05618600000000007,-0.903202,0.29445500000000013,0.13922100000000004,0.0020600000000000618,0.9958718813871459,0.9770675259431036,double,-0.903202
70,0.583333,stand,0.052562102484118405,0.002400096003842544,-0.004440177607098714,-0.030841900092273427,0.10716414670527079,0.0750006900197522,0.00012000480018213478,0.000240009600390916,-0.00048001920076767607,0.0010800432017324755,0.0,-0.00024000960038342167,-4.752380182806884,-0.08640691241403337,2.3473877872675284,0.028802304135877855,0.14401152069218065,0.21601728103687332,0.014401152069536134,0.08640691241402955,0.057604608276553025,0.14884999999999993,-0.08305299999999993,-0.9052290000000001,-0.1455970000000001,0.05616600000000005,-0.903167,0.294447,0.13921899999999998,0.0020620000000000083,0.9990834481989359,0.9775360173492285,double,-0.903167
71,0.591667,stand,0.03971682265417047,-0.0004799616030722306,0.013918886489081366,0.24698030355750114,-0.09827900122430096,0.2133501969744992,-0.0008399328053863948,0.0010799136069025276,0.0010799136069116863,0.00155987520998808,0.0008399328053730732,0.00011999040076722505,-1.541310274771759,-0.3455792664884512,2.202911458624903,-0.11518329800438232,0.10078041834792478,0.1871769627645009,0.05757523497187435,0.10078387393485322,0.04319654441452411,0.14851199999999998,-0.08304,-0.905336,-0.1459149999999999,0.05617700000000003,-0.903282,0.2944269999999999,0.13921700000000004,0.0020540000000000003,0.9970950645855666,0.9765005070420418,double,-0.903282
72,0.6,stand,0.05832233289331464,0.02232089283571597,0.0010800432017191667,-0.2170709393918614,-0.021721719379847574,0.08836395032633768,-0.0006000240009639748,0.0001200048001954596,-0.0015600624024968417,0.0004800192007685152,0.00024000960037759599,0.0002400096003842576,2.23275053871887,2.7362119811338546,-1.5407228233964139,0.028790208139016223,-0.11519366455143126,-0.3168097935207671,-0.12958790462253386,-0.07199366434603177,0.014402880069246806,0.14802099999999996,-0.083225,-0.905358,-0.1463969999999999,0.05599299999999996,-0.903289,0.29441799999999985,0.13921799999999995,0.0020689999999999875,0.9972070402728532,0.9783301649094867,double,-0.903289
73,0.608333,stand,0.07116284651386814,0.009840393615747768,0.0038401536061480703,-0.11452118267609213,-0.030536768117924697,0.0412352698788114,-0.0003600144005730508,-0.0004800192007685088,-0.0012000480019196066,0.0012000480019146104,0.0,0.0010800432017283122,1.5409232713972698,-1.4977198151887856,0.3312264975913707,0.028802304139076324,-0.07200576034608974,0.04320345620751633,0.08640691241402762,-0.028802304137476895,0.10080806448386548,0.14742499999999992,-0.08331100000000002,-0.9054,-0.14698,0.05591099999999993,-0.903312,0.2944049999999999,0.13922199999999996,0.0020879999999999788,0.997763842576205,0.976429167557294,double,-0.903312
74,0.616667,stand,0.071394288456912,0.010319174466046434,-0.03575713942884835,-0.05695304076644178,0.2085274964276162,0.03948049905259707,0.0007199424046283379,0.0002399808015427793,-0.00119990400767976,-0.00035997120230084735,-0.0011999040076739317,0.0002399808015361185,0.02777081150034216,0.057449106107351704,-4.75129506059475,0.1295844498681779,0.08639308883024864,1.7277926547477537e-05,-0.18718732951949443,-0.14397696276385152,-0.10079942406913828,0.1468360000000002,-0.083395,-0.905112,-0.14757799999999988,0.05581499999999995,-0.9030119999999999,0.29441400000000006,0.13920999999999994,0.002100000000000102,0.9976337573861493,0.9768741409061904,double,-0.9030119999999999
75,0.625,stand,0.02640105604225466,0.004080163206525663,0.011280451218053295,-0.03005236186784302,0.004211941124714958,0.19666866903028782,-0.0006000240009639668,-0.0004800192007685088,0.000600024000960636,0.002760110404415595,0.016320652826115976,0.009000360014400379,-5.399403865913493,-0.7487112995944732,5.6447366670948576,-0.15840230476326642,-0.08640345641561083,0.21600000103688807,0.37442476979676337,2.102550922091664,1.0512875570459888,0.14661100000000005,-0.08343299999999998,-0.905201,-0.147775,0.055916999999999994,-0.903031,0.29438600000000004,0.13934999999999997,0.0021700000000000053,0.9983751273241608,0.9468981069880604,double,-0.903031
76,0.633333,stand,0.04608184327372355,-0.007800312012478276,0.014520580823224076,0.09256221666519893,0.0028779571472198084,0.10747966791592221,0.0,-0.0009600384015370176,-0.0012000480019204393,-0.0032401296051841034,0.0002400096003775928,0.004560182407295837,2.36178893933383,-1.4257140548426603,0.3888311058647267,0.07200576034608955,-0.05760460827655187,-0.21601728103696963,-0.720057603456099,-1.9297543772636883,-0.5328426265576052,0.1462270000000001,-0.083376,-0.9053319999999999,-0.14818599999999993,0.05598399999999992,-0.903114,0.29441300000000004,0.13935999999999993,0.0022179999999999422,0.9974386478509394,0.9684879602005787,double,-0.903114
77,0.641667,stand,0.0475161987041115,0.012598992080622907,0.004439644828421523,-0.08951263791216822,-0.27612049285244655,0.14093630045854805,-0.0004799616030855586,-0.0002399808015427793,-0.0005999520038394636,-0.002879769618433422,-0.01559875209982772,-0.0014398848092150459,0.17210888293592044,2.4477206735182744,-1.2096155501323025,-0.05759078510745876,0.08639999999930914,0.07200575930897277,0.043239739230943534,-1.9004993640755223,-0.7199504699437146,0.14582699999999993,-0.08348299999999997,-0.905374,-0.14860600000000002,0.05574900000000005,-0.903163,0.29443299999999994,0.13923200000000002,0.002210999999999963,0.9986584665361604,0.9513440540660087,double,-0.903163
78,0.65,stand,0.07212288491540515,0.0,-0.017640705628226044,-0.13017097049614879,0.09082847834642514,-0.007814385211524662,0.0,-0.0007200288011461016,0.0006000240009598033,0.0016800672026831191,0.013680547221882515,0.0016800672026881154,2.952920462173713,-1.511939527255833,-2.6497480447194857,0.057597696278117914,-0.05760806427496943,0.1440028806911391,0.5472023066262477,3.5136564648638084,0.3744092177970897,0.14522599999999986,-0.08348899999999992,-0.905222,-0.14919300000000013,0.055862999999999996,-0.903002,0.294419,0.13935199999999992,0.0022199999999999998,0.9984378875803297,0.9546577692481882,double,-0.903002
79,0.658333,stand,0.05928237129485167,-0.017520700828030818,-0.012720508820358991,-0.009745946897959752,0.22293483758113403,0.043464890455411506,-0.00012000480018213638,-0.0008400336013415707,-0.0012000480019204553,-0.0010800432017191667,0.0004800192007685152,0.0019200768030723952,-1.5409232713972878,-2.102568202091801,0.5904472348334451,-0.014401152067939215,-0.014401152069539215,-0.2160172810368745,-0.33122649758818085,-1.5841267276027986,0.028802304138279375,0.14473099999999994,-0.08334999999999992,-0.905126,-0.14969600000000005,0.05601299999999998,-0.9028799999999999,0.294427,0.1393629999999999,0.0022460000000000813,0.9975504122737109,0.973782190842029,double,-0.9028799999999999
80,0.666667,stand,0.039116870650326846,-0.00851931845451544,-0.000599952003830297,-0.054282812755789146,0.08067801120639835,0.10621381576524813,0.0002399808015427761,0.0,0.0004799616030722306,0.0004799616030722306,0.00011999040077138805,-0.0002399808015361153,-2.4196665040226386,1.08007947846356,1.4543504699458365,0.043194816621659436,0.10079596848350904,0.201585025797057,0.1871856017268281,-0.04319999999965495,-0.2591861776588066,0.14440700000000017,-0.08327899999999999,-0.9051170000000001,-0.15001799999999987,0.05608499999999994,-0.902877,0.29442500000000005,0.13936399999999993,0.0022400000000000198,0.9991056443574456,0.9766835581763527,double,-0.902877
81,0.675,stand,0.015840633625347468,-0.0031201248050019685,0.023880955238203334,0.0778642010356979,-0.14842010366054548,0.1997259546449127,-0.000240009600390916,0.00012000480018213478,0.0012000480019196066,0.0007200288011461016,-0.000120004800195458,-0.0007200288011519304,-2.79326017340445,0.6479291551078183,2.9378263820993076,-0.057601152278133935,0.014401152067938832,0.08641382441466135,0.028809216137509894,-0.028800576139066968,-0.05760806427646863,0.1442730000000001,-0.08325199999999999,-0.9053059999999999,-0.15014399999999994,0.05610999999999999,-0.9030819999999999,0.29441700000000004,0.13936199999999999,0.0022240000000000038,0.9979505278679229,0.9760511308961788,double,-0.9030819999999999
82,0.683333,stand,0.05400216008641132,0.013440537621505102,0.00960038401535698,0.09983371440054524,-0.7278622370208333,0.15418829002012482,0.0002400096003909192,-0.0022800912036471162,-0.002280091203647949,0.0012000480019146262,-0.0006000240009506516,-0.0019200768030723952,4.579566357982023,1.9873589855402882,-1.7137370962254272,0.05760460827815188,-0.288023041381168,-0.41763341000451065,0.05760460827655455,-0.05760460827495475,-0.14401152069128473,0.1438250000000001,-0.08338299999999998,-0.9054049999999999,-0.15058400000000005,0.05599300000000007,-0.9031779999999999,0.29440900000000014,0.13937600000000006,0.002226999999999979,0.9946109070021577,0.973825999580803,double,-0.9031779999999999
83,0.691667,stand,0.05915526757860247,0.0058795296376381555,-0.010199184065274909,-0.07504588788346546,-0.03813600294019712,0.055239509496907375,-0.0002399808015427761,0.0017998560115175344,0.0019198464122872573,0.0007199424046150068,0.000599952003830297,0.0019198464122872573,0.6183234331882778,-0.9072483781937711,-2.3757581090270863,-0.057594240692787575,0.4895545014596375,0.503952197736402,-0.05760806303091143,0.14398560172557467,0.46075392552911243,0.14332999999999996,-0.08341700000000007,-0.905304,-0.15107100000000007,0.055948999999999915,-0.9030769999999999,0.294401,0.139366,0.00222700000000009,0.9955958092261532,0.97416938608616,double,-0.9030769999999999
84,0.7,stand,0.04920196807872618,-0.01260050402016353,-0.003120124804988687,-0.12253737198234212,0.09763587534959256,0.009565485525413354,-0.0003600144005730556,-0.002640105604220172,-0.003480139205568404,-0.0002400096003909192,0.0,0.0,-1.1944437177338754,-2.2176927466460885,0.8495210920780375,-0.01440460806795639,-0.5328167065567919,-0.6480241951104897,-0.11519884855465436,-0.07199712034445008,-0.2303907851058772,0.14291699999999996,-0.08333400000000002,-0.905307,-0.15148300000000015,0.05605399999999994,-0.9030509999999999,0.2944000000000001,0.13938799999999996,0.0022560000000000358,0.9926949148494983,0.9770399839993484,double,-0.9030509999999999
85,0.708333,stand,0.043801752070076465,-0.01056042241689387,-0.0009600384015370176,-0.05247970082144335,0.0037228757497677683,0.042235066064513584,0.0006000240009639668,0.002520100804038002,0.002040081603264497,-0.0003600144005730508,-0.0010800432017191524,0.0006000240009598033,-0.6480518431116872,0.2448195851757653,0.259220737243689,0.11520921655310433,0.6192495389725372,0.6624529951797525,-0.014401152067938445,-0.12961036862104258,0.07200576034558992,0.14255700000000004,-0.083225,-0.9052819999999999,-0.15185100000000007,0.05613299999999999,-0.903038,0.2944080000000001,0.13935799999999998,0.0022439999999999127,0.9945043275074776,0.9754151531471873,double,-0.903038
86,0.716667,stand,0.030717542596596117,-0.012119030477563832,0.0020398368130603107,0.11064705916605232,-0.05575858485775212,0.13434327046801461,-0.0007199424046283283,-0.0008399328053863948,-0.0022798176145914302,-0.00011999040077138805,-0.001679865610759468,0.0,-1.5699795384545534,-0.18701800583992678,0.35995622925333637,-0.15838329800723364,-0.4031717793885734,-0.5183464384276331,0.0288005759301249,-0.0719729312503373,-0.0719971203455482,0.14229499999999984,-0.08313100000000007,-0.9053180000000001,-0.15210800000000013,0.05621999999999994,-0.903055,0.29440299999999997,0.139351,0.002263000000000015,0.9957765954559583,0.9745630907831995,double,-0.903055
87,0.725,stand,0.02748109924394753,-0.008640345613833273,0.010800432017284929,0.05870600311488129,-0.10618116615961942,0.1384252142740861,0.0001200048002087828,-0.00012000480018213638,0.0003600144005763864,0.0001200048001954596,-0.0003600144005730556,0.0002400096003842576,-0.38838873786734857,0.41745888200295095,1.0513134770460457,0.1007976964883138,0.08639481641716848,0.3167925135206817,0.028800576139067547,0.15838848076160142,0.028802304138276707,0.14206700000000017,-0.08305999999999991,-0.905405,-0.15233599999999992,0.05628900000000003,-0.903143,0.2944030000000001,0.13934899999999995,0.0022619999999999862,0.9993366485078652,0.976631638588191,double,-0.903143
88,0.733333,stand,0.05124204968200834,-0.0244809792391673,-0.015240609624396823,0.02435993278448889,0.042072700414472884,-0.03105579898878348,-0.0006000240009639668,0.0003600144005730508,-0.0003600144005763816,0.0019200768030740352,0.0012000480019279335,0.0001200048001921272,2.8514281096916725,-1.9009520731230003,-3.125049999001757,-0.08640691241722628,0.057604608274953215,-0.0864069124148284,0.21601728103666964,0.1872149768991939,-0.014401152069138353,0.14163499999999996,-0.08285299999999995,-0.905281,-0.15274700000000008,0.05650300000000008,-0.9030149999999999,0.29438200000000003,0.13935600000000004,0.0022660000000001013,0.9986884598335299,0.9735609601128566,double,-0.9030149999999999
89,0.741667,stand,0.04763618910486957,-0.026157907367403612,-0.0005999520038303051,-0.05626591085720872,0.04838463364331341,-0.02200140837820627,0.0002399808015427793,0.00011999040077138965,-0.00011999040076805925,-0.0011999040076739317,-0.0023998080153611848,-0.0013198944084478192,-0.4326686557641937,-0.20121527816610524,1.7567383753979604,0.10079251289977811,-0.02880057593012509,0.028800575930924374,-0.37436774786992855,-0.4319481662213989,-0.17277408311014575,0.14124000000000003,-0.08263399999999999,-0.905277,-0.153154,0.056701,-0.9030210000000001,0.29439400000000004,0.139335,0.0022559999999999247,0.9995101412401324,0.9724564243682997,double,-0.9030210000000001
90,0.75,stand,0.037681507260281306,-0.01320052802112733,0.009600384015356853,-0.1630600808311225,0.05552832378761483,0.060839061843530454,0.0008400336013282363,-0.0007200288011594248,-0.00012000480019129449,0.0007200288011461016,-0.0003600144005730508,0.0007200288011519304,-1.1946096057348157,1.554947719461926,1.2240892858738888,0.07200921634290826,-0.10080633648515672,-1.7279999082251277e-06,0.2304011531045272,0.24478502517558207,0.24480057717505596,0.14093299999999997,-0.08252999999999999,-0.905358,-0.153462,0.05680800000000008,-0.903095,0.29439499999999996,0.13933800000000007,0.002263000000000015,0.9981452021089973,0.9755699279971284,double,-0.903095
91,0.758333,stand,0.03540141605663422,-0.01488059522381045,-0.004560182407294172,-0.0072032972093649455,0.020920413446287575,0.06307020166815637,-0.001440057602292203,0.000120004800195458,-0.0004800192007685088,0.0003600144005730508,0.0009600384015236944,0.0009600384015361848,-0.2736218893132214,-0.2016161289671321,-1.6993359441558822,-0.273621889310024,0.10080806448516492,-0.043203456207513834,-0.04320345620701419,0.15841267275851909,0.028802304138275937,0.14062600000000014,-0.08240499999999995,-0.905324,-0.15375399999999995,0.05693999999999999,-0.903049,0.2943800000000001,0.13934499999999994,0.002275000000000027,0.9974621829792474,0.9749089663765264,double,-0.903049
92,0.766667,stand,0.038156947444209534,-0.027237820974319475,-0.0013198944084453212,0.06285572700830142,0.0004265199522118358,0.058271703277131534,-0.0008399328053864059,-0.0008399328053730844,-0.0008399328053755821,0.00011999040077138965,0.00035997120231416894,-0.00011999040076805925,0.33063731552379727,-1.4827484701834768,0.38880345558541746,0.07200921489150475,-0.11518329800438538,-0.04318617765863635,-0.02880057593012509,-0.07200230372084579,-0.12959308882940368,0.140301,-0.08218499999999995,-0.90532,-0.15407099999999996,0.057170000000000054,-0.903039,0.29437199999999997,0.139355,0.0022809999999999775,0.997575322843568,0.9765267281036631,double,-0.903039
93,0.775,stand,0.008640345613833159,-0.01812072482899455,0.025201008040313402,0.03988109218241321,-0.1029330996956406,0.23348905694562125,0.0007200288011461016,-0.0012000480019279335,-0.0003600144005755489,-0.0018000720028785772,-0.0012000480019279335,0.0007200288011527632,-3.5421339050013505,1.0940953012510364,3.1826355992750046,0.1872028808991361,-0.043215552208670065,0.05759251227649481,-0.23041670510619933,-0.18720979290076756,0.10080633648395763,0.1402349999999999,-0.082044,-0.9055329999999999,-0.15415800000000002,0.057311,-0.903243,0.2943929999999999,0.139355,0.0022899999999999032,0.9975915847476258,0.9732998479939146,double,-0.903243
94,0.783333,stand,0.0325213008520236,-0.016080643225725274,-0.0019200768030740608,-0.007363284262399986,-0.005016112016614639,0.0806729032216048,0.0,0.0001200048001954596,0.00012000480019129609,-0.0004800192007685152,-0.0003600144005730556,-0.0003600144005763864,2.8658292617533494,0.24481958517572255,-3.2546603676212302,-0.08640691241402954,0.15841267276171908,0.05760460827635298,0.15841267276011928,0.10080806448516567,-0.12961036862224404,0.13996399999999998,-0.08190900000000001,-0.905516,-0.15443299999999993,0.05744199999999999,-0.90323,0.2943969999999999,0.139351,0.0022860000000000102,0.9997171459733611,0.9759737629715515,double,-0.90323
95,0.791667,stand,0.017518598512116436,-0.023638108951284046,0.0013198944084586253,0.018169599526174255,0.04551779850236291,0.0859543234257494,-0.0008399328053597516,-0.0011999040076739157,-0.00035997120230334037,0.0014398848092166917,0.00035997120230084253,-0.0005999520038394556,-1.8001802663675366,-0.9068233411997497,0.3887654441483875,-0.10078387393325476,-0.15837638683337715,-0.057592512898324066,0.23037005159409554,0.08639136103598424,-0.028790209174834103,0.13981100000000013,-0.08172199999999996,-0.9055300000000001,-0.1545669999999999,0.05764199999999997,-0.903246,0.29437800000000003,0.13936399999999993,0.0022840000000000638,0.9974862400828202,0.9744918806367229,double,-0.903246
96,0.8,stand,0.04848193927757942,-0.027481099243973812,-0.0007200288011594248,-0.14478885971115188,0.025775703530089775,-0.10389126620350875,-0.000480019200781832,-0.0012000480019279335,-0.0015600624024959882,-0.0015600624025009842,-0.016200648025920517,-0.004920196807872219,3.715749521836416,-0.4611772822140585,-0.2448005771772521,0.04319136020375832,-1.7280001682209202e-05,-0.14401670469130481,-0.3600080657287487,-1.9873538015386165,-0.518450114488509,0.13940299999999994,-0.08150299999999999,-0.905537,-0.154984,0.05773600000000001,-0.903281,0.29438699999999995,0.139239,0.0022560000000000358,0.9966234763358135,0.949101611833864,double,-0.903281
97,0.808333,stand,0.03564142565702561,-0.013080523220918723,-0.0032401296051841467,-0.20898437239849227,0.0569039133712753,-0.002773915534397542,0.0012000480019279496,0.0003600144005730556,0.0009600384015361976,0.0027601104044156313,0.014880595223810647,0.0034801392055675714,-1.5409232713973269,1.7281382482965584,-0.3024241934507074,0.20161612897033446,0.1872149768991964,0.30242419345160315,0.5184414744889781,3.7298983859032098,1.0080806448385777,0.13911600000000002,-0.0813910000000001,-0.905502,-0.155258,0.05796899999999994,-0.903225,0.294374,0.13936000000000004,0.0022770000000000845,0.9973693054846172,0.9513476973509789,double,-0.903225
98,0.816667,stand,0.018958483321346448,-0.017158627309815593,0.0013198944084453037,-0.0416643706427603,-0.020421740546012382,0.07082605169022671,-0.000479961603058909,-0.0010799136069025276,-0.0004799616030722306,-0.0032397408207342263,-0.014038876889852754,-0.002399808015358655,-2.001792936846537,-0.48933334400010065,0.5471591089068173,-0.20158502579635776,-0.17277753869397314,-0.17278617765879736,-0.7199245530537332,-3.4700590489156684,-0.7055372235332592,0.13895400000000002,-0.08125700000000002,-0.905517,-0.1554430000000001,0.05799499999999991,-0.903256,0.29439700000000013,0.13925199999999993,0.0022610000000000685,0.9978741409062009,0.9530461059774876,double,-0.903256
99,0.825,stand,0.043441737669503995,-0.02820112804513361,-0.00024000960037759599,-0.02065691368480495,0.06754332298540587,0.009668098307426843,0.0003600144005730556,-0.001560062402501005,0.0003600144005763864,0.0007200288011594343,-0.004440177607098773,-0.004440177607103769,2.9381080461007767,-1.3251530943619487,-0.18719596889750556,0.10080115248193595,-0.057620160278228943,0.10080115248393431,0.4751913622817349,1.1518899895300696,-0.24485414517522294,0.13859500000000002,-0.08103499999999997,-0.905512,-0.15579900000000002,0.05819300000000005,-0.9032910000000001,0.29439400000000004,0.13922800000000002,0.0022209999999999175,0.9972649317310269,0.9672558233671293,double,-0.9032910000000001
100,0.833333,stand,0.019680787231495536,-0.022440897635897808,0.008640345613819834,-0.03766376505301427,0.013807626945308864,0.08573234223840531,-0.000240009600390916,-0.0002400096003775928,-0.0008400336013440577,0.0015600624024876611,-0.0006000240009639668,-0.0033601344053762307,-2.8514281096853904,0.6912552993202663,1.0656852531138117,-0.07200576034609014,0.15841267276171928,-0.14401152069128034,0.10080806448196608,0.46083686621082326,0.12961036862204894,0.1384289999999999,-0.08084999999999998,-0.905591,-0.15595000000000014,0.058374999999999955,-0.9033909999999999,0.29437900000000006,0.13922499999999993,0.0022000000000000908,0.9984899727118541,0.9717451514976199,double,-0.9033909999999999
101,0.841667,stand,0.03587712982959262,-0.02699784017278966,-0.005759539236853446,-0.09585791833543342,0.007219187616418189,0.02978156222503639,0.0002399808015427761,-0.0011999040076872372,0.00035997120230334037,0.0002399808015427761,0.0007199424046150068,-0.0004799616030722306,1.9434056393204893,-0.5467893612781158,-1.727847954244441,0.05759424069278719,-0.11517811462798622,0.1439890573131016,-0.1583971203437575,0.15838329800563516,0.345593088829371,0.13813200000000014,-0.08063500000000001,-0.90554,-0.1562469999999999,0.05860600000000005,-0.903347,0.29437900000000006,0.13924100000000006,0.0021930000000000005,0.9978741409061663,0.9765734567687356,double,-0.903347
102,0.85,stand,0.018120724828994794,-0.022680907236289027,0.003600144005757202,-0.017409689365271257,-0.05761625049515171,0.10494138547316864,-0.0003600144005730556,-0.002640105604220172,-0.0012000480019196224,-0.0003600144005730556,-0.0004800192007685152,-0.00024000960038342487,-2.1308538342251273,0.5180526744870602,1.1232069173899835,-0.07200230434607431,-0.17283110482814687,-0.1872097928984732,-0.07200230434607431,-0.14400115269213165,0.028795392138342486,0.13797800000000016,-0.08046799999999998,-0.90558,-0.1564009999999999,0.05879100000000004,-0.903379,0.29437900000000006,0.13925900000000002,0.0022010000000000085,0.9951294869147291,0.9769129239555339,double,-0.903379
103,0.858333,stand,0.034921396855879035,-0.030481219248767,-0.007200288011527631,-0.0935231014390578,0.09345879709415336,-0.07117833498473865,0.0004800192007551856,-0.0004800192007685088,0.0007200288011519304,-0.0009600384015370176,-0.000120004800195458,0.00024000960038342167,2.0161612896776875,-0.9360748844927327,-1.2961036862216235,0.10080806448196779,0.2592207372436882,0.23041843310590962,-0.07200576034608898,0.04320345620701496,0.0576046082763524,0.137691,-0.08021800000000001,-0.9055139999999999,-0.15669999999999995,0.059043999999999985,-0.9033169999999999,0.29439099999999996,0.139262,0.0021970000000000045,0.9983506917774342,0.9763686087717653,double,-0.9033169999999999
104,0.866667,stand,0.025557955363573307,-0.027357811375090864,-0.005879529637624912,-0.04720136563730268,0.04531921008055188,0.0021102613287628086,0.0002399808015427793,-0.001439884809216711,-0.0013198944084469866,-0.0007199424046150163,-0.0007199424046016947,0.000479961603072237,-1.1235230972289154,0.3747789625241366,0.15847832660219907,-0.028802303721191223,-0.11517465904106164,-0.244771203455595,0.028809214893448842,-0.07198675358846174,0.028791936967700587,0.13748000000000005,-0.08000200000000002,-0.905476,-0.15691900000000003,0.05926600000000004,-0.903264,0.2943990000000001,0.13926800000000006,0.0022119999999999918,0.9967200185051455,0.9760039837773666,double,-0.903264
105,0.875,stand,0.022320892835715672,-0.02580103204127737,-0.007680307212282817,-0.11278635464345645,0.044164143600534785,0.014034649840324718,0.0007200288011461016,-0.0002400096003775928,0.0013200528021117337,-0.0009600384015370176,-0.0006000240009639668,0.0007200288011519304,-0.38846304186458913,0.18682099289733456,-0.21610195303706922,0.05760806427496943,0.14399078469208126,0.31680633752054593,-0.028812672137525534,0.01439078406789001,0.02880921613820862,0.13729999999999998,-0.079789,-0.905401,-0.15711300000000006,0.05947599999999997,-0.903194,0.29441300000000004,0.13926499999999997,0.002206999999999959,0.9974621829792362,0.9756938425761992,double,-0.903194
106,0.883333,stand,0.019320772830922487,-0.031681267250694936,0.0004800192007685088,0.04086574022164976,0.025895972388125976,0.07488859626940043,0.0004800192007551856,-0.0008400336013548828,0.0006000240009598033,0.000360014400586374,0.0,0.0006000240009598033,-0.3600288017272498,-0.7056564513881607,0.979278340699783,-0.02880230413907536,-0.07200576034768841,-0.08640691241472788,0.15841267276171678,0.07200576034608955,-0.014401152069137961,0.1371429999999998,-0.07953200000000005,-0.9054000000000001,-0.15727100000000005,0.059740000000000015,-0.903193,0.29441399999999984,0.13927200000000006,0.00220700000000007,0.9981025575061951,0.9767637629715412,double,-0.903193
107,0.891667,stand,0.01559875209982772,-0.022798176145911276,0.001079913606902542,-0.08032080295867772,0.025582387202734546,0.07222741469748963,0.0003599712023274906,-0.0027597792176620325,-0.0005999520038394636,0.00011999040075806804,-0.0010799136069158635,0.0002399808015361185,-0.4466067591906394,1.0658856617211077,0.07198157021046755,-0.014404607442728062,-0.23035104587318941,-0.14398560172777464,-0.02880057593332221,-0.12957926648858528,-0.043201727792619014,0.13701600000000003,-0.07936500000000002,-0.9054139999999999,-0.1574000000000001,0.059921,-0.9032,0.2944160000000001,0.13928600000000002,0.0022139999999999382,0.9952548554044818,0.9760054246669221,double,-0.9032
108,0.9,stand,0.025201008040326725,-0.02100084003359228,-0.0008400336013415596,-0.10355668798647802,0.031244055680786652,0.027037110504647504,0.0007200288011461016,0.0007200288011594248,0.0007200288011519304,-0.0004800192007685088,-0.0007200288011461016,0.0001200048001921272,1.1523168055320971,0.2156889610367199,-0.2304028811045354,0.04320864020384129,0.41759366600521336,0.15840403276027704,-0.07200403234448269,0.0431879042085396,-0.014397696069121661,0.13681199999999993,-0.07918400000000003,-0.905401,-0.15761400000000014,0.06008999999999998,-0.903192,0.2944260000000001,0.139274,0.0022090000000000165,0.9979214558891516,0.9764539197789427,double,-0.903192
109,0.908333,stand,0.0012000480019013031,-0.03288131525260998,0.019800792031677936,0.16041060993624962,-0.059823652586610175,0.16043345166005057,0.0006000240009639748,-0.00108004320173249,-0.00048001920076768247,-0.00012000480018213638,-0.0001200048001954596,-0.0004800192007685152,-2.88023041382763,-1.425714054844331,2.4769981558885976,-0.014401152067938062,-0.21601728103827328,-0.1440115206911825,0.04320345620861343,0.07200576034449147,-0.07200576034569157,0.13680700000000012,-0.07891900000000007,-0.90557,-0.1576249999999999,0.060362999999999944,-0.903361,0.294432,0.13928200000000002,0.0022090000000000165,0.9977908394301309,0.9770614379200948,double,-0.903361
110,0.916667,stand,0.01883849292056174,-0.020038396928248974,0.0017998560115175344,-0.0920539640677113,0.030207538996154457,0.049431777580513654,-0.0008399328053863948,-0.0015598752099747583,-0.0009599232061436286,0.0004799616030722306,-0.0011999040076739157,0.0003599712023041729,2.116444074713259,1.5410269167699677,-2.159939527257051,-0.17278099428250043,-0.057575234970274135,-0.05758387393519829,0.0719902091737896,-0.1295775386943182,0.10079078510591334,0.13664300000000007,-0.07876499999999997,-0.905593,-0.15777799999999986,0.06052000000000002,-0.903373,0.29442099999999993,0.139285,0.0022199999999999998,0.9966416975394508,0.9755641108936364,double,-0.903373
111,0.925,stand,0.014040561622482213,-0.021720868834751706,-0.0015600624024876611,-0.04740482124715967,0.027293007871564683,0.04687705236109953,0.0008400336013548828,0.0008400336013415596,0.0009600384015361848,0.00012000480018213478,-0.000360014400586374,-0.0002400096003842544,-0.5757747867610112,-0.20190470496852572,-0.4032063379341391,0.20160403297027127,0.2880005773810522,0.2304046091059409,-0.04319654420857966,0.10079078448188385,-0.0720005763456648,0.13653300000000002,-0.07857700000000001,-0.905572,-0.1578940000000001,0.06069799999999992,-0.903362,0.2944270000000001,0.13927499999999993,0.0022100000000000453,0.997454313760271,0.9771516385881791,double,-0.903362
112,0.933333,stand,0.01260050402016353,-0.02436097443898549,0.002400096003842576,-0.010896395092629447,0.0060198397124321896,0.06794760003610027,0.00024000960036427277,-0.001560062402501005,0.00012000480019129609,-0.0007200288011461112,-0.0008400336013415707,0.0,-0.17281382483123675,-0.31682534552187797,0.475238018280364,-0.07200576034928784,-0.2880230413827657,-0.10080806448396692,-0.10080806448196972,-0.05760460827495514,0.028802304138276322,0.13642999999999983,-0.07838699999999998,-0.905591,-0.15800500000000006,0.060894000000000004,-0.903382,0.2944349999999999,0.139281,0.0022090000000000165,0.9973617132768735,0.9760660173492449,double,-0.903382
113,0.941667,stand,0.007919366450671823,-0.01367890568753859,0.0027597792176619956,-0.0445144421922805,0.06873036827019946,0.0820759572032324,0.0,-0.0002399808015294545,0.0002399808015361153,-0.00011999040077138805,-0.0005999520038436186,-0.0002399808015361153,-0.5616915730131595,1.2817457105167769,0.043158532975691964,-0.028798848135861643,0.1583971203469571,0.014395968483899483,0.07199884813711527,0.02880748710078597,-0.028795392552929382,0.13636399999999993,-0.07827499999999998,-0.9056120000000001,-0.158072,0.06100299999999992,-0.9034070000000001,0.2944359999999999,0.1392779999999999,0.0022050000000000125,0.9994343598262719,0.9768546425135813,double,-0.9034070000000001
114,0.95,stand,0.04224168966760269,-0.027121084843401123,-0.01092043681748039,-0.032020071303285574,0.1081804727265342,-0.07271272606553288,-0.00048001920075519197,-0.0006000240009639748,0.0001200048001921288,0.0008400336013415707,-0.0008400336013415707,0.0010800432017283265,4.118843539773332,-1.6131260237444685,-1.6416915918807764,-0.05760460827495456,-0.043206912208631175,-0.014397696069121276,0.11520748855309823,-0.028810944137520018,0.15840921676040487,0.1360079999999999,-0.07805399999999996,-0.90552,-0.15841700000000014,0.061222,-0.903307,0.29442500000000005,0.13927599999999996,0.0022130000000000205,0.9987038000123271,0.9751940753309654,double,-0.903307
115,0.958333,stand,0.02628105124204588,-0.012120484819394855,-0.00204008160325617,-0.24181591203967848,0.06675153660434906,-0.002616897190917406,0.0003600144005730508,-0.0008400336013415596,-0.0016800672026881154,0.000120004800195458,-0.0009600384015370176,-0.0007200288011519304,-1.9153532251958167,1.8001440086410903,1.0656852531170267,0.10080806448196798,-0.028802304137475553,-0.21601728103686987,-0.08640691241402973,-0.014401152069536342,-0.2160172810368714,0.1357919999999999,-0.07795999999999992,-0.905517,-0.15863500000000008,0.06131500000000001,-0.903296,0.294427,0.13927499999999993,0.0022210000000000285,0.9968123970057812,0.9757799444735531,double,-0.903296
116,0.966667,stand,0.009719222462202678,-0.015478761699056124,0.009239260859130448,-0.10637839828933217,0.05518343431698449,0.0761951406453082,-0.00011999040075806644,-0.0008399328053730732,-0.00011999040076805765,-0.00011999040077138805,-0.0014398848092166917,0.0,-1.9872604727433496,-0.4029609886802548,1.353412822460587,-0.057595968482255046,1.2094548654473507e-05,0.1871942406911502,-0.028797120346393593,-0.05757696276453929,0.08639654441467783,0.13571,-0.07783799999999996,-0.905595,-0.1587170000000001,0.06143199999999993,-0.903373,0.2944270000000001,0.1392699999999999,0.0022220000000000573,0.9985718285680123,0.97537187373434,double,-0.903373
117,0.975,stand,0.01992079683186007,-0.018960758430336365,-0.0016800672026964648,-0.06224666961935892,0.09726040788471593,0.04319089569620888,0.0003600144005730556,-0.001320052802123409,-0.0001200048001921288,-0.0004800192007685152,-0.0006000240009506516,-0.0002400096003842576,1.2242378938746534,-0.41785632200651296,-1.3103717822905332,0.057602880274946165,-0.057616704278211965,-1.7280000085379219e-06,-0.043205184207023926,0.10078732848506514,-0.028802304138276707,0.13554700000000008,-0.07769100000000007,-0.905582,-0.158887,0.061585,-0.903361,0.2944340000000001,0.13927600000000007,0.0022210000000000285,0.9977108038036834,0.976448305545733,double,-0.903361
118,0.983333,stand,0.011280451218053295,-0.01392055682227343,0.004680187207489629,-0.14251241193550984,0.06205894292640477,0.05104265104625514,0.0015600624025009842,0.0012000480019279335,0.0010800432017283122,0.0012000480019279335,-0.0015600624025009842,-0.0018000720028802425,-1.036882948974768,0.6048483869030258,0.7632610596647147,0.14401152069217854,0.30242419345389804,0.14401152069127998,0.20161612896873177,-0.11520921655470162,-0.18721497689859337,0.1354660000000001,-0.077565,-0.905612,-0.15897099999999997,0.061687999999999965,-0.903415,0.29443700000000006,0.13925299999999996,0.0021970000000000045,0.9962581929409309,0.9735846000298118,double,-0.903415
119,0.991667,stand,0.014278857691382398,-0.030717542596596526,0.010199184065275046,-0.0015252866448584499,0.12368952092600177,0.05860835913866861,-0.0005999520038436266,-0.0011999040076872533,-0.0013198944084469866,-0.0002399808015427793,0.0007199424046150163,0.0008399328053755821,0.3597799943999425,-2.0154770547544025,0.6622266448026696,-0.25918099428181224,-0.28797120345754745,-0.2879694756629845,-0.17278963324582686,0.2735786905586769,0.316775234971903,0.13534200000000007,-0.07731900000000003,-0.905708,-0.159092,0.06195000000000006,-0.903493,0.2944340000000001,0.1392690000000001,0.002214999999999967,0.9968633735018382,0.975963354705202,double,-0.903493
120,1.0,stand,0.013440537621518246,-0.014160566422651025,-0.006840273610941258,-0.05035177404823913,-0.017176125135599907,0.05531919605947641,0.0004800192007551856,-0.0002400096003775928,-0.0003600144005763816,0.0006000240009639668,-0.0008400336013548828,0.0010800432017283122,-0.10060243248099714,1.9869166175381534,-2.0448167138145004,0.12960172862100175,0.11519193655462096,0.11519020855281423,0.10080460848514851,-0.18720460890074314,0.028814400138333016,0.13523399999999985,-0.07720300000000002,-0.905654,-0.1591990000000001,0.06206099999999992,-0.903427,0.29443299999999994,0.13926399999999994,0.002226999999999979,0.9989229239555508,0.9752399204772082,double,-0.903427
121,1.008333,stand,0.009120364814588465,-0.01680067202688471,0.0008400336013415707,0.0071322018015062775,-0.01259297320178212,0.08984282268506041,0.0,-0.0002400096003909192,0.0002400096003842576,0.0001200048001954596,-0.0009600384015370304,-0.0006000240009598112,-0.518441474490558,-0.31682534552186586,0.9216737324232448,-0.05760460827495379,-1.5992339845190298e-12,0.0720057603456912,-0.05760460827655245,-0.01440115206794056,-0.20161612896773537,0.1351579999999999,-0.07706500000000005,-0.905659,-0.15927400000000003,0.06219299999999994,-0.903439,0.2944319999999999,0.139258,0.0022199999999999998,0.9994342919467203,0.9759025575061975,double,-0.903439
122,1.016667,stand,0.01727861771057366,-0.0077993760499137565,-0.012718982481394128,-0.016554696956215274,-0.02616777102428162,0.05219573620473869,-0.00011999040075806644,-0.0002399808015294545,-0.00011999040076805765,0.00011999040075806644,-0.0019198464122756008,-0.0020398368130553146,0.9789120345554513,1.0800691117075694,-1.6269517737863686,-0.014397696275265843,3.4555869288094277e-06,-0.04319654441472432,-1.727794263637927e-06,-0.11516774786879808,-0.17276371635415075,0.13501300000000005,-0.07700200000000001,-0.9055540000000001,-0.15941700000000003,0.06224200000000002,-0.9033500000000001,0.2944300000000001,0.13924400000000003,0.0022039999999999837,0.9995101412401595,0.9732870452581734,double,-0.9033500000000001
123,1.025,stand,0.01092043681748039,-0.013800552022078158,-0.003960158406343581,-0.008571022692889492,0.0007617025865106722,0.045238706278013616,0.0003600144005730556,0.0006000240009639748,0.0012000480019196224,-0.00012000480018213638,0.001320052802110086,0.001320052802112584,-0.7630122276603057,-0.720169923456673,1.0511009330433971,0.057602880274946165,0.10080460848355177,0.15841094476031348,-0.02880057613587004,0.3888034578646006,0.40320288193542897,0.13492499999999996,-0.076882,-0.905511,-0.159509,0.06236799999999998,-0.9033059999999999,0.294434,0.13924999999999998,0.0022050000000000125,0.9976847400090414,0.9748321838337322,double,-0.9033059999999999
124,1.033333,stand,0.003960158406330152,-0.017280691227652762,0.009840393615747638,-0.06428785933668693,-0.04337227336721958,0.03315185063800121,-0.000360014400573046,-0.0015600624025009636,-0.002280091203647888,0.0009600384015370048,-0.002040081603269466,-0.000960038401536172,-0.8352668200108143,-0.41763341000534543,1.6561324879504353,-0.08640691241402725,-0.2592207372452779,-0.41763341000449417,0.1296103686210395,-0.4032322579358566,-0.27362188931341846,0.13488900000000004,-0.07675100000000001,-0.905612,-0.15953399999999995,0.06249499999999997,-0.903396,0.294423,0.13924599999999998,0.0022159999999999958,0.9953565395550811,0.9737557210575017,double,-0.903396
125,1.041667,stand,0.010679145668347424,-0.011639068874491912,-0.00995920326374572,0.03250683363000276,-0.009828580650836869,0.04052566357047619,0.0002399808015427825,0.0004799616030722434,0.0003599712023041825,0.0009599232061444868,-0.001319894408445339,-0.0003599712023041825,0.806213974324142,0.6769405271371439,-2.375761564614079,0.07199366476071993,0.24478329800494908,0.3167821461425631,-1.3822341314854671e-05,0.0864155501348861,0.07200230372354223,0.1348020000000001,-0.07665,-0.9055259999999999,-0.15961499999999995,0.062581,-0.903316,0.29441700000000004,0.139231,0.0022099999999999342,0.9989230531943123,0.9751145451809503,double,-0.903316
126,1.05,stand,0.0006000240009639587,-0.011160446417857689,0.0006000240009639587,0.010750656305192565,-0.012793944284606566,0.09825107551149379,-0.0006000240009639587,0.000360014400573046,0.0008400336013440465,-0.0008400336013548716,0.0002400096003909128,0.0015600624024959674,-1.2095429818052668,0.057436992275796815,1.2671579580834627,-0.1008046084851466,-0.014394240069506216,0.05760979227647373,-0.21600345703820076,0.1871959688991029,0.23041324910597819,0.13479200000000002,-0.07655400000000001,-0.905524,-0.15962700000000007,0.06267600000000006,-0.903308,0.2944190000000001,0.13923000000000008,0.0022159999999999958,0.9981778403977851,0.9748599479127564,double,-0.903308
127,1.058333,stand,0.012360494419772612,-0.01680067202688471,-0.00024000960037759599,0.021744376012641266,0.07240230689608555,0.03893822185048898,-0.0002400096003909192,-0.0004800192007685152,-0.0010800432017283265,0.00108004320173249,-0.0006000240009639748,-0.0018000720028794339,1.4113129027731621,-0.6768541472491386,-0.10080806448356683,0.04320345620701342,-0.1008080644835676,-0.23041843310601112,0.2304184331078098,-0.10080806448516684,-0.40323225793536926,0.134687,-0.07641799999999999,-0.9055310000000001,-0.159721,0.06281100000000006,-0.903321,0.294408,0.13922900000000005,0.0022100000000000453,0.9979899444735518,0.9742611733671982,double,-0.903321
128,1.066667,stand,0.005999520038409543,-0.008279337652985986,-0.0137988960883233,0.1264073195849023,-0.11310713967217005,0.079314184628587,-0.0002399808015427761,-0.0009599232061444612,-0.0005999520038394556,0.0004799616030722306,0.0005999520038436186,-0.0003599712023041729,-0.7632558652943389,1.0224783266017108,-1.6269362236555795,3.4555853303462535e-06,-0.05758387393519827,0.057606335239844875,-0.07200403151670924,0.14398560172877178,0.1727982722072534,0.13463499999999984,-0.07635700000000001,-0.9054209999999999,-0.1597670000000001,0.06288500000000008,-0.9032089999999999,0.29440199999999994,0.1392420000000001,0.0022119999999999918,0.9980714241338672,0.9764658995656563,double,-0.9032089999999999
129,1.075,stand,0.004320172806903313,-0.016080643225725274,0.010800432017284929,-0.05351154280727414,0.08502780047342474,0.023484791982718,0.0010800432017458131,0.0007200288011594343,-0.0007200288011519401,-0.0003600144005730556,-0.00036001440058637876,0.0001200048001921288,-0.20152972896990828,-0.9361941164933828,2.952037454171181,0.1584092167633027,0.20160230496866804,-0.014409792069181035,-0.1008011524835346,-0.11520057655466293,0.0575994242765278,0.13460800000000006,-0.07621699999999998,-0.905517,-0.159806,0.06301599999999996,-0.9032979999999999,0.29441400000000006,0.13923299999999994,0.002219000000000082,0.9975260376661086,0.9769381853386969,double,-0.9032979999999999
130,1.083333,stand,0.012000480019199237,0.006240249609977207,-0.010800432017284641,-0.08939696083482655,-0.0664825744301338,0.04848160526250836,-0.0012000480019279175,-0.0001200048001954564,0.0008400336013440465,0.0001200048001954564,0.0007200288011594152,0.0004800192007676697,0.9216737324247917,2.678614284855645,-2.592207372443201,-0.2736218893164155,-0.10080806448516452,0.18721497689859107,0.05760460827655149,0.129610368624238,0.04320345620731244,0.134498,-0.07626999999999995,-0.9054199999999999,-0.15990499999999996,0.06297000000000008,-0.9032039999999999,0.29440299999999997,0.13924000000000003,0.0022159999999999958,0.9975504122736967,0.9763839197789246,double,-0.9032039999999999
131,1.091667,stand,0.008279337652972885,0.0043196544276501905,-0.002879769618420139,-0.0837574060256039,-0.06266940075835771,0.09991595147691239,0.0005999520038436347,-0.0004799616030722434,-0.0005999520038403042,0.00011999040075806964,-0.0011999040076872693,0.00011999040076806085,-0.4465013638380636,-0.23045298564039518,0.9504034555873113,0.21598272207482436,-0.04319136103633236,-0.1727844498661361,-1.7277942628704193e-06,-0.23037350718103206,-0.043199999999953886,0.13443400000000016,-0.07630999999999999,-0.905401,-0.15997299999999992,0.06292399999999998,-0.9031790000000001,0.2944070000000001,0.13923399999999997,0.0022219999999999462,0.9983753222932843,0.9757602605914688,double,-0.9031790000000001
132,1.1,stand,0.008640345613833042,-0.01320052802111383,-0.006240249609990531,0.038104141304297214,0.038797337301447486,0.031100019828271402,-0.0004800192007818256,0.0004800192007685024,0.0,0.00036001440058636917,0.0002400096003909128,0.0001200048001921256,0.043322688210746516,-2.1025059940914095,-0.4032737299376375,-0.12960172862419794,0.1152023045530696,0.07199712034564908,0.028804032140681068,0.17279654483117207,1.72800000777023e-06,0.13435799999999998,-0.07619600000000004,-0.905349,-0.1600419999999999,0.06303599999999998,-0.903126,0.2943999999999999,0.13923200000000002,0.002222999999999975,0.9988685838934405,0.9770216385881687,double,-0.903126
133,1.108333,stand,0.004680187207503015,-0.0062402496099906975,-0.0003600144005730556,-0.0241636598645462,0.011995600591259028,0.05132658067139389,-0.00024000960036427277,0.0,0.0007200288011527728,-0.0001200048001954596,0.002040081603256197,0.0019200768030723952,-0.4752380182803388,0.8352668200075839,0.705656451388159,0.028802304142272295,-0.05760460827655187,0.08640691241483012,-0.0576046082781511,0.2160172810350775,0.2160172810368758,0.13431700000000002,-0.07614399999999999,-0.90534,-0.16008200000000006,0.06310499999999997,-0.903107,0.2943990000000001,0.13924899999999996,0.0022330000000000405,0.9987350383374753,0.9729964844811692,double,-0.903107
134,1.116667,stand,0.009839212862960744,-0.006239500839925676,-0.0019198464122889224,-0.011220571203656033,0.015552701890801544,0.04559494510027459,0.00011999040075806644,0.0009599232061444612,0.0007199424046075133,-0.0002399808015427761,-0.0014398848092033701,-0.001679865610751142,0.6190335559704452,8.984522018494844e-05,-0.18716486821644526,0.04319654441112749,0.11518157021171753,-1.0366756090648372e-05,-0.014395968484199134,-0.4175625644899857,-0.4319585329761831,0.13423600000000002,-0.07608400000000004,-0.905318,-0.16016600000000003,0.063145,-0.903105,0.29440200000000005,0.13922900000000005,0.0022129999999999095,0.9979901856609235,0.9741608493338666,double,-0.903105
135,1.125,stand,0.013680547221882697,-0.004440177607112096,-0.005640225609026723,-0.048353635271019164,0.04895573065451899,0.0016498925088680682,-0.0007200288011461112,-0.0009600384015370304,-0.0003600144005763864,0.0001200048001954596,0.0014400576022922224,0.002040081603263691,0.4609785622131271,0.215927425034633,-0.44646336214302584,-0.10080633648196152,-0.23040460910614532,-0.129600000622094,0.043200000208597024,0.34560691365602053,0.44641152214266977,0.13411600000000012,-0.07605499999999998,-0.905274,-0.16027899999999995,0.06319399999999997,-0.903041,0.2943950000000001,0.13924899999999996,0.0022330000000000405,0.9979118551724291,0.9735033000008119,double,-0.903041
136,1.133333,stand,0.002880115204611091,-0.006240249609977374,-0.002520100804024712,0.03753757775617612,-0.017832458561502174,0.05852959972884627,-0.0007200288011727575,-0.0001200048001954596,-0.00036001440057555366,0.0,-0.0007200288011461112,-0.0018000720028802666,-1.2961036862200535,-0.21601728103507675,0.3744299537983966,-3.1976873122475984e-12,0.10080806448356876,9.9930574652286e-14,-0.014401152069538065,-0.25922073724209205,-0.4608368662119276,0.13408599999999993,-0.07600400000000007,-0.9052560000000001,-0.16030299999999997,0.06323999999999996,-0.903035,0.2943889999999999,0.13924400000000003,0.0022210000000000285,0.9986434797425336,0.9745587718665975,double,-0.903035
137,1.141667,stand,0.010799136069105207,-0.01331893448525107,0.003839692824564523,0.05595784075723895,0.13561527551107355,0.017256944219077155,0.00035997120232748577,-0.00035997120230084253,0.0,-0.00011999040077138805,0.0009599232061444612,0.0010799136069116863,0.950206487220309,-0.8493742350940294,0.7631141862957987,0.12958963324936826,-0.028793664759464977,0.04319827220728953,-0.014397696276864307,0.2015781146256971,0.3455706275248297,0.1339990000000002,-0.07589599999999996,-0.905288,-0.16039399999999993,0.06335900000000005,-0.9030579999999999,0.2943930000000001,0.13925500000000002,0.0022300000000000653,0.9991515397393727,0.9752835841185499,double,-0.9030579999999999
138,1.15,stand,0.022200888035533835,0.00036001440058637876,-0.015000600023992783,-0.04637001179677444,0.08845561891045525,-0.023013652425569492,0.00012000480018213638,0.0002400096003909192,0.00036001440057555366,0.0012000480019279496,-0.0007200288011594343,-0.0009600384015361976,1.3682649665701108,1.641539527881624,-2.2609255788500513,-0.02879712014224788,0.07200057634606591,0.043203456207315125,0.1584109447617124,-0.20160230496866804,-0.24480403317507535,0.13381500000000002,-0.07589699999999999,-0.9051600000000001,-0.16056899999999996,0.0633499999999999,-0.902941,0.294384,0.1392469999999999,0.002219000000000082,0.9992516385881876,0.9749814597336286,double,-0.902941
139,1.158333,stand,0.008280331213259997,-0.00840033601344213,0.0030001200047931474,0.07754175102071319,-0.037630197886969675,0.033104567911305685,-0.0013200528021100508,-0.0015600624025009636,-0.0007200288011519209,0.0002400096003775896,-0.00012000480018213318,0.0001200048001921256,-1.670533640018432,-1.0512841010474447,2.1601728103666886,-0.17281382482805258,-0.2160172810382637,-0.12961036862203956,-0.11520921655470337,0.07200576034768878,0.1296103686221414,0.13373499999999994,-0.07584000000000002,-0.905191,-0.1606360000000001,0.063419,-0.902965,0.29437100000000005,0.13925900000000002,0.0022259999999999502,0.996388761533404,0.977250082454757,double,-0.902965
140,1.166667,stand,0.01307895368369532,-0.0026397888169039994,0.00143988480921673,-0.03377183130542065,0.061084350573168626,0.005122517059300384,0.0005999520038436347,0.001079913606915878,0.0,-0.00011999040077139125,0.0002399808015294609,0.00011999040076806085,0.5757886333615808,0.6912103667552484,-0.18721324640946088,0.23038214614275523,0.31677177938767603,0.08639654441467898,-0.043196544414325376,0.043194816620062505,-1.7277926643568339e-06,0.13363100000000006,-0.0758089999999999,-0.905203,-0.16074600000000006,0.06344300000000003,-0.902976,0.2943770000000001,0.13925199999999993,0.002226999999999979,0.9979410386886979,0.9772401412401505,double,-0.902976
141,1.175,stand,-0.0030001200047931474,0.0019200768030740096,0.0,0.04263693579820536,-0.03425445510952128,0.08013351720103444,-0.0002400096003909128,0.00012000480018213318,-0.0001200048001921256,0.0,-0.0006000240009639587,-0.0004800192007676697,-1.9295660252595925,0.5472057626278566,-0.17279308882955777,-0.10079942448512333,-0.11519366455462955,-0.014401152069137585,0.014399424069529479,-0.10080460848354794,-0.07200403234558023,0.13365399999999994,-0.075824,-0.905204,-0.1607210000000001,0.06342199999999998,-0.90298,0.29437500000000005,0.13924599999999998,0.0022240000000000038,0.9995100824547388,0.9764793239254657,double,-0.90298
142,1.183333,stand,0.0034801392055484196,-0.0010800432017191667,0.002400096003842576,0.0053193314546047124,0.04179464195046366,0.04693277346214007,0.0,0.0002400096003909192,-0.0001200048001921288,0.0001200048001954596,0.0004800192007685152,0.002280091203647949,0.7776622117294644,-0.36002880172725354,0.2880230413827671,0.028802304139075363,0.0144011520711373,-3.8382292197675113e-16,0.014401152069538065,0.12961036862264297,0.33122649758978084,0.1336250000000001,-0.07581300000000002,-0.905225,-0.16074899999999992,0.06343499999999991,-0.902981,0.294374,0.13924799999999993,0.0022439999999999127,0.9995527685152303,0.9736714000369566,double,-0.902981
143,1.191667,stand,0.0032397408207342263,0.00959923206143129,0.010919126469876594,-0.12010265654439387,-0.055635867886531944,0.08377862452158226,-0.00155987520998808,-0.00035997120230084253,0.0007199424046075133,0.0010799136069158492,-0.000599952003830297,-0.0017998560115191995,-0.028845498537819945,1.281410518736546,1.0222018797736925,-0.1871700515944406,-0.07199193696805342,0.10078560172781806,0.11517984241905235,-0.12958617765764385,-0.4895545014599373,0.13358500000000006,-0.07589599999999996,-0.90531,-0.16076699999999988,0.06335000000000002,-0.903087,0.29435199999999995,0.13924599999999998,0.002222999999999975,0.9970744862734264,0.9741316099914692,double,-0.903087
144,1.2,stand,0.018960758430349688,-0.005400216008635803,-0.0055202208088312625,0.050378641969098754,-0.03130307582308729,-0.017629263608083034,0.0002400096003909192,-0.0006000240009639748,-0.0012000480019196224,-0.0007200288011594343,-0.0006000240009639748,-0.0001200048001921288,1.886597577056955,-1.8000057686388131,-1.9728005854683794,0.2159948170381634,-0.028807488139101698,-0.23040806510586262,-0.21600172903819753,-8.640001641395025e-06,0.201590208967609,0.13342900000000002,-0.07585600000000003,-0.9052739999999999,-0.16093100000000005,0.06338999999999995,-0.903042,0.29436000000000007,0.13924599999999998,0.0022319999999999007,0.9977283457955075,0.9761051354306013,double,-0.903042
145,1.208333,stand,0.009480379215161268,0.004560182407294111,-0.009240369614783679,-0.03686659581693645,-0.0030034549566526213,0.01846511871863124,-0.0004800192007818256,0.0013200528021100508,0.0006000240009597953,0.0004800192007685024,-0.000360014400573046,-0.000960038401536172,-1.137691013463129,1.1952956217364383,-0.4464357141428479,-0.08640691241722456,0.2304184331062033,0.21601728103676784,0.14401152069217757,0.02880230413907651,-0.10080806448386279,0.13334599999999996,-0.07588300000000003,-0.905192,-0.16100599999999998,0.06334899999999999,-0.902973,0.29435199999999995,0.13923200000000002,0.002218999999999971,0.9974543137602747,0.9759231282987217,double,-0.902973
146,1.216667,stand,0.01823854091674525,0.004319654427636869,-0.005159587233023286,-0.08691730802865752,-0.007773944365013673,-0.016019428099962874,0.00011999040078471287,-0.00011999040077139125,-0.0002399808015361217,0.0002399808015427825,0.0002399808015294609,0.0004799616030722434,1.0508953325634929,-0.028861048674975638,0.48965471343418177,0.07199539255658145,-0.17279136103689338,-0.10079251289848008,-0.02880230372278911,0.07199366475912147,0.17278617765880044,0.13319499999999995,-0.07591999999999999,-0.9051509999999999,-0.16115600000000008,0.06331500000000001,-0.9029259999999999,0.29435100000000003,0.139235,0.0022250000000000325,0.99951014124013,0.9767702824802873,double,-0.9029259999999999
147,1.225,stand,-0.008760350414015176,0.0028801152046110143,0.0019200768030740096,0.03670660763515443,0.032366489245520394,0.1109661887047172,-0.0008400336013548716,0.000360014400573046,-0.00012000480019129289,-0.0001200048001954564,-0.00012000480018213318,-0.0008400336013440465,-3.2399965595535765,-0.17275161682777262,0.8495936680783838,-0.11520748855629037,0.05760288027654252,0.014397696069221973,-0.043200000208596254,-0.04320000020539875,-0.15840576076038243,0.13326099999999985,-0.07594100000000004,-0.905168,-0.16108400000000012,0.06329000000000007,-0.902949,0.29434499999999997,0.1392310000000001,0.002218999999999971,0.9984637093987878,0.9763816571805801,double,-0.902949
148,1.233333,stand,-0.008520340813651137,0.003120124804988687,0.009240369614783925,0.04539790327791611,0.06560002573159675,0.1050024513379919,0.0,0.0004800192007685152,0.00024000960038342487,0.0006000240009639748,0.0012000480019146262,0.00048001920076768247,0.028802304135850387,0.02880230413748649,0.8784702762162465,0.10080806448516492,0.014401152069539215,0.043203456207214816,0.08640691241562916,0.15841267275852292,0.15841267276031934,0.133332,-0.075963,-0.905243,-0.16100799999999993,0.06327400000000005,-0.903022,0.29433999999999994,0.13923700000000006,0.0022210000000000285,0.999105537030481,0.9754150365840608,double,-0.903022
149,1.241667,stand,0.004319654427663397,0.0027597792176619956,-0.0004799616030722306,-0.02993038481672687,-0.018485615565640528,0.05165889858252665,0.0005999520038436186,-0.0008399328053730732,-0.000839932805375571,-0.0004799616030722306,-0.0002399808015427761,-0.00035997120230334037,1.5406761748637432,-0.04323801143828757,-1.1663464384276556,0.07198848138272307,-0.1583815702113725,-0.12958272207331265,-0.12958790545190751,-0.17278963324422741,-0.10079078510571352,0.1333009999999999,-0.07599299999999998,-0.905246,-0.16104800000000008,0.063249,-0.903021,0.29434899999999997,0.13924199999999998,0.0022250000000000325,0.9977820701331072,0.9766730531943131,double,-0.903021
150,1.25,stand,0.0012000480019013031,0.0004800192007685152,0.00036001440058637876,0.08620082478219591,-0.0001512371490529251,0.057942761502107594,-0.00048001920075519197,0.00108004320173249,0.0003600144005763864,0.0001200048001954596,0.0,-0.0009600384015361976,-0.3743677458012867,-0.2735821453130327,0.10080115248513344,-0.1296017286210033,0.23040633710615394,0.14399942469122384,0.07199884834605733,0.028798848139058957,-0.07201094434571735,0.13328700000000016,-0.07598799999999994,-0.905246,-0.1610569999999999,0.063245,-0.9030320000000001,0.29434400000000005,0.13923299999999994,0.0022139999999999382,0.9979407916034684,0.9762474839496973,double,-0.9030320000000001
151,1.258333,stand,0.0020400816032828434,0.0038401536061481215,0.0008400336013415707,-0.00944247798248539,-0.02799563706258024,0.07126807196247247,-0.0001200048002087828,0.0003600144005730556,0.00036001440057555366,-0.0001200048001954596,0.0,0.0007200288011519401,0.1008080644883653,0.4032322579358739,0.05760460827495456,0.043203456203817645,-0.08640691241562955,-9.9930574652286e-14,-0.02880230413907613,0.0,0.20161612896773706,0.13326899999999986,-0.076017,-0.90525,-0.16107500000000008,0.06321299999999996,-0.903033,0.29434399999999994,0.13922999999999996,0.0022170000000000245,0.999128185338703,0.9766133988298927,double,-0.903033
152,1.266667,stand,0.005399568034539282,0.004679625629950918,-0.00011999040077138805,-0.020902455445308693,0.004426130433970403,0.04558382750728538,-0.00035997120230084253,0.0,-0.00035997120230334037,-0.00035997120230084253,0.0004799616030722306,0.000479961603071398,0.4031061232609086,0.1007285845695692,-0.11519366476037335,-0.02879366475786632,-0.04319827220698978,-0.0863913610365837,-0.028793664759464977,0.057590785105858765,-0.02880575930892012,0.13322100000000003,-0.07605600000000001,-0.905252,-0.1611229999999999,0.06317799999999996,-0.9030279999999999,0.29434399999999994,0.13923399999999997,0.0022240000000000038,0.9991515397394011,0.9764794775943081,double,-0.9030279999999999
153,1.275,stand,0.007920316812687163,0.01056042241689401,0.00108004320173249,-0.0843509321979171,0.009700717896594454,0.05633240087274981,-0.000840033601354894,0.0004800192007685152,0.00036001440057555366,-0.0014400576023055455,-0.0009600384015237072,-0.0006000240009598112,0.3025019534558867,0.7057238433869131,0.14400979269217437,-0.05760979227817783,0.057604608276553414,0.08640172841460465,-0.12961555262267047,-0.1728069128280272,-0.12960345662201117,0.13314799999999982,-0.07613999999999999,-0.905258,-0.16120100000000004,0.06308200000000008,-0.903042,0.29434899999999986,0.13922200000000007,0.0022159999999999958,0.9982794661252217,0.9747870103759293,double,-0.903042
154,1.283333,stand,0.004200168006721065,0.007680307212296038,0.0022800912036470555,-0.032853496222155276,-0.016378244336592223,0.05769675097034379,-0.000720028801146092,-0.0009600384015370048,-0.0012000480019195906,0.000360014400573046,0.0012000480019145944,-0.0004800192007676697,-0.4464357141444896,-0.3456276496577369,0.14401152069057296,0.014401152071138826,-0.17281382482965255,-0.18721497689848998,0.21601728103666867,0.2592207372420813,0.0144011520691395,0.13310699999999986,-0.07621200000000006,-0.9052870000000001,-0.16123300000000007,0.06302799999999997,-0.903065,0.29433999999999994,0.13924000000000003,0.0022220000000000573,0.9971714597336471,0.975543842576213,double,-0.903065
155,1.291667,stand,0.008399328053757598,0.004559635229179651,-0.005279577633794677,-0.010970041567044519,0.008096966645540252,0.02843319145360557,0.0005999520038436347,0.0,-0.0004799616030722434,-0.0007199424046017042,0.00143988480921673,0.0010799136069108825,0.503858896932639,-0.37445068191942005,-0.9070876934775469,0.15838502579670646,0.11519539255303853,0.08640345558523649,-0.1295844498649833,0.028778114627086668,0.18717696276440865,0.13304199999999988,-0.07625000000000004,-0.905247,-0.16130900000000004,0.063002,-0.9030119999999999,0.2943509999999999,0.13925200000000004,0.002235000000000098,0.9987194775943002,0.974419159582955,double,-0.9030119999999999
156,1.3,stand,0.004680187207476244,0.004320172806916521,-0.0016800672026830968,0.002503664073625905,-0.007806363772753585,0.04047111825391496,-0.0006000240009639587,0.0007200288011594152,0.000600024000960628,-0.00036001440058636917,-0.0006000240009639587,-0.00036001440057554406,-0.44631475414392047,-0.028736640137180587,0.43195853007458507,-0.14400288069213635,0.08640691241562494,0.12960345662220718,0.043193088205367665,-0.24479884917564543,-0.1727982728292813,0.13299799999999995,-0.07628000000000001,-0.905228,-0.16135100000000002,0.06296099999999993,-0.903001,0.29434899999999997,0.13924099999999995,0.002226999999999979,0.9981452021089732,0.9764184598335204,double,-0.903001
157,1.308333,stand,0.007080283211332268,0.004320172806903313,-0.005040201608062748,-0.013500068669521605,-0.0019051071254311506,0.024782840254405664,-0.00048001920075519197,0.00012000480018213638,-0.0004800192007685152,-0.0004800192007685152,-0.0003600144005730556,-0.0007200288011519401,0.2880230413843809,-1.5850455473523977e-12,-0.40323225793587925,0.014401152071134989,-0.07200576034768802,-0.12961036862224323,-0.01440115206794037,0.0288023041390742,-0.04320345620741622,0.13293500000000003,-0.07631500000000002,-0.90519,-0.16141400000000006,0.06292200000000003,-0.902965,0.2943490000000001,0.13923700000000006,0.0022250000000000325,0.9988510415123701,0.9761878875803234,double,-0.902965
158,1.316667,stand,0.005399568034565924,-0.0014398848092166917,-0.003839692824577845,0.04125123325060243,0.019205818081742355,0.038147574202411265,-0.0005999520038436186,-0.00011999040075806644,0.0002399808015361153,0.0009599232061444612,0.0004799616030722306,0.0002399808015352827,-0.20166968763694879,-0.691151621804651,0.1440495300557828,-0.014390785107802465,-0.028797120343196664,0.08639308882944864,0.1727792664882368,0.10078905731284855,0.11519193696750846,0.13288499999999992,-0.07630399999999993,-0.905156,-0.16145100000000012,0.06293800000000005,-0.902931,0.29433600000000004,0.13924199999999998,0.0022249999999999215,0.9989046425135855,0.975917116352708,double,-0.902931
159,1.325,stand,0.00540021600862248,0.0045601824072942325,-0.0030001200048065508,-0.007284975037885938,-0.003684664194487856,0.033499722848257696,-0.0002400096003909192,0.0004800192007685152,0.0007200288011519401,-0.0006000240009506516,0.0006000240009639748,-0.0007200288011519401,7.775999718653056e-05,0.7200368674560157,0.10075276848329554,0.04319481620697261,0.07200403234448424,0.05760806427647056,-0.18720115289753114,0.014408064069572216,-0.1152057605528899,0.132838,-0.0763379999999999,-0.905125,-0.1615009999999999,0.0629050000000001,-0.9029119999999999,0.2943389999999999,0.139243,0.0022130000000000205,0.9985032771763741,0.9760152021089903,double,-0.9029119999999999
160,1.333333,stand,0.002520100804037968,0.004080163206538932,-0.0013200528021100508,-0.007273593652081293,-0.01147897142079755,0.038566272030149826,0.0008400336013548716,0.0,-0.000960038401536172,-0.00036001440058636917,-0.0004800192007685024,-0.0002400096003842512,-0.3456276496561216,-0.05760460827496603,0.2016161289687352,0.1296103686242376,-0.05760460827655187,-0.20161612896772863,0.02880230413587882,-0.12961036862263992,0.057604608276452716,0.13282400000000005,-0.076372,-0.905122,-0.16152500000000003,0.062867,-0.902903,0.2943490000000001,0.139239,0.002218999999999971,0.9978738857928728,0.9767329239555209,double,-0.902903
161,1.341667,stand,-0.008039356851456746,0.014638828893683441,0.0,-0.12682821499857286,-0.058210270914377214,0.10367974936631186,-0.0005999520038436347,-0.0002399808015427825,0.0002399808015361217,0.0017998560115175823,0.01883849292056224,0.011639068874490247,-1.267033555974912,1.2669385273751752,0.1583936647600283,-0.17278444986783462,-0.028795392553730148,0.14399078510586952,0.2591637163551707,2.3180360116787986,1.4253753869540104,0.13288600000000006,-0.07649600000000001,-0.9051199999999999,-0.161443,0.06290200000000001,-0.902806,0.29432900000000006,0.13939800000000002,0.0023139999999999272,0.9988511793763324,0.9398316241900067,double,-0.902806
162,1.35,stand,0.008880355214223956,0.013320532821309287,0.004080163206525609,-0.017712737381616918,-0.014972929961728824,0.03764913144322889,0.000360014400573046,-0.0002400096003775896,-0.0007200288011519209,-0.0019200768030606863,0.0012000480019145944,0.003960158406336814,2.0304466657482783,-0.15820185675916604,0.48963917034987847,0.11520057655306179,-3.4559984167878806e-06,-0.11520576055298522,-0.44640979414115006,-2.1166980581600066,-0.9215061164230527,0.1328149999999999,-0.07660899999999993,-0.90516,-0.16153300000000004,0.062801,-0.9028069999999999,0.29434799999999994,0.13940999999999992,0.0023530000000000495,0.9985999439977653,0.9688670647591007,double,-0.9028069999999999
163,1.358333,stand,0.0003600144005730556,0.001560062402501005,0.0030001200048065508,0.016390265252783514,0.026246159925070334,0.04278436669171349,-0.0014400576022922224,-0.0002400096003909192,0.0001200048001921288,-0.0018000720028919243,-0.0003600144005730556,0.0006000240009598112,-1.0224817969099937,-1.4113129027731177,-0.12961036862103298,-0.2160172810350756,-1.5996178074410065e-12,0.10080806448386624,0.014401152066334216,-0.18721497689759561,-0.40323225793556144,0.13280000000000003,-0.07662400000000003,-0.905184,-0.1615510000000001,0.06278499999999998,-0.902827,0.29435100000000014,0.139409,0.0023569999999999425,0.9975585912205196,0.9732111758591309,double,-0.902827
164,1.366667,stand,0.002039836813046989,0.006959443244540683,-0.0002399808015294545,-0.011101325940743069,-0.015225936579328202,0.02658311835903941,0.00011999040075806644,0.0008399328053730732,0.000839932805375571,-0.002879769618420062,-0.01727861771058698,-0.00659947204223651,0.2015625644917111,0.6478738711350657,-0.3887809942807752,0.18719078510322498,0.1295827220739122,0.08638444986602313,-0.1295533495954079,-2.0300699916023275,-0.863870415550308,0.132784,-0.07667500000000005,-0.9051750000000001,-0.16159199999999996,0.06258299999999994,-0.90288,0.29437599999999997,0.139258,0.002295000000000047,0.9980101843110465,0.9458518548325543,double,-0.90288
165,1.375,stand,-0.002880115204611091,0.008760350414015409,-0.0020400816032695203,-0.025312566243292,0.010987155251842637,0.05176891260659265,-0.0006000240009639748,-0.0003600144005730556,0.0,0.003960158406330258,0.01656066242650711,0.0028801152046077604,-0.5904178588333283,0.2161175050371706,-0.21602073703829142,-0.0864051844140223,-0.1439994246905244,-0.10079596848380878,0.8208241959378835,4.060876051493388,1.1375959734602612,0.132803,-0.07675100000000001,-0.905158,-0.16153499999999998,0.06264800000000004,-0.9028390000000001,0.294338,0.13939900000000005,0.00231899999999996,0.9988337629715467,0.9480276048116714,double,-0.9028390000000001
166,1.383333,stand,0.010080403216125496,0.0014400576023055455,0.003120124804988687,0.0267599094534161,0.006110794840803939,-0.010302312729788784,-0.00012000480018213638,0.0,-0.0007200288011519401,-0.0016800672026831415,-0.0001200048001954596,0.0014400576023047128,1.5553244234653432,-0.8784702762162403,0.6192495389725494,0.05760460827815226,0.04320345620701535,-0.08640691241473018,-0.676854147247504,-2.001760137609831,-0.17281382482936045,0.1327180000000001,-0.07676300000000003,-0.9051899999999999,-0.16163299999999992,0.062635,-0.902853,0.29435100000000003,0.13939800000000002,0.0023369999999999225,0.9987833988298964,0.9729366152020895,double,-0.902853
167,1.391667,stand,-0.0021598272138050553,0.002399808015361153,-0.0029997600191914503,0.02844912134813875,-0.0014818076711015868,0.049518890443779155,-0.0004799616030855522,0.0014398848092166917,0.001679865610751142,-0.0002399808015427761,0.0009599232061444612,0.0017998560115191995,-1.4687101547792725,0.11516083669973605,-0.7343274327069943,-0.04319136103952641,0.1727723553175763,0.2879642922849848,0.17279654441328948,0.129580994281247,0.043172355317312686,0.13273199999999985,-0.07677100000000003,-0.905151,-0.16161700000000012,0.06262299999999998,-0.9028130000000001,0.29434899999999997,0.13939400000000002,0.0023379999999999512,0.9962267094104181,0.973196825300249,double,-0.9028130000000001
168,1.4,stand,0.006840273610941349,0.006720268810745889,-0.0055202208088312625,-0.0030337766437442816,-0.021161215071252844,0.0009690573385432854,0.0,-0.0004800192007685152,-0.0009600384015361976,-0.0004800192007685152,0.0008400336013415707,-0.0003600144005763864,1.0800553011816256,0.5184760344875526,-0.30246739345251833,0.057597696278117914,-0.2303976971061112,-0.3168011535206245,-0.028805760137494453,-0.014387328069469766,-0.25919481724416243,0.13267499999999988,-0.07683099999999998,-0.9051130000000001,-0.1616780000000001,0.06257400000000002,-0.9027700000000001,0.294353,0.139405,0.002342999999999984,0.998211074060962,0.9748494661252394,double,-0.9027700000000001
169,1.408333,stand,0.008040321612869085,0.0008400336013415484,-0.0004800192007685024,0.0041017132336033935,0.012015043250075297,0.00593673146294559,-0.00012000480018213318,0.000360014400573046,-0.0008400336013440465,-0.0004800192007685024,0.0,0.0,0.1440115206921535,-0.7056564513865641,0.6048483869029967,-0.014401152067938447,0.10080806448356493,0.014401152069140645,1.5352916879069637e-15,-0.10080806448356606,0.04320345620741391,0.13260699999999992,-0.07683499999999999,-0.905116,-0.16174900000000014,0.06256700000000004,-0.9027660000000001,0.29435600000000006,0.13940200000000003,0.0023499999999999632,0.9984637093988062,0.9756999679987193,double,-0.9027660000000001
170,1.416667,stand,0.00299976001919153,0.004439644828421582,-0.005399568034566068,-0.007440353535181781,0.03314437572005326,0.027619171711245886,-0.000479961603085565,0.0003599712023008521,0.0007199424046075325,0.001079913606915878,0.002399808015361217,0.0019198464122873083,-0.6048190057208604,0.43191879374611253,-0.5902986361648259,-0.043191361039529474,-5.183377993026595e-06,0.18718214614250162,0.187176962765108,0.28795392552930915,0.23036314042324751,0.13257799999999986,-0.07686900000000008,-0.905065,-0.16176500000000005,0.06255,-0.902705,0.2943429999999999,0.13941900000000007,0.0023600000000000287,0.9984380750188073,0.9709708855449514,double,-0.902705
171,1.425,stand,0.003840153606148019,0.003840153606148019,-0.0032401296051840604,-0.002086612148630681,0.00399545185668157,0.007241294336799705,0.0003600144005996924,-0.0004800192007551792,0.0002400096003842512,-0.0008400336013415484,-0.0009600384015370048,-0.000960038401536172,0.10085126448535633,-0.07194182434580008,0.2591429772449262,0.10080115248832866,-0.10080288048194128,-0.0575942402764038,-0.23040288110613139,-0.403197697935697,-0.3456000016588779,0.13254900000000003,-0.076905,-0.905036,-0.16180400000000006,0.06250999999999995,-0.902686,0.2943530000000001,0.13941499999999996,0.0023499999999999632,0.9989229239555251,0.9738390666235361,double,-0.902686
172,1.433333,stand,-0.0003600144005730556,0.008280331213246894,-0.0027601104044156313,0.010661173275755621,0.015379055349540172,0.05287298705713812,-0.0004800192007818384,0.00048001920075519197,-0.0004800192007685152,-0.0008400336013415707,0.00108004320173249,-0.0009600384015361976,-0.5040403224194304,0.5328426265569322,0.05760460827654309,-0.10080806448836414,0.11520921654990758,-0.08640691241482934,-2.6802549805834147e-15,0.24481958517574864,-3.070583375814009e-15,0.1325479999999999,-0.0769700000000001,-0.905017,-0.16180800000000006,0.062450000000000006,-0.902671,0.29435599999999995,0.1394200000000001,0.0023459999999999592,0.9986143039261006,0.9737542109129969,double,-0.902671
173,1.441667,stand,0.003959683225335912,0.007919366450685144,-0.004199664026878687,-0.026435818679110407,-0.025983009585372727,0.019241224497691816,0.0004799616030855522,-0.000599952003830297,0.0003599712023041729,0.00035997120230084253,0.00011999040075806644,0.00011999040076805765,0.5183222493291257,-0.04331230652288783,-0.1727326160862785,0.11518848138557515,-0.12958617765604521,0.10079078510591334,0.1439890573125035,-0.11519712034730217,0.1295930888294033,0.13251900000000005,-0.07704100000000003,-0.904979,-0.16183800000000004,0.06238499999999991,-0.902635,0.2943570000000001,0.13942599999999994,0.0023440000000000127,0.9985858995656595,0.97589672810369,double,-0.902635
174,1.45,stand,0.002760110404402308,0.002640105604220172,0.0012000480019279496,-0.00605112479454675,0.010151537522663236,0.023639810842808168,0.00024000960036427277,0.0009600384015370304,0.0010800432017274938,0.0001200048001954596,0.0002400096003909192,0.0002400096003842576,-0.1439544966919014,-0.6335366430415241,0.6479913631113268,-0.028795392142239484,0.1872063368975569,0.08641209641465589,-0.028797120137451716,0.014402880071145308,0.014402880069146891,0.132498,-0.07705499999999998,-0.90498,-0.1618599999999999,0.062365000000000004,-0.9026430000000001,0.2943579999999999,0.13942,0.0023369999999999225,0.9975585912205072,0.9760299759990301,double,-0.9026430000000001
175,1.458333,stand,0.002040081603282789,0.006480259210368121,-0.0009600384015370048,-0.02665090720634705,0.030329160479185022,0.03195953318741457,-0.0004800192007551792,0.0,-0.00012000480019129289,-0.0004800192007685024,0.0012000480019145944,0.0004800192007676697,-0.0864069124108372,0.4608368662123943,-0.25922073724527983,-0.08640691241082915,-0.11520921655310375,-0.14401152069107953,-0.07200576034608802,0.11520921655150107,0.028802304138174473,0.13247699999999996,-0.07710899999999998,-0.904973,-0.16188100000000005,0.06232099999999996,-0.9026310000000001,0.294358,0.13942999999999994,0.0023419999999999552,0.9991753458887331,0.9742820830247136,double,-0.9026310000000001
176,1.466667,stand,0.0003599712023008521,0.002039836813047043,0.002639788816890678,0.014251947309227889,-0.005943342018464158,0.03610553825522225,0.0004799616030589218,0.0002399808015294609,-0.00011999040076806085,-0.00011999040077139125,0.0005999520038436347,0.0009599232061436541,-0.20159712034820843,-0.5328080630334968,0.4319447106344794,0.11518848137918399,0.028795392552131684,1.727792564439876e-06,0.04319999999965419,-0.07200575930777191,0.057583873935204415,0.13247799999999987,-0.07712399999999997,-0.904996,-0.16188500000000006,0.06230900000000006,-0.902645,0.29436299999999993,0.13943300000000003,0.002350999999999992,0.999083558176378,0.9745927851810803,double,-0.902645
177,1.475,stand,0.0021600864034382757,0.0012000480019279175,0.0009600384015370048,-0.0030306400924253137,0.0030681732676448212,0.01904824170994036,-0.0010800432017191379,-0.0002400096003775896,-0.0001200048001921256,0.0001200048001954564,0.0006000240009639587,0.0008400336013440465,0.21602246503508846,-0.10077868848183258,-0.20157811296695594,-0.1872080648959597,-0.05760115227493605,-1.72800000777023e-06,0.028800576139066777,8.640000038888557e-06,-0.014387328069075426,0.1324510000000001,-0.07713599999999998,-0.905005,-0.16190199999999988,0.062304000000000026,-0.902646,0.294353,0.13944,0.002359,0.9981452021090019,0.974677879907623,double,-0.902646
178,1.483333,stand,-0.00024000960036427277,0.0004800192007685152,0.002640105604220172,0.0036609217126308724,0.007700248130824132,0.026759637304944028,-0.0004800192007818384,-0.0002400096003909192,-0.0004800192007685152,-0.0012000480019279496,0.0,-0.0009600384015361976,-0.2880230413779636,-0.08640691241562568,0.20161612896714057,0.07200576034289032,-1.5996178074410065e-12,-0.04320345620741544,-0.15841267276172064,-0.07200576034608955,-0.21601728103687273,0.13244899999999982,-0.07714200000000004,-0.9050309999999999,-0.1619100000000001,0.06230000000000002,-0.9026759999999999,0.2943589999999999,0.13944200000000007,0.002354999999999996,0.9987999519980602,0.9738886478509305,double,-0.9026759999999999
