frame_id,timestamp,gait_type,root_linear_velocity_x,root_linear_velocity_y,root_linear_velocity_z,root_angular_velocity_x,root_angular_velocity_y,root_angular_velocity_z,left_linear_velocity_x,left_linear_velocity_y,left_linear_velocity_z,right_linear_velocity_x,right_linear_velocity_y,right_linear_velocity_z,root_acceleration_x,root_acceleration_y,root_acceleration_z,left_acceleration_x,left_acceleration_y,left_acceleration_z,right_acceleration_x,right_acceleration_y,right_acceleration_z,left_pos_rel_x,left_pos_rel_y,left_pos_rel_z,right_pos_rel_x,right_pos_rel_y,right_pos_rel_z,step_length,step_width,step_height,left_contact_prob,right_contact_prob,support_type,max_foot_height
1,0.008333,stand,0.05160206408255495,0.008880355214210787,0.008520340813637735,-0.030774561862942622,0.07984479188863872,-0.06665728312041855,0.0007200288011461046,0.0007200288011527661,-0.00036001440057638307,-0.00012000480018213529,0.0021600864034549676,0.0007200288011519335,0.0,0.0,0.0,0.0,0.0,0.0,0.0,0.0,0.0,0.016796000000000033,0.17611,-0.905116,0.027967000000000075,-0.168051,-0.907224,0.011171000000000042,0.344161,0.0021079999999999988,0.9771199279971254,0.9961998479939225,double,-0.905116
2,0.016667,stand,0.03995680345574018,0.008399328053757437,0.0014398848092167025,-0.010040867244876387,-0.07184309279289428,-0.10070047512453743,0.0004799616030589126,0.00035997120230750603,-0.0007199424046075187,0.0009599232061444684,0.0015598752099830959,0.00035997120230417564,-1.3973194896585996,-0.057718641763061004,-0.8495867535902365,-0.028805759309718258,-0.04320345558498441,-0.04318790545130017,0.12958099427965006,-0.0720195816500926,-0.043203455585284115,0.016466999999999787,0.176043,-0.905134,0.027641999999999944,-0.16810800000000004,-0.9072330000000001,0.011175000000000157,0.34415100000000004,0.002099000000000073,0.9774480750188259,0.9968889790444548,double,-0.905134
3,0.025,stand,0.03132125285009536,0.0019200768030673814,-0.003000120004806523,0.14905094372046426,0.12338406415239973,-0.04828793413125147,0.00048001920078183396,0.0012000480019146154,0.0004800192007685108,0.0018000720028652614,0.0008400336013448938,-0.0008400336013440611,-1.0363075249783773,-0.777541251732876,-0.5328218905584095,6.912003230693973e-06,0.10081324848279244,0.14400115269123118,0.10082188848203445,-0.08638444841452082,-0.14400633669125604,0.016210000000000058,0.176037,-0.9051049999999999,0.027395999999999976,-0.16811699999999996,-0.907215,0.011185999999999918,0.34415399999999996,0.0021100000000000563,0.9766020830247054,0.9964054160655405,double,-0.9051049999999999
4,0.033333,stand,0.020400816032641725,0.047161886475462884,-0.021720868834751796,-0.07425004171534505,-0.19498480610151653,-0.02302871011040724,0.0004800192007551876,-0.0004800192007618492,-0.0001200048001921277,0.006360254410186099,-0.0015600624024959945,-0.004680187207488817,-1.310504838287968,5.4292343300606625,-2.2465797227823443,-3.1976938177208228e-12,-0.20161612896633438,-0.07200576034569044,0.5472437786296456,-0.2880230413825619,-0.46083686621201914,0.016043999999999947,0.17564000000000002,-0.904925,0.027279000000000053,-0.168523,-0.907073,0.011235000000000106,0.344163,0.0021480000000000388,0.9773710415123749,0.986584546311652,double,-0.904925
5,0.041667,stand,0.03251739860812722,0.014278857691382315,-0.005879529637624878,-0.08363134036151726,-0.05335184801929056,-0.10743693980954705,0.0003599712023274885,0.0005999520038369624,-0.001199904007679753,-0.002759779217675338,0.0029997600191981333,0.003359731221502309,1.4538735991703253,-3.945647802265487,1.9008086389641128,-0.014404607442728472,0.12958617765764474,-0.12957753869541938,-1.0943164900241702,0.5471349198097104,0.9647130344361801,0.015776000000000012,0.17552600000000002,-0.904886,0.026984999999999815,-0.168617,-0.906996,0.011208999999999802,0.344143,0.0021100000000000563,0.9765850178180078,0.9911961600259651,double,-0.904886
6,0.05,stand,-0.014280571222846542,0.043321732869314795,-0.01392055682227349,0.08634801798898938,-0.051923423069770304,-0.14791433209737095,0.00024000960036427057,0.0001200048001887969,0.0009600384015361888,-0.002520100804011366,0.0012000480019196116,0.0019200768030723776,-5.615981018957609,3.4852844327292067,-0.9649618606322586,-0.01439596807430912,-0.057595968276510916,0.2592034572442028,0.028762560142082283,-0.21597408103666407,-0.17276544082922493,0.015896999999999828,0.175166,-0.9047620000000001,0.027082999999999968,-0.168968,-0.906864,0.01118600000000014,0.344134,0.0021019999999999373,0.9773186087717756,0.9943535364560868,double,-0.9047620000000001
7,0.058333,stand,0.03624144965796261,-0.006240249609983978,0.009000360014392923,-0.006948832528520749,0.013501904116331797,0.06563812442667291,0.00012000480020878171,-0.0001200048001887969,-0.00036001440057638307,-0.0014400576023188556,0.001200048001921277,0.0010800432017283165,6.062885021097942,-5.947675804548035,2.7506200452017775,-0.014401152064741253,-0.028802304137476753,-0.15841267276041904,0.12961036861784597,1.998481383580625e-13,-0.10080806448386669,0.015596000000000165,0.175217,-0.90484,0.026769000000000043,-0.168906,-0.9069299999999999,0.011172999999999877,0.344123,0.0020899999999999253,0.9784366485078619,0.9963943044966982,double,-0.90484
8,0.066667,stand,0.024118070554369778,0.002519798416125899,0.01715862730981572,-0.008340590432541945,0.013442221390861462,0.02327105397827223,0.00035997120230084524,0.0011999040076805855,-0.0009599232061428032,0.0,0.002039836813053665,0.0008399328053755773,-1.4546891173017555,1.0511216733993132,0.9789137623497476,0.028793664757866988,0.15837638683337918,-0.07198329800413007,0.17279308883115616,0.1007665960082059,-0.02881094268691375,0.015398000000000023,0.17520600000000003,-0.904991,0.026567999999999925,-0.16891,-0.9070659999999999,0.011169999999999902,0.34411600000000003,0.002074999999999938,0.9766196211427157,0.9963233388707222,double,-0.904991
9,0.075,stand,0.011160446417844569,0.011280451218053352,-0.0009600384015236991,-0.009752426475503518,0.018703411057321307,-0.03140650269382826,0.0012000480019012931,0.00012000480018879699,0.0002400096003834229,0.0007200288011461051,0.0016800672026881238,0.0,-1.554977095466845,1.051320389046857,-2.1743268584350695,0.1008132484819931,-0.12959308862255964,0.1439976966910149,0.08640691241402924,-0.04317408020707325,-0.1007959684838087,0.015314999999999968,0.17511299999999996,-0.904981,0.026480999999999977,-0.16899000000000003,-0.907058,0.01116600000000001,0.344103,0.0020769999999999955,0.9771805278679542,0.9969535689004143,double,-0.904981
10,0.083333,stand,0.006000240009613042,0.021840873634940576,0.0026401056042201455,0.006327653085249291,0.078776610744405,-0.06838620258552185,0.0001200048002087816,0.0001200048001954584,-0.0006000240009598053,0.0006000240009639688,0.0009600384015370207,0.0002400096003834225,-0.6192495389693415,1.2673013820817491,0.43203456207174384,-0.129610368617846,7.994006852738167e-13,-0.10080806448376664,-0.014401152067939063,-0.08640691241462888,0.0288023041381762,0.015266000000000002,0.17493200000000003,-0.905008,0.026435999999999904,-0.16916399999999998,-0.907078,0.011169999999999902,0.344096,0.0020700000000000163,0.9782607279445703,0.9980711926955047,double,-0.905008
11,0.091667,stand,0.0068394528437693515,0.018958483321333285,0.0004799616030722346,0.012764754394319166,0.03184600646908878,-0.0937092403085194,0.0007199424046016911,-0.00011999040077138905,0.0002399808015361173,0.00107991360692918,0.0019198464122872731,-0.00035997120230334335,0.10069748430001324,-0.34585916889936325,-0.2591965444141964,0.07198675358686225,-0.028797120346394003,0.1007925128984789,0.057582146144133844,0.11516774787020075,-0.07199193696745455,0.015214999999999979,0.174773,-0.90501,0.026388000000000078,-0.16930599999999996,-0.907085,0.0111730000000001,0.34407899999999997,0.002075000000000049,0.9779694775943142,0.9962800825458341,double,-0.90501
12,0.1,stand,0.011280451218053333,0.011040441617669077,0.0026401056042201455,0.022489136207906466,0.07958262161497828,-0.03809112507616644,0.0010800432017191559,0.0013200528021167343,-0.0008400336013440605,-0.00036001440057305197,0.0006000240009589726,0.00012000480019212759,0.5329411225589796,-0.9502030125602065,0.2592276492437188,0.04321382420706401,0.17281209683044788,-0.12960691262212612,-0.17279827283118093,-0.15838502476038632,0.05759942427642752,0.015129999999999866,0.17469200000000001,-0.905039,0.026291000000000064,-0.16939300000000002,-0.907106,0.011161000000000199,0.34408500000000003,0.00206699999999993,0.9761612773475461,0.9988167367128526,double,-0.905039
13,0.108333,stand,0.008400336013442283,0.02040081603264174,0.008280331213246825,-0.05375185180122819,0.06466349818634089,-0.04846931414074125,0.0,-0.0004800192007685112,0.0003600144005755507,0.00048001920075518796,0.0018000720028802516,0.0008400336013440619,-0.3456276496593126,1.123289861391176,0.676854147249092,-0.12961036862104364,-0.21601728103747111,0.14401152069118112,0.10080806448196815,0.14401152069138126,0.08640691241472878,0.015059999999999851,0.174518,-0.9051049999999999,0.026224999999999943,-0.16954800000000003,-0.907168,0.011165000000000092,0.34406600000000004,0.002063000000000037,0.9783699599983998,0.996593986486279,double,-0.9051049999999999
14,0.116667,stand,0.02615790736741676,0.008759299256058275,0.0005999520038436226,-0.06441797184536556,0.015987059802697108,-0.13817362182350226,0.00011999040078471047,0.0,-0.0005999520038394596,0.00011999040075806724,0.0017998560115192117,-0.0004799616030722338,2.130738103428661,-1.3968702635689287,-0.9215717793860325,0.014397696278462966,0.057597696276519166,-0.11518675358951397,-0.04319999999965447,-2.591688997359506e-05,-0.15838675358966817,0.01484299999999994,0.17444500000000002,-0.905115,0.02600799999999981,-0.169606,-0.907177,0.01116499999999987,0.344051,0.0020620000000000083,0.9783602776750623,0.9968889790444563,double,-0.905115
15,0.125,stand,-0.013800552022091366,0.02520100804032019,-0.009360374414979306,0.11660866689359421,-0.006840884404338013,-0.19511645991189924,0.00012000480018213538,0.0019200768030673832,-0.0006000240009598062,0.0004800192007818344,0.0019200768030723794,-0.0003600144005755507,-4.79520693501838,1.9730839774705298,-1.1952869817380218,1.7279968108619798e-06,0.23041843310541038,-8.640000041594991e-06,0.0432051842102205,0.014427072069262909,0.014394240069204756,0.014958999999999945,0.174251,-0.905042,0.02612700000000001,-0.1698,-0.907102,0.011168000000000067,0.344051,0.0020599999999999508,0.9760412945270404,0.9966472549673449,double,-0.905042
16,0.133333,stand,0.01272050882034554,0.012600504020163404,0.006240249609990635,0.0036219378120402996,0.04699910613082294,-0.04802412572064584,0.0004800192007818336,-0.0006000240009573072,0.0008400336013440605,0.0006000240009639688,0.0019200768030723761,-0.0038401536061447522,3.182654607276717,-1.5121209672575031,1.8721497689871507,0.043203456210212154,-0.30242419345070065,0.17281382482945704,0.014401152067938836,-3.9032839523059047e-16,-0.417633410004704,0.01485700000000012,0.174141,-0.9050870000000001,0.026026000000000105,-0.169889,-0.907186,0.011168999999999984,0.34403,0.002098999999999962,0.9771125575061919,0.9927747542428925,double,-0.9050870000000001
17,0.141667,stand,0.00215982721383172,0.01655867530597214,-0.0068394528437826846,0.03246535371079906,0.010262598180186131,-0.09127435258282862,-0.0005999520038436247,0.0002399808015361177,-0.0005999520038402942,-0.00011999040078471086,0.001439884809215041,0.0033597312215023173,-1.2671804183481936,0.47494255889233783,-1.5694387393536537,-0.12958617766084243,0.10079251289817936,-0.1727844498661337,-0.0863948166245118,-0.05761842978849728,0.8639170659523742,0.014834000000000014,0.17400500000000002,-0.9050349999999999,0.02600699999999989,-0.17001499999999997,-0.9071009999999999,0.011172999999999877,0.34402,0.0020660000000000123,0.9778704237204272,0.9939045873713581,double,-0.9050349999999999
18,0.15,stand,0.009000360014406239,0.01380055202208468,0.0022800912036470937,-0.007917750881451134,-0.00030553625637816823,-0.041898064412954426,0.00036001440057305197,0.0008400336013415624,-0.0001200048001912949,0.0002400096003909168,0.002040081603264504,0.0010800432017283156,0.8208967719398191,-0.33098803358783824,1.0943890612540228,0.11520057655306322,0.07200921634530712,0.05759596827661094,0.04320172821020369,0.07202649634578934,-0.2735735053130925,0.014761999999999942,0.17389699999999997,-0.9050549999999999,0.0259339999999999,-0.17011300000000001,-0.907111,0.01117199999999996,0.34401,0.0020560000000000578,0.9779037093988081,0.9961320293600098,double,-0.9050549999999999
19,0.158333,stand,0.0019200768030740415,-0.05064202568103121,0.08796351854075292,-0.034369258491704725,0.6255800753099281,0.14925712066007765,0.0006000240009639688,0.0,-0.0003600144005763828,0.0007200288011461039,0.0009600384015353554,-0.0007200288011519328,-0.8496679720787462,-7.733418661120345,10.282422577355785,0.02880230413907556,-0.10080806448356674,-0.028802304138376058,0.05760460827495341,-0.1296103686222426,-0.2160172810368711,0.014750999999999959,0.174319,-0.905791,0.025923999999999836,-0.16968299999999997,-0.90785,0.011172999999999877,0.344002,0.002059000000000033,0.9782437629715439,0.9976675259431056,double,-0.905791
20,0.166667,stand,0.0004799616030589122,0.006479481641468495,-0.0021598272138317128,0.09922666751106923,-0.018709021596617165,-0.10273546444216453,0.0,0.0004799616030722338,-0.0005999520038394596,-0.00011999040075806724,0.0008399328053764092,-0.0002399808015361169,-0.1728000000018152,6.854032556095471,-10.813936375640095,-0.07199712034604851,0.057590785105859535,-0.028790209174835206,-0.10079424068924529,-0.014411518617584126,0.05760115186174892,0.014747000000000066,0.174269,-0.905778,0.025919000000000025,-0.16973,-0.9078339999999999,0.01117199999999996,0.343999,0.0020559999999999468,0.9781594775943057,0.9985304237204333,double,-0.905778
21,0.175,stand,0.004080163206539014,0.005520220808831226,0.004440177607112066,0.028826989557832267,0.05625799268355138,-0.024638512320561745,0.00012000480018213558,0.00036001440057971477,0.0,0.00012000480018213558,0.000120004800192128,-0.0013200528021117424,0.4320414740765763,-0.11511590455265468,0.7920322598036477,0.014401152067939023,-0.014394240068705069,0.07199712034554916,0.028800576135869844,-0.08639481641477055,-0.12961382462206028,0.014713999999999894,0.17422600000000005,-0.905815,0.025885999999999854,-0.16977499999999995,-0.9078820000000001,0.01117199999999996,0.344001,0.002067000000000041,0.9786975191687325,0.997781803970879,double,-0.905815
22,0.183333,stand,-0.01152046081844425,0.010680427217089363,-0.0033601344053795727,0.02338501138746017,-0.18959436721757883,-0.12503260350711776,-0.0009600384015370207,0.00048001920076851036,-0.00012000480019212759,0.0014400576023188543,0.002040081603262838,-0.0027601104044164366,-1.8721497689887494,0.6192495389725348,-0.9360748844943757,-0.1296103686210435,0.014401152068738208,-0.014401152069138064,0.15841267276331664,0.23041843310580926,-0.17281382482955635,0.014801999999999982,0.17414100000000005,-0.905788,0.025994000000000073,-0.16984699999999997,-0.907877,0.01119200000000009,0.343988,0.0020890000000000075,0.977309927997118,0.9937965268933587,double,-0.905788
23,0.191667,stand,0.013918886489081458,0.03671706263499258,0.013198944084466447,-0.11266300314621658,0.25296745500736756,0.03773434742198412,0.0007199424046016899,-0.00035997120230750576,0.0007199424046075181,0.00035997120230084497,0.0004799616030722338,-0.0004799616030714012,3.0524774787047857,3.1241463184429077,1.9869304643443728,0.2015815702110282,-0.10079078510631333,0.10078560172781915,-0.12960000000216082,-0.18719942406894682,0.2735959684839253,0.014691999999999927,0.173832,-0.9058919999999999,0.025881000000000043,-0.170149,-0.907991,0.011189000000000116,0.343981,0.002099000000000073,0.9772101439884857,0.998719477594308,double,-0.9058919999999999
24,0.2,stand,0.004200168006721135,0.005040201608062698,0.005400216008649072,0.004423114391460246,0.014212415507691254,-0.030130294974464362,0.0007200288011727504,0.0001200048001954584,-0.0006000240009598053,0.0007200288011461039,0.00012000480019212759,-0.0007200288011527656,-1.1662928695980217,-3.8013753782467123,-0.9358848044902638,1.03680032473827e-05,0.05759942427732674,-0.15840230476026906,0.04320864020703932,-0.043196544207381,-0.02880921613840924,0.014663000000000093,0.17379100000000003,-0.905942,0.025851999999999986,-0.17019,-0.908042,0.011188999999999893,0.34398100000000004,0.0020999999999999908,0.9774251354305881,0.9982911308961784,double,-0.905942
25,0.208333,stand,0.001920076803074048,0.004920196807873917,0.015720628825152114,-2.3138859774788095e-05,0.018247412631172036,-0.008306381680276236,-0.0004800192007818352,-0.000240009600384256,-0.000240009600384256,0.0008400336013548883,0.0009600384015353585,-0.00036001440057555127,-0.2736218893132236,-0.014401152068736461,1.238499077943486,-0.14401152069537845,-0.04320345620781415,0.04320345620731431,0.014401152071137006,0.10080806448376732,0.043203456207514125,0.014642999999999962,0.173748,-0.906075,0.02584300000000006,-0.170223,-0.908176,0.011200000000000099,0.343971,0.0021010000000000195,0.978010164909464,0.9977908394301294,double,-0.906075
26,0.216667,stand,0.0010799136069025348,0.012718982481400874,0.01535877129829816,0.03934701045145226,0.19875716728526296,-0.02790967805401664,-0.0004799616030589122,-0.0011999040076805846,0.00035997120230417536,0.0007199424046016899,0.0009599232061444676,0.0004799616030714012,-0.10081151861909196,0.9357794184697564,-0.04341942966810087,6.911173856851348e-06,-0.1151781146263892,0.07199193696765427,-0.014409790827117623,-1.3822341119622548e-05,0.10078905731304914,0.014630000000000143,0.173632,-0.9062,0.025840000000000085,-0.170321,-0.9083,0.011209999999999942,0.343953,0.0020999999999999908,0.9767641108936345,0.9978461063886397,double,-0.9062
27,0.225,stand,0.003240129605184114,0.010680427217089363,0.0007200288011461039,0.01703690652480461,0.01324534384745656,-0.012926064618620071,-0.0002400096003909168,-0.0009600384015370207,0.0,0.0010800432017191559,0.00024000960038425518,-0.0006000240009598053,0.25923628924535913,-0.2446364171740681,-1.7567193684329827,0.02879539213584486,0.028785024138193165,-0.0431982722073893,0.043213824207064155,-0.086393088414762,-0.12960345662200953,0.014601000000000086,0.173535,-0.906206,0.02582200000000001,-0.170408,-0.908311,0.011220999999999925,0.343943,0.0021050000000000235,0.9773006917774196,0.9979022983956084,double,-0.906206
28,0.233333,stand,0.0007200288011727504,0.01080043201727816,-0.001800072002878583,0.018466708195041898,-0.005156533402322426,-0.017959714781341007,-0.00012000480018213519,0.0006000240009573072,-0.00048001920076851036,0.0004800192007818336,0.0014400576023038656,-0.00024000960038425518,-0.3024241934491014,0.01440115206873839,-0.3024241934507002,0.014401152071136625,0.1872149768983951,-0.057604608276552255,-0.07200576034289233,0.14401152069118078,0.043203456207314264,0.014593999999999996,0.17345,-0.906195,0.025819999999999954,-0.17048599999999997,-0.908298,0.011225999999999958,0.34393599999999996,0.002103000000000077,0.9776738000123245,0.9974386478509341,double,-0.906195
29,0.241667,stand,0.002399808015347855,0.008519318454522187,0.0002399808015427785,0.014841750791115311,0.0025129737868534994,-0.008128230739134192,-0.0002399808015427785,0.00011999040077138925,0.0002399808015361177,0.00011999040075806764,0.0,-0.0008399328053755793,0.20155738111052424,-0.27371173059227005,0.24478675359027677,-0.014395968485798369,-0.05759942406838481,0.08639308882944921,-0.04320000000285179,-0.17279308882935793,-0.07198502579689531,0.01457200000000003,0.17338000000000003,-0.9061950000000001,0.025800999999999963,-0.17055699999999996,-0.9083070000000001,0.011228999999999933,0.343937,0.0021120000000000028,0.9782800479961504,0.998585899565664,double,-0.9061950000000001
30,0.25,stand,-0.002760110404428927,-0.0022800912036470937,0.0037201488059526245,0.10902563378208305,-0.018196382783402184,-0.037368250101674695,-0.0010800432017458023,-0.0001200048001954584,0.001320052802111738,0.0012000480019279376,0.00012000480019212759,-0.00012000480019212759,-0.6192149789723722,-1.2959809982202415,0.41763686600382127,-0.10081152048518217,-0.02880057613906726,0.12961382462205923,0.12961209662424925,0.014401152069138064,0.08639481641467073,0.014585999999999988,0.173398,-0.9062150000000001,0.025834000000000135,-0.170537,-0.908339,0.011248000000000147,0.343935,0.0021239999999999037,0.9759103246432121,0.9979800182130432,double,-0.9062150000000001
31,0.258333,stand,0.012240489619590393,0.011760470418821882,-0.002880115204611072,-0.02323942900346112,-0.022178167622113075,-0.04895453333928399,0.0006000240009639708,0.00036001440057971477,-0.0007200288011519352,0.00036001440057305316,0.0,-0.00036001440057555127,1.8001440086426685,1.6849347920879647,-0.7920633638021977,0.20161612897033207,0.05760460827735202,-0.24481958517504843,-0.1008080644851658,-0.014401152069138112,-0.02880230413817644,0.014488999999999974,0.17330299999999998,-0.906197,0.025735000000000063,-0.17063500000000004,-0.9083180000000001,0.01124600000000009,0.343938,0.0021210000000000395,0.9771166130114464,0.999151437920097,double,-0.906197
32,0.266667,stand,0.004079673626120648,0.005159587233016522,-0.00011999040077138885,0.014709400713740738,-0.028065124049100016,-0.006331785133439928,0.0002399808015427777,0.0002399808015361169,-0.0004799616030714012,-0.00035997120230084497,0.00011999040076805845,0.0002399808015361169,-0.9792195816498366,-0.7920426188871315,0.3311884813822511,-0.04320172779231975,-0.014402879654859342,0.02880575930891934,-0.08639136103598483,0.014397696276464884,0.0719936647602193,0.014456999999999942,0.17326200000000003,-0.9062,0.025698,-0.17067699999999997,-0.908315,0.011241000000000057,0.343939,0.002114999999999978,0.9778702824802838,0.9992517283843781,double,-0.9062
33,0.275,stand,0.0036001440057571543,0.010200408016320819,0.0010800432017324755,-0.0036328402243746335,-0.01893120262086915,-0.0060161915286737495,0.00012000480018213478,0.0006000240009573052,0.0007200288011519304,0.0008400336013282363,0.0002400096003842544,-0.0004800192007685088,-0.05754585627787014,0.6049226909041493,0.14400979269217082,-0.014397696071119934,0.0432069122070307,0.14400460869114684,0.14400633668895674,0.01440288006914622,-0.08640345641481131,0.014427999999999885,0.173182,-0.9062030000000001,0.025674999999999892,-0.17075999999999997,-0.908328,0.011247000000000007,0.34394199999999997,0.0021249999999999325,0.97717513543062,0.9983386087717889,double,-0.9062030000000001
34,0.283333,stand,0.007320292811723138,0.000240009600384256,0.001320052802110077,0.02951426056013068,-0.03571615227430872,0.010862125810321322,0.0,-0.000720028801152768,-0.000360014400576384,0.0003600144005996996,-0.000720028801152768,-0.000240009600384256,0.44643571414448496,-1.1952956217372601,0.028802304137477763,-0.014401152067938927,-0.15841267276011958,-0.12961036862214292,-0.057604608271755425,-0.11520921655310509,0.028802304138275937,0.014366999999999797,0.173174,-0.906217,0.025617,-0.17076799999999998,-0.9083410000000001,0.011250000000000204,0.34394199999999997,0.0021240000000000148,0.9774183055457206,0.9985999439977419,double,-0.906217
35,0.291667,stand,0.009239260859117188,0.005399568034559299,0.00011999040077138885,-0.004984568440411609,-0.09023407283073379,-0.0006556884510483444,0.00035997120232748815,-0.0002399808015361169,0.0,-0.00011999040078471047,0.0002399808015361169,-0.0005999520038394596,0.23025774506768032,0.6190974843022604,-0.1439959684831638,0.04319308883219196,0.05760115186184913,0.04319827220738945,-0.05759596848865006,0.11519193696770866,-0.043189633243964874,0.014293000000000111,0.17312699999999998,-0.9062180000000001,0.02553899999999998,-0.170811,-0.908347,0.011245999999999867,0.34393799999999997,0.0021289999999999365,0.9779889474290798,0.9989046425135837,double,-0.9062180000000001
36,0.3,stand,0.0,0.00768030721228953,0.0030001200047932073,0.00953058744964098,-0.003383191977990915,-0.016655030381327603,0.00012000480018213558,0.0,0.000240009600384256,0.0002400096003909176,0.0,0.000480019200768512,-1.108755653320198,0.27369964931360086,0.3456293776577254,-0.02879712014224807,0.02879884813825963,0.028802304138276322,0.043201728210203884,-0.02879884813825963,0.1296017286221018,0.014294000000000029,0.17306299999999997,-0.906241,0.025541000000000036,-0.170875,-0.908368,0.011247000000000007,0.34393799999999997,0.00212699999999999,0.9782827685152478,0.9991055370304754,double,-0.906241
37,0.308333,stand,0.006840273610941258,0.0076803072122894785,-0.0019200768030740352,-0.051378229560547085,-0.07128225474007172,0.0020168682891677117,-0.000480019200781832,-0.0001200048001887964,-0.0002400096003842544,-0.0003600144005730508,0.0003600144005763816,-0.0001200048001921272,0.8208656679396651,-6.141166751627937e-15,-0.59044723483346,-0.07200576034608966,-0.014401152068738257,-0.05760460827655207,-0.07200576034608974,0.04320345620741391,-0.07200576034569023,0.01423299999999994,0.17299799999999999,-0.906227,0.025481000000000087,-0.17093600000000003,-0.908353,0.011248000000000147,0.343934,0.0021259999999999613,0.9778234481989178,0.9991281853387084,double,-0.906227
38,0.316667,stand,0.0033597312215189806,-0.00035997120230750815,0.0033597312215056588,0.05234732349148569,-0.015572730173020818,0.0026044166746161806,0.0004799616030855586,0.00035997120230084735,-0.0008399328053755821,0.0008399328053597628,0.0002399808015344533,0.0002399808015352859,-0.4176316761965799,-0.9647562292533036,0.633526280847099,0.11518848138557669,0.05759251289772576,-0.07198502579689599,0.14398214614024724,-0.014402879654659107,0.04319481662196006,0.014208999999999916,0.173004,-0.906262,0.025459999999999816,-0.170931,-0.908379,0.0112509999999999,0.343935,0.0021170000000000355,0.9771096725727766,0.9984901539006591,double,-0.906262
39,0.325,stand,0.004800192007658442,0.0038401536061480703,-0.004920196807867223,0.009069819956189442,-0.07184643002836437,-0.014401865677585075,-0.0003600144005730508,0.0,0.0008400336013440577,0.0013200528021100684,-0.0001200048001904618,-0.00024000960038342167,0.1728622088250876,0.5040351384202041,-0.9936311087690924,-0.1008011524851321,-0.04319827220698978,0.20160403296767465,0.057616704278207566,-0.04320000020699791,-0.057601152276335714,0.014166000000000123,0.17297199999999996,-0.9062140000000001,0.02543099999999998,-0.170964,-0.90834,0.011264999999999858,0.34393599999999996,0.0021259999999999613,0.9772167844502072,0.99775491576457,double,-0.9062140000000001
40,0.333333,stand,-0.00024000960036427117,0.008520340813631094,0.001800072002878589,0.002492226397840913,-0.034247051653384715,0.012701440578765275,0.0006000240009639708,-0.000960038401537024,-0.0012000480019196146,-0.0007200288011461063,-0.000360014400576384,-0.000480019200768512,-0.604848386898203,0.5616449306951922,0.8064645158701342,0.115209216553105,-0.11520921655310529,-0.24481958517504832,-0.24481958517414854,-0.028802304138476273,-0.028802304138376443,0.014172999999999991,0.17289299999999996,-0.906239,0.025426999999999866,-0.17103800000000002,-0.908359,0.011253999999999875,0.343931,0.0021200000000000108,0.9760503445968076,0.9984378875803288,double,-0.906239
41,0.341667,stand,0.0008399328053597571,0.004439644828414832,0.0007199424046016899,0.0061528351016277944,-0.026810570775821264,0.0006050992585144454,0.0,0.0002399808015361169,-0.00011999040076805845,0.0009599232061444676,0.0007199424046066855,0.0004799616030722338,0.12958272206911775,-0.48964434667821677,-0.12960518337855748,-0.07199712034604874,0.14399078510596827,0.12959654441463345,0.2015781146256986,0.12958444986597895,0.11518848138237879,0.014166000000000123,0.17285799999999996,-0.906246,0.025428000000000006,-0.17106900000000003,-0.908361,0.011261999999999883,0.343927,0.002114999999999978,0.9784028221787253,0.9978461063886346,double,-0.906246
42,0.35,stand,0.0007200288011461063,0.004560182407294202,-0.000480019200768512,-0.0038391028130038514,-0.033854500625694804,-0.00013683091211928288,-0.0008400336013548883,-0.000240009600384256,0.0006000240009598073,-0.00036001440057305316,0.000240009600384256,-0.000360014400576384,-0.014389056067880848,0.014465088069047222,-0.1440011526905322,-0.10080806448516626,-0.05760115227653595,0.0864051844147207,-0.1583988487600533,-0.057594240276302736,-0.10080115248393373,0.014153000000000082,0.17281799999999997,-0.906237,0.02541900000000008,-0.171105,-0.90836,0.011265999999999998,0.343923,0.002122999999999986,0.9770035771698071,0.9990618793232109,double,-0.906237
43,0.358333,stand,-0.0006000240009373203,0.004920196807873884,-0.0008400336013415596,0.001598315792190614,-0.013461107300433693,0.008680414582064967,0.0009600384015370176,0.0006000240009639668,0.0,0.0007200288011461016,0.0003600144005763816,0.0008400336013440577,-0.1584126727569208,0.043203456207809965,-0.04320345620701381,0.21601728103826934,0.10080806448436569,-0.0720057603455904,0.12961036862104286,0.01440115206913778,0.14401152069128004,0.014165999999999901,0.172782,-0.90623,0.02542999999999984,-0.17114300000000002,-0.908346,0.01126399999999994,0.34392500000000004,0.0021160000000000068,0.9769531282987158,0.9980608504910591,double,-0.90623
44,0.366667,stand,-0.015358771298311482,0.013198944084473108,-0.046196304295652545,0.0636027014033248,-0.47387833134500806,-0.10569797290276349,-0.0004799616030589122,-0.0004799616030722338,-0.00011999040076805845,-0.0007199424046016899,0.0002399808015361169,-0.0011999040076789193,-1.770908003044654,0.9933702035756199,-5.442317097949477,-0.17278617765729884,-0.1295879054519078,-0.014397696276464884,-0.17278272207196907,-0.014402879654459393,-0.24477293124825714,0.014290000000000136,0.172668,-0.905846,0.02555200000000002,-0.17125100000000001,-0.9079710000000001,0.011261999999999883,0.343919,0.0021250000000000435,0.9776011793763566,0.9976337573861749,double,-0.905846
45,0.375,stand,0.00588023520940428,0.008400336013435636,0.0006000240009506475,-0.028541790404930937,0.16830850819703175,0.07945669389657811,0.00012000480018213558,0.0,-0.00012000480019129529,0.0008400336013548883,0.0008400336013432305,0.0006000240009598073,2.5487827322351873,-0.5758560027646087,5.615784026953475,0.07199884834285963,0.05759769627651926,-1.7279999084170508e-06,0.18720460889914584,0.07200921634550764,0.2160000010366892,0.014242000000000088,0.17259800000000003,-0.905852,0.025510000000000144,-0.17131399999999997,-0.907971,0.011268000000000056,0.343912,0.002118999999999982,0.9785271459733768,0.9977818039708666,double,-0.905852
46,0.383333,stand,-0.002400096003829237,0.002040081603269507,0.002520100804038019,-0.031251057807847746,-0.03087537736346485,0.011092275374678764,0.00036001440057305316,0.00036001440057305316,-0.000240009600384256,0.00036001440057305316,-0.0007200288011511025,0.000240009600384256,-0.9936794927677352,-0.7632610596623239,0.23041843310780943,0.028802304139075745,0.04320345620701477,-0.01440115206923809,-0.05760460827815149,-0.18721497689839636,-0.043203456207314556,0.014264999999999972,0.17258399999999996,-0.905875,0.025533000000000028,-0.17133700000000002,-0.90799,0.011268000000000056,0.343921,0.002114999999999978,0.9779118793232144,0.9985999439977633,double,-0.905875
47,0.391667,stand,-0.011279097672190834,0.004079673626107326,-0.012479001679864756,0.04166554054468681,-0.23775310290602733,-0.051701230405051375,-0.0002399808015427777,0.0,0.00011999040076805845,-0.0004799616030855554,-0.0009599232061444676,-0.0002399808015361169,-1.0653949686059023,0.24473146422340022,-1.799748318202875,-0.07199366476071878,-0.043198272206989775,0.043196544414724515,-0.10078905731444777,-0.02878502579714001,-0.057594240691189395,0.014356999999999953,0.17254999999999998,-0.90577,0.02562299999999995,-0.171379,-0.907888,0.011265999999999998,0.343929,0.0021180000000000643,0.9783728221787154,0.998167116352698,double,-0.90577
48,0.4,stand,-0.009600384015370176,0.016800672026877822,-0.017280691227652994,0.020746154613649617,-0.15954880604897426,-0.0587215715014648,0.000480019200781832,0.0,0.0003600144005755489,0.0003600144005730508,0.0001200048001921272,0.00048001920076767607,0.20145369696635684,1.5265808713273061,-0.5762257947663768,0.08640345641720949,0.0,0.02880403213818426,0.10080115248513172,0.12959654462217574,0.08640345641471138,0.014441000000000148,0.17241,-0.905623,0.025706000000000007,-0.17151799999999998,-0.90774,0.011264999999999858,0.343928,0.0021170000000000355,0.977829959998382,0.9989801553034969,double,-0.905623
49,0.408333,stand,-0.0030001200047932073,0.04212168486740029,-0.032641305652218844,-0.06935235916221515,-0.25231627682191027,-0.06845165878474843,0.00048001920075518877,-0.000480019200768512,0.0,-0.00036001440057305316,-0.000120004800192128,-0.0007200288011519352,0.7920633638037903,3.038643086586167,-1.8433474648465002,-3.197316500272108e-12,-0.057604608276552643,-0.043203456207314264,-0.08640691241402924,-0.028802304138276225,-0.14401152069118134,0.014469999999999983,0.17205499999999996,-0.905351,0.025727999999999973,-0.17187000000000002,-0.907474,0.01125799999999999,0.343925,0.002122999999999986,0.9776385838934718,0.998643479742567,double,-0.905351
50,0.416667,stand,0.030117590592752697,0.016318694504435967,-0.03131749460043994,0.012458706272281012,-0.13447895927028233,0.14118473236467752,0.00035997120230084497,-0.0002399808015361169,0.0,0.00035997120230084497,-0.0004799616030705686,0.00011999040076805845,3.973807367116135,-3.0961111546633426,0.15884461864397653,-0.014404607445925569,0.028802303723589495,0.0,0.08639136103598483,-0.0431913610365299,0.10079424069114384,0.014221999999999957,0.171917,-0.90509,0.025479999999999947,-0.17201,-0.907212,0.01125799999999999,0.343927,0.0021220000000000683,0.9780589474291168,0.9989802776750718,double,-0.90509
51,0.425,stand,-0.02232089283571582,-0.05292211688467182,0.07560302412096735,0.00219945695833823,0.5712518343953906,0.10768869419766208,-0.000840033601328242,0.000480019200768512,0.0010800432017283193,0.0004800192007818352,0.000120004800192128,-0.000120004800192128,-6.292869726205286,-8.30922973588239,12.83097548558833,-0.14400633668895838,0.08640345641481227,0.12961036862214353,0.01440633607116171,0.0719988483454576,-0.028800576138267975,0.014401000000000108,0.17236199999999996,-0.9057109999999999,0.02567000000000008,-0.171568,-0.907843,0.011268999999999973,0.34392999999999996,0.0021320000000000228,0.9762632941370613,0.9991514379200712,double,-0.9057109999999999
52,0.433333,stand,-0.00792031681266041,0.03348133925356685,0.004680187207489629,-0.18530791606016206,0.23063812297350963,0.03444813389558668,0.0008400336013282363,-0.0009600384015303559,-0.0012000480019204393,-0.0003600144005730508,-0.0002400096003842544,-0.00024000960038342167,1.7281382482965741,10.368829489768187,-8.511080872852206,0.2016161289639351,-0.17281382482885657,-0.2736218893134224,-0.10080806448516531,-0.043203456207414,-0.014401152069037942,0.014473999999999876,0.17207500000000003,-0.90576,0.025733000000000006,-0.17184899999999997,-0.907884,0.01125900000000013,0.343924,0.0021240000000000148,0.9758409793353257,0.9991753458887159,double,-0.90576
53,0.441667,stand,-0.011519078473733688,-0.007199424046076894,0.0023998080153611848,0.01238863698843125,0.008913181391449846,0.017544027325556096,-0.0007199424046016947,0.0009599232061378132,0.0007199424046083555,-0.00011999040078471127,0.0013198944084469866,0.00011999040076722665,-0.4318168539804774,-4.881301091869927,-0.2736236131663616,-0.1871821461399016,0.23037696276316055,0.2303804183499887,0.028800575928526622,0.18717350717917566,0.04319654441452488,0.014564000000000021,0.172143,-0.905774,0.025827999999999962,-0.171778,-0.907903,0.01126399999999994,0.343921,0.0021290000000000475,0.9763778058176074,0.9977820701331056,double,-0.905774
54,0.45,stand,-0.011640465618626345,-0.0015600624024943227,-0.0007200288011594248,0.008207172662132004,-0.03402918854162107,-0.011685262944296077,0.000480019200781832,0.0004800192007685088,-0.0001200048001921272,0.0010800432017457988,-0.000600024000960636,0.0004800192007685088,-0.014567040068721586,0.6767504672485957,-0.37439539379822356,0.1440011526921303,-0.05759078427568732,-0.10079769648391687,0.14400979269536843,-0.23039942510591796,0.04320518420752198,0.01466500000000015,0.17215999999999998,-0.9057689999999999,0.025934000000000124,-0.17177,-0.907893,0.011268999999999973,0.34392999999999996,0.0021240000000000148,0.9776110415123362,0.9977908394301149,double,-0.9057689999999999
55,0.458333,stand,0.02148085923438758,0.040321612864515036,-0.09432377295091268,0.07513012142979507,-1.0783642701925549,-0.05335486419005198,0.00024000960036427117,-0.00012000480018879719,0.00048001920076767927,-0.0002400096003909176,0.001080043201729152,0.00036001440057555127,3.974717971080524,5.026002072124021,-11.232898613914974,-0.028802304142273062,-0.0720057603452907,0.07200576034559078,-0.1584126727633169,0.2016161289679338,-0.014401152069237708,0.014487999999999834,0.171823,-0.904979,0.025752999999999915,-0.172097,-0.907104,0.01126500000000008,0.34392,0.0021250000000000435,0.9778334481989528,0.9980608504910493,double,-0.904979
56,0.466667,stand,-0.006959443244554051,0.004199664026878715,-0.00455963522917956,-0.002821007504195583,-0.04636352628936082,0.013462103892701126,-0.00011999040075806724,-0.0004799616030722338,0.0,-0.00035997120230084497,-0.0007199424046083507,-0.0002399808015352843,-3.4125632924095997,-4.334287117546951,10.770834859819178,-0.04319654441112768,-0.04319136103712939,-0.05759769627641934,-0.014394240689936074,-0.21598099428095766,-0.07199366476011938,0.01454500000000003,0.171784,-0.904941,0.025808000000000053,-0.172138,-0.907068,0.011263000000000023,0.343922,0.00212699999999999,0.9779054448392925,0.9986001119910421,double,-0.904941
57,0.475,stand,-0.00540021600864909,-0.01116044641785791,0.008640345613819893,0.16128128689631288,0.09008717131771865,0.11886673542267433,0.0002400096003909176,0.0,-0.000120004800192128,0.0,-0.000360014400576384,-0.000480019200768512,0.18711475289871166,-1.8432869848477935,1.5840610636024823,0.043201728207006566,0.05759769627651926,-0.014401152069138161,0.04319827220698978,0.04319308820736441,-0.028805760138392932,0.01459200000000016,0.171877,-0.905014,0.025853000000000126,-0.172048,-0.907144,0.011260999999999965,0.34392500000000004,0.0021299999999999653,0.9782527685152302,0.998999959998399,double,-0.905014
58,0.483333,stand,0.002160086403464951,0.0152406096243835,-0.0030001200047931873,-0.22087879753107492,-0.11723279399806666,-0.020522894319555212,-0.0003600144005730508,-0.0007200288011527632,0.0,-0.00012000480018213478,0.0001200048001921272,0.0003600144005763816,0.9072725803568954,3.1682534552071644,-1.396911750703592,-0.07200576034608974,-0.08640691241482781,0.014401152069138065,-0.014401152067938832,0.057604608276552165,0.10080806448396618,0.014571000000000112,0.171744,-0.904989,0.025834000000000135,-0.172174,-0.907116,0.011263000000000023,0.343918,0.00212699999999999,0.9773883055457231,0.9993366485078736,double,-0.904989
59,0.491667,stand,-0.006119510439167651,0.0035997120230417535,-0.018118550515960175,0.0852392837086352,-0.08560612100910377,0.016821629091336176,-0.0005999520038436226,-0.0004799616030722338,0.0,-0.00011999040078471047,0.00011999040076805845,0.0002399808015352843,-0.9934721433444438,-1.3967959684835296,-1.8140665360171553,-0.028790209175734535,0.028805759308918787,0.0,1.727789467760564e-06,-1.7277926648365203e-06,-0.0144028796545593,0.014617000000000102,0.17170999999999997,-0.904838,0.025884000000000018,-0.17220300000000002,-0.9069630000000001,0.011266999999999916,0.343913,0.0021250000000000435,0.9774694775943003,0.9995101412401335,double,-0.904838
60,0.5,stand,-0.001320052802110077,0.004680187207482999,-0.0002400096003909176,-0.012654525472681113,-0.04347956047586167,0.045752445659391607,-0.0004800192007818352,-0.0006000240009573092,-0.000120004800192128,-0.00012000480018213558,0.000120004800192128,-0.00024000960038342327,0.5759579547651008,0.12966220862129466,2.145510730297528,0.014392512067897243,-0.014408064068771835,-0.014401152069138161,-1.7279968108863784e-06,1.728000008345999e-06,-0.0576011522763361,0.01462399999999997,0.17166600000000004,-0.904837,0.025894000000000084,-0.17224099999999998,-0.906963,0.011270000000000113,0.343907,0.0021259999999999613,0.9774438000123082,0.9995100824547489,double,-0.904837
61,0.508333,stand,-0.0075603024120873595,0.006120244809795156,-0.0016800672026831191,-0.0050903028089821925,-0.08602127419769283,0.03598794568366513,0.000240009600390916,-0.000120004800195458,-0.0010800432017274793,-0.000480019200781832,-0.000840033601343225,-0.0006000240009598033,-0.7488599075935745,0.17281382483045127,-0.1728138248280566,0.08640691241722648,0.057604608275752936,-0.11520921655290378,-0.043203456210211794,-0.11520921655290399,-0.04320345620741372,0.014688999999999952,0.171614,-0.904832,0.025952999999999893,-0.17229899999999998,-0.906954,0.01126399999999994,0.34391299999999997,0.0021220000000000683,0.976925202108983,0.9981025575061908,double,-0.904832
62,0.516667,stand,-0.018118550515960296,-0.0029997600191981506,0.0002399808015294577,-0.07147975104692511,0.012678480462541948,-0.000977980914891296,-0.00011999040075806804,-0.0010799136069092029,0.001079913606910868,-0.00035997120230084735,0.0,0.00035997120230334514,-1.2668884213910483,-1.094313034436448,0.230387329519149,-0.04319654441432518,-0.11517984241825657,0.2591740831099544,0.014404607449122312,0.10079596848370888,0.11519020917484449,0.014839000000000047,0.17163,-0.904825,0.02610099999999993,-0.17227399999999998,-0.906953,0.011261999999999883,0.343904,0.0021280000000000188,0.9761667751910286,0.9991515397394011,double,-0.904825
63,0.525,stand,-0.015600624024956551,-0.009120364814595005,-0.005760230409208782,0.014030142492167627,-0.03160141576985979,-0.012770859450526428,-0.000480019200781832,0.0002400096003842544,-0.0015600624024959882,0.0008400336013548828,-0.0001200048001921272,-0.0010800432017283122,0.30216326545106614,-0.7345019555258405,-0.7200541474544839,-0.043205184210219905,0.1583971207600446,-0.3168097935205622,0.1440063366921547,-0.014401152069137968,-0.17280864082943134,0.014964999999999895,0.17170800000000003,-0.90479,0.026237999999999984,-0.172199,-0.906914,0.011273000000000089,0.343907,0.0021240000000000148,0.9760103445968038,0.9977108038036888,double,-0.90479
64,0.533333,stand,-0.019920796831886717,0.012840513620547788,0.005640225609026723,-0.03773430140001957,0.0014275946387430417,-0.020387313651337776,-0.00048001920075519197,0.0,0.0003600144005763864,-0.0004800192007818384,-0.0007200288011527728,-0.00024000960038342487,-0.5184414744906043,2.635410828650305,1.3681094465661356,3.1969326773501527e-12,-0.028802304138276322,0.2304184331060113,-0.15841267276331852,-0.07200576034569195,0.10080806448396676,0.015127000000000113,0.171601,-0.904834,0.02639999999999998,-0.17231200000000002,-0.9069630000000001,0.011272999999999866,0.343913,0.0021290000000000475,0.9777099599984167,0.9985032771763644,double,-0.904834
65,0.541667,stand,-0.027717782577378024,0.010319174466039636,0.0040796736261072995,0.012972976952736118,0.03716218263929283,-0.006803056057044328,0.000479961603058909,0.0,0.0,0.00011999040078470967,0.0002399808015361153,0.0002399808015352827,-0.935563444383399,-0.30253649562132623,-0.1872512578497014,0.1151884813791809,0.0,-0.04319827220738944,0.07199539255658069,0.11519193696770828,0.05759424069098919,0.015361999999999876,0.17151500000000003,-0.904868,0.02663199999999999,-0.172396,-0.906995,0.011270000000000113,0.343911,0.00212699999999999,0.9779300639949018,0.9994000479961513,double,-0.904868
66,0.55,stand,-0.009960398415943227,-0.006000240009599698,0.008160326413051327,-0.05795581841962795,0.0637738515989404,0.02171898095977716,-0.000240009600390916,-0.0008400336013482211,0.0003600144005755489,-0.0008400336013548828,0.000600024000960636,-0.00024000960038342167,2.1309713382256956,-1.9584080733996478,0.48969792235017523,-0.0864000004139952,-0.1008080644843655,0.04320345620731398,-0.11520748855629286,0.0432069122074306,-0.05760115227633534,0.015442999999999873,0.171558,-0.904933,0.026707999999999954,-0.17234099999999997,-0.907065,0.01126500000000008,0.34389899999999995,0.0021320000000000228,0.9771051354306062,0.9982335771698065,double,-0.904933
67,0.558333,stand,-0.02232089283571597,0.0002400096003842576,0.005040201608062748,-0.08173243101876035,-0.010052182944109032,0.06474993822485978,-0.00012000480018213638,0.0009600384015370304,0.0001200048001921288,0.0003600144005730556,-0.0009600384015370304,-0.000600024000960644,-1.4833186631192676,0.7488599075943853,-0.37442995379678473,0.014401152071136531,0.21601728103747364,-0.0288023041381762,0.1440115206921816,-0.18721497689879762,-0.043203456207515374,0.015627999999999975,0.171564,-0.904974,0.02689699999999995,-0.17235099999999998,-0.9071119999999999,0.011268999999999973,0.34391499999999997,0.0021379999999999733,0.9769951273241662,0.9980200218135499,double,-0.904974
68,0.566667,stand,-0.012718982481394128,-0.0027597792176619956,0.003959683225349233,-0.028445183412957962,0.027674361437226125,0.0076141834858784625,0.0,-0.00011999040076472725,-0.00035997120230334037,-0.00035997120230084253,0.00011999040076805765,0.0003599712023041729,1.152137071552888,-0.3599458624965479,-0.12965183377891853,0.014399424067930822,-0.1295930888291036,-0.057592512898423986,-0.08639136103598424,0.1295930888295032,0.11519020917504315,0.015733999999999915,0.17158600000000002,-0.90501,0.026999999999999913,-0.172327,-0.907142,0.011265999999999998,0.343913,0.0021320000000000228,0.978047595060364,0.999128289948099,double,-0.90501
69,0.575,stand,-0.013200528021127506,-0.0009600384015370304,0.004680187207489692,-0.025611438774082514,0.001960738754683551,-0.009187146097099311,0.0002400096003909192,0.0004800192007685152,0.0007200288011519401,-0.0003600144005730556,-0.0004800192007685152,0.0007200288011519401,-0.05778777627905701,0.21597753703647926,0.08646393641431246,0.02880230413907613,0.07200403234528356,0.12960518462201973,-5.1840000255698535e-06,-0.07200403234568323,0.04320864020734075,0.015846000000000027,0.17159800000000003,-0.905043,0.027106999999999992,-0.172323,-0.9071750000000001,0.011260999999999965,0.34392100000000003,0.0021320000000000228,0.9771832771763741,0.9984378875803235,double,-0.905043
70,0.583333,stand,-0.01392055682227343,-0.003960158406336867,0.0016800672026831191,0.012290245992572734,-0.0269058357567607,0.006357193740943869,-0.0010800432017457988,-0.000120004800195458,0.0,-0.0007200288011461016,-0.0002400096003842544,0.0026401056042243,-0.08640691241400719,-0.360028801728048,-0.3600288017288564,-0.15841267276331605,-0.07200576034609033,-0.08640691241472905,-0.043203456207013616,0.028802304138276707,0.2304184331060065,0.015952999999999884,0.17163,-0.905057,0.027217000000000047,-0.172292,-0.907167,0.011264000000000163,0.343922,0.0021099999999999453,0.9770888505263635,0.9954216076074028,double,-0.905057
71,0.591667,stand,-0.017158627309815593,-0.005879529637624834,-0.00611951043916761,0.08819818715208169,-0.02807212907697459,-0.006081363063909999,0.0004799616030855522,0.0002399808015361153,-0.0003599712023041729,-0.0005999520038436186,0.0008399328053764035,0.0015598752099830842,-0.38853737551501527,-0.23030612326469307,-0.9358744470663151,0.1871856017316222,0.04319481662245867,-0.04319308882939407,0.01440806303125534,0.12958272207351207,-0.1296172779267108,0.016100000000000003,0.17168099999999997,-0.905009,0.027355000000000018,-0.172236,-0.907103,0.011255000000000015,0.343917,0.0020940000000000403,0.9779830531943,0.9968825579417382,double,-0.905009
72,0.6,stand,-0.01044041761669855,-0.008160326413058097,0.007320292811709864,-0.05716885600015283,-0.1125834072695978,0.030437453368529155,-0.0003600144005730556,-0.0004800192007685152,0.0012000480019204553,-0.000840033601354894,0.0001200048001921288,-0.0033601344053762754,0.8062174118705273,-0.2737065613144467,1.6128409037414615,-0.10080115248513326,-0.08640345641481303,0.18720979289867304,-0.028810944139118867,-0.08639481641477036,-0.5904247708339618,0.016183999999999976,0.17174499999999998,-0.90506,0.027434999999999876,-0.17216700000000001,-0.907192,0.0112509999999999,0.343912,0.0021320000000000228,0.9764438425762036,0.9942239573270111,double,-0.90506
73,0.608333,stand,-0.02208088323532476,0.011520460818430887,0.0009600384015370176,-0.008600000405516338,-0.004007569614159466,0.04688915574909836,-0.0006000240009639668,0.0002400096003842544,-0.0010800432017283122,-0.0007200288011461016,0.0013200528021117337,-0.0002400096003842544,-1.3969117507051674,2.361788939336242,-0.7632610596631249,-0.02880230413907478,0.08640691241482859,-0.2736218893134235,0.014401152071137874,0.14401152069117962,0.37442995379719285,0.016362999999999905,0.171651,-0.9050769999999999,0.027612999999999888,-0.172252,-0.907202,0.011249999999999982,0.34390299999999996,0.0021250000000000435,0.976652298395592,0.9974621829792344,double,-0.9050769999999999
74,0.616667,stand,-0.009479241660686671,-0.0013198944084453212,-0.0022798176145897952,-0.028866670492051858,-0.10373814193483236,0.007207431662584875,-0.00035997120230084735,0.001439884809216711,0.00035997120230417775,-0.0004799616030589154,0.0,-0.0002399808015352859,1.5120760228747492,-1.5407193696755797,-0.3887516218054753,0.028804031517053127,0.14397350717932125,0.17278790545146364,0.028805759309717724,-0.15839366476022812,3.4555854293867497e-06,0.016439000000000092,0.171674,-0.9050549999999999,0.027688000000000157,-0.172241,-0.9071849999999999,0.011249000000000065,0.34391499999999997,0.0021299999999999653,0.9761546192181898,0.9991056443574711,double,-0.9050549999999999
75,0.625,stand,-0.013680547221882515,0.008880355214210751,-0.003840153606134747,-0.02763854049764504,-0.08878979897365086,0.0006121375724496241,-0.000240009600390916,-0.0009600384015370176,0.0001200048001921272,0.0003600144005730508,0.0004800192007685088,0.0006000240009598033,-0.5041768344168759,1.2240789178754385,-0.1872478088977493,0.014395968067914417,-0.2880023053826615,-0.02879712013825148,0.10080115248193479,0.05760460827655187,0.10080460848374963,0.016550999999999982,0.17159199999999997,-0.905022,0.02780500000000008,-0.17231100000000002,-0.9071480000000001,0.011254000000000097,0.34390299999999996,0.0021260000000000723,0.9770786087717629,0.9985857298668235,double,-0.905022
76,0.633333,stand,-0.022920916836679642,0.01608064322572506,-0.009120364814601666,0.036692926143467454,-0.02841699377306761,-0.07970472616348678,0.0,-0.0002400096003842544,-0.000600024000960636,-0.0010800432017457988,-0.0008400336013448903,0.0026401056042243,-1.1088887093240234,0.8640691241466791,-0.6336506910436693,0.028802304139075363,0.08640691241482781,-0.08640691241482781,-0.17281382483125446,-0.15841267276051765,0.24481958517514563,0.016742000000000035,0.171456,-0.904951,0.027986999999999984,-0.172452,-0.9070499999999999,0.01124499999999995,0.343908,0.002098999999999962,0.9779329239555303,0.9950439970825264,double,-0.904951
77,0.641667,stand,-0.010199184065261723,0.0008399328053797451,-0.002879769618433422,0.023112332320070515,0.006535388042039219,0.007753391120111885,-0.0004799616030589154,0.0002399808015361185,0.00011999040076805925,0.0004799616030855586,0.0011999040076805924,-0.002759779217662865,1.5264858137050625,-1.828738951325342,0.7488115186187041,-0.057590785104261834,0.05759424069118978,0.08639481662211414,0.18718560173162543,0.24477293124855945,-0.6479343438789531,0.016823000000000032,0.17145099999999996,-0.9049259999999999,0.02807599999999999,-0.17244900000000002,-0.907049,0.011252999999999957,0.3439,0.002123000000000097,0.9778535581763732,0.9949210362774128,double,-0.9049259999999999
78,0.65,stand,-0.01080043201729811,0.007800312012478276,0.0031201248050019685,-0.006549278510551031,-0.04630388074695729,0.022828864024549058,0.0,-0.0002400096003842544,-0.0003600144005755489,-0.00012000480020878121,0.0007200288011510978,-0.0002400096003842544,-0.07215264034998006,0.8352789160084605,0.7200161314575021,0.057597696274920604,-0.05760115227653557,-0.057602880276443794,-0.07199884834925445,-0.05758732827667018,0.3023844494514101,0.016913000000000178,0.17138399999999998,-0.9049550000000001,0.028164999999999996,-0.172508,-0.907077,0.011251999999999818,0.343892,0.0021219999999999573,0.9780588608993435,0.9987193239254675,double,-0.9049550000000001
79,0.658333,stand,-0.009480379215161521,0.003000120004799889,0.0,-0.030310948763666627,-0.03958093541097871,0.013241959427494768,-0.000840033601354894,-0.0008400336013415707,-0.000600024000960644,-0.00024000960036427277,0.000600024000960644,0.0003600144005763864,0.1584126727633026,-0.5760460827647222,-0.37442995379839156,-0.1008080644851676,-0.07200576034529244,-0.028802304138377213,-0.014401152064741709,-0.014401152068937342,0.07200576034569138,0.016985000000000028,0.171352,-0.90496,0.0282420000000001,-0.17252800000000001,-0.907074,0.011257000000000073,0.34388,0.0021140000000000603,0.9766418039708678,0.998767067882131,double,-0.90496
80,0.666667,stand,-0.009839212862960744,0.0010799136069091885,-0.0010799136069158492,0.01303318392708821,0.006375248195146129,0.000268469394661483,-0.0005999520038436186,0.0,0.0005999520038402883,-0.0004799616030855522,0.0004799616030722306,-0.0002399808015361153,-0.043056593208449796,-0.2304063352400631,-0.12957926648858184,0.028807487102384628,0.10079596848350904,0.14398560172797256,-0.028791936971595582,-0.014406335239790314,-0.07199366476031883,0.01706199999999991,0.17134300000000002,-0.904946,0.0283199999999999,-0.172533,-0.907067,0.01125799999999999,0.343876,0.0021209999999999285,0.9773758995656563,0.9988000959923047,double,-0.904946
81,0.675,stand,-0.01812072482899455,0.004800192007685088,-0.006240249609977291,0.00829478609692265,-0.038731197005186756,-0.01820147056200394,-0.0007200288011461016,-0.0003600144005797124,0.0007200288011519304,-0.0003600144005730508,0.0006000240009589705,-0.00024000960038342167,-0.9938211887716035,0.44645126614375175,-0.6192650909710092,-0.01440979206798061,-0.043203456207813615,0.014409792069079762,0.014394240071102954,0.01440806406897149,-3.4559999167614e-06,0.017206999999999972,0.17129999999999995,-0.904888,0.028467999999999938,-0.17256800000000003,-0.9070170000000001,0.011260999999999965,0.34386799999999995,0.0021290000000000475,0.9769099279971246,0.9987670678821257,double,-0.904888
82,0.683333,stand,-0.015120604824201566,0.0021600864034516565,-0.0016800672026964648,0.03728214972350069,0.05688550939589766,0.01126596863788293,0.00012000480018213638,-0.0006000240009573131,-0.0004800192007685152,-0.0003600144005730556,0.0009600384015370304,0.0,0.3600288017272307,-0.31682534552183556,0.5472437786248491,0.10080806448196876,-0.02880230413747785,-0.14401152069128242,-5.789871195920484e-16,0.043203456207615884,0.02880230413817639,0.01733399999999996,0.171277,-0.904878,0.028591000000000033,-0.17257799999999998,-0.907003,0.011257000000000073,0.343855,0.0021250000000000435,0.9774538000123245,0.9982911308961726,double,-0.904878
83,0.691667,stand,-0.012838972882152196,-0.004199664026878687,0.002399808015361153,-0.014547134832485323,-0.018021299192763098,-0.05462936341014085,-0.00011999040075806644,-0.0010799136069091885,-0.0005999520038394556,-0.0002399808015427761,0.00011999040076805765,0.0,0.2737739311314318,-0.7631090029194019,0.4895458624979106,-0.028797120343196664,-0.05758214614253321,-0.014390785105704285,0.01440287965326117,-0.10079769627657383,0.0,0.0174399999999999,0.17130300000000004,-0.904903,0.028695999999999833,-0.17254199999999997,-0.907023,0.011255999999999933,0.343845,0.0021200000000000108,0.9767313494054949,0.9995528221787153,double,-0.904903
84,0.7,stand,-0.021000840033605885,0.007200288011521066,-0.006120244809795237,0.041874493323559324,-0.021381215568103122,-0.05977591639630952,-0.0002400096003909192,0.0009600384015370304,-0.0006000240009598112,0.0002400096003909192,0.00048001920076684975,-0.0001200048001921288,-0.9794632367039199,1.3680489665666455,-1.0224472369082527,-0.014402880071145308,0.24480403317487548,-8.640000042674972e-06,0.057601152278135094,0.04320518420722374,-0.014401152069138353,0.01761299999999988,0.17125100000000004,-0.904857,0.028872999999999927,-0.17259799999999997,-0.906973,0.011260000000000048,0.343849,0.0021160000000000068,0.9769111926955056,0.9990834481989335,double,-0.904857
85,0.708333,stand,-0.01116044641787116,0.0008400336013482211,0.0003600144005730508,0.002284074660188217,0.008877440201268436,-0.0011590318207162634,-0.0010800432017191524,-0.0006000240009639668,0.0006000240009598033,-0.0009600384015370176,0.0009600384015370176,-0.0003600144005763816,1.1808944696669488,-0.7632610596631247,0.7776622117326607,-0.10080806448196684,-0.18721497689919483,0.1440115206911808,-0.14401152069217948,0.05760460827675097,-0.028802304138275746,0.017697000000000074,0.17123899999999997,-0.904855,0.02895800000000004,-0.172597,-0.906979,0.011260999999999965,0.343836,0.0021240000000000148,0.9764708038037092,0.9976589663765087,double,-0.904855
86,0.716667,stand,-0.02531797456203019,0.003839692824571184,-0.013078953683694971,-0.020202081879981217,-0.0013301986982894524,-0.07286004727489823,0.00011999040075806644,0.0003599712023075034,-0.0007199424046075133,0.00011999040075806644,0.0002399808015344501,0.0010799136069116863,-1.6987674759009985,0.3599303123617638,-1.6125471663388433,0.14399251289623347,0.11519020917584147,-0.15838329800423645,0.12959308882830284,-0.08640000000030741,0.1727775386954712,0.017908999999999953,0.17121000000000003,-0.904752,0.029169999999999918,-0.172627,-0.906861,0.011260999999999965,0.34383700000000006,0.0021090000000000275,0.9775536425119739,0.9981454246669295,double,-0.904752
87,0.725,stand,-0.016680667226675924,0.005640225609026723,0.008160326413051434,-0.017076715057880994,0.03155659618136078,0.020657847286715637,-0.0007200288011461112,-0.0008400336013482324,-0.0003600144005763864,-0.0009600384015370304,0.0002400096003842576,0.00048001920076768247,1.0365183409761605,0.21607257703774815,2.5488155642321613,-0.10080633648196152,-0.14400633669215732,0.04319308820726391,-0.12960864062103766,3.4560002169077186e-06,-0.07199020834561494,0.01804199999999989,0.17115599999999997,-0.904823,0.0293009999999998,-0.17267200000000002,-0.906925,0.011258999999999908,0.343828,0.0021019999999999373,0.977040850491054,0.9981668963978723,double,-0.904823
88,0.733333,stand,-0.012360494419799093,0.005280211208446935,-0.039121564862600156,0.13021261512645202,-0.314152931320241,-0.08022223385508902,-0.0013200528021100684,-0.0001200048001887964,-0.0003600144005755489,0.0003600144005996972,0.0007200288011527632,-0.0012000480019196066,0.518441474484197,-0.04320345620782266,-5.674053915234777,-0.07200576034608841,0.08640691241562859,1.0050305629862287e-13,0.1584126727633172,0.05760460827655149,-0.20161612896763256,0.018134000000000094,0.171111,-0.9045,0.029407000000000183,-0.17271,-0.906609,0.011273000000000089,0.34382100000000004,0.0021090000000000275,0.9766208038037041,0.9975915847476217,double,-0.9045
89,0.741667,stand,-0.023038156947440734,0.008879289656829723,0.00467962562995098,-0.04246384469386374,-0.00012782531769991824,-0.021544193103224314,-0.0005999520038436266,-0.0008399328053797451,0.0004799616030714044,-0.0010799136069291853,-0.0011999040076789273,0.003839692824573733,-1.2812170059565278,0.43185486541670365,5.255722401314061,0.08640518337730332,-0.08638444986692499,0.10078905731304992,-0.17277753870037085,-0.23037350717922983,0.6047205215374812,0.01832100000000003,0.17102999999999996,-0.904535,0.029590000000000005,-0.172794,-0.906616,0.011268999999999973,0.34382399999999996,0.0020809999999999995,0.9772927851810762,0.9930579333822385,double,-0.904535
90,0.75,stand,-0.0075603024120873595,0.003000120004799849,0.005040201608076004,-0.030522860146760485,0.015279958583087517,0.03200649169797926,-0.0003600144005730508,-0.0002400096003842544,0.0007200288011519304,0.000240009600390916,-0.0001200048001921272,0.002160086403455791,1.8574168409160339,-0.7055285793867574,0.04327084820893103,0.028793664139034544,0.07199366434603244,0.028809216138308537,0.15839712076324203,0.12959308862196037,-0.20156083296747088,0.01838099999999998,0.17100299999999996,-0.904571,0.029654999999999987,-0.17282000000000003,-0.9066400000000001,0.011274000000000006,0.343823,0.0020690000000000985,0.9779099439977621,0.9963721834578942,double,-0.904571
91,0.758333,stand,-0.002280091203647086,-0.008280331213253446,0.002280091203647086,-0.020232497622240588,-0.0479984418947551,0.0706564578739098,-0.0006000240009639668,-0.0007200288011527632,-0.0010800432017274793,-0.0009600384015370176,0.0014400576023038609,-0.004320172806911582,0.6336506910404718,-1.3537082944981695,-0.3312264975913724,-0.02880230413907536,-0.05760460827655188,-0.21601728103676973,-0.1440115206921791,0.18721497689859373,-0.7776622117325508,0.01839499999999994,0.171066,-0.904599,0.02966599999999997,-0.17273899999999998,-0.906695,0.011271000000000031,0.34380499999999997,0.0020959999999999868,0.9766566296076191,0.9922434019642132,double,-0.904599
92,0.766667,stand,-0.016198704103671347,0.0075593952483844025,-0.006959443244540776,0.04963951413529449,0.03146787736020601,-0.03571104183762693,-0.0011999040076872533,-0.0011999040076739317,0.00011999040076722665,0.00011999040075806804,0.00035997120230417775,0.0013198944084469866,-1.67009994000772,1.9006151261864577,-1.108655441347242,-0.07197984241940124,-0.05758041834907262,0.14399251289833367,0.12959308882830475,-0.12959999999996272,0.6767539255289898,0.01851999999999987,0.170993,-0.90454,0.029801999999999884,-0.172799,-0.906626,0.011282000000000014,0.343792,0.0020860000000000323,0.97630473744525,0.9977110784852711,double,-0.90454
93,0.775,stand,-0.010440417616698412,-0.0006000240009639668,0.0013200528021100684,0.02294913588796063,0.0262725637831248,0.007504715776581941,-0.0006000240009373203,-0.0007200288011527632,0.0002400096003842544,-0.001200048001901287,-0.0010800432017291448,0.0039601584063360335,0.691022019317522,-0.9791694767008683,0.9935792687688478,0.07198848034920563,0.05758732827567101,0.01440288006924604,-0.15841094475691223,-0.17280864082963115,0.31684435352082513,0.018602000000000007,0.17099200000000003,-0.904549,0.02987899999999999,-0.17280299999999998,-0.9066040000000001,0.011276999999999981,0.343795,0.002055000000000029,0.9778374839497208,0.9928723030196474,double,-0.904549
94,0.783333,stand,-0.012000480019199556,0.00588023520941098,0.00024000960037759599,-0.03780287484359347,-0.04751954719645538,0.00746158184479669,-0.001320052802110086,-0.0008400336013482324,0.0,0.0006000240009639748,0.002760110404417297,-0.0028801152046077604,-0.187214976899215,0.77766221173347,-0.12961036862264277,-0.08640691241722936,-0.014401152069539215,-0.028802304138276322,0.2160172810350748,0.46083686621222575,-0.8208656679399804,0.018691000000000013,0.17093599999999998,-0.904551,0.02998400000000001,-0.172829,-0.9066299999999999,0.011292999999999997,0.343765,0.002078999999999942,0.9766022147265071,0.9932766365398712,double,-0.904551
95,0.791667,stand,-0.027957763378947443,0.0004799616030722306,0.004919606431493694,0.07315473516133106,-0.003965489199308254,0.06648668482758467,-0.0007199424046283283,0.0,0.0003599712023041729,0.00023998080151613289,-0.00011999040076805765,-0.0004799616030722306,-1.9147208255036916,-0.6479809942811026,0.5615066991979917,0.07200748709884246,0.10079596848430837,0.04319308882939407,-0.04320172779551706,-0.34558444986625064,0.2879953925528571,0.01891799999999999,0.17093199999999997,-0.9045890000000001,0.030218999999999996,-0.172834,-0.906675,0.011301000000000005,0.34376599999999996,0.0020859999999999213,0.9777984665361461,0.9990835581763684,double,-0.9045890000000001
96,0.8,stand,-0.010800432017271462,0.0015600624024943227,0.0,0.00048128489203591915,0.017817290432863432,0.01615537316833137,-0.0010800432017191524,0.0002400096003842544,-0.0016800672026881154,-0.0009600384015370176,0.0002400096003842544,0.000600024000960636,2.058962121885984,0.12961728062187536,-0.5903763868347142,-0.04321382420386686,0.028802304138275937,-0.24481440117512054,-0.14400806468896502,0.04320172820740556,0.12960345662220835,0.018998999999999988,0.170921,-0.904603,0.03030099999999991,-0.17284499999999997,-0.9066700000000001,0.011301999999999923,0.34376599999999996,0.002067000000000041,0.9759772549673587,0.9980711926955073,double,-0.904603
97,0.808333,stand,-0.011400456018235581,-0.0008400336013415707,-0.00036001440058637876,0.002582120735964816,0.010622984106191119,0.01073153340791915,0.00012000480018213638,0.0001200048001954596,0.00036001440057555366,-0.0003600144005730556,0.0008400336013432362,-0.0016800672026881377,-0.07200576034610875,-0.2880230413819651,-0.04320345620861419,0.14401152068898354,-0.014401152068738257,0.24481958517504954,0.07200576034608994,0.07200576034549229,-0.2736218893134279,0.019094999999999862,0.170929,-0.904597,0.030392999999999892,-0.172831,-0.906681,0.01129800000000003,0.34376,0.0020839999999999748,0.9784966485078732,0.9968123970057798,double,-0.904597
98,0.816667,stand,-0.018118550515960053,0.0023998080153544922,0.005159587233023149,-0.03492801683537981,-0.002818322838710173,-0.02283909836040047,-0.001199904007660594,-0.0013198944084453037,0.00011999040076805765,-0.00035997120230084253,0.0004799616030722306,0.0014398848092150266,-0.8061068511788362,0.3887498940120036,0.6622992120961706,-0.15837638683018004,-0.17277408311024145,-0.028800575930824836,5.183377995329118e-06,-0.043205183377850113,0.37436429228499407,0.01923600000000003,0.17089800000000005,-0.904639,0.03054099999999993,-0.17284699999999997,-0.906712,0.011304999999999898,0.343745,0.0020729999999999915,0.9762903054904339,0.9974002079833626,double,-0.904639
99,0.825,stand,-0.012360494419772612,0.0009600384015370304,0.0,0.007336221389663652,0.016264539828410876,0.008526730874820889,-0.0009600384015370304,0.00012000480018879799,-0.00036001440057555366,-0.000840033601354894,0.0007200288011511073,0.0002400096003842576,0.690994371317352,-0.17277926482869013,-0.6191752349721824,0.028785024135793338,0.17279481682876693,-0.05760288027644494,-0.05760979227817783,0.028809216138110993,-0.14399078469108126,0.019330999999999987,0.17089100000000002,-0.904642,0.030636999999999803,-0.17284899999999997,-0.90671,0.011305999999999816,0.34374,0.0020680000000000698,0.9775994661252358,0.9981131282987081,double,-0.904642
100,0.833333,stand,-0.02472098883957154,0.008280331213253446,-0.009240369614783802,0.05249679266921297,-0.026041482046874093,-0.06547616866780209,-0.0006000240009639668,-0.0001200048001887964,0.00024000960038342167,-0.0003600144005730508,-0.0001200048001921272,0.0003600144005755489,-1.48331866312239,0.878470276217015,-1.1088887093224244,0.04320345620701573,-0.028802304137476704,0.07200576034549055,0.057604608278152065,-0.10080806448376707,0.014401152069037656,0.019532000000000105,0.170821,-0.904563,0.03083999999999998,-0.17291900000000004,-0.9066299999999999,0.011307999999999874,0.34374000000000005,0.00206699999999993,0.9782345110654277,0.9991281853387093,double,-0.904563
101,0.841667,stand,-0.013798896088296656,0.001439884809210031,0.00155987520998808,0.014576086873097473,0.020725296972626643,0.0023186008849507295,-0.0010799136069291708,-0.0003599712023075034,0.00011999040076805765,0.0,0.0009599232061444612,-0.000479961603071398,1.31054628645006,-0.8207879054527674,1.2959257049162225,-0.05758214614413252,-0.028793664761063733,-0.014401151861694637,0.043198272206989206,0.12958099428084716,-0.10078905731304781,0.019637999999999822,0.170806,-0.904575,0.030954999999999844,-0.172923,-0.906647,0.011317000000000021,0.343729,0.0020719999999999628,0.9773722742151991,0.9982112887149018,double,-0.904575
102,0.85,stand,-0.01572062882516554,0.0013200528021167475,-0.0007200288011594343,0.015870259921126006,0.027372878918819767,0.02986672310657122,-0.0007200288011461112,-0.0009600384015370304,-0.00048001920076768247,-0.00048001920075519197,0.0002400096003842576,0.0012000480019196224,-0.23061715311039263,-0.014380416067836863,-0.2735994253147168,0.043187904210135956,-0.07201094434531771,-0.0720040323455833,-0.05760460827495456,-0.08639308841476181,0.201609216967603,0.019762999999999975,0.17078699999999997,-0.904573,0.031082000000000054,-0.17293200000000003,-0.906631,0.011319000000000079,0.343719,0.0020580000000000043,0.9772658479110672,0.9978090221308731,double,-0.904573
103,0.858333,stand,-0.012960518420736413,0.002640105604220137,-0.0013200528021100684,0.01312732560126305,0.018898582322536446,0.007892268397748581,-0.0010800432017191524,0.0002400096003842544,0.0010800432017274793,-0.00012000480018213478,-0.0001200048001921272,-0.0001200048001921272,0.3312264975913975,0.15841267275931642,-0.07200576034448958,-0.04320345620701304,0.14401152069138123,0.1872149768984946,0.04320345620701496,-0.043203456207414295,-0.1584126727603197,0.019862000000000046,0.170767,-0.9045529999999999,0.031189000000000133,-0.17295499999999997,-0.906621,0.011327000000000087,0.34372199999999997,0.0020680000000000698,0.976743077177753,0.9996535759815348,double,-0.9045529999999999
104,0.866667,stand,-0.010319174466046434,0.0022798176145897952,0.0007199424046150163,0.005366174657945553,0.015438814873905887,0.01680901520484047,0.00011999040075806804,-0.0010799136069092029,-0.0007199424046075229,-0.0008399328053864059,0.0004799616030705718,0.0005999520038402962,0.31693591968922413,-0.043231100267619824,0.24477984241961798,0.14399251289623555,-0.1583781146260457,-0.21598099428065903,-0.08638444986852355,0.0719902091747903,0.0863879054514552,0.019948999999999995,0.17073900000000003,-0.9045650000000001,0.031268000000000074,-0.17296999999999998,-0.906622,0.011319000000000079,0.34370900000000004,0.0020569999999999755,0.9772576176923493,0.9981027851810715,double,-0.9045650000000001
105,0.875,stand,-0.013680547221882515,0.0021600864034582896,-0.0004800192007685088,0.005273769805376156,-0.008257394125322544,-0.0026754436659199203,-0.0010800432017191524,-0.0007200288011527632,-0.00024000960038342167,-0.0009600384015370176,0.0007200288011527632,-0.0003600144005763816,-0.4033808659349654,-0.014368320068583355,-0.1440011526921301,-0.1440097926889734,0.04318790420694085,0.05759424027650297,-0.014413248067996057,0.028809216138508394,-0.11520057655306298,0.020054000000000016,0.170715,-0.904563,0.03137400000000001,-0.172982,-0.906621,0.011319999999999997,0.34369700000000003,0.0020580000000000043,0.9772199119964915,0.9979118551724226,double,-0.904563
106,0.883333,stand,-0.025561022440899778,0.013320532821316126,-0.0016800672026964422,-0.003272311261443887,-0.05981505434240831,-0.03706248358641812,-0.0007200288011461016,0.0006000240009573052,-0.000600024000960636,-0.0003600144005730508,-0.000600024000960636,0.0001200048001921272,-1.4257140548442593,1.3393071424286318,-0.1440115206921791,0.0432034562070142,0.15841267276011795,-0.043203456207513834,0.07200576034608955,-0.15841267276051765,0.05760460827655187,0.020261000000000084,0.17060899999999996,-0.904554,0.031584000000000056,-0.17309800000000003,-0.9066059999999999,0.011322999999999972,0.343707,0.0020519999999999428,0.9776252021089935,0.9988167367128502,double,-0.904554
107,0.891667,stand,-0.021598272138237343,-0.008759299256064996,-0.001439884809216711,-0.03271765279681623,0.13789132522615802,-0.031510297170027624,-0.00035997120230084735,0.0,-0.0011999040076789273,-0.0005999520038436266,0.0008399328053764147,-0.001559875209983105,0.47549199695973804,-2.6493678998537615,0.02881958165103583,0.04320345558498395,-0.07199712034524941,-0.07197984241880186,-0.02879020917573521,0.17278099428090457,-0.20156947566297595,0.020438000000000178,0.170682,-0.9045519999999999,0.03175900000000009,-0.17301799999999998,-0.9066069999999999,0.011320999999999914,0.3437,0.002055000000000029,0.9773621057297617,0.9968825579417381,double,-0.9045519999999999
108,0.9,stand,-0.00996039841591658,-0.0014400576022988647,0.002040081603269493,-0.012456511283067717,0.005414389813044596,0.0187888457823189,0.00012000480018213478,-0.0008400336013415596,-0.0003600144005763816,0.00012000480018213478,0.0016800672026881154,0.0014400576023038609,1.396600710706914,0.8783441322172206,0.41761267400530294,0.05759942427492862,-0.10080806448356606,0.1007907844836844,0.08639827241398758,0.10082016048382302,0.3600063377279435,0.02052199999999993,0.17068699999999998,-0.904572,0.031842999999999844,-0.17299200000000003,-0.906612,0.011320999999999914,0.343679,0.0020399999999999308,0.9780637093988079,0.9963066152020854,double,-0.904572
109,0.908333,stand,-0.00312012480500201,-0.0073202928117165255,0.0004800192007685152,-0.02486030199371543,0.020440686200791924,0.05889572982393017,-0.0014400576022922224,0.0006000240009573131,0.0,0.0002400096003909192,-0.0002400096003842576,-0.0006000240009598112,0.8208656679364733,-0.7056564513881813,-0.187214976899195,-0.1872149768960004,0.17281382482885946,0.04320345620741448,0.014401152071137107,-0.2304184331060111,-0.2448195851750499,0.02053600000000011,0.170753,-0.904576,0.03187099999999998,-0.172933,-0.906621,0.011334999999999873,0.343686,0.0020449999999999635,0.9769498959958598,0.998851041512349,double,-0.904576
110,0.916667,stand,-0.010559155267589073,-0.004199664026878687,-0.0027597792176619956,0.026332023565197423,-0.008355697025376047,0.010756368802255549,0.0,-0.0002399808015361153,-0.000479961603071398,-0.0002399808015427761,0.00011999040076805765,-0.0007199424046075133,-0.8926122465307184,0.37444549854065445,-0.38874471063480753,0.17279308882795913,-0.10079251289817878,-0.05759078510575886,-0.057594240692787575,0.04319654441472432,-0.014389057313139088,0.020624000000000198,0.170786,-0.904557,0.03195700000000001,-0.17289699999999997,-0.906604,0.011332999999999815,0.34368299999999996,0.00204699999999991,0.9786356443574519,0.9987194775943025,double,-0.904557
111,0.925,stand,-0.01212048481938153,0.0063602544101794105,0.002640105604220137,-0.007443621577942252,-0.005321293018676336,0.03992000401341747,-0.0008400336013548828,-0.0016800672026831191,0.0003600144005755489,-0.0004800192007551856,0.0013200528021117337,0.0006000240009598033,-0.18736704089672998,1.2672409020830497,0.6480120991098176,-0.10080806448516492,-0.17281728082887288,0.10080115248373256,-0.02880576013589445,0.1440132486911882,0.15840230476026773,0.020718000000000014,0.170719,-0.9045759999999999,0.03205400000000003,-0.172939,-0.906621,0.011336000000000013,0.343658,0.0020450000000000745,0.976362397005778,0.9974543137602863,double,-0.9045759999999999
112,0.933333,stand,-0.026641065642619283,0.020160806432257653,-0.0037201488059526618,0.04949658923406276,-0.017577482006638945,-0.06920459769897323,-0.000840033601354894,-0.0006000240009639748,-0.0015600624024960088,-0.0004800192007818384,0.0007200288011527728,-0.00048001920076768247,-1.7425394003645607,1.6561324879489223,-0.7632610596631293,-1.3401274902917074e-15,0.12961036862104336,-0.23041843310591328,-3.1984679690380596e-12,-0.07200576034548979,-0.12961036862204436,0.02093299999999987,0.17054599999999998,-0.904558,0.032271999999999856,-0.173101,-0.906594,0.011338999999999988,0.343647,0.0020360000000000378,0.9765221838337194,0.9983506917774123,double,-0.904558
113,0.941667,stand,-0.006359491240710386,-0.0014398848092166917,0.0010799136069158492,-0.006691043782024966,0.012404178325984476,0.02060012736920847,-0.00011999040075806644,-0.0010799136069091885,0.0004799616030722306,-0.00011999040075806644,0.0007199424046066807,-0.00011999040076805765,2.433594240689794,-2.5918755989289872,0.5759614126312065,0.08639827220984185,-0.057582146141733875,0.24478329800434653,0.04320000000285208,-1.0366756190547441e-05,0.04319999999995465,0.02098500000000003,0.170549,-0.904563,0.03232400000000002,-0.173083,-0.906604,0.011338999999999988,0.343632,0.0020409999999999595,0.977610259391931,0.9987672158221446,double,-0.904563
114,0.95,stand,-0.008040321612869298,-0.015240609624383703,0.009360374414979384,0.039730280577001016,0.046851752171993506,0.19429224298194206,-0.0006000240009639748,-0.0002400096003842576,0.0,-0.0003600144005730556,-0.0006000240009589786,0.00024000960038342487,-0.20170771296759005,-1.6561532239490144,0.9936950447694239,-0.057606336278160655,0.10079251248349197,-0.05759769627651926,-0.02880403213908453,-0.15840230476007097,0.04320172820730659,0.021047000000000038,0.170674,-0.904641,0.03238800000000008,-0.172961,-0.90668,0.011341000000000045,0.343635,0.002039000000000013,0.9785329239555249,0.9987670678821257,double,-0.904641
115,0.958333,stand,-0.0032401296051841034,-0.017160686427457536,-0.01236049441978577,-0.057777216510919764,0.05038121256799822,-0.058353809657499464,-0.00012000480018213478,-0.0009600384015370176,0.0,-0.0009600384015370176,0.0010800432017274793,0.0001200048001921272,0.5760460827655316,-0.23041843310618323,-2.606608524512788,0.057604608278151684,-0.08640691241482742,0.0,-0.07200576034608898,0.2016161289675328,-0.014401152069038423,0.02107300000000012,0.170809,-0.904538,0.032407000000000075,-0.172809,-0.9065759999999999,0.011333999999999955,0.343618,0.0020379999999999843,0.9780074839496986,0.9975832941370462,double,-0.904538
116,0.966667,stand,-0.005399568034539282,-0.009359251259901835,-0.008159347252214599,-0.06994514126167957,-0.005365524069933996,-0.03221042760221451,-0.002759779217675317,-0.0020398368130536497,-0.003119750419967001,0.000479961603058909,0.0008399328053747383,0.0007199424046075133,-0.2591118825720137,0.9360973323200914,0.504097332321951,-0.3167475902919561,-0.12956544414646318,-0.3743401031877822,0.17278617765729729,-0.028810942686913744,0.07198675358955861,0.021094999999999864,0.17087000000000002,-0.904496,0.03245599999999982,-0.172724,-0.906502,0.011360999999999954,0.343594,0.0020060000000000633,0.9722101591512204,0.9979901856609326,double,-0.904496
117,0.975,stand,-0.007200288011541051,-0.003960158406336919,-0.004200168006721177,-0.0043658473074935705,0.04304940761184426,-0.012634502394926877,0.0010800432017458131,0.001200048001921288,0.0022800912036487816,0.0,0.0010800432017291591,0.0002400096003842576,-0.216095041041856,0.6479170591101603,0.47512051427978613,0.46079712221542846,0.3888017298661907,0.6480069151105043,-0.057597696274920604,0.028814400138536304,-0.05759424027640226,0.021164000000000183,0.17091300000000004,-0.904442,0.03251599999999999,-0.17268199999999997,-0.906465,0.011351999999999807,0.343595,0.002022999999999997,0.9751136350546599,0.9981560173492335,double,-0.904442
118,0.983333,stand,-0.004320172806903256,-0.001080043201725814,-0.0007200288011461016,0.0002298993005816297,0.016518888832013343,0.01261832015442419,-0.000480019200781832,-0.0020400816032628316,0.0,-0.0009600384015370176,-0.0002400096003842544,-0.0003600144005755489,0.3456276496625205,0.3456276496593175,0.41763341000540755,-0.18721497690239275,-0.38883110586632735,-0.2736218893134252,-0.11520921655310375,-0.1584126727605194,-0.0720057603455903,0.021195999999999993,0.17090500000000003,-0.904436,0.032543999999999906,-0.172675,-0.906462,0.011347999999999914,0.34358,0.0020259999999999723,0.9762470104410998,0.998244936919997,double,-0.904436
119,0.991667,stand,-0.005159587233023217,0.0023998080153611848,0.001079913606902542,0.0023603655775368327,-0.004266151067438044,0.015634225854799722,0.0,0.00011999040076472885,-0.00119990400767976,-0.00023998080151613608,-0.0002399808015361185,-0.000479961603072237,-0.10072167340052392,0.41754874215107013,0.21597581090096638,0.05759769627811792,0.2591879054508726,-0.14397696276455085,0.08640000000250607,3.4555853294811753e-06,-0.01439251289857077,0.021239000000000008,0.17088599999999998,-0.904455,0.032585000000000086,-0.17269700000000002,-0.9064749999999999,0.011346000000000078,0.34358299999999997,0.0020199999999999108,0.9777901856609228,0.999020282480301,double,-0.904455
120,1.0,stand,-0.0030001200047931873,0.00504020160806268,0.00264010560423346,0.004592588026028392,-0.011218701235372032,0.03147628645397313,-0.0036001440057571543,-0.0015600624024943227,-0.0016800672026881154,-0.0006000240009639668,0.0015600624024959882,0.0003600144005763816,0.2591464332449323,0.31685990552039894,0.18723052890086542,-0.4320345620733396,-0.20161440096712402,-0.05762188827653347,-0.043206912210227905,0.21601382503685337,0.10080115248393316,0.021233999999999975,0.170831,-0.904491,0.032604999999999995,-0.172726,-0.906494,0.01137100000000002,0.343557,0.002002999999999977,0.9728563477564042,0.9971503246432285,double,-0.904491
121,1.008333,stand,-0.004320172806903313,0.0037201488059526618,0.004080163206525717,-0.0064899716797917634,-0.0036083159578671887,0.034050662986598965,0.0018000720028919243,0.001320052802110086,0.0012000480019204553,-0.0002400096003909192,-0.0004800192007685152,-0.0001200048001921288,-0.15841267276012694,-0.1584126727601141,0.17281382482806557,0.6480518431116199,0.34562764965851855,0.345627649659018,0.043203456207014386,-0.24481958517514965,-0.05760460827655284,0.021285,0.170811,-0.904515,0.03263899999999986,-0.172761,-0.906529,0.011353999999999864,0.343572,0.0020140000000000713,0.9756360886271439,0.999083448198931,double,-0.904515
122,1.016667,stand,0.007439404847612913,0.002399808015361153,-0.005399568034552603,-0.06626770381688306,0.022299746294809703,-0.00911389767445455,-0.0019198464122889224,-0.0017998560115175344,-0.0021598272138233727,0.0004799616030855522,0.0,-0.0009599232061436286,1.4110364356270861,-0.15842822061333076,-1.1374767507893266,-0.4463545014615813,-0.37435910890659907,-0.4031527736673629,0.08638963324651619,0.05759769627651926,-0.10078214614248782,0.021206999999999976,0.17077599999999998,-0.9044880000000001,0.03258099999999997,-0.17278100000000002,-0.9064920000000001,0.011373999999999995,0.343557,0.0020040000000000058,0.9742859495403914,0.9982112887148925,double,-0.9044880000000001
123,1.025,stand,-0.016080643225738597,-0.002880115204611091,0.0037201488059393386,0.09551371711724599,0.04471088610058878,0.05244320437417869,0.00012000480018213638,-0.00036001440057971716,-0.0010800432017283265,-0.000840033601354894,0.0010800432017291591,0.0003600144005763864,-2.8225186695489892,-0.6336161310419167,1.094409797250933,0.24479193717401623,0.1727879048287328,0.1295792646219916,-0.15840576076328552,0.12961036862224518,0.15839884876035368,0.021341999999999972,0.17079699999999998,-0.904528,0.03270799999999996,-0.172748,-0.90652,0.011365999999999987,0.343545,0.0019919999999999938,0.9781720452789767,0.9976419404530955,double,-0.904528
124,1.033333,stand,0.010560422416880407,-0.0008400336013415484,-0.004560182407294111,-0.09279873272866607,-0.022383645750480193,-0.03169127966911382,-0.0008400336013548716,-0.0014400576022988456,0.0013200528021125489,-0.000360014400573046,0.0002400096003842512,0.0006000240009597953,3.1970557593445985,0.2448195851757479,-0.9936794927677073,-0.11520921655310107,-0.129610368621038,0.2880230413825553,0.05760460827815187,-0.10080806448396655,0.02880230413817409,0.021247000000000016,0.170792,-0.9044789999999999,0.03261700000000012,-0.17273900000000003,-0.906477,0.011370000000000102,0.34353100000000003,0.0019980000000000553,0.9764758492046326,0.9987670678821241,double,-0.9044789999999999
125,1.041667,stand,-0.0023998080153478955,-0.0035997120230418255,0.0004799616030722434,-0.0037865698511154755,0.011030024125236237,0.020021336246012465,-0.0005999520038169914,-0.0011999040076806084,-0.0003599712023041825,0.0003599712023008521,-0.000719942404608365,-0.00011999040076806085,-1.555103243607937,-0.3311349198104547,0.6047688997319954,0.02880748710557773,0.028816126064103876,-0.20158675358972442,0.08639136103598655,-0.11518502579705238,-0.08639481662201462,0.021262000000000114,0.17081200000000002,-0.904486,0.03264,-0.172715,-0.906482,0.011377999999999888,0.343527,0.0019959999999999978,0.977725017818031,0.9986436425119751,double,-0.904486
126,1.05,stand,-0.005880235209404162,-0.0037201488059525624,-0.0015600624024876403,0.03436317675390839,0.05067049122342529,0.011045857755674255,0.0006000240009373124,0.0001200048001887948,-0.000960038401536172,-0.0008400336013548716,0.0003600144005763768,-0.0007200288011519209,-0.41766797000554484,-0.014452992068970936,-0.24481267317410874,0.14400288068574138,0.158395392760036,-0.07201094434561131,-0.14400633669215201,0.12960000062219162,-0.07200748834559577,0.02131599999999989,0.170844,-0.9044810000000001,0.03268199999999988,-0.17268099999999997,-0.906475,0.011365999999999987,0.34352499999999997,0.0019939999999999403,0.9781625575062196,0.99806085049104,double,-0.9044810000000001
127,1.058333,stand,-0.0022800912036471162,-0.003120124804988687,0.00012000480018213638,-0.009685354241037704,-0.004454522050795957,0.007650313436107985,0.0002400096003909192,-0.001200048001921288,0.0,-0.00012000480018213638,0.0004800192007685152,0.0008400336013440688,0.43203456207333235,0.07200576034607956,0.20161612896553366,-0.043203456203815736,-0.15841267276012178,0.11520921655300381,0.0864069124172257,0.014401152069139505,0.18721497689859642,0.02133699999999994,0.17085999999999996,-0.904482,0.03269999999999995,-0.172651,-0.906469,0.011363000000000012,0.34351099999999996,0.001986999999999961,0.9780903106069829,0.9983751273241674,double,-0.904482
128,1.066667,stand,-0.00035997120230084253,-0.001679865610752807,0.0003599712023141642,-0.003669989130889656,0.010247699869215155,0.01312598086474926,0.00011999040075806644,-0.0002399808015361153,0.00011999040076805765,-0.00011999040075806644,0.00035997120230250775,0.0,0.23039596848407237,0.17281727792607018,0.028793664762662104,-0.014401151863793118,0.11519884813836877,0.014397696276464691,1.727792664979612e-06,-0.014404607447324996,-0.10079596848380878,0.021340999999999832,0.17087199999999997,-0.9044840000000001,0.03270200000000001,-0.172634,-0.906472,0.011361000000000177,0.343506,0.0019879999999999898,0.9796301412401505,0.9993675950603688,double,-0.9044840000000001
129,1.075,stand,-0.000840033601354894,-0.003480139205568404,-0.0004800192007685152,0.003736344548209658,0.011113912094670088,0.0031228676252811564,-0.0003600144005730556,-0.0007200288011461112,-0.00036001440057555366,-0.0006000240009639748,0.0004800192007685152,-0.0004800192007685152,-0.05760979227817783,-0.21604147303679508,-0.10080288048514184,-0.057602880274946165,-0.057608064275771066,-0.05760288027644494,-0.057606336278160655,0.014406336069363798,-0.057604608276553414,0.021344999999999947,0.17089500000000002,-0.904483,0.032704000000000066,-0.172601,-0.906472,0.011359000000000119,0.343496,0.0019890000000000185,0.978640247364235,0.9984899727118491,double,-0.904483
130,1.083333,stand,-0.0004800192007551792,-0.0022800912036470555,-0.00036001440058636917,0.0005144836347495291,0.008976956467091051,0.00791015168294727,-0.0006000240009373124,0.0002400096003842512,0.0,0.0006000240009639587,-0.000600024000960628,0.0012000480019204232,0.043203456210213424,0.14401152069138695,0.014401152067939987,-0.028802304135875745,0.11520921655230357,0.04320345620731397,0.14401152069217718,-0.1296103686222398,0.2016161289678278,0.02134400000000003,0.170916,-0.90448,0.03271299999999999,-0.17258700000000002,-0.9064589999999999,0.011368999999999962,0.343503,0.001978999999999953,0.9791329239555664,0.9975504122737042,double,-0.90448
131,1.091667,stand,0.0004799616030589218,-0.0021598272138250952,0.00035997120231417377,-0.013228010334718729,-0.000737653084109896,0.0015946443944088833,0.0005999520038169914,-0.0003599712023075129,-0.00011999040076806085,0.0008399328053597739,-0.00011999040076639565,-0.0004799616030714108,0.11518848137918399,0.014430524336688575,0.08639136103918366,0.14398560172238142,-0.07199193696805563,-0.014397696276465458,0.028786753587211392,0.05759942406938342,-0.20158502579696017,0.021344999999999947,0.170931,-0.9044840000000001,0.03271599999999997,-0.17257,-0.906466,0.01137100000000002,0.343501,0.0019819999999999283,0.9789968786931136,0.9983753222933126,double,-0.9044840000000001
132,1.1,stand,0.0008400336013548716,-0.004080163206525609,-0.0006000240009639587,0.004675985435897466,0.004693223416317249,0.012031413343623338,0.0002400096003909128,0.0,0.0,-0.0006000240009639587,0.0003600144005747114,-0.0010800432017282976,0.04321036821024163,-0.2304495371055418,-0.11520403255467608,-0.043194816203776826,0.04319827220778911,0.014399424069129816,-0.17280172882799802,0.05760288027614288,-0.07201267234571898,0.021339999999999915,0.17096499999999998,-0.904479,0.032703999999999844,-0.17253300000000002,-0.90647,0.01136399999999993,0.34349799999999997,0.001990999999999965,0.9796899839993485,0.9978551531471704,double,-0.904479
133,1.108333,stand,0.001320052802110086,-0.0026401056042268333,-0.0002400096003909192,-0.005621368832565399,0.002557787005758015,0.005992748733033648,-0.00048001920075519197,-0.0002400096003842576,-0.0002400096003842576,-0.00012000480018213638,-0.0001200048001921288,0.0001200048001921288,0.057604608274957246,0.17281382482884777,0.04320345620701342,-0.08640691241402992,-0.028802304138276707,-0.028802304138276707,0.05760460827815034,-0.05760460827635241,0.14401152069128015,0.02132500000000004,0.170985,-0.9044789999999999,0.03269199999999994,-0.172512,-0.9064669999999999,0.011366999999999905,0.343497,0.0019879999999999898,0.9791401649095003,0.9996535759815348,double,-0.9044789999999999
134,1.116667,stand,0.002279817614589765,-0.00455963522917953,0.0010799136069158492,-0.0020820307012463547,-0.0036175369467247634,0.00452387876542902,0.000479961603058909,-0.0005999520038369578,-0.0002399808015352827,-0.00035997120230084253,0.0,0.00011999040076805765,0.1151625644924012,-0.2303251289840031,0.15837811462764081,0.1151884813791809,-0.043189633243664205,3.4555854301542577e-06,-0.028793664761063636,0.014399424069129816,-1.7277926651243414e-06,0.02130999999999994,0.171018,-0.90449,0.03266999999999998,-0.17247400000000002,-0.906475,0.011360000000000037,0.343492,0.0019850000000000145,0.9788084665361936,0.9993675950603662,double,-0.90449
135,1.125,stand,0.0019200768030740608,-0.002520100804031374,0.00108004320173249,-0.01515566745372341,-0.017832476460207247,0.00297974407642121,0.0006000240009639748,0.0006000240009573131,-0.0002400096003842576,0.000840033601354894,0.0008400336013449015,-0.0001200048001921288,-0.043170624206853164,0.2447539211746279,1.555200007689822e-05,0.014408064071170871,0.14400288069054146,-3.4560001169934075e-06,0.1440063366921574,0.10080806448396847,-0.028800576138268166,0.021298999999999957,0.17104399999999997,-0.904501,0.03266100000000005,-0.17244600000000002,-0.906485,0.011362000000000094,0.34348999999999996,0.0019839999999999858,0.9786902473642232,0.998009945523594,double,-0.904501
136,1.133333,stand,-0.007080283211332268,-0.0064802592103682935,0.004680187207489692,0.06488899817975631,-0.009927940807667042,0.04741955622595671,-0.0006000240009639748,0.0004800192007685152,0.00048001920076768247,-0.0007200288011727575,-0.0003600144005763864,-0.0003600144005763864,-1.0800864051849768,-0.47523801828116585,0.43203456207335106,-0.14401152069218295,-0.014401152068738632,0.08640691241473018,-0.187214976902396,-0.1440115206913835,-0.028802304138276703,0.021352999999999955,0.17110199999999998,-0.904536,0.03271399999999991,-0.17239500000000002,-0.9065270000000001,0.011360999999999954,0.343497,0.001991000000000076,0.9785799727118498,0.9985302473641959,double,-0.904536
137,1.141667,stand,0.013918886489081366,-0.005039596832258421,-0.0003599712023141642,-0.11479737165585538,-0.04291028268220663,-0.013320572091865383,0.00035997120230084253,-0.0008399328053730732,0.0002399808015361153,0.00011999040078470967,-0.0008399328053747383,0.0003599712023041729,2.5196987881465653,0.17286565612069368,-0.604770627526256,0.11519020917504319,-0.1583815702113725,-0.02880230372348996,0.10079424069563965,-0.057585601727663575,0.08639136103678352,0.021239999999999926,0.17113700000000004,-0.904531,0.032599000000000045,-0.17235999999999996,-0.9065209999999999,0.011359000000000119,0.343497,0.0019899999999999363,0.9785253243992512,0.9984638937389245,double,-0.904531
138,1.15,stand,-0.003720148805965985,-0.005760230409215521,0.001560062402501005,0.08425814219495192,0.007337237308177353,0.05551395169941039,0.001320052802110086,0.0020400816032628585,0.0028801152046077604,0.00048001920075519197,-0.0008400336013449015,0.0006000240009598112,-2.116768906161948,-0.08647948841438928,0.2304132491077867,0.1152144005531324,0.3456155536584613,0.3168288015206612,0.04320518420382642,-1.2096000259595702e-05,0.028807488138202386,0.021282000000000023,0.17120200000000002,-0.90452,0.03263400000000005,-0.172319,-0.906529,0.011352000000000029,0.343521,0.0020090000000000385,0.9736296213976158,0.9981025575062075,double,-0.90452
139,1.158333,stand,0.003720148805965886,-0.007080283211325418,-0.003840153606148019,0.018681517206734367,-0.022820319267671554,0.0033176517983851176,-0.00180007200286523,-0.0016800672026897584,-0.001680067202688093,0.0006000240009639587,0.0001200048001921256,0.0001200048001921256,0.8928714282889404,-0.1584126727600953,-0.648051843111596,-0.3744299537951831,-0.4464357141428719,-0.5472437786266379,0.014401152071134604,0.11520921655310336,-0.05760460827645232,0.021236000000000033,0.17124699999999998,-0.9045019999999999,0.03260799999999997,-0.172259,-0.906496,0.011371999999999938,0.343506,0.0019940000000000513,0.9750919043368373,0.99896072794457,double,-0.9045019999999999
140,1.166667,stand,0.003839692824577947,-0.0022798176145898256,-0.00299976001919153,-0.019547806971765364,-0.018561125862021296,0.01028415020901588,0.0004799616030589218,-0.0005999520038369739,0.0008399328053755933,-0.00011999040075806964,-0.0011999040076789433,0.0002399808015361217,0.014344134702671402,0.576009790825016,0.10083916330171647,0.2735821461392123,0.12960345558588973,0.30237581090277593,-0.08639481662131535,-0.1583763868335846,0.014395968483801102,0.021207999999999894,0.171261,-0.90447,0.03257500000000002,-0.17225000000000001,-0.906469,0.011367000000000127,0.343511,0.001998999999999973,0.9781127851810959,0.9979507737849076,double,-0.90447
141,1.175,stand,0.005640225609013249,-0.00408016320653227,-0.0009600384015370048,-0.01459283413602888,-0.016228289836811273,0.009957691409307638,0.000360014400573046,-0.0002400096003842512,0.0007200288011527536,0.0009600384015370048,0.0002400096003842512,0.001080043201727465,0.21607257703531388,-0.21605011303761104,0.2447763851739457,-0.01439424006790756,0.04319481620697424,-0.014389056068983276,0.1296086406210315,0.17279654482937348,0.10081152048377878,0.02116399999999996,0.17129300000000003,-0.904456,0.03253600000000012,-0.17221399999999998,-0.906452,0.01137200000000016,0.343507,0.0019959999999999978,0.9786399439977609,0.9975585912205017,double,-0.904456
142,1.183333,stand,0.008400336013442354,-0.008400336013435693,-0.001320052802110086,-0.004499676450552928,0.020632470506956817,0.009989462524337949,0.001560062402501005,0.003000120004799889,0.0024000960038400776,-0.0001200048002087828,0.0015600624024960088,-0.0006000240009598112,0.3312264975913993,-0.518441474487395,-0.04320345620701842,0.1440115206921841,0.388831105866335,0.20161612896763942,-0.12961036862424066,0.15841267276032278,-0.2016161289676337,0.021106999999999987,0.17138799999999998,-0.904425,0.032464999999999966,-0.17213100000000003,-0.906446,0.01135799999999998,0.343519,0.0020209999999999395,0.9728788625372304,0.9972070402728554,double,-0.904425
143,1.191667,stand,0.0077993760499137565,-0.0068394528437759556,-0.003359731221505614,-0.016067573085199547,-0.043091745159039414,-0.016032819067051184,0.0004799616030855522,0.0009599232061444612,-0.00011999040076805765,0.0005999520038436186,-0.0004799616030722306,0.000479961603071398,-0.07210942686928166,0.18729099707940072,-0.24474183098098307,-0.12960172779163,-0.24480403151612815,-0.3023861776587612,0.0863879054538512,-0.24478329800434653,0.12958790545130802,0.02104600000000012,0.17145300000000002,-0.904398,0.03240500000000002,-0.172078,-0.906414,0.011358999999999897,0.34353100000000003,0.0020160000000000178,0.9780401439884692,0.9984901539006293,double,-0.904398
144,1.2,stand,0.011520460818444364,-0.0007200288011527728,0.006600264010563753,-0.039259293734152385,0.05612701205496482,0.03872256329474496,0.0010800432017191667,0.0007200288011527728,0.0001200048001921288,0.0006000240009639748,-0.0003600144005763864,-0.0008400336013440688,0.4465480341450428,0.7343602595251697,1.1952472377378445,0.07201267234292812,-0.028788480138208405,0.028800576138268166,8.640000042740028e-06,0.014394240069104202,-0.15840576076028787,0.02095899999999995,0.17146500000000003,-0.904452,0.032313999999999954,-0.17207499999999998,-0.9064760000000001,0.011355000000000004,0.34354,0.0020240000000000258,0.9775873569960514,0.9981778403977832,double,-0.904452
145,1.208333,stand,0.013080523220918374,-0.000360014400573046,0.000360014400573046,-0.041253885749353646,-0.06086575077059255,0.01617189968319453,-0.0002400096003909128,0.0010800432017257996,0.0008400336013440465,0.0004800192007551792,-0.0007200288011510881,-0.00012000480019129289,0.18721497689595376,0.04320345620781477,-0.7488599075951755,-0.15841267276011717,0.04320345620701075,0.0864069124147252,-0.014401152071138066,-0.04320345620721174,0.0864069124148282,0.020847999999999978,0.171477,-0.904448,0.03220899999999993,-0.172078,-0.90648,0.011360999999999954,0.343555,0.0020319999999999228,0.9773647400090433,0.9985439197789483,double,-0.904448
146,1.216667,stand,-0.0007199424046017042,0.007919366450685356,0.001679865610746191,0.011802797927615061,0.011782211657043153,-0.0352400419916455,0.0015598752099881214,0.0004799616030722434,0.00023998080153528909,0.0007199424046283475,-0.00011999040076806085,0.00023998080153528909,-1.6559234011903456,0.9934462264529108,0.1583694756627274,0.21596889973350952,-0.07200403151590684,-0.07200057593097778,0.02878848138626985,0.0719988481381136,0.04319481662186091,0.02086699999999997,0.17141499999999998,-0.9044599999999999,0.032221000000000055,-0.17214500000000002,-0.906492,0.011354000000000086,0.34356,0.0020320000000000338,0.9769306745290562,0.9987194775942738,double,-0.9044599999999999
147,1.225,stand,-0.018480739229567358,-0.008880355214210633,0.012720508820358651,-0.06342975618762427,0.12238969075450173,-0.1535225189381089,0.0012000480019279175,0.0010800432017257996,0.0004800192007685024,0.0004800192007551792,-0.0007200288011527536,-0.0007200288011519209,-2.1313808742308105,-2.0160472416771507,1.3249301823607664,-0.04318099220691199,0.0720126723453193,0.02880576013839063,-0.02879193614222539,-0.0720074883456957,-0.1152057605528853,0.021031000000000022,0.17149799999999998,-0.904562,0.032378999999999936,-0.172077,-0.906604,0.011347999999999914,0.34357499999999996,0.0020419999999999883,0.9767727539406269,0.998123758646425,double,-0.904562
148,1.233333,stand,-0.0030001200047932272,0.001200048001921288,-0.015720628825152218,0.0806173816046644,-0.09799876306290807,-0.06449704576109104,0.0007200288011461112,0.0004800192007685152,0.0001200048001921288,0.001320052802110086,-0.0002400096003842576,0.0010800432017283265,1.8577486169175894,1.2096967738067939,-3.4130730403829506,-0.0576046082781484,-0.07200576034528859,-0.043203456207413525,0.10080806448516916,0.0576046082765511,0.21601728103687315,0.021061999999999914,0.17149199999999998,-0.9044300000000001,0.03241499999999986,-0.17208900000000002,-0.906464,0.011352999999999946,0.343581,0.0020339999999999803,0.9782039197789427,0.997129345154927,double,-0.9044300000000001
149,1.241667,stand,0.017398608111331725,-0.014398848092153596,0.005399568034552603,-0.068223209543855,-0.03026411407573325,0.06699708432213619,0.0008399328053863948,0.0,0.0010799136069108537,0.00011999040078470967,-0.0005999520038386231,-0.0013198944084478015,2.4476515618100305,-1.8717177938654626,2.5342208854937196,0.014387329522472122,-0.05759769627651926,0.1151798424188526,-0.14399596848156554,-0.04318963324386401,-0.2879694756630801,0.020924000000000165,0.171612,-0.904466,0.03227100000000016,-0.17197400000000002,-0.90652,0.011346999999999996,0.343586,0.0020540000000000003,0.9771798315632664,0.9975753228435738,double,-0.904466
150,1.25,stand,0.012480499219981395,-0.008040321612862637,0.002400096003842576,-0.023068405142952764,0.0010765229396340807,0.02200075487195327,0.0003600144005730556,0.0008400336013415707,0.0001200048001921288,0.00024000960036427277,-0.0010800432017291591,0.0,-0.5901966748290381,0.7630536996629086,-0.35995104172687564,-0.05759251227809235,0.10080806448356876,-0.11519366455283016,0.014402880064750294,-0.057613248276795925,0.15839366476032804,0.020823000000000036,0.17168599999999995,-0.904485,0.03216899999999989,-0.171916,-0.90654,0.011345999999999856,0.34360199999999996,0.002055000000000029,0.977913709398808,0.9981560173492408,double,-0.904485
151,1.258333,stand,0.013560542421700562,-0.005760230409222182,-0.001560062402501005,0.023667636847017677,0.02583360664644724,0.024410694020915818,0.0008400336013282475,-0.0004800192007618536,0.000600024000960644,0.0006000240009639748,0.0001200048001921288,-0.00036001440057555366,0.12961036862104602,0.2736218893124296,-0.4752380182819654,0.057604608274954554,-0.15841267275932275,0.057604608276553414,0.04320345621021305,0.14401152069138354,-0.043203456207315125,0.020716999999999874,0.17173000000000005,-0.9044669999999999,0.032060999999999895,-0.171867,-0.90653,0.01134400000000002,0.34359700000000004,0.002063000000000037,0.9774725575062224,0.9988167367128434,double,-0.9044669999999999
152,1.266667,stand,0.009839212862960744,-0.0027597792176619956,0.0,-0.004901849097322561,-0.0032406873229394338,-0.00237916209736519,0.0004799616030855522,0.0,0.0002399808015352827,0.0004799616030855522,0.0,0.0005999520038394556,-0.44652382514276323,0.3600253409599428,0.18719251289908725,-0.04320518337445315,0.05759769627571993,-0.043201727792819604,-0.014406335238591512,-0.014399424069129816,0.11518675358951308,0.020639000000000074,0.17175300000000004,-0.904465,0.031983000000000095,-0.171844,-0.9065249999999999,0.01134400000000002,0.34359700000000004,0.0020599999999999508,0.9785056443574314,0.9987194775942918,double,-0.904465
153,1.275,stand,0.00972038881555244,-0.003600144005757202,0.00036001440058637876,-0.0022872916031998277,-0.014570682631015333,-0.005412789463227669,0.001800072002865278,-0.0007200288011527728,0.0,-0.0003600144005730556,-0.0003600144005763864,-0.0006000240009598112,-0.014259456067239386,-0.10084780848376504,0.04320345620861419,0.1584195847569588,-0.08640691241483012,-0.02879884813815971,-0.10080115248513326,-0.04320345620741506,-0.14400288069114098,0.020572999999999952,0.171777,-0.904468,0.03189900000000012,-0.171817,-0.906533,0.01132600000000017,0.343594,0.0020649999999999835,0.9761187718666166,0.9986884598335353,double,-0.904468
154,1.283333,stand,0.008880355214223956,0.022080883235331125,0.016320652826102434,0.09302300341796987,-0.23089303653062432,0.10293270356679173,-0.00012000480018213318,-0.0001200048001954564,0.000600024000960628,0.00024000960036426637,0.000600024000960628,0.0,-0.1008080644819956,3.081846542792257,1.915353225190901,-0.2304184331030094,0.07200576034529052,0.07200576034568792,0.07200576034289109,0.11520921655310183,0.0720057603455899,0.020497999999999905,0.17159199999999997,-0.9045989999999999,0.03182699999999983,-0.17199600000000004,-0.906669,0.011328999999999922,0.343588,0.0020700000000000163,0.9782607279445775,0.9989229239555426,double,-0.9045989999999999
155,1.291667,stand,0.012359011279093616,-0.015478761699069858,-0.011999040076792764,-0.07755017158775762,0.057377781102435556,-0.09278992092565135,0.0010799136069025565,0.00011999040077139125,-0.0004799616030722434,-0.00011999040075806964,-0.0010799136069108825,-0.00011999040076806085,0.41740533535753854,-4.506796848380334,-3.398091301043405,0.1439786905549211,0.028797120346394554,-0.12958790545151092,-0.04319654441112825,-0.20157638683363838,-0.014397696276465458,0.020403999999999867,0.17172200000000004,-0.904503,0.031722999999999946,-0.17187599999999997,-0.90657,0.011319000000000079,0.343598,0.002067000000000041,0.977350259391939,0.9981780590394507,double,-0.904503
156,1.3,stand,0.02496099843993548,0.009720388815552181,0.019320772830922227,-0.021158039844979996,0.031069648637360784,0.01759117328284737,0.0010800432017457843,0.0002400096003842512,0.0003600144005763768,0.0002400096003909128,0.0002400096003842512,-0.0001200048001921256,1.5122989512590475,3.0240190225154926,3.7585278900413344,1.555200326746813e-05,0.014402880068745691,0.10080115248393201,0.04320172820700542,0.15839712076024368,-1.72800000777023e-06,0.02020500000000003,0.17164300000000005,-0.904661,0.03151700000000002,-0.17195499999999997,-0.9067320000000001,0.011311999999999989,0.343598,0.002071000000000045,0.9773508504910254,0.999399975999032,double,-0.904661
157,1.308333,stand,0.024240969638790032,-0.014760590423615187,0.007200288011514404,-0.038780778048687924,0.06242537348607547,0.03203946547843763,0.0007200288011461112,-0.0006000240009639748,0.0001200048001921288,0.0,0.0008400336013432362,-0.0010800432017283265,-0.08640691241395089,-2.937835022100995,-1.4545163589833114,-0.04320345621020957,-0.10080806448436741,-0.02880230413827555,-0.028802304139075363,0.07200576034549268,-0.11520921655300728,0.020008999999999943,0.171761,-0.90472,0.03131499999999998,-0.171825,-0.906801,0.011306000000000038,0.343586,0.0020809999999999995,0.9776151354306182,0.9977195579321195,double,-0.90472
158,1.316667,stand,0.03095752339811225,-0.010799136069111866,-0.00155987520998808,-0.006161071794820301,-0.0034555653298713766,0.08822795980298596,0.0005999520038436186,0.0013198944084519646,-0.0005999520038402883,0.000479961603058909,-0.0003599712023041729,0.000839932805375571,0.805921977360471,0.47533649562074515,-1.051135495740631,-0.014408063031256498,0.23037177938755996,-0.08638790545145326,0.0575907851042603,-0.14398905731310296,0.23037869055722135,0.019756000000000107,0.17186200000000001,-0.904712,0.031061000000000005,-0.171738,-0.906781,0.011304999999999898,0.3436,0.0020689999999999875,0.9766948698442787,0.9982796725727954,double,-0.904712
159,1.325,stand,0.02256090243610689,-0.004080163206532379,0.0002400096003909192,0.007522153718554741,-0.025544223465508276,0.028790409473590035,0.0007200288011461112,-0.00108004320173249,0.0001200048001921288,0.0,-0.0001200048001921288,-0.0009600384015353649,-1.0076348208334855,0.8063089958693807,0.2159948170381634,0.01440979206798196,-0.2880040333834725,0.08639827241478742,-0.057597696274920604,0.028797120138251087,-0.21600518503671576,0.01957399999999998,0.171887,-0.904713,0.03087299999999993,-0.171705,-0.906791,0.011298999999999948,0.343592,0.0020780000000000243,0.9770473569960392,0.9983874839496993,double,-0.904713
160,1.333333,stand,0.0178807152286034,0.003000120004799809,-0.006600264010563577,0.02259310134943774,-0.02852478547601833,0.0004519100336862106,0.0004800192007551792,0.0,0.0006000240009597953,-0.0009600384015370048,0.0007200288011527536,0.00012000480019129289,-0.5616449306976372,0.8496679720787309,-0.8208656679412428,-0.028802304139076904,0.12961036862264144,0.057604608276450024,-0.11520921655310068,0.10080806448396347,0.12961036862194156,0.01942899999999992,0.17186200000000001,-0.9046529999999999,0.030715999999999966,-0.171724,-0.906735,0.011287000000000047,0.343586,0.0020820000000000283,0.9778993239254841,0.9979899444735529,double,-0.9046529999999999
161,1.341667,stand,0.029157667386608813,0.00143988480921673,0.015478761699069858,0.02008034291334257,0.08093636573410705,0.08824117518273118,0.00035997120232749536,0.001319894408445339,-0.00011999040076722825,0.00011999040078471287,0.0,0.00011999040076806085,1.353126008879965,-0.18721324641026024,2.6492711434645853,-0.014404607442726914,0.15837465904072043,-0.08639481662191471,0.12959308883150206,-0.08639654441477888,-1.727792564439876e-06,0.019189000000000123,0.17186099999999999,-0.904783,0.030474000000000112,-0.171736,-0.906863,0.01128499999999999,0.343597,0.0020799999999999708,0.9769110784852622,0.9997171799131124,double,-0.904783
162,1.35,stand,0.012720508820345328,0.0001200048001954564,-0.0012000480019279175,0.007627765393169023,0.025066041787790316,0.001373276369151784,0.0006000240009373124,0.0,-0.0001200048001921256,-0.00012000480020877961,0.0001200048001921256,-0.0006000240009597953,-1.9725379294687624,-0.15839193676002045,-2.0015372256087227,0.028807488132702848,-0.1583936647600283,-1.7280001076861673e-06,-0.028800576142264285,0.014401152069137585,-0.08640518441471781,0.019087999999999994,0.17185999999999996,-0.904774,0.030367000000000033,-0.171736,-0.9068579999999999,0.011279000000000039,0.34359599999999996,0.0020839999999999748,0.9781401553035307,0.9989607279445714,double,-0.904774
163,1.358333,stand,0.006120244809795237,0.004920196807867288,-0.01656066242649379,0.058343104995419885,-0.13795732828488974,-0.05431581888354458,0.0002400096003909192,-0.00012000480018879799,0.0006000240009598112,0.0002400096003909192,-0.0002400096003842576,-0.0003600144005763864,-0.7920633638005702,0.5760460827639355,-1.8433474648465151,-0.043203456203815736,-0.01440115206873864,0.0864069124147298,0.04320345621021266,-0.04320345620741467,0.028802304138174858,0.019039000000000028,0.17181800000000003,-0.904631,0.030318000000000067,-0.17177899999999996,-0.906723,0.011279000000000039,0.343597,0.0020919999999999828,0.9779845110654293,0.9991753458887058,double,-0.904631
164,1.366667,stand,0.020038396928248974,-0.0027597792176619956,0.0035997120230350688,-0.02388466680750766,-0.013206251888232996,0.02667551821650799,0.0010799136069025276,0.0014398848092166917,-0.0007199424046075133,0.0,0.0015598752099830842,0.0003599712023041729,1.6700446506423843,-0.9215234011914116,2.419051409830658,0.10078041834792441,0.18717177938630644,-0.1583832980042374,-0.02879884813905896,0.2159688997321008,0.08639136103678352,0.018880999999999926,0.17185300000000003,-0.904667,0.03015100000000004,-0.17174299999999998,-0.90675,0.011270000000000113,0.343596,0.002082999999999946,0.9759391595829592,0.9973318806367238,double,-0.904667
165,1.375,stand,-0.007080283211332268,0.0025201008040380353,-0.006360254410172833,0.03921199467507852,-0.002953379504514155,-0.08936812716446288,0.0002400096003909192,-0.00108004320173249,0.00048001920076768247,0.0003600144005730556,0.0008400336013449015,-0.0001200048001921288,-3.2543717916214434,0.6336109470418912,-1.1952437817362287,-0.1007925124818932,-0.3024034574522027,0.14400115269113245,0.04320345620701535,-0.08638444841451928,-0.0575994242765278,0.018942000000000014,0.17182299999999995,-0.90461,0.030213000000000045,-0.17175700000000002,-0.906698,0.011271000000000031,0.34358,0.0020879999999999788,0.977109944473546,0.9984637093988029,double,-0.90461
166,1.383333,stand,0.006720268810759212,-0.0043201728069166365,0.0016800672026831415,0.010339754201956219,0.042288965246403264,-0.06109322791856012,0.0006000240009639748,0.0004800192007685152,-0.00036001440057555366,-0.00048001920075519197,-0.0013200528021134166,0.0,1.6561324879505108,-0.8208656679412857,0.9648771886302709,0.04320345620701535,0.1872149768991983,-0.1008080644837686,-0.10080806448196991,-0.25922073724449035,0.014401152069138353,0.01889099999999999,0.171863,-0.904627,0.030153000000000096,-0.171732,-0.906712,0.011262000000000105,0.343595,0.0020850000000000035,0.9777357298668168,0.9976589663765163,double,-0.904627
167,1.391667,stand,0.005639548836082057,-0.0008399328053730732,0.0008399328053863948,-0.037423048793464454,-0.02080072225826284,-0.06672862234641261,0.0002399808015427761,0.0004799616030722306,0.000479961603071398,0.0007199424046016851,0.0014398848092150266,-0.000839932805375571,-0.12967602287942726,0.4175953925538201,-0.10080806303056639,-0.04320172779232013,-6.911170660497366e-06,0.10078905731304838,0.1439838739329095,0.33116602007780443,-0.10078387393515294,0.01884600000000014,0.17187399999999997,-0.90463,0.03011200000000014,-0.171713,-0.906726,0.011265999999999998,0.343587,0.0020959999999999868,0.9778400959923167,0.9969736929144868,double,-0.90463
168,1.4,stand,-0.026641065642619283,-0.003000120004799889,0.011640465618613177,-0.032397690912234,0.1566299860532158,-0.2088192726568303,0.0006000240009639748,0.0009600384015370304,-0.0001200048001921288,-0.0002400096003909192,0.0002400096003842576,0.0004800192007685152,-3.8738286905918202,-0.25923283324455004,1.2961157822185145,0.043206912207032516,0.057611520276587565,-0.0719988483455577,-0.11519884855305568,-0.14399078469108126,0.1584005767603622,0.019073000000000118,0.17190699999999998,-0.904728,0.030332000000000026,-0.171686,-0.9068189999999999,0.011258999999999908,0.343593,0.002090999999999954,0.9771925575061944,0.9990201649094776,double,-0.904728
169,1.408333,stand,-0.01596063842552939,0.004680187207489568,0.006480259210368121,-0.06064370351811022,-0.017442778480241235,-0.12742155404905411,0.0008400336013282252,-0.0006000240009572972,-0.0004800192007676697,-0.00012000480018213318,-0.0001200048001921256,-0.0001200048001921256,1.2817025341521309,0.9216737324240156,-0.6192495389709548,0.02880230413587498,-0.18721497689839195,-0.04320345620731244,0.014401152071136916,-0.043203456207413525,-0.07200576034568945,0.019212999999999925,0.171863,-0.904786,0.030464000000000047,-0.17172600000000005,-0.906874,0.011251000000000122,0.34358900000000003,0.0020879999999999788,0.9772225575062213,0.9996535759815348,double,-0.904786
170,1.416667,stand,0.0027597792176487475,-0.0011999040076806084,0.011879049676034693,-0.05004858773136031,0.07111854765042247,-0.024664277993130795,-0.0009599232061444868,0.000719942404608365,0.0005999520038394717,0.0,0.0002399808015361217,0.00011999040076806085,2.246270415548175,-0.7055545014603177,0.6478030316374699,-0.21597753869363406,0.15838329800404216,0.12958617765864675,0.014399424067930822,0.04319481662206073,0.028797120345595274,0.019182000000000032,0.171879,-0.90488,0.030441000000000162,-0.17171400000000003,-0.906972,0.01125900000000013,0.34359300000000004,0.0020919999999999828,0.9768441108936271,0.9995528221787253,double,-0.90488
171,1.425,stand,0.02220088803553324,-0.011040441617668893,-0.0057602304092220285,0.055073121065523915,0.10063728953456438,0.06325427798284403,0.0010800432017457843,0.0007200288011527536,-0.0010800432017282976,-0.0004800192007818256,0.0008400336013448792,-0.0018000720028802186,2.3330263792012667,-1.1809117496685604,-2.116798282162056,0.24480576117727532,1.0368000046624633e-05,-0.2016074889676875,-0.05760460827814919,0.07200921634570345,-0.23041670510599374,0.01900600000000008,0.17197700000000005,-0.904841,0.030251999999999946,-0.17161499999999996,-0.9069389999999999,0.011245999999999867,0.343592,0.0020979999999999333,0.9762056379696051,0.9965939864862681,double,-0.904841
172,1.433333,stand,0.0014400576022922224,-0.003480139205568404,0.0098403936157479,-0.028961042590481087,0.07838173929288637,-0.025223437694104123,0.0,-0.0007200288011527728,0.0009600384015361976,0.0006000240009639748,0.0,0.00036001440057555366,-2.4913993079612635,0.9072725803552811,1.8721497689871682,-0.12961036862424027,-0.17281382482965793,0.24481958517514868,0.1296103686242422,-0.10080806448396579,0.2592207372441848,0.018994000000000177,0.17200000000000004,-0.904915,0.030245000000000077,-0.17158599999999996,-0.907018,0.0112509999999999,0.343586,0.002102999999999966,0.9769699199967989,0.9988337629715446,double,-0.904915
173,1.441667,stand,-0.009839212862960744,-0.001559875209981419,0.0008399328053730732,0.035161847049503724,0.0029582605268258393,-0.07356813623593696,0.00035997120230084253,-0.0003599712023075034,0.00011999040076805765,0.00035997120230084253,0.00011999040076805765,0.0004799616030722306,-1.353404183495666,0.23041324641072358,-1.0799688997329924,0.043193088828994454,0.043203455584985194,-0.1007976962764739,-0.028804031517054286,0.014397696276464691,0.014392512898569238,0.019079000000000068,0.17201,-0.904921,0.030329999999999968,-0.171572,-0.907021,0.0112509999999999,0.343582,0.0020999999999999908,0.9781282899480952,0.9989802776750697,double,-0.904921
174,1.45,stand,0.010560422416907333,-0.010440417616705213,0.0116404656186265,0.007758518251913965,0.09938450384666744,0.033064012086196436,-0.0002400096003909192,0.0013200528021167475,-0.0009600384015361976,-0.00048001920075519197,0.0006000240009589786,-0.0001200048001921288,2.448054155750422,-1.0657077171155498,1.296115782221712,-0.07200057634606591,0.2016109449687107,-0.1296086406221367,-0.10080288048194434,0.05760633627636209,-0.0719988483456576,0.018988999999999923,0.17210800000000004,-0.905026,0.030237999999999987,-0.17148,-0.907119,0.011249000000000065,0.343588,0.0020930000000000115,0.9763203445968023,0.9987038000123334,double,-0.905026
175,1.458333,stand,0.0020400816032561425,-0.0024000960038358505,0.0032401296051840604,0.0033592026639836254,0.03034381672614436,-0.0174765873756145,0.000360014400573046,0.0016800672026830968,0.0003600144005763768,0.000360014400573046,0.000600024000960628,0.0007200288011519209,-1.0224817969100015,0.9648771886318519,-1.0080806448388686,0.07200576034608841,0.043203456206209405,0.15841267276041657,0.10080806448196607,1.9793552922142915e-13,0.10080806448386355,0.018974999999999964,0.17214199999999996,-0.90505,0.03022400000000003,-0.17145500000000002,-0.90714,0.011249000000000065,0.343597,0.0020899999999999253,0.9761741351977512,0.9983266130114536,double,-0.90505
176,1.466667,stand,0.006599472042226695,-0.0011999040076806084,0.003479721622277095,-0.007237191703735408,0.04396153546991849,0.009514251125312923,0.0003599712023008521,-0.0011999040076806084,-0.0004799616030722434,0.0002399808015427825,0.0,-0.001079913606911715,0.5470830860295943,0.1440115186171424,0.028748742151792572,-5.183377993026595e-06,-0.34556889973167265,-0.10078905731325127,-0.014402879653259634,-0.07199712034564908,-0.2159758109027682,0.018923000000000023,0.17214199999999996,-0.9050830000000001,0.03017100000000017,-0.17144500000000001,-0.907178,0.011248000000000147,0.343587,0.002094999999999958,0.9768141108936279,0.9981562386094498,double,-0.9050830000000001
177,1.475,stand,-0.015000600023992384,0.022560902436092965,-0.014760590423628117,0.03900546847329638,-0.028144290066659288,-0.14477026419074043,-0.00012000480018213318,0.0006000240009639587,0.0004800192007685024,0.00012000480018213318,0.0004800192007685024,0.0004800192007685024,-2.5921123324395414,2.851410829685966,-2.1889250025086873,-0.05759942427492822,0.21600000103738579,0.1152023045530696,-0.01439769607112051,0.05760460827655034,0.18719942489861877,0.019047000000000036,0.17195900000000003,-0.904956,0.03029700000000002,-0.17162899999999998,-0.9070509999999999,0.011249999999999982,0.343588,0.002094999999999958,0.9777538000123159,0.9988510415123546,double,-0.904956
178,1.483333,stand,0.023640945637826056,-0.021600864034556536,0.011160446417857985,-0.026554812246001463,0.05284204549006736,0.12323369261206371,-0.0001200048002087828,0.0008400336013415707,-0.0003600144005763864,-0.0003600144005730556,0.0006000240009589786,0.0006000240009598112,4.637170966256906,-5.2996239614364455,3.1106488469322384,-3.1980825197477693e-12,0.028802304137479202,-0.10080806448396694,-0.05760460827495418,0.01440115206894003,0.014401152069039953,0.018848999999999894,0.17214599999999997,-0.905052,0.03009700000000004,-0.17144400000000004,-0.9071389999999999,0.011248000000000147,0.34359,0.00208699999999995,0.9775937093988021,0.9984637093988056,double,-0.905052
179,1.491667,stand,-0.017398608111358366,0.028317734581228302,-0.015598752099827513,0.0473591560760787,0.004642315470367687,-0.1665789222276817,0.0004799616030855522,-0.0009599232061444612,0.00011999040076805765,0.00035997120230084253,0.00011999040076805765,0.00011999040076805765,-4.924352501701957,5.9897526536818395,-3.210846954365886,0.07199020917858535,-0.21597753869522657,0.05759596848385414,0.08639136103598424,-0.05759942406898455,-0.05759942406908446,0.01899800000000007,0.171902,-0.904921,0.030245000000000077,-0.17167899999999997,-0.907008,0.011247000000000007,0.34358099999999997,0.002087000000000061,0.9773301439884693,0.999336728103685,double,-0.904921
180,1.5,stand,0.014400576023055455,0.001560062402501005,-0.0038401536061481215,-0.03470582825236732,-0.04356042899707839,-0.07455264704803054,-0.00012000480018213638,0.001200048001921288,0.0007200288011519401,-0.000840033601354894,0.0002400096003842576,-0.0003600144005763864,3.816054738319226,-3.2110491034114412,1.4110882627720507,-0.07199884834605713,0.2592069132444221,0.07200748834560038,-0.1440063366921574,0.014402880069146891,-0.05760288027654487,0.018877000000000033,0.17189899999999997,-0.904883,0.030117999999999867,-0.17169,-0.906979,0.011240999999999834,0.343589,0.0020959999999999868,0.9766989663765109,0.9984251354305984,double,-0.904883
