frame_id,timestamp,gait_type,root_linear_velocity_x,root_linear_velocity_y,root_linear_velocity_z,root_angular_velocity_x,root_angular_velocity_y,root_angular_velocity_z,left_linear_velocity_x,left_linear_velocity_y,left_linear_velocity_z,right_linear_velocity_x,right_linear_velocity_y,right_linear_velocity_z,root_acceleration_x,root_acceleration_y,root_acceleration_z,left_acceleration_x,left_acceleration_y,left_acceleration_z,right_acceleration_x,right_acceleration_y,right_acceleration_z,left_pos_rel_x,left_pos_rel_y,left_pos_rel_z,right_pos_rel_x,right_pos_rel_y,right_pos_rel_z,step_length,step_width,step_height,left_contact_prob,right_contact_prob,support_type,max_foot_height
<<<<<<< HEAD
<<<<<<< HEAD
1,0.008333,step_acsent,-0.005640225609013348,-0.03228129125164571,0.048121924876993245,0.45196287969873256,-0.1394844022054264,-0.08353684789563046,0.00624024960999064,0.01236049441977916,-0.0021600864034558003,0.4000960038401474,-0.7141485659426424,0.007800312012480806,0.0,0.0,0.0,0.0,0.0,0.0,0.0,0.0,0.0,0.01890499999999995,-0.10439600000000004,-0.919481,0.061117999999999895,0.19036299999999995,-0.8965,0.042212999999999945,0.294759,0.02298100000000003,0.976643552474342,0.27019,single,-0.8965
2,0.016667,step_acsent,-0.0014398848092167025,-0.03335733141348697,0.04163666906647302,0.349453071599229,-0.006259641883804942,-0.07056197249989651,-0.005879529637624878,0.018958483321333267,-0.00863930885529189,0.39380849532037515,-0.6803455723542059,0.02891768658507297,0.5040005759295231,-0.1291144902617306,-0.7781684437869236,-1.4542571691403308,0.7916953325598879,-0.7774444986604377,-0.754440667119297,4.056034747832556,2.533882238132009,0.018867999999999996,-0.10396000000000005,-0.9198999999999999,0.06441199999999991,0.184971,-0.896606,0.04554399999999992,0.28893100000000005,0.023293999999999926,0.9639202035566339,0.26705999999999996,single,-0.896606
3,0.025,step_acsent,0.006840273610941286,-0.028681147245888543,0.026761070442814498,0.3079535103924625,-0.027187032523591313,-0.11513354591913125,-0.009120364814601704,0.007920316812673767,0.0129605184207373,0.3704548181927351,-0.643585743429738,0.0020400816032636725,0.9936587567692294,0.5611645466936791,-1.7851432405686456,-0.3889157778683339,-1.3246329663577943,2.59208295644176,-2.8025533574511012,4.41135592517316,-3.2254416154817354,0.018734999999999946,-0.10365500000000005,-0.9200149999999999,0.067442,0.17984699999999998,-0.8968119999999999,0.048707000000000056,0.28350200000000003,0.023202999999999974,0.9704718820209346,0.26797000000000004,single,-0.8968119999999999
4,0.033333,step_acsent,0.009000360014392923,-0.017400696027848522,0.01956078243130016,0.1920584982359732,0.1047986800145387,-0.10037384838643276,-0.00816032641305136,0.006000240009599723,0.011280451218048345,0.351254050162008,-0.5777031081243231,0.004560182407296689,0.25922073724368616,1.3537082944965824,-0.8640691241466864,0.11520921655470358,-0.2304184331062095,-0.20161612896783326,-2.304184331060497,7.906232485949217,0.3024241934517,0.018592000000000053,-0.10346,-0.920084,0.07029400000000008,0.17517800000000006,-0.896937,0.051702000000000026,0.27863800000000005,0.02314700000000003,0.9747324105806627,0.26853,single,-0.896937
5,0.041667,step_acsent,-0.0004799616030722342,-0.012598992080636157,0.02291816654668253,0.11100404177220273,-0.17171978566731594,-0.14887624067372826,-0.0027597792176620164,-0.00407967362610733,0.014038876889848697,0.3460523158147345,-0.5285577153827684,0.008519318454523831,-1.1375475902885956,0.5761583809950042,0.4028538655366412,0.6480138223409339,-1.2094928768546978,0.3309846018478943,-0.6241581890176986,5.896975370956889,0.4750583210015769,0.01857300000000006,-0.10338899999999995,-0.920158,0.07318200000000008,0.17087800000000009,-0.897057,0.05460900000000002,0.27426700000000004,0.023101000000000038,0.975203596667946,0.26898999999999995,single,-0.897057
6,0.05,step_acsent,0.02436097443898527,-0.030121204848194073,-0.012960518420736467,-0.16888588461297319,-0.3610526962439787,-0.10533461752714587,-0.001680067202683126,-0.004320172806916597,0.00804032161286506,0.32821312852513285,-0.5499819992799716,-0.012720508820353044,2.981031566309553,-2.1027496420926335,-4.305614420667107,0.12957062462245172,-0.028861056139357587,-0.7198554274551345,-2.1407881062764496,-2.571016908340716,-2.5488812282343543,0.01835600000000004,-0.10317399999999999,-0.919983,0.07571399999999995,0.16654600000000008,-0.897055,0.05735799999999991,0.26972000000000007,0.02292799999999995,0.9845319962390586,0.27072000000000007,single,-0.897055
7,0.058333,step_acsent,-0.002160086403451637,0.03432137285491521,0.0,0.0219765621868493,0.5169785924037419,-0.22218556627761815,-0.003240129605184117,-0.004680187207482988,0.0010800432017274838,0.322092883715351,-0.463338533541342,0.0028801152046085666,-3.1826546072767194,7.733418661119559,1.5553244234653147,-0.18721497689919486,-0.043203456206215206,-0.8352668200093095,-0.7344587555240429,10.397631793907305,1.8721497689861528,0.018347000000000002,-0.10349899999999995,-0.9199740000000001,0.07841599999999993,0.16239900000000007,-0.897031,0.06006899999999993,0.265898,0.022943000000000047,0.9903435275774519,0.27057,single,-0.897031
8,0.066667,step_acsent,0.03863690904726823,0.0022798176145897822,-0.02231821454283891,-0.040034745508515844,-0.9270277472196905,-0.08544572212445653,0.0009599232061311468,-0.00011999040077138896,0.0,0.3140148788096928,-0.4592032637389038,-0.028917686585073803,4.895247834259642,-3.8446790545146894,-2.677971507420075,0.5039660200762255,0.5471798424179984,-0.12959481662196828,-0.9692830460352995,0.4961926808781166,-3.815430980283461,0.018032999999999966,-0.10351899999999997,-0.919788,0.08071099999999998,0.15855300000000006,-0.897086,0.06267800000000001,0.262072,0.022702,0.9983876774361651,0.27298,single,-0.897086
=======
=======
>>>>>>> 3b0d06690e55fb02323d988053aa126fb7c3a6e7
1,0.008333,stand,-0.005640225609013348,-0.03228129125164571,0.048121924876993245,0.45196287969873256,-0.1394844022054264,-0.08353684789563046,0.00624024960999064,0.01236049441977916,-0.0021600864034558003,0.4000960038401474,-0.7141485659426424,0.007800312012480806,0.0,0.0,0.0,0.0,0.0,0.0,0.0,0.0,0.0,0.01890499999999995,-0.10439600000000004,-0.919481,0.061117999999999895,0.19036299999999995,-0.8965,0.042212999999999945,0.294759,0.02298100000000003,0.976643552474342,0.27019,single,-0.8965
2,0.016667,stand,-0.0014398848092167025,-0.03335733141348697,0.04163666906647302,0.349453071599229,-0.006259641883804942,-0.07056197249989651,-0.005879529637624878,0.018958483321333267,-0.00863930885529189,0.39380849532037515,-0.6803455723542059,0.02891768658507297,0.5040005759295231,-0.1291144902617306,-0.7781684437869236,-1.4542571691403308,0.7916953325598879,-0.7774444986604377,-0.754440667119297,4.056034747832556,2.533882238132009,0.018867999999999996,-0.10396000000000005,-0.9198999999999999,0.06441199999999991,0.184971,-0.896606,0.04554399999999992,0.28893100000000005,0.023293999999999926,0.9639202035566339,0.26705999999999996,single,-0.896606
3,0.025,stand,0.006840273610941286,-0.028681147245888543,0.026761070442814498,0.3079535103924625,-0.027187032523591313,-0.11513354591913125,-0.009120364814601704,0.007920316812673767,0.0129605184207373,0.3704548181927351,-0.643585743429738,0.0020400816032636725,0.9936587567692294,0.5611645466936791,-1.7851432405686456,-0.3889157778683339,-1.3246329663577943,2.59208295644176,-2.8025533574511012,4.41135592517316,-3.2254416154817354,0.018734999999999946,-0.10365500000000005,-0.9200149999999999,0.067442,0.17984699999999998,-0.8968119999999999,0.048707000000000056,0.28350200000000003,0.023202999999999974,0.9704718820209346,0.26797000000000004,single,-0.8968119999999999
4,0.033333,stand,0.009000360014392923,-0.017400696027848522,0.01956078243130016,0.1920584982359732,0.1047986800145387,-0.10037384838643276,-0.00816032641305136,0.006000240009599723,0.011280451218048345,0.351254050162008,-0.5777031081243231,0.004560182407296689,0.25922073724368616,1.3537082944965824,-0.8640691241466864,0.11520921655470358,-0.2304184331062095,-0.20161612896783326,-2.304184331060497,7.906232485949217,0.3024241934517,0.018592000000000053,-0.10346,-0.920084,0.07029400000000008,0.17517800000000006,-0.896937,0.051702000000000026,0.27863800000000005,0.02314700000000003,0.9747324105806627,0.26853,single,-0.896937
5,0.041667,stand,-0.0004799616030722342,-0.012598992080636157,0.02291816654668253,0.11100404177220273,-0.17171978566731594,-0.14887624067372826,-0.0027597792176620164,-0.00407967362610733,0.014038876889848697,0.3460523158147345,-0.5285577153827684,0.008519318454523831,-1.1375475902885956,0.5761583809950042,0.4028538655366412,0.6480138223409339,-1.2094928768546978,0.3309846018478943,-0.6241581890176986,5.896975370956889,0.4750583210015769,0.01857300000000006,-0.10338899999999995,-0.920158,0.07318200000000008,0.17087800000000009,-0.897057,0.05460900000000002,0.27426700000000004,0.023101000000000038,0.975203596667946,0.26898999999999995,single,-0.897057
6,0.05,stand,0.02436097443898527,-0.030121204848194073,-0.012960518420736467,-0.16888588461297319,-0.3610526962439787,-0.10533461752714587,-0.001680067202683126,-0.004320172806916597,0.00804032161286506,0.32821312852513285,-0.5499819992799716,-0.012720508820353044,2.981031566309553,-2.1027496420926335,-4.305614420667107,0.12957062462245172,-0.028861056139357587,-0.7198554274551345,-2.1407881062764496,-2.571016908340716,-2.5488812282343543,0.01835600000000004,-0.10317399999999999,-0.919983,0.07571399999999995,0.16654600000000008,-0.897055,0.05735799999999991,0.26972000000000007,0.02292799999999995,0.9845319962390586,0.27072000000000007,single,-0.897055
7,0.058333,stand,-0.002160086403451637,0.03432137285491521,0.0,0.0219765621868493,0.5169785924037419,-0.22218556627761815,-0.003240129605184117,-0.004680187207482988,0.0010800432017274838,0.322092883715351,-0.463338533541342,0.0028801152046085666,-3.1826546072767194,7.733418661119559,1.5553244234653147,-0.18721497689919486,-0.043203456206215206,-0.8352668200093095,-0.7344587555240429,10.397631793907305,1.8721497689861528,0.018347000000000002,-0.10349899999999995,-0.9199740000000001,0.07841599999999993,0.16239900000000007,-0.897031,0.06006899999999993,0.265898,0.022943000000000047,0.9903435275774519,0.27057,single,-0.897031
8,0.066667,stand,0.03863690904726823,0.0022798176145897822,-0.02231821454283891,-0.040034745508515844,-0.9270277472196905,-0.08544572212445653,0.0009599232061311468,-0.00011999040077138896,0.0,0.3140148788096928,-0.4592032637389038,-0.028917686585073803,4.895247834259642,-3.8446790545146894,-2.677971507420075,0.5039660200762255,0.5471798424179984,-0.12959481662196828,-0.9692830460352995,0.4961926808781166,-3.815430980283461,0.018032999999999966,-0.10351899999999997,-0.919788,0.08071099999999998,0.15855300000000006,-0.897086,0.06267800000000001,0.262072,0.022702,0.9983876774361651,0.27298,single,-0.897086
<<<<<<< HEAD
>>>>>>> 3b0d06690e55fb02323d988053aa126fb7c3a6e7
=======
>>>>>>> 3b0d06690e55fb02323d988053aa126fb7c3a6e7
9,0.075,step_acsent,0.051362054482177406,0.0034801392055750367,0.009480379215161441,-0.16854542848978796,-0.1869624483353191,-0.0898069284740365,0.006720268810759157,0.005760230409215472,-0.010200408016320037,0.36433457338294023,-0.5161406456258254,-0.03180127205088222,1.5270785353305159,0.14404435269233834,3.8159838903156578,0.6912691233202946,0.7056547233873594,-1.2240979258754405,6.038604892985415,-6.83275913679607,-0.34604409766091676,0.017661000000000038,-0.10350000000000004,-0.919952,0.08331900000000003,0.154223,-0.89743,0.065658,0.25772300000000004,0.022522000000000042,0.9774913232189896,0.2747800000000001,single,-0.89743
10,0.083333,step_acsent,0.030481219248780424,0.011280451218040008,0.036961478459148656,0.08532062776870745,-0.40178763776759807,-0.16556502105819207,0.001800072002878583,0.0019200768030740415,-0.009720388815553175,0.3051722068882707,-0.41149645985839584,-0.0404416176647062,-2.5058004600260366,0.9360748844911755,3.297863823831416,-0.5904472348350617,-0.46083686621161973,0.05760460827635437,-7.099767970079143,12.557804604275708,-1.0368829489768356,0.017421999999999938,-0.10357799999999995,-0.9203410000000001,0.0856079999999999,0.15070000000000006,-0.8980750000000001,0.06818599999999997,0.254278,0.022266000000000008,0.9832160035822164,0.27734000000000003,single,-0.8980750000000001
11,0.091667,step_acsent,0.03503719702423316,0.0008399328053864017,0.033957283417317304,-0.009771902263323256,-0.4642225129034395,-0.22855704080867148,-0.00035997120230084556,0.0004799616030722346,-0.011039116870650572,0.2970962323014201,-0.3762898968082589,-0.023998080153587585,0.5466735991663958,-1.2527619885593488,-0.3604745670543981,-0.25918444986554234,-0.17280000000021692,-0.15823470783506094,-0.9690394272678857,4.224449610047629,1.973066656001755,0.017127000000000003,-0.10358100000000003,-0.920716,0.08779199999999998,0.14755699999999994,-0.898558,0.07066499999999998,0.251138,0.02215800000000001,0.9815743201775656,0.27842,single,-0.898558
12,0.1,step_acsent,0.03492139685587915,0.0007200288011461039,0.01776071042842156,0.023026923175655193,-0.24323756018162032,-0.28582381140975,0.0014400576023055312,-0.00024000960038425518,-0.005160206408255657,0.26533061322452434,-0.3895355814232531,-0.08400336013440521,-0.013896576065523872,-0.014389056071078564,-1.9436665053277005,0.21601209703664648,-0.08640000041479529,0.7054974753864046,-3.8120267702983037,-1.5895457356287281,-7.200921634563492,0.016847999999999974,-0.10358899999999999,-0.920907,0.0897119999999999,0.14430500000000002,-0.899406,0.07286399999999993,0.247894,0.021500999999999992,0.9910620812946505,0.28499,single,-0.899406
13,0.108333,step_acsent,0.0192007680307138,-0.06264250570023075,0.08556342253689718,0.2703741855807925,-1.5338321311575003,-0.5516127326287907,0.0027601104044156083,0.00012000480018879699,-0.0022800912036487625,0.25957038281531597,-0.33949357974318645,-0.050762030481219265,-1.8865509210566862,-7.603808292496929,8.136650919053842,0.15841267276011978,0.04320345620701458,0.345627649658814,-0.6912552993169773,6.0052804128245185,3.9891191231472423,0.01671100000000003,-0.10306599999999999,-0.921639,0.09171499999999999,0.14199800000000007,-0.900542,0.07500399999999996,0.24506400000000006,0.021097000000000032,0.9940298365708233,0.28902999999999995,single,-0.900542
14,0.116667,step_acsent,0.053755699544036896,-0.016438684905200694,0.025797936165115914,-0.05554227482132648,-0.4192987884437144,-0.4010729947443575,0.002759779217662014,0.008519318454528819,-0.008879289656827166,0.1689464842812531,-0.30093592512599754,-0.1183105351571874,4.146260080792304,5.544014974205665,-7.171284661840797,-3.973923129283362e-05,1.007837011559877,-0.7918404671440361,-10.873997904255193,4.626548430188249,-8.10517214734438,0.016286000000000023,-0.102858,-0.9219280000000001,0.09267499999999995,0.13962699999999995,-0.9017430000000001,0.07638899999999993,0.24248499999999995,0.02018500000000001,0.9789816909794664,0.29815,single,-0.9017430000000001
15,0.125,step_acsent,0.04872194887795725,-0.018960758430336205,-0.015840633625347544,-0.2541107768677566,-0.22170435853609138,-0.43309961298845684,-0.00264010560422015,-0.00648025921036824,0.004080163206528181,0.20700828033122393,-0.2551302052082039,-0.06564262570502812,-0.604074242899274,-0.3026609294534397,-4.996828247985539,-0.6480120991098246,-1.800021320640474,1.5551965514647015,4.567598229925698,5.4969062663858965,6.320401950337132,0.01585800000000004,-0.10275400000000001,-0.921762,0.09399400000000002,0.13765899999999998,-0.902158,0.07813599999999998,0.240413,0.019603999999999955,0.9864998303686683,0.30396,single,-0.902158
16,0.133333,step_acsent,0.03516140645625675,-0.026401056042241425,-0.027121084843400853,-0.33531590711727466,0.03021051959304955,-0.40765612322849065,0.00012000480018213519,0.0015600624024943279,-0.0014400576023038656,0.10596423856953875,-0.25309012360494726,-0.23568942757710293,-1.6273301838114114,-0.892871428285757,-1.3537082944981758,0.33122649758817746,0.9648771886310525,-0.6624529951796522,-12.125770042203898,0.24481958517420335,-20.40643248194824,0.015565999999999969,-0.10252100000000003,-0.9215479999999999,0.094584,0.13576999999999995,-0.9038959999999999,0.07901800000000003,0.23829099999999998,0.017652,0.9964558492046376,0.32348,single,-0.9038959999999999
17,0.141667,step_acsent,0.054835613150952936,-0.02543796496280183,-0.02267818574513981,-0.22743496844176575,0.31693354589966993,-0.4833823199275997,0.002039836813060331,0.01643868490520741,-0.011399088072953934,0.09083273338133063,-0.1409887209023326,-0.13678905687545054,2.3607159460878613,0.1155616845979836,0.5331052433718565,0.23036141263237347,1.7852918769754162,-1.1949880574334164,-1.8156353717552383,13.451092236934835,11.867095116588988,0.015125999999999973,-0.10217200000000004,-0.921454,0.09488399999999997,0.1348069999999999,-0.904847,0.079758,0.23697899999999994,0.01660700000000004,0.9664867147184064,0.4732221659505401,single,-0.904847
18,0.15,step_acsent,0.0382815312612454,-0.017040681627275456,-0.040201608064319445,-0.2694712888682973,0.016026124279248637,-0.40328541470312135,-0.004560182407294187,-0.01920076803072043,0.013800552022080517,0.06132245289812058,-0.0680427217088664,-0.09504380175207013,-1.986569289536484,1.0077143088355176,-2.1028947940933183,-0.7920339878020536,-4.276905428528478,3.024077774515112,-3.5413753129977237,8.75387005801826,5.009631000045647,0.014769000000000032,-0.10218999999999995,-0.921004,0.09507600000000005,0.134382,-0.905304,0.08030700000000002,0.23657199999999995,0.015700000000000047,0.9598641199357496,0.6230026549498631,double,-0.905304
19,0.158333,step_acsent,0.03144125765030412,0.003000120004806521,-0.03876155046201391,-0.4944914988050335,-0.26431468654267004,-0.2456884275165817,-0.0019200768030740415,0.0006000240009573072,-0.00012000480019212759,0.023400936037434903,-0.03144125765030412,-0.07428297131885286,-0.8208656679396702,2.404992395545657,0.17281382482965704,0.31682534552023806,2.376190091404983,-1.6705336400183166,-4.550764053844431,4.392351381082713,2.4913993079583876,0.014491000000000032,-0.10221000000000002,-0.920682,0.09500900000000001,0.13409499999999996,-0.9056000000000001,0.08051799999999998,0.236305,0.015081999999999929,0.99664129452703,0.709198688568612,double,-0.9056000000000001
20,0.166667,step_acsent,0.030597552195824933,-0.007679385649155741,-0.02831773458123515,-0.4010663011450307,-0.004030307722297679,-0.2886948875165673,0.0015598752099747685,0.012598992080636145,-0.007319414446844072,-0.021958243340538044,-0.010559155267575821,-0.07907367410607143,-0.10123655561305372,-1.2814381634223964,1.2531576530812036,0.41756083669892086,1.4397609886823646,-0.8638600487943289,-5.442666112067783,2.505651833780691,-0.574838347398435,0.014248999999999956,-0.10204099999999994,-0.920507,0.09457099999999996,0.13407100000000005,-0.906023,0.080322,0.236112,0.014483999999999941,0.9755765572563244,0.7172559860063665,double,-0.906023
21,0.175,step_acsent,0.032641305652232167,-0.005040201608062714,-0.03012120484819415,-0.29189072804801575,0.1526830866044862,-0.2877935112839137,-0.0014400576022922126,-0.00120004800192128,0.0013200528021117424,-0.05580223208927623,0.10668426737069853,-0.05016200648025871,0.24526022517787577,0.31671475352130485,-0.21642508903864185,-0.3600063377255477,-1.655951047948813,1.0367775409763393,-4.061441107492892,14.069773507533258,3.469538896653401,0.013965000000000005,-0.10200899999999996,-0.920245,0.09383399999999997,0.13500200000000007,-0.90619,0.07986899999999997,0.23701100000000003,0.014054999999999929,0.9961788525192039,0.6420688133926586,double,-0.90619
22,0.183333,step_acsent,0.018000720028799155,-0.00036001440057305197,-0.027961118444742413,-0.19301246921806717,0.24526254501293832,-0.20728574878625747,-0.0012000480019279376,-0.0019200768030740415,-0.0012000480019196105,-0.06888275531020796,-0.03228129125165901,-0.10164406576263048,-1.7569405524340571,0.5616449306959869,0.2592207372436978,0.028802304135878413,-0.0864069124148279,-0.3024241934515001,-1.5697255755348274,-16.676534096046733,-6.178094237654113,0.013804999999999956,-0.102022,-0.920022,0.09311000000000003,0.13473599999999997,-0.9068039999999999,0.07930500000000007,0.23675799999999997,0.013218000000000063,0.9957289978590937,0.6562226895206213,double,-0.9068039999999999
23,0.191667,step_acsent,0.018118550515960175,0.008999280057601053,-0.018958483321333253,-0.20516195530103198,0.18990048203735893,-0.13963198280759337,-0.00011999040077138885,0.0019198464122889352,-0.000959923206143635,-0.02591792656587398,-0.026397888168946216,-0.038276937844972346,0.014138527377132117,1.1230254929414563,1.0802297964253842,0.1295965444152325,0.46075392552951444,0.02881267047947867,5.155367019958476,0.7059518937740327,7.603447074353021,0.013652999999999915,-0.10208100000000003,-0.919872,0.09274300000000002,0.13444099999999992,-0.906965,0.0790900000000001,0.23652199999999995,0.012907000000000002,0.9964169920671976,0.7822089736176414,double,-0.906965
24,0.2,step_acsent,0.018840753630140716,0.010440417616698446,-0.01920076803071377,-0.21627569206208885,0.14295290869898053,-0.10219698153922518,0.0006000240009639688,0.0013200528021100728,-0.0015600624024959932,0.01368054722188256,0.0015600624025009894,0.037921516860674014,0.08666784041528147,0.17294342482868025,-0.029075328138787326,0.08640518441561948,-0.07197811234595727,-0.07201958434565675,4.752006934808174,3.355088272104546,9.144180331890832,0.013500999999999985,-0.102157,-0.919725,0.0927,0.13436700000000001,-0.9064890000000001,0.07919900000000002,0.236524,0.013235999999999915,0.9964502101385462,0.8004001183158338,double,-0.9064890000000001
25,0.208333,step_acsent,0.02664106564263243,0.012120484819394935,-0.011640465618626424,-0.19651784306827497,0.1632617747449895,-0.07831696202887438,0.00036001440057305316,0.000960038401537024,-0.0018000720028802544,-0.002880115204611072,0.021000840033605746,0.015360614424577394,0.9360748844943876,0.20161612896873787,0.9072725803536977,-0.028802304139075512,-0.04320345620701424,-0.028802304138276946,-1.9873589855386624,2.332986635197985,-2.7074165889951605,0.013281999999999905,-0.10225000000000001,-0.919643,0.09245399999999993,0.13444100000000003,-0.9062640000000001,0.07917200000000002,0.23669100000000004,0.013378999999999919,0.9965473265927371,0.8225802821331905,double,-0.9062640000000001
26,0.216667,step_acsent,0.01775857931364601,0.019678425725948263,-0.017758579313659328,-0.1736335481656782,0.022713809073843717,-0.042005860141942124,-0.005039596832251794,-0.014158867290617575,0.00995920326373886,-0.028917686585065452,-0.01307895368370838,-0.022798176145908625,-1.0658130944308148,0.9068803583577298,-0.7341149142108109,-0.6479015158177156,-1.8141235531742963,1.4110001519821338,-3.124258624964525,-4.089248106229193,-4.578688573372448,0.013091999999999993,-0.10253200000000007,-0.919412,0.09206500000000006,0.13416799999999995,-0.9063060000000001,0.07897300000000007,0.23670000000000002,0.013105999999999951,0.9699511144210421,0.8038108875797778,double,-0.9063060000000001
27,0.225,step_acsent,0.010560422416893905,0.04476179047161363,-0.009240369614783831,-0.0034618441825303467,0.13882853400365472,0.06921503198443872,0.0006000240009639688,0.0013200528021167343,-0.00012000480019212759,-0.03348133925357362,-0.036361454458184686,-0.04224168966758644,-0.8638133801454575,3.01012417444682,1.022226052907175,0.6767815712487408,1.8575447129166323,-1.2095533498057098,-0.5476602266300448,-2.7940118534112908,-2.333314955199544,0.013009000000000048,-0.10289399999999999,-0.919336,0.09169800000000006,0.13349199999999994,-0.906581,0.07868900000000001,0.23638599999999993,0.012755000000000072,0.9975750318706686,0.7640844176910064,double,-0.906581
28,0.233333,step_acsent,0.013680547221895885,0.03336133445337816,-0.0001200048001954584,0.005173078389947538,0.12469039662832973,0.01202594424284432,-0.0009600384015370207,0.0037201488059526245,0.00012000480019212759,-0.013800552022078019,-0.03720148805951292,-0.04680187207488313,0.3744299537983892,-1.368109446566118,1.094487557252894,-0.18721497689919456,0.28802304138196183,0.028802304138276127,2.3617889393370435,-0.10080806448196729,-0.5472437786267469,0.012886999999999982,-0.10314099999999998,-0.919334,0.09146900000000002,0.13290400000000002,-0.9069699999999999,0.07858200000000004,0.236045,0.012364000000000042,0.9935934967886517,0.7740964355687026,double,-0.9069699999999999
29,0.241667,step_acsent,0.017038636909044374,0.040796736261100044,0.00947924166067332,0.02163584471269063,0.10136177132140571,0.04445374616747206,-0.0002399808015294569,0.00095992320613781,0.0016798656107511586,0.06287497000239622,0.0653947684185288,0.07883369330453557,0.4029385273756296,0.8921768427792058,1.1518174299098634,0.08640000000090779,-0.331200575931704,0.18716832380118006,9.200326616807585,12.310565932090467,15.075061840583032,0.01274300000000006,-0.10347300000000004,-0.9193990000000001,0.09185100000000002,0.13310900000000003,-0.9063920000000001,0.07910799999999996,0.23658200000000007,0.01300699999999999,0.9967506445865846,0.6696212883312027,double,-0.9063920000000001
30,0.25,step_acsent,0.02376095043802128,0.05124204968198186,0.012360494419772489,-0.022767224502839422,0.23856506487733076,0.07036956240392622,0.00024000960037759357,0.006240249609983973,-0.003240129605184114,0.01584063362534752,0.025801032041277455,0.0054002160086407455,0.8067098918729028,1.2534877500158172,0.34576416165836643,0.057601152274937006,0.6336645150421407,-0.5904230428339456,-5.644346139091404,-4.75143842280707,-8.812369770298185,0.012546999999999975,-0.103848,-0.919529,0.091785,0.13289700000000004,-0.90645,0.07923800000000003,0.23674500000000004,0.013079000000000063,0.9882743444080975,0.8179540718608109,double,-0.90645
31,0.258333,step_acsent,0.017400696027835245,0.06120244809792532,0.0070802832113322205,0.055173517619019154,0.03922774701281022,0.06708410711223317,-0.0012000480019146184,0.00240009600384256,0.0012000480019196146,0.0025201008040246953,0.015600624024956655,0.0027601104044164457,-0.7632610596647125,1.195295621738088,-0.6336506910404754,-0.172813824828059,-0.4608368662116192,0.532842626557511,-1.59852787967393,-1.224097925875534,-0.3168253455207376,0.01239200000000007,-0.10433799999999999,-0.919578,0.09166099999999999,0.132517,-0.906486,0.07926899999999992,0.23685499999999998,0.013091999999999993,0.9951008245474162,0.8423431866627538,double,-0.906486
32,0.266667,step_acsent,0.006719462443011273,0.07487401007920186,0.01367890568753868,0.17970723564948043,0.046293866397307995,0.04197917052412747,0.00011999040075806724,0.005279577633787911,0.0004799616030722338,0.0035997120230484144,0.010559155267575821,-0.0002399808015361169,-1.2816454985389922,1.6404562012570825,0.7917713554363395,0.15839193696576487,0.3455101547810593,-0.0864034555852388,0.12954298284421864,-0.6049278566571669,-0.35998214614261576,0.012336999999999931,-0.10491800000000007,-0.919688,0.09163500000000002,0.1319809999999999,-0.906602,0.07929800000000009,0.23689899999999997,0.013085999999999931,0.99116215511,0.850542563094851,double,-0.906602
33,0.275,step_acsent,0.00504020160806268,0.09312372494899744,0.015960638425542923,0.030400811370792934,-0.019897275908043105,0.0738446715336803,0.0013200528021233915,0.005160206408258139,0.0001200048001921272,0.002400096003829221,0.023040921636875097,0.0016800672026881154,-0.20151936096826906,2.1900533865109213,0.2738188813157606,0.14401324869378607,-0.014325120068375316,-0.04319654420738091,-0.14395968069353038,1.4978718791910743,0.23041497710599115,0.012306000000000039,-0.10565100000000005,-0.91982,0.09161299999999994,0.13139699999999999,-0.906721,0.0793069999999999,0.23704800000000004,0.013098999999999972,0.9911204556660498,0.8302992795314554,double,-0.906721
34,0.283333,step_acsent,0.007920316812673786,0.09636385455418219,0.033601344053755866,0.18853324974338612,-0.07736127967485276,0.10749643638325417,0.0009600384015237008,0.003360134405372922,0.0007200288011519352,0.002880115204611072,0.024840993639740516,0.00396015840633606,0.3456276496593199,0.3888311058664049,2.1169693541597248,-0.043203456210211405,-0.21601728103746803,0.07200576034559096,0.057604608278153405,0.21601728103509227,0.2736218893133266,0.012247999999999926,-0.10642600000000008,-0.920094,0.09157099999999996,0.13080099999999995,-0.906968,0.07932300000000003,0.23722700000000002,0.013125999999999971,0.9940533346344687,0.8265416297311556,double,-0.906968
35,0.291667,step_acsent,0.018478521718261018,0.1016318694504356,0.017158627309815707,-0.02720912773932423,0.019780387295076442,0.12195625929774885,0.0,0.004439644828414832,0.0008399328053755765,0.0,0.017278617710587096,0.0,1.2668832380114257,0.6321112186529175,-1.9729681718190717,-0.11519539255143986,0.12953088829396553,0.014387329520475303,-0.3455861776591156,-0.9074125184969298,-0.4751809942807843,0.012093999999999938,-0.107236,-0.92023,0.09141699999999997,0.13009800000000005,-0.907111,0.07932300000000003,0.23733400000000004,0.013118999999999992,0.992469334299749,0.8400123038156881,double,-0.907111
36,0.3,step_acsent,0.011400456018235505,0.11448457938317685,0.005280211208453632,0.03319367867780649,0.06387482524665597,0.024559849402984453,0.001920076803074048,0.00120004800192128,0.0018000720028802544,-0.014520580823237495,0.0427217088683576,-0.006240249609983994,-0.8494018600774668,1.54238688740445,-1.4254669508414861,0.23041843310621057,-0.38876716986602183,0.11522131255306375,-1.7425394003645183,3.053293070655294,-0.7488599075943849,0.012014999999999998,-0.10818,-0.920259,0.09120099999999998,0.12950000000000006,-0.907207,0.07918599999999998,0.23768000000000006,0.013052000000000064,0.995179018843473,0.7935609570208761,double,-0.907207
37,0.308333,step_acsent,0.0212408496339832,0.12012480499220274,0.009960398415929904,0.0656807948954184,0.11347412762819731,0.09574433949041625,0.0013200528021100684,0.0007200288011527632,0.0020400816032636643,-0.0003600144005730508,0.015480619224761093,0.0013200528021117337,1.180894469668505,0.6768541472489932,0.561644930694378,-0.07200576034609109,-0.05760460827655283,0.028802304138174594,1.6993359441574925,-3.2690615196923547,0.9072725803546976,0.011848999999999998,-0.10917500000000002,-0.920325,0.09102100000000002,0.12862799999999996,-0.907279,0.07917200000000002,0.237803,0.013046000000000002,0.9957760886271585,0.8436383847913008,double,-0.907279
38,0.316667,step_acsent,0.015118790496768805,0.12958963282937078,0.000959923206144474,0.1912021512824399,0.08647835410917519,0.06559390085016871,0.001919846412288948,0.0045596352291795905,0.0005999520038402962,-0.004079673626107353,0.008879289656829723,0.005159587233021552,-0.7345883293993795,1.1356884853813405,-1.0799706275240557,0.07196947566341289,0.4607159140900947,-0.17280172779258177,-0.44632340119202346,-0.7920961804573323,0.46070727512717063,0.011738999999999944,-0.11021700000000001,-0.9203279999999999,0.09086099999999997,0.127622,-0.9072439999999999,0.07912200000000003,0.23783900000000002,0.013083999999999985,0.9916940406138346,0.8507430043679005,double,-0.9072439999999999
39,0.325,step_acsent,0.034801392055683576,0.12636505460218003,0.01920076803072703,-0.059070512812288936,0.12646098691664662,0.013989105544484287,0.0012000480019279335,0.0015600624025009842,0.0015600624024959882,-0.008400336013442242,0.006480259210368207,0.007440297611904392,2.362006667336456,-0.386964865857522,2.1889889385074377,-0.08637926441389793,-0.35996313772694033,0.11521785655294468,-0.518500226489244,-0.28789516938215604,0.27369619331367223,0.011458999999999997,-0.11125699999999994,-0.920475,0.09050099999999994,0.12662300000000004,-0.907342,0.07904199999999995,0.23787999999999998,0.013133000000000061,0.9958141426584038,0.8470728401348949,double,-0.907342
40,0.333333,step_acsent,0.015000600023992684,0.1509660386415571,0.011400456018235505,0.26421610233014736,-0.011212953943519764,0.047275740059510345,-0.0061202448097951966,0.00036001440057305316,0.0037201488059518044,-0.012720508820345583,0.0015600624025009946,0.008280331213248504,-2.3761900914065692,2.9522361741722234,-0.9360748844943649,-0.8784702762178266,-0.1440115206921798,0.2592207372441883,-0.5184414744873818,-0.5904472348334603,0.10080806448387306,0.011283000000000043,-0.11251200000000006,-0.920539,0.09027000000000007,0.125378,-0.907368,0.07898700000000003,0.23789000000000005,0.013171000000000044,0.988047952983453,0.8428598656255306,double,-0.907368
41,0.341667,step_acsent,0.03227741780658441,0.15994720422365205,-0.007319414446841574,-0.02714739359616148,0.06688979702406352,0.07209236462235429,-0.0021598272138183914,-0.0009599232061444676,0.002399808015358671,-0.03743700503960759,0.002879769618420081,0.031197504199663557,2.073052289727827,1.0776536575587872,-2.246204759428493,0.4752120945496522,-0.15837984241870884,-0.15842822061352674,-2.9657422869284837,0.15835219773447146,2.749840771108115,0.010996000000000006,-0.11385299999999998,-0.920458,0.08968899999999991,0.12406899999999998,-0.907047,0.0786929999999999,0.23792199999999997,0.01341099999999995,0.9943861815664319,0.7845282104479764,double,-0.907047
42,0.35,step_acsent,0.0282011280451201,0.16188647545902413,-0.016680667226689136,-0.14457632007451401,-0.024974856978523478,-0.025189208573223404,-0.0012000480019279415,0.002160086403458304,0.0010800432017283193,-0.0152406096243836,0.0010800432017324826,0.0020400816032645104,-0.4891743383492526,0.23272185711893437,-1.123395269392486,0.11517811255135632,0.3744161297975254,-0.158378112760153,2.6636739967867564,-0.21597580903487373,-3.499030672794806,0.010750999999999955,-0.11518400000000001,-0.92031,0.08932699999999993,0.12272899999999998,-0.906891,0.07857599999999998,0.23791299999999999,0.013418999999999959,0.9955053792043105,0.8401192857248403,double,-0.906891
43,0.358333,step_acsent,0.04440177607104043,0.14304572182886907,-0.02112084483378774,-0.06755438062344464,-0.05557987413980025,-0.09222653131081947,-0.002640105604220137,-0.0004800192007685088,0.0012000480019204393,-0.015000600023992583,0.002280091203647086,0.0033601344053762307,1.9441555293316044,-2.2609808748535913,-0.5328426265568925,-0.17281382482805582,-0.3168253455210371,0.014401152069137103,0.028802304139087544,0.1440115206905794,0.15841267276031618,0.010359000000000007,-0.11637999999999998,-0.920124,0.08883200000000002,0.121556,-0.906687,0.07847300000000001,0.23793599999999998,0.013437000000000032,0.9951008245474212,0.839729157017207,double,-0.906687
44,0.366667,step_acsent,0.04703623710102563,0.1563474922006303,0.010199184065274976,-0.1918368259759161,0.04054129308421614,-0.04442388573158815,-0.004799616030722338,-0.006119510439167651,0.012838972882168932,-0.004679625629950949,0.0037197024238064817,0.009719222462202743,0.31611003479544,1.596084757830719,3.758102819661949,-0.25912052153854087,-0.6766848138227906,1.3965592608889466,1.2384178538566863,0.17273952725694677,0.7630295244572242,0.00992700000000002,-0.11773400000000006,-0.9201020000000001,0.08840100000000006,0.12028399999999995,-0.906691,0.07847400000000004,0.238018,0.013411000000000062,0.9749820094328481,0.8468725834629329,double,-0.906691
45,0.375,step_acsent,0.060482419296779215,0.15732629305171658,0.03192127685107274,-0.20805028751274857,0.04134064592855401,0.017565788096324076,-0.004800192007671796,-0.000480019200768512,0.0021600864034566386,-0.0075603024121007325,0.009000360014406268,0.003120124804991997,1.6136064077467445,0.11746080056237719,2.6067554045119183,-6.911999873491173e-05,0.6767660192486683,-1.2815176381510045,-0.34569504165964127,0.6337042590423377,-0.7919233958011235,0.00938300000000003,-0.11904900000000002,-0.92035,0.08783399999999997,0.11904800000000004,-0.906931,0.07845099999999994,0.23809700000000006,0.013418999999999959,0.9911905614042505,0.8455409875432374,double,-0.906931
46,0.383333,step_acsent,0.04248169926796668,0.1357254290171602,-0.02652106084243697,0.012083482337132917,-0.14069634759654062,-0.19332742602309036,-0.005520220808831226,0.0018000720028852506,0.0018000720028794217,-0.006960278411136762,0.006120244809781874,-0.010680427217088567,-2.1601728103699243,-2.59220737244167,-7.013361057663489,-0.08640691241562841,0.27362188931402476,-0.04320345620751443,0.07200576034609048,-0.34562764966091464,-1.6561324879491897,0.008983000000000074,-0.12016499999999997,-0.920114,0.087422,0.11796799999999996,-0.906799,0.07843899999999993,0.23813299999999993,0.013314999999999966,0.9898684546246533,0.8432812826427507,double,-0.906799
47,0.391667,step_acsent,0.04919606431485734,0.13966882649388682,-0.0113990880729489,-0.03406086717199273,-0.026548128723968552,-0.1635414151499268,-0.007559395248384352,-0.00035997120230750576,0.005879529637629036,-0.033117350611944166,-0.013918886489068137,-0.07727381809455221,0.8056593528786479,0.4731698436197041,1.8144915730127256,-0.24468135823771586,-0.2591844498671411,0.48949575650943244,-3.138597576290782,-2.4045033955903516,-7.9905676598828395,0.008510000000000018,-0.12133200000000005,-0.9199700000000001,0.08673600000000004,0.11668800000000001,-0.907348,0.07822600000000002,0.23802000000000006,0.012622000000000022,0.9840275493646486,0.7317536206470397,double,-0.907348
48,0.4,step_acsent,0.05976239049561939,0.1516860674426889,-0.004200168006721121,-0.21671895028393903,-0.06159184085567595,-0.08449793336772325,-0.008760350414015293,0.004200168006721121,0.0,-0.00552022080883119,0.014520580823224076,0.0038401536061447392,1.2680098620859244,1.4421265989202001,0.8639049641458958,-0.1441203846910999,0.547238594627218,-0.7055717793866568,3.311788047895459,3.412872592378746,9.734065966722262,0.00793900000000003,-0.12256099999999998,-0.9199350000000001,0.08619200000000005,0.11554500000000001,-0.907281,0.07825300000000002,0.23810599999999998,0.012654000000000054,0.9838079966014581,0.8467898499701746,double,-0.907281
49,0.408333,step_acsent,0.043801752070076756,0.14088563542541838,-0.0152406096243836,-0.04643525345741559,-0.0434662298623594,-0.20844192899026676,-0.00720028801152768,0.0008400336013415652,0.004200168006720316,0.01404056162245566,0.008760350414015352,0.012840513620544372,-1.9153532251941288,-1.296103686219914,-1.3249059903591152,0.1872149768975899,-0.40323225793586515,0.5040403224193359,2.347387787265918,-0.6912552993170212,1.080086405184166,0.007514000000000021,-0.123728,-0.9197730000000001,0.08594400000000002,0.11444399999999999,-0.907047,0.07843,0.238172,0.012726000000000015,0.9860366337247735,0.83782900602605,double,-0.907047
50,0.416667,step_acsent,0.06227501799856572,0.14206863450924798,0.0008399328053730787,-0.13912571693421,-0.06884237851846844,-0.21985388345642995,-0.00527957763378125,0.0015598752099880903,0.002639788816894788,0.019678425725948263,-0.00527957763378125,0.024718022558195062,2.216614582252093,0.14194853417681771,1.9295107307123425,0.23046680798493252,0.08637408311093406,-0.1872305243371162,0.6764895732532514,-1.6846565932081339,1.425187057553477,0.0069510000000000405,-0.12489900000000004,-0.9197580000000001,0.08558900000000003,0.11321599999999998,-0.906848,0.07863799999999999,0.23811500000000002,0.012910000000000088,0.9898243706637895,0.8175121367769003,double,-0.906848
51,0.425,step_acsent,0.0493219728789213,0.15024600984038436,0.005280211208440308,-0.08196875858839676,0.08475827966780874,-0.15914410167650905,-0.004440177607112066,0.002520100804031357,0.0027601104044164457,-0.003840153606148096,0.012120484819394935,0.005280211208448636,-1.5544275914609922,0.9813242927080768,0.5328547225569712,0.10073203248160159,0.1152316805524144,0.014439168069321731,-2.822342413548112,2.0880910180218684,-2.332630667196265,0.0065029999999999255,-0.12612999999999996,-0.919779,0.08514599999999994,0.11206500000000008,-0.906848,0.07864300000000002,0.23819500000000005,0.012931000000000026,0.9903269712473654,0.8477448018590538,double,-0.906848
52,0.433333,step_acsent,0.0570022800912038,0.14808592343694507,0.009840393615747768,-0.06572473551021436,-0.03205703468737089,-0.22466308202298566,-0.004440177607098714,0.0006000240009573052,0.001920076803071537,-0.008400336013442242,0.00792031681266041,-0.012600504020160865,0.9216737324231924,-0.2592207372422031,0.547243778628038,1.602324084314584e-12,-0.23041843310620952,-0.100808064483968,-0.5472437786264402,-0.5040403224210377,-2.1457716582994633,0.005990999999999969,-0.12735900000000006,-0.919845,0.08460099999999993,0.11089699999999991,-0.907035,0.07860999999999996,0.23825599999999997,0.012809999999999988,0.9918756366208383,0.8434165854734073,double,-0.907035
53,0.441667,step_acsent,0.05063594912406105,0.15334773218142653,-0.005039596832251828,-0.12133014958742112,-0.007808369448420995,-0.2038524614249778,0.0011999040076739317,0.0010799136069158635,-0.00035997120230334514,-0.012359011279093451,0.019078473722104767,-0.016798656107511644,-0.7638986041688002,0.631366540014577,-1.7854560172785792,0.6767556533204557,0.057582146143335865,-0.2735838739350726,-0.47500303163561697,1.3388717193957789,-0.5037379514459808,0.005579000000000001,-0.12862800000000002,-0.919806,0.08407600000000004,0.10977799999999993,-0.907133,0.07849700000000004,0.23840599999999995,0.012673000000000045,0.9972434107767219,0.8261611377062471,double,-0.907133
54,0.45,step_acsent,0.046801872074882976,0.1609264370574727,-0.006600264010563665,-0.2134668274489593,-0.11507711137082069,-0.15958857870260118,-0.0006000240009506435,0.0018000720028785772,0.0016800672026881154,-0.011160446417857836,0.022800912036484183,-0.009000360014400379,-0.46010765020737554,0.9094809643641114,-0.1872875528995357,-0.2160000010349895,0.08642246441410184,0.24481440117502126,0.14383353668974078,0.44671046614417387,0.9358329644919275,0.0051840000000000774,-0.12995399999999996,-0.919737,0.08359300000000003,0.10862700000000003,-0.907153,0.07840899999999995,0.238581,0.01258400000000004,0.995776088627162,0.829269898569142,double,-0.907153
55,0.458333,step_acsent,0.0556822272890941,0.15624624984999744,0.007320292811709816,-0.1694985563792882,-0.006326719508710451,-0.1766291711472316,-0.0031201248050019893,0.001560062402494333,0.002400096003840062,-0.008400336013442297,0.024840993639740516,-0.003600144005759676,1.0656852531154617,-0.5616449306942606,1.6705336400184225,-0.3024241934539004,-0.028802304138274892,0.08640691241473039,0.3312264975897691,0.24481958517416752,0.6480518431106104,0.004693999999999976,-0.131243,-0.919778,0.083059,0.10753199999999996,-0.9072439999999999,0.07836500000000002,0.23877499999999996,0.012534000000000045,0.9929428062064865,0.8305451987861163,double,-0.9072439999999999
56,0.466667,step_acsent,0.05843532517398785,0.1484281257499451,0.0026397888169039465,-0.1527431282310843,-0.12289394037182232,-0.24742324282622338,0.0013198944084453126,0.0017998560115175463,0.0015598752099830946,-0.008759299256058275,0.024358051355899215,-0.0008399328053755765,0.3303453185617649,-0.938099844018758,-0.561615550132693,0.5327596848388886,0.0287729312482857,-0.10081842978845292,-0.04307214334244992,-0.05794843818590122,0.3311988481382406,0.004217999999999944,-0.13246500000000005,-0.919787,0.08249899999999999,0.10649799999999998,-0.907273,0.07828100000000004,0.23896300000000004,0.012514000000000025,0.9954616407815768,0.8316954094311555,double,-0.907273
57,0.475,step_acsent,0.14580583223328564,0.10212408496339101,0.06060242409696135,0.46082158972179854,0.16324564190816307,-0.9160527581285033,0.0031201248050019893,-0.001800072002878589,0.0012000480019204473,-0.010800432017284858,0.017400696027835245,-0.000720028801152768,10.484880242325454,-5.556707162673011,6.955794465385521,0.21603628903836328,-0.43200864207322026,-0.043180992207206066,-0.2449457291763576,-0.8349160360091189,0.014389056068979817,0.0030290000000000594,-0.13333099999999998,-0.920282,0.08119399999999999,0.105792,-0.907784,0.07816499999999993,0.23912299999999997,0.012498000000000009,0.9936720300733679,0.840865449486212,double,-0.907784
58,0.483333,step_acsent,0.05628225129005769,0.15708628345133796,0.017400696027835127,-0.09696068023197965,0.05581944178038396,-0.18666169678742636,0.005760230409208782,-0.002640105604220137,0.0036001440057596523,-0.0036001440057571543,0.015480619224774415,0.0018000720028802425,-10.743259443565051,6.595727647659513,-5.184414744884921,0.31682534551863456,-0.10080806448356465,0.2880230413823587,0.8640691241482867,-0.23041843310462273,0.302424193451698,0.0026079999999999437,-0.13466199999999995,-0.9203969999999999,0.08069499999999996,0.10461200000000004,-0.907914,0.07808700000000002,0.239274,0.01248299999999991,0.9878537329887813,0.8485111017742357,double,-0.907914
59,0.491667,step_acsent,0.05063594912406072,0.1879049676025997,0.0034797216222770253,-0.34411622108568557,-0.14215822037724232,-0.0989641977077071,0.0010799136069158564,-0.008759299256064937,0.004679625629950116,-0.06371490280776909,0.03371730261578779,-0.006479481641468495,-0.6775020597548556,3.697946262450409,-1.6703832980031303,-0.5615930888280444,-0.7342444986614823,0.12952743270823888,-7.213194000721368,2.188226948765702,-0.9934669599650504,0.002195000000000058,-0.13630100000000006,-0.9203870000000001,0.07974200000000009,0.10332699999999995,-0.907997,0.07754700000000003,0.239628,0.012390000000000012,0.9833508064182452,0.7554716794604392,double,-0.907997
60,0.5,step_acsent,0.045001800072004695,0.1786871474858954,0.02316092643705739,-0.2667591902056319,-0.3052720017139184,-0.10822821720384695,0.005400216008635768,-0.010080403216125428,0.008160326413056376,-0.00540021600864909,0.009960398415943292,-0.00648025921036825,-0.6761249312439743,-1.1061826613109713,2.3618390513357026,0.5184570264874502,-0.15853881675992978,0.41770080200483245,6.998042337587921,-2.8509425416830143,-9.331200045061564e-05,0.0018650000000000055,-0.137874,-0.920512,0.079322,0.10192100000000004,-0.908244,0.077457,0.23979500000000004,0.012267999999999946,0.9765853921956575,0.8555659691488656,double,-0.908244
61,0.508333,step_acsent,0.035521420856843004,0.18048721948877278,-0.01008040321612536,-0.2784587094170548,0.12214462335968791,-0.11093838451004145,0.005640225609026647,-0.0178807152286103,0.013680547221889177,-0.006120244809795156,0.01056042241689387,-0.010440417616705073,-1.1376910134599365,0.216017281036526,-3.9891191231468395,0.028802304139070995,-0.9360748844935604,0.6624529951797404,-0.08640691241402405,0.07200576034448278,-0.475238018281148,0.0016159999999999508,-0.13952699999999996,-0.9203140000000001,0.0789749999999999,0.10050500000000007,-0.908247,0.07735899999999996,0.24003200000000002,0.01206700000000005,0.9613171910742957,0.8525602908450685,double,-0.908247
62,0.516667,step_acsent,0.04463642908566475,0.20410367170627228,0.02507799376048775,-0.4410624048198606,-0.05282114873144303,0.02392281953230159,0.010199184065275046,-0.016798656107508313,0.014518838492920183,-0.009239260859130571,0.012718982481394298,-0.020758339332853436,1.0937134903793855,2.8337475662946527,4.218670143582111,0.547031252249631,0.1298367075956314,0.10058690557127563,-0.37425198576139107,0.2590064872210751,-1.2380515618128656,0.0013290000000000246,-0.141368,-0.9204019999999999,0.07852599999999998,0.09890999999999994,-0.9086289999999999,0.07719699999999996,0.24027799999999994,0.011773000000000033,0.9592768536401939,0.8388711678202765,double,-0.9086289999999999
63,0.525,step_acsent,0.02676107044282771,0.1954878195127787,-0.010320412816502953,-0.34621210495615823,-0.043897254107903516,-0.06426542292473744,0.012360494419772447,-0.028201128045126575,0.023040921636865105,-0.002760110404415595,0.012240489619590312,-0.012840513620544287,-2.145128842294128,-1.033943620964065,-4.247978708387201,0.2593676172443769,-1.3683513665688485,1.0226908849087826,0.7775291557320233,-0.05742144027408908,0.9501770925607963,0.0012089999999999046,-0.14323200000000003,-0.920124,0.0782799999999999,0.097383,-0.9086500000000001,0.077071,0.24061500000000002,0.011473999999999984,0.9359043788288196,0.8553375731816768,double,-0.9086500000000001
64,0.533333,step_acsent,0.03972158886355133,0.1923676947077926,-0.004080163206525717,-0.3229157271225173,-0.12744080498632002,-0.1136290752934635,0.011520460818444364,-0.05184207368294635,0.041641665666627053,-0.0009600384015370304,0.01056042241689401,-0.010440417616705213,1.555324423463787,-0.37442995379648486,0.7488599075935789,-0.10080806448195019,-2.8370269576167035,2.2321785707142827,0.21601728103667117,-0.20161612896871672,0.2880230413823468,0.0009740000000000304,-0.14526700000000003,-0.9197430000000001,0.07794099999999993,0.09586799999999995,-0.908703,0.0769669999999999,0.241135,0.01104000000000005,0.8875234599682067,0.8647982014895608,double,-0.908703
65,0.541667,step_acsent,0.014998800095983894,0.21838252939763847,0.008279337652985986,-0.3947164601518835,-0.24946892298263018,0.03985475032978184,0.013318934485237747,-0.043316534677225516,0.05447564194864406,-0.0023998080153478313,0.011039116870647982,-0.01679865610751142,-2.966497332321484,3.121530440346252,1.4830214614244792,0.21579957604912037,1.0229828420591274,1.5399539575254266,-0.17275853297465682,0.05743873935132808,-0.7629275846899636,0.0009600000000000719,-0.14744799999999997,-0.919358,0.07779600000000009,0.09414,-0.908912,0.07683600000000002,0.24158799999999997,0.010445999999999955,0.8818979753915402,0.8618001444541069,double,-0.908912
66,0.55,step_acsent,0.02880115204608388,0.2151686067442742,-0.00264010560423346,-0.3481146524383268,-0.2715432195128985,-0.06634723106876501,0.02988119524780303,-0.016680667226689025,0.05628225129005103,-0.005280211208453596,0.009120364814601666,-0.017760710428416506,1.6563484879515094,-0.3856861458495435,-1.3103856062905797,1.9875507935395673,3.196431951342419,0.21680179304055747,-0.3456622096610768,-0.23025945710384113,-0.11545113655407219,0.0009689999999999976,-0.14938,-0.918867,0.07751200000000003,0.09242300000000003,-0.909038,0.07654300000000003,0.24180300000000005,0.009828999999999977,0.8902171044130822,0.8672900235780567,double,-0.909038
67,0.558333,step_acsent,0.02844113764551121,0.20700828033121232,0.0074402976119053235,-0.4780951958807289,-0.04056370033666815,-0.1397656958441054,0.02352094083764392,-0.014760590423615187,0.07488299531981342,-0.006600264010563753,0.008280331213246894,-0.0234009360374418,-0.0432034562069692,-0.9792783407010633,1.2096967738076174,-0.7632610596614867,0.23041843310618693,2.2321785707143356,-0.15841267276013063,-0.10080806448515296,-0.6768541472489314,0.0009280000000000399,-0.15122799999999997,-0.9183049999999999,0.07721999999999996,0.09076700000000004,-0.909295,0.07629199999999992,0.24199500000000002,0.009009999999999962,0.8668900550963721,0.8670912788792251,double,-0.909295
68,0.566667,step_acsent,0.01931845452363397,0.19738420926325834,0.020758339332863984,-0.37098968642845953,0.01045756001029112,-0.162507134256156,0.048956083513314236,-0.049796016318693966,0.22258219342452465,-0.006599472042226519,0.0026397888168906074,-0.02207823374130096,-1.0946344038729507,-1.1547961444629127,1.5980371635419437,3.051972963243355,-4.203914794225883,17.722485973687316,9.502859818024504e-05,-0.6768109426873342,0.1587115786106107,0.0011750000000000371,-0.15328799999999998,-0.9166230000000001,0.07700400000000007,0.089144,-0.909652,0.07582900000000004,0.24243199999999998,0.0069710000000000605,0.6112013725166874,0.8916330356508317,double,-0.909652
69,0.575,step_acsent,0.019800792031677936,0.19740789631585534,0.02316092643705754,-0.4401644639956689,-0.05113503026325557,-0.29990943307411044,0.06708268330733005,-0.04248169926797362,0.23424936997480142,-0.002400096003842576,-0.0027601104044156313,-0.013560542421696398,0.057882816277927726,0.002842560014041133,0.28832198538264486,2.1752789864413757,0.877753156212698,1.400117190720854,0.5039452824173745,-0.6480138271098389,1.022163844906353,0.0015690000000000426,-0.155287,-0.914864,0.07681900000000008,0.087476,-0.909958,0.07525000000000004,0.242763,0.004905999999999966,0.5877650733636439,0.9275313726111474,double,-0.909958
70,0.583333,step_acsent,0.02220088803553354,0.19728789151565726,0.05268210728428722,-0.5502029143537892,-0.27928338242061723,-0.3709165911922077,0.07572302892116231,-0.07068282731309297,0.3001320052802095,-0.005160206408258139,-0.0018000720028785772,-0.012240489619585316,0.28802304138432666,-0.014401152069852496,3.5426834090039065,1.0368829489778255,-3.384270736243758,7.906232485948375,-0.33122649758976974,0.11520921655310813,0.15841267276023968,0.002014999999999989,-0.15752,-0.912802,0.07659099999999996,0.08581700000000003,-0.9104990000000001,0.07457599999999998,0.24333700000000003,0.002302999999999944,0.5,0.9546281126133898,single,-0.9104990000000001
71,0.591667,step_acsent,0.04043676505878547,0.1798656107511419,0.010919126469876594,-1.1164822351877302,0.3523299739623159,-0.6018948129383902,0.09287257019437671,-0.0772738180945492,0.36225101991840386,0.07823374130069366,-0.05375569954403654,0.07367410607151413,2.1881301923748246,-2.0905064512257283,-5.0111568051848225,2.0577803303592836,-0.7908556253247149,7.453685461746327,10.006473207217562,-6.234176570813243,10.308926768790352,0.0024520000000000097,-0.159663,-0.909874,0.07690600000000003,0.08387,-0.909976,0.07445400000000002,0.243533,0.0001020000000000465,0.49898000000000003,0.7997358174199133,single,-0.909874
72,0.6,step_acsent,-0.022800912036484485,0.2306492259690384,0.06420256810273228,-0.7546415858618089,-0.357001012906007,-0.1938174160653497,0.13020520820832984,-0.095283811352457,0.39145565822633277,-0.0032401296051841467,-0.0008400336013415707,-0.006720268810752551,-7.5888248044246405,6.094277597251524,6.394268766693409,4.480095765505037,-2.1612856423746516,3.5046967848228943,-9.777255598929383,6.350133918480194,-9.647710894307862,0.003727000000000036,-0.162379,-0.907147,0.07706900000000005,0.08194100000000004,-0.910567,0.07334200000000002,0.24432000000000004,0.0034199999999999786,0.4658,0.9874871056285318,single,-0.907147
73,0.608333,step_acsent,-0.014160566422651025,0.23304932197287787,0.07800312012479607,-0.7704889592124375,-0.31176108269402225,-0.2652544240826915,0.16188647545902304,-0.08112324492979804,0.5319812792511678,-0.004800192007685088,0.0013200528021100684,-0.011760470418816808,1.03688294897797,0.28802304138239104,1.6561324879471657,3.801904146249018,1.6993359441568348,16.863749072943047,-0.18721497689918812,0.2592207372436854,-0.6048483869031844,0.005194000000000032,-0.164997,-0.903364,0.07714699999999997,0.08001000000000003,-0.911315,0.07195299999999993,0.24500700000000003,0.007951000000000041,0.42049000000000003,0.9787153519602829,single,-0.903364
74,0.616667,step_acsent,-0.02843772498200673,0.23662107031437304,0.06839452843773383,-0.8246377626116121,-0.2717016035586929,-0.2893932421242218,0.18526517878569698,-0.17038636909047095,0.6019918406527512,-0.019318454523634225,0.007079433645312165,-0.019078473722102272,-1.7131219773645052,0.4285755149382289,-1.1529387673460876,2.8052199816023604,-10.710718041837463,8.400595320564419,-1.742052137742887,0.6910704155510115,-0.8780901491823262,0.0069750000000000645,-0.16838899999999996,-0.8989170000000001,0.07722300000000004,0.07809700000000008,-0.9120440000000001,0.07024799999999998,0.24648600000000004,0.013127,0.36873,0.953234948190002,single,-0.8989170000000001
75,0.625,step_acsent,-0.015000600023992583,0.19440777631105954,0.05568222728909372,-0.9721941075817139,-0.15257873892456242,-0.4351145449080959,0.17292691707668542,-0.1898475939037587,0.7880715228609115,0.0014400576023055264,-0.002040081603269493,-0.006480259210368207,1.6125194957415205,-5.065797912314092,-1.5255371593231797,-1.4806506311066254,-2.3354403952103278,22.330455083182468,2.491121099956758,-1.0943856052540046,1.5118462152566918,0.00854100000000002,-0.17159100000000005,-0.892814,0.07735999999999998,0.07645999999999997,-0.9125620000000001,0.06881899999999996,0.24805100000000002,0.0197480000000001,0.30252,0.9884254279801321,single,-0.892814
76,0.633333,step_acsent,-0.03516140645625663,0.21780871234849436,0.09084363374533704,-0.7605746086758538,-0.3758487679559693,-0.23746909276034922,0.17796711868473478,-0.23424936997479245,0.8430337213488491,-0.008640345613819834,0.00972038881555231,-0.008880355214209086,-2.41939354761358,2.8082246534783053,4.21953755625143,0.6048483869013961,-5.328426265574652,6.59572764765839,-1.2096967738059905,1.4113129027747213,-0.2880230413825596,0.01031699999999991,-0.175358,-0.886546,0.07758100000000001,0.07472599999999996,-0.9133929999999999,0.0672640000000001,0.250084,0.026846999999999954,0.23153000000000007,0.973753188564963,single,-0.886546
77,0.641667,step_acsent,-0.0033597312215056588,0.2031437485001145,0.06827453803696243,-1.0103407484303224,-0.3524089858817459,-0.317713229699734,0.14278857691385063,-0.2487401007919437,0.9340052795776407,0.0026397888168906425,0.010559155267575893,-0.004079673626109851,3.8158957565096174,-1.7596548894144413,-2.7080748390178466,-4.221087325520079,-1.7387485981703055,10.91571373035662,1.3535078510571803,0.10064392272901221,0.5760357077152942,0.011534999999999962,-0.179124,-0.879331,0.077631,0.07312099999999999,-0.913996,0.06609600000000004,0.252245,0.03466500000000006,0.15334999999999993,0.9806273401514938,single,-0.879331
78,0.65,step_acsent,0.012480499219967906,0.19908796351853583,0.11100444017760108,-0.8102448456505321,-0.8103636335182176,-0.3147139739250651,0.0897635905436312,-0.30481219248769664,1.1164046561862417,0.012480499219967906,0.00804032161286919,-0.009840393615744437,1.9009036891243847,-0.4867136663360904,5.1277933686113615,-6.363252894542088,-6.728920160296737,21.88880074506184,1.1809324856686934,-0.30227212944998094,-0.6913140513182002,0.012179000000000051,-0.18332299999999996,-0.870953,0.077631,0.07152900000000006,-0.9150029999999999,0.06545199999999995,0.254852,0.04404999999999992,0.05950000000000005,0.970314473273497,single,-0.870953
79,0.658333,step_acsent,0.017880715228603874,0.15072602904116722,0.1220448817952784,-0.8694276752269243,-0.8295389567952294,-0.3864312865853192,0.13788551542061275,-0.30397215888635915,1.3368534741389775,-0.007800312012478379,0.0214808592343744,0.002280091203647949,0.6480518431100465,-5.803664283855641,1.3249059903609055,5.774861979717028,0.10080806448307995,26.45491635098257,-2.4337946996815636,1.6129290317419096,1.454516358981459,0.013179000000000052,-0.187112,-0.86083,0.07741700000000007,0.07045200000000007,-0.916001,0.06423800000000002,0.25756400000000007,0.05517099999999997,0.0,0.9617221054205791,single,-0.86083
80,0.666667,step_acsent,-0.011879049676021056,0.21322294216462864,0.1648668106551447,-0.14614683824015745,-0.8347928691909824,-0.11174228762765845,0.09035277177825748,-0.3886489080873491,1.772738180945512,0.0027597792176619956,0.01475881929445444,0.0017998560115191995,-3.5708861176655513,7.499029652443118,5.138220405551471,-5.703472959245849,-10.160397072352927,52.30198065833108,1.267109578850527,-0.8065802663690795,-0.05762361316639618,0.014031000000000016,-0.19212800000000002,-0.84743,0.07753900000000002,0.06879800000000003,-0.91736,0.06350800000000001,0.26092600000000005,0.06992999999999994,0.0,0.9747964613397906,single,-0.84743
81,0.675,step_acsent,0.006600264010563665,0.15432617304692237,0.11016440657625952,-0.7671817305049591,-0.7275681623289527,-0.21102483072251488,-0.015480619224774415,-0.2535701428057083,1.6720268810752346,0.0033601344053795614,0.011880475219003938,0.005760230409216276,2.217606346644023,-7.06789500992512,-6.564551071509054,-12.700514940961414,16.21010023780634,-12.08583941800997,0.07204550434628144,-0.34541510565828504,0.47526393828117847,0.013846999999999943,-0.195527,-0.8344149999999999,0.07751200000000003,0.06761099999999998,-0.91823,0.06366500000000008,0.263138,0.08381500000000008,0.0,0.9772931453680929,single,-0.8344149999999999
82,0.683333,step_acsent,0.015600624024956758,0.12936517460698826,0.10488419536782063,-0.9103104520204411,-0.6929480912462216,-0.10554273830176163,-0.09936397455897605,-0.09384375375015146,1.567622704908213,0.004200168006721177,0.010320412816516415,0.008520340813632817,1.0800864051833885,-2.9954396303773345,-0.6336506910403135,-10.066405296316141,19.16793340400315,-12.52900230013471,0.10080806448357417,-0.18721497689758043,0.33122649758989153,0.01288900000000004,-0.19738700000000003,-0.822226,0.07741700000000007,0.06661899999999998,-0.919033,0.06452800000000003,0.264006,0.09680699999999998,0.0,0.9766221531995889,single,-0.822226
83,0.691667,step_acsent,0.0355171586273051,0.1270698344132365,0.1388288936884995,-1.4842977317454205,-1.0436099389138362,-0.011101790192882276,-0.1491480681545458,-0.1738660907127457,1.783897288216928,-0.006839452843782617,0.017158627309815593,0.03563714902807732,2.389792968844275,-0.2754187897470307,4.073037955444995,-5.97361334240093,-9.601912282528634,25.950873927131425,-1.3246485301780309,0.8205200975880881,3.2537566851985,0.011350000000000082,-0.199895,-0.808516,0.07706400000000002,0.06570300000000007,-0.919893,0.06571399999999994,0.26559800000000006,0.11137699999999995,0.0,0.933100344685972,single,-0.808516
84,0.7,step_acsent,0.059282371294864994,0.12948517940718374,-0.039961598463928924,-1.5568860104707472,-0.162652205630085,-0.054700490420510624,-0.32005280211209775,-0.30733229329173206,1.9195967838713737,-0.0014400576023055455,0.026041041641668632,0.04644185767430721,2.8519395976911213,0.28985299339340764,-21.455717286983088,-20.50938845044444,-16.016584972877425,16.284590862168123,0.6479533471111389,1.0659323571166592,1.296616902223688,0.00818899999999989,-0.20353500000000002,-0.792187,0.0765579999999999,0.06484100000000004,-0.919173,0.06836900000000001,0.26837600000000006,0.12698600000000004,0.0,0.9112266343759182,single,-0.792187
85,0.708333,step_acsent,0.035281411256438765,0.1029641185647452,0.093963758550339,-1.031392493882724,-0.4564140071111761,0.10744549277241058,-0.4022560902435973,-0.11928477139085453,1.982239289571572,0.009600384015370176,0.009240369614783802,-0.011520460818432552,-2.8802304138276886,-3.182654607276902,16.07168570914045,-9.864789167346602,22.566605292316904,7.517401380078962,1.3249059903606955,-2.0161612896777585,-6.955756449386718,0.004543000000000075,-0.20538700000000004,-0.776452,0.07634400000000008,0.06406,-0.920052,0.071801,0.26944700000000005,0.14359999999999995,0.0,0.9706423953951056,single,-0.776452
86,0.716667,step_acsent,0.0389968802495821,0.09179265658746086,0.08399328053756043,-1.0157131528679402,-0.35053893955599646,0.15433501642723738,0.0002399808015294545,-0.09551235901128063,2.2119030477561634,-0.03527717782577564,0.050275977921759536,-0.0032397408207342263,0.4458206135281149,-1.3404681998181256,-1.1963616526012117,48.29566487222506,2.852461288645754,27.557446386439857,-5.384876630806993,4.92387908651013,0.9936069111708978,0.0042200000000000015,-0.20694799999999997,-0.758718,0.07572500000000004,0.06371400000000005,-0.920779,0.07150500000000004,0.270662,0.162061,0.0,0.8974945915800024,single,-0.758718
87,0.725,step_acsent,0.04800192007681155,0.07656306252250489,0.1212048481939235,-1.043821891757793,-0.5163509596144519,0.16317503327208352,-0.07872314892595655,-0.160446417856713,2.0568822752910325,-0.025081003240131603,-0.023880955238203654,-0.015480619224768793,1.0806480051877507,-1.8276243927704439,4.465566741433268,-9.475954605482627,-7.79239875740225,-18.603236825288892,1.2235898938730507,-8.899187946713532,-1.4689641670508435,0.0031639999999999446,-0.20892299999999997,-0.742588,0.07511599999999996,0.06287700000000007,-0.921918,0.07195200000000002,0.27180000000000004,0.17933,0.0,0.9367762720745944,single,-0.742588
88,0.733333,step_acsent,0.03888155526220924,0.08004320172806557,0.1521660866434574,-0.9899845843989861,-0.6104800942638374,0.2209415286316509,-0.1092043681747225,-0.14688587543501713,2.118924756990268,0.021720868834751706,-0.031921276851085846,-0.06540261610464437,-1.0944875572545625,0.4176334100036808,3.7154972338334056,-3.65789262555692,1.627330183810848,7.4453956197330236,5.616449306958252,-0.9648771886334044,-5.990879260755475,0.0019299999999999873,-0.21081399999999995,-0.7261989999999999,0.07497299999999996,0.061944,-0.923731,0.07304299999999997,0.27275799999999994,0.19753200000000004,0.0,0.8734181616055837,single,-0.7261989999999999
89,0.741667,step_acsent,0.03539716822653418,0.18922486201104627,0.12395008399328863,-1.7341205134685203,-0.3455966125130824,0.6251592940406041,-0.010919126469890062,-0.1396688264938811,2.2910967122630352,0.010199184065275046,0.007679385649155792,0.00743940484761218,-0.4180929968412621,13.100751173863848,-3.385649466062987,11.793285541736621,0.8659765948087443,20.658981914179044,-1.3824915730113663,4.751699364079897,8.740343286807892,0.0015439999999999898,-0.213555,-0.7081379999999999,0.07476300000000002,0.06043100000000001,-0.924702,0.07321900000000003,0.273986,0.2165640000000001,0.0,0.9753727192803221,single,-0.7081379999999999
90,0.75,step_acsent,0.06132245289812037,0.0972038881555231,0.11028441137645498,-1.5207313008028145,-0.15067171381522357,0.35808375686817606,0.028321132845315372,-0.11904476179047027,2.183247329893182,-0.0013200528021100684,0.00552022080883119,0.0013200528021125664,3.111158606934607,-11.042958581005974,-1.6399463118725068,4.709019478603776,2.474986763879844,-12.942443582125641,-1.3823637186349533,-0.259110145244761,-0.7343516195247316,0.0012689999999999646,-0.21535699999999997,-0.690864,0.074241,0.059667000000000026,-0.92561,0.07297200000000004,0.275024,0.234746,0.0,0.9902877630767823,single,-0.690864
91,0.758333,step_acsent,0.04668186727468752,0.09024360974438639,0.09384375375014355,-1.129870177434644,-0.011519020288257695,0.30261269265300955,0.09456378255130296,-0.13416536661466497,2.1626065042601623,-0.002400096003842544,0.007560302412100682,0.0026401056042243,-1.7569405524340322,-0.8352668200092018,-1.9729578334707023,7.949435942156164,-1.8145451607097842,-2.476998155888565,-0.12961036862264141,0.24481958517574512,0.1584126727603178,0.0016680000000000028,-0.21722699999999995,-0.6736249999999999,0.07383200000000001,0.058978000000000086,-0.9263699999999999,0.072164,0.27620500000000003,0.252745,0.0,0.9860667473096898,single,-0.6736249999999999
92,0.766667,step_acsent,0.08099352051835673,0.08543316534677825,0.10031197504200429,-1.151121755327943,0.02462698360888406,0.29809465736138185,0.1737461003119766,-0.15034797216222837,2.1583873290136917,-0.0022798176145897952,0.005399568034552675,0.0033597312215023285,4.1170690237184315,-0.5772071511408886,0.7761244650660879,9.501118041837543,-1.9417573251216094,-0.506260528734181,0.01443225213015951,-0.2592673839150491,0.08634816622006629,0.0024410000000000265,-0.219192,-0.6564730000000001,0.07313800000000004,0.058311,-0.9271780000000001,0.07069700000000001,0.277503,0.270705,0.0,0.9887403501637861,single,-0.6564730000000001
93,0.775,step_acsent,0.08760350414016625,0.08484339373575066,0.1032041281651228,-1.4332948995027284,-0.005830787630341892,0.269197024865902,0.28621144845793356,-0.11748469938797594,2.0549621984879343,-0.0006000240009639668,0.007200288011514309,0.0033601344053762307,0.7932297638076914,-0.07077542434028442,0.3470722576645263,13.496381632780091,3.9437504829295915,-12.41151212357578,0.20158329696697724,0.21609504103703656,4.838400022826859e-05,0.0040959999999999885,-0.22087800000000002,-0.640209,0.072403,0.05766399999999994,-0.92801,0.068307,0.27854199999999996,0.287801,0.0,0.986719408535523,single,-0.640209
94,0.783333,step_acsent,0.07128285131405122,0.003960158406330258,0.07596303852154092,0.9861886210731869,-0.5144600210417835,-0.07033139266081849,0.34789391575663164,-0.12384495379815035,2.0794431777271227,-0.003360134405366283,0.006120244809795237,0.005880235209408482,-1.9585566814010773,-9.706376494590321,-3.2690615196906427,7.402192163530379,-0.763261059663322,2.9378350221035263,-0.33122649758818445,-0.1296103686210346,0.302424193451611,0.00640099999999999,-0.22194299999999995,-0.623514,0.0717810000000001,0.05768200000000001,-0.928594,0.0653800000000001,0.27962499999999996,0.30508,0.0,0.9847862392449833,single,-0.623514
95,0.791667,step_acsent,0.014638828893696373,0.09359251259899172,0.39764818814495007,0.37129971781912796,-1.9123615326657353,0.37596208082586047,0.41888648908087295,-0.09419246460283534,2.005999520038383,-0.002759779217675317,0.00611951043916761,0.0022798176145905976,-6.796738951326424,10.755022101351186,38.599130024406854,8.518427324722914,3.5580140623127883,-8.812533919935092,0.07203685957414943,-8.811742592118693e-05,-0.4320155501341321,0.009769999999999945,-0.22350799999999998,-0.61011,0.07163599999999992,0.05695300000000003,-0.931889,0.06186599999999998,0.280461,0.3217789999999999,0.0,0.9881840082819474,single,-0.61011
96,0.8,step_acsent,0.11112444497779654,0.08172326893076201,0.03204128165126798,-1.1773381697359322,0.18067012205808633,0.2190709783183909,0.4651386055442187,-0.08268330733229237,1.915396615864627,-0.0018000720028785772,0.004440177607098714,0.004320172806912415,11.578737079575154,-1.4243662148361527,-43.874583762592174,5.550475994641253,1.3811541186298957,-10.87278341218718,0.11516947255451047,-0.2015280009683054,0.2448524171753041,0.012719999999999954,-0.22487800000000002,-0.594416,0.07069499999999995,0.05630899999999994,-0.9321200000000001,0.057975,0.28118699999999996,0.337704,0.0,0.9892478258684692,single,-0.594416
97,0.808333,step_acsent,0.11652466098643381,0.15468618744749746,-0.3394935797432026,0.8627918118985979,3.4383164896457545,0.6999088432555345,0.5016200648026053,-0.08700348013920345,1.7937117484699538,-0.0024000960038292525,0.0037201488059526618,0.004080163206528215,0.6480518431102028,8.755900458026655,-44.58596680600912,4.377950229015597,-0.5184414744883135,-14.60276819808883,-0.07200576034449548,-0.08640691241402364,-0.0288023041382698,0.015929000000000082,-0.22689199999999998,-0.57664,0.0697040000000001,0.05505099999999996,-0.929257,0.05377500000000002,0.28194299999999994,0.35261699999999996,0.0,0.9899656562305673,single,-0.57664
98,0.816667,step_acsent,0.08939284857211303,0.05075593952484509,0.014878809695225826,-1.0731617829708764,0.5473644927708764,0.1792794996488299,0.5608351331893353,-0.09251259899208253,1.6828653707703267,0.017878569714417276,-0.010319174466032975,-0.002399808015358655,-3.255557045154856,-12.470632100150178,42.5212850298087,7.105239787224564,-0.6610413790351618,-13.300501283852446,2.4332452265714393,-1.6845840259161902,-0.7775343438789082,0.019858000000000042,-0.22808600000000007,-0.562739,0.06910800000000006,0.05454199999999998,-0.9294009999999999,0.049250000000000016,0.28262800000000005,0.36666199999999993,0.0,0.9653634868638004,single,-0.562739
99,0.825,step_acsent,0.0768030721228958,-0.06432257290292774,0.4318972758910419,-0.9811688118472182,-2.6704437344315353,-0.2233246562062493,0.6189847593903808,-0.07596303852154092,1.546021840873653,0.007200288011514404,0.003360134405366283,0.0024000960038400776,-1.5108336072503714,-13.809973890288479,50.04421771220687,6.97823427349646,1.9860266975329128,-16.421880462819505,-1.2814450621508424,1.641582727877041,0.5760115227647638,0.024375999999999953,-0.22818299999999997,-0.553455,0.06852799999999992,0.05510599999999999,-0.93298,0.04415199999999997,0.28328899999999996,0.379525,0.0,0.986166153473522,single,-0.553455
100,0.833333,step_acsent,-0.025681027241095236,-0.09204368174726496,0.38125525021000506,-1.2546803185948654,-1.874744663352284,-0.3927867904044541,0.6007440297611959,-0.07428297131885013,1.5175807032281217,-0.00204008160325617,0.005280211208453596,0.0020400816032636643,-12.298583867033555,-3.326666127965571,-6.07728617317132,-2.188975114506757,0.20161612896805245,-3.4130730403853637,-1.108888709320837,0.23041843310780097,-0.04320345620741771,0.029596000000000067,-0.228035,-0.543986,0.06872500000000004,0.055916999999999994,-0.93614,0.03912899999999997,0.283952,0.392154,0.0,0.989971637956138,single,-0.543986
101,0.841667,step_acsent,0.12514998800096092,0.10559155267578416,-0.09515238780896647,-0.5552792723612251,0.8581653074152714,0.5275950860528842,0.6749460043196482,-0.1436285097192218,1.3572114230861445,0.005639548836095379,0.005759539236866767,0.0,18.09827396712923,23.71433098428697,-57.164343414802964,8.90352466504101,-8.320798944129008,-19.242774195101504,0.9214819341674454,0.05751476222860173,-0.24479020917490385,0.03417800000000004,-0.23011199999999998,-0.531882,0.06772900000000004,0.05508500000000005,-0.935347,0.033551,0.28519700000000003,0.4034650000000001,0.0,0.9865653016310053,single,-0.531882
102,0.85,step_acsent,0.06060242409696175,0.04992199687987228,-0.029881195247816753,-0.7287646943418302,0.5801731561372349,0.2978330992503875,0.7203888155526263,-0.15900636025441411,1.2653306132245403,0.022800912036471162,0.004680187207489692,0.006120244809792739,-7.746017509180336,-6.680613920066288,7.832856421594902,5.45335548217671,-1.8454158808583279,-11.02613822892176,2.059445961883588,-0.12952742462223507,0.7344587555253564,0.039676000000000045,-0.23185299999999998,-0.5210889999999999,0.06741399999999997,0.05470800000000009,-0.935047,0.02773799999999993,0.28656100000000007,0.41395800000000005,0.0,0.9598875490885712,single,-0.5210889999999999
103,0.858333,step_acsent,0.12336493459738684,0.12132485299411735,0.30901236049441777,-3.3994994325709618,-2.7046294904099435,1.0753346587107153,0.7347893915756587,-0.15336613464538534,1.114364574582974,0.009600384015370176,0.014040561622455566,0.005040201608064346,7.531802532152264,8.568685481128618,40.6688534432057,1.7281382482938068,0.6768541472493396,-18.116649302960003,-1.5841267276012159,1.123289861390356,-0.12961036862215158,0.044771000000000005,-0.23414199999999996,-0.514378,0.06646600000000003,0.05381400000000003,-0.93758,0.02169500000000002,0.287956,0.42320199999999997,0.0,0.9704332968730739,single,-0.514378
104,0.866667,step_acsent,-0.048236141108713194,0.05459563234942366,0.1587473002159792,0.1613749067651249,0.09040672377308032,0.26026315447882814,0.716342692584601,-0.17818574514038482,1.0191984641228762,0.0045596352291795905,-0.0011999040076739317,-0.0032397408207342692,-20.590481846184428,-8.006865928089042,-18.030364804228395,-2.2134268047825496,-2.9781150101991383,-11.419019733633112,-0.6048414670255117,-1.8287095788492422,-0.9935136103670101,0.05114300000000005,-0.23608200000000001,-0.507207,0.06690600000000002,0.05334899999999998,-0.9389299999999999,0.01576299999999997,0.289431,0.43172299999999997,0.0,0.9904655648019725,single,-0.507207
105,0.875,step_acsent,0.09132365294611887,0.04236169446777094,0.016920676827079942,-0.7062338961046614,-0.16851479407068592,0.3743553817477982,0.8399135965438556,-0.18732749309972735,0.9608784351374065,0.00504020160806268,-0.004920196807880545,-0.007560302412096519,16.747845200387793,-1.4681312710491625,-17.019875601691904,14.829101639176047,-1.0970536372665893,-6.998683425593362,0.05767027227686161,-0.4464529941445576,-0.5184881304886874,0.057381000000000015,-0.23799599999999999,-0.499341,0.066187,0.052954999999999974,-0.939134,0.00880599999999998,0.29095099999999996,0.43979300000000005,0.0,0.9827783936224362,single,-0.499341
106,0.883333,step_acsent,0.017520700828030585,-0.07284291371655126,-0.43549741989679325,2.154851996838913,3.9231984441819594,-0.9115762424447226,0.8845553822152868,-0.20088803552142107,0.8276731069242719,0.002160086403451628,-0.008400336013428919,-0.006840273610944588,-8.856708522511457,-13.82510598635806,-54.29234330059658,5.357228569714521,-1.6273301838105916,-15.985278796727952,-0.3456276496593112,-0.41763341000220316,0.0864069124147279,0.06460600000000005,-0.23906299999999997,-0.488815,0.06605899999999998,0.053492000000000095,-0.935562,0.0014529999999999266,0.29255500000000006,0.446747,0.0,0.9815894835698096,single,-0.488815
107,0.891667,step_acsent,0.08711303095752443,0.009839212862974197,-0.0021598272138184057,-0.5111997044108709,-0.1229386691537464,0.1475061562165409,0.9421646268298554,-0.2193424526037925,0.7327813774898018,0.0035997120230484383,-0.008879289656829723,-0.007919366450683585,8.350411582612699,9.92106150462274,51.99635141384417,6.9125563492403215,-2.2143529016524535,-11.386096644404926,0.17274125505121413,-0.05746983962092711,-0.12948078230609583,0.07173200000000002,-0.240973,-0.48269000000000006,0.06536300000000006,0.05333600000000005,-0.93561,0.006368999999999958,0.29430900000000004,0.45292,0.0,0.9792825840549165,single,-0.48269000000000006
108,0.9,step_acsent,0.19344773790952252,0.08460338413537306,0.5370214808592196,-4.738546718891216,-5.397503415227754,1.2445558779385932,0.9649585983439255,-0.22176887075482457,0.6009840393615734,0.004800192007671764,-0.009600384015370176,-0.009480379215168888,12.760675261250167,8.97205943506523,64.70434514256999,2.735385997128291,-0.29118182539686205,-15.816313227916453,0.1440633606892261,-0.08653478441623062,-0.18732902489923162,0.07816099999999992,-0.24352600000000002,-0.48215699999999995,0.06379099999999993,0.0525509999999999,-0.940164,0.014369999999999994,0.2960769999999999,0.45800700000000005,0.0,0.9761319130650419,single,-0.48215699999999995
109,0.908333,step_acsent,0.08904356174245964,0.014280571222846672,0.2257290291611711,-2.1264181393289783,-1.9143581809140429,0.2833246758385757,1.0439217568702859,-0.24420976839073893,0.5537021480859293,0.0064802592103682935,-0.012360494419772612,-0.005040201608064413,-12.529002300139666,-8.439075112507744,-37.35658846730486,9.475958061485791,-2.6930154369272254,-5.6740539152339515,0.2016161289687441,-0.33122649758819894,0.5328426265576042,0.08611800000000003,-0.24568,-0.47942399999999996,0.06310300000000002,0.05232899999999996,-0.942087,0.023015000000000008,0.29800899999999997,0.46266300000000005,0.0,0.9752692715890665,single,-0.47942399999999996
110,0.916667,step_acsent,0.06743460523158845,0.05387568994479461,0.2272618190544814,-1.7068223680089165,-1.9124042659071887,0.2976599505800419,1.0835133189344748,-0.25341972642188465,0.4616030717542615,0.005039596832251761,-0.012479001679864673,-0.007799376049916254,-2.59286735191637,4.751034163900604,0.18392007359134652,4.750607399110703,-1.1051065552130603,-11.0510050793937,-0.17286565612149288,-0.01421973363235663,-0.331074447066453,0.09458599999999995,-0.24824099999999993,-0.477471,0.06258299999999994,0.051776000000000044,-0.944046,0.032003000000000004,0.300017,0.4665750000000001,0.0,0.9740752538892903,single,-0.477471
111,0.925,step_acsent,-0.004800192007685088,0.016440657626311434,0.09912396495859714,-0.13076371967273948,-0.5708586944347064,-0.2381945173594833,1.1406456258250266,-0.2690507620304827,0.3679347173886823,0.007680307212296141,-0.013800552022077974,-0.005520220808832022,-8.668522409609173,-4.492383573560905,-15.377157577809157,6.856151072909106,-1.8757993050039614,-11.24065214995546,0.31689792152218516,-0.15859238476098583,0.2735095693128791,0.10413099999999997,-0.25062,-0.47523100000000007,0.06268700000000005,0.051524000000000014,-0.944918,0.041443999999999925,0.302144,0.46968699999999997,0.0,0.9721155562699881,single,-0.47523100000000007
112,0.933333,step_acsent,0.1887675507020354,-0.09288371534862108,-0.0006000240009639748,-0.3039055001432329,0.7796406314504565,-1.8228876162770409,1.2454098163926668,-0.34477379095164296,0.28489139565584065,0.011160446417857985,-0.00864034561381995,-0.0042001680067203446,23.229058287498173,-13.11944953497342,-11.96735736944222,12.572205756347191,-9.087126955617535,-9.96559723183036,0.4176334100038253,0.6192495389725273,0.1584126727603132,0.11293599999999993,-0.25271899999999997,-0.47285199999999994,0.06120700000000001,0.052226000000000106,-0.944948,0.051728999999999914,0.3049450000000001,0.47209600000000007,0.0,0.9754568097328169,single,-0.47285199999999994
113,0.941667,step_acsent,0.15442764578832702,-0.36813054955602786,-0.9126469882409339,6.593331921128221,7.0457727606715945,-2.229138963774215,1.2099832013438945,-0.30057595392368136,0.19006479481640348,0.0033597312214922927,-0.008999280057600994,-0.007319414446844023,-4.120458952928741,-33.026977946652835,-109.4368807583349,-4.250853737553641,5.303316178061106,-11.378281838185318,-0.9360109426884609,-0.043068687758704156,-0.37427963044440304,0.12173300000000009,-0.252156,-0.463662,0.059948,0.05521900000000002,-0.937403,0.06178500000000009,0.307375,0.47374099999999997,0.0,0.979872030013459,single,-0.463662
114,0.95,step_acsent,0.06744269770791643,-0.029641185647425836,0.0902436097443876,-0.6737020080451545,-0.5610018970650865,-0.34621835077227453,1.2358094323772966,-0.3002520100804065,0.11700468018721566,-0.004200168006721177,-0.013200528021127506,0.002280091203647949,-10.43861131410193,40.620348482971934,120.35168582567272,3.0992716948760743,0.03887481618563429,-8.767564458080942,-0.9072241963534788,-0.5041699224200828,1.1519867575293483,0.13146899999999995,-0.254411,-0.46343899999999993,0.05935099999999993,0.05535599999999996,-0.938136,0.07211800000000002,0.30976699999999996,0.47469700000000004,0.0,0.9766016283081844,single,-0.46343899999999993
115,0.958333,step_acsent,0.07044281771270872,-0.01908076323053157,0.05580223208928918,-0.4110432215993551,-0.35526433312579286,-0.2582554510561758,1.2790111604464192,-0.3129725189007546,0.060242409696387896,0.002880115204611053,-0.007800312012478276,-0.005160206408256473,0.36002880172714197,1.2673013820825898,-4.133130643837546,5.184414744884485,-1.5265221193265437,-6.811744928696451,0.8496679720787472,0.6480518431116293,-0.8928714282856584,0.14154,-0.25686,-0.463402,0.05878799999999995,0.05545,-0.938644,0.08275200000000005,0.31231,0.47524200000000005,0.0,0.9836898411633479,single,-0.463402
116,0.966667,step_acsent,0.117710583153348,-0.009479241660659903,-0.18502519798416506,0.26038348056193683,1.0243448712151497,-0.17316837819704387,1.3092152627789682,-0.31629469642428026,0.005879529637624834,0.002519798416132541,-0.005879529637624834,-0.008879289656827107,5.67167811862718,1.152090421150899,-28.896979850426256,3.6242023437183546,-0.3986294124700772,-6.523023765150305,-0.04323455585295287,0.23047544694665553,-0.44625428948531376,0.15147,-0.259417,-0.46181099999999997,0.05782799999999999,0.055479999999999974,-0.937176,0.093642,0.314897,0.47536500000000004,0.0,0.9817608451076407,single,-0.46181099999999997
117,0.975,step_acsent,0.12192487699508295,-0.031561262450499894,-0.16344653786151286,0.1820058995988554,0.9369497909861134,-0.33563145143898626,1.334573382935322,-0.3274930997239964,-0.041281651266052335,0.0007200288011461112,-0.006120244809795237,-0.006240249609984868,0.5057354904278162,-2.649948492720532,2.5895427964301443,3.043096142608182,-1.3438621504519634,-5.659568091164959,-0.21598099303809506,-0.028886976139494282,0.3166974735200124,0.1615749999999999,-0.26188300000000003,-0.460793,0.056817999999999924,0.055691999999999964,-0.935866,0.10475699999999999,0.317575,0.47507299999999997,0.0,0.9853829862069705,single,-0.460793
118,0.983333,step_acsent,0.058442337693495994,-0.022800912036484183,0.10104404176167117,-0.4458928878324103,-0.6685202217511784,-0.20402600758371814,1.3685347413896596,-0.3234129365174597,-0.0859234369374698,-0.0002400096003775928,-0.004560182407294172,-0.005160206408255641,-7.618209444568185,1.0512841010459226,31.740139160348363,4.075526035561927,0.4896391703512096,-5.357228569712862,-0.11520921655150607,0.18721497689920305,0.12961036862225161,0.1724920000000001,-0.264388,-0.46235099999999996,0.05632900000000007,0.055844000000000005,-0.936751,0.11616300000000002,0.320232,0.47440000000000004,0.0,0.988515638849593,single,-0.46235099999999996
119,0.991667,step_acsent,0.1341492680585637,-0.007439404847613013,-0.014278857691382398,-0.039351859560139354,-0.05638702035552041,-0.2154499203839086,1.3879289656827525,-0.33297336213102807,-0.12670986321095068,0.0007199424046016947,-0.0026397888168906425,-0.005999520038397134,9.084104915414944,1.8432334039922316,-13.83764092309266,2.3271207455115204,-1.1471593008841374,-4.8939796344469775,0.11518502579545152,0.23042879654470125,-0.10070957885067171,0.18294100000000002,-0.267101,-0.46328800000000003,0.05521699999999996,0.055884000000000045,-0.936682,0.12772400000000006,0.322985,0.473394,0.0,0.9890099738708664,single,-0.46328800000000003
120,1.0,step_acsent,0.04164166566662483,-0.009240369614783802,0.3748949957998323,-0.8085142114106935,-2.3595006362860045,-0.20348826538591208,1.3988959558382177,-0.3343333733349333,-0.15516620664826392,0.0007200288011594248,-0.000240009600390916,-0.005400216008640727,-11.10135634128627,-0.21612441703717528,46.7027305281667,1.3160914623143118,-0.1632078727835371,-3.4148978083899095,1.0368001647673783e-05,0.2879850253809812,0.07191936034518231,0.19425099999999995,-0.26981,-0.46770500000000004,0.054876000000000036,0.05595899999999998,-0.939851,0.13937499999999992,0.325769,0.47214599999999995,0.0,0.9909111822332852,single,-0.46770500000000004
121,1.008333,step_acsent,0.09144365774631553,-0.042121684867393906,0.21648865954637384,-0.15596042283680037,-1.6343959701092936,-0.2761063513223101,1.4152166086643658,-0.334573382935322,-0.19044761790471854,-0.0009600384015370304,-0.0009600384015370304,-0.0046801872074880265,5.976478108687286,-3.9459156669399267,-19.009520731244443,1.958556681405051,-0.028802304138812723,-4.233938708322926,-0.2016161289687352,-0.08640691241403108,0.08640691241482147,0.20528199999999996,-0.272247,-0.47109599999999996,0.05410599999999999,0.05630199999999996,-0.9416939999999999,0.15117599999999998,0.328549,0.47059799999999996,0.0,0.991878098922258,single,-0.47109599999999996
122,1.016667,step_acsent,0.08735301175905272,-0.017038636909044204,0.09419246460283534,-0.19638394365341272,-0.7057624724279379,-0.20935217920358246,1.4208063354931486,-0.3128149748020099,-0.2296616270698292,-0.0034797216222770024,-0.002399808015361153,-0.003359731221502284,-0.4908382514114214,3.009724977003781,-14.674369443669013,0.6707135623689392,2.610800111988472,-4.705304675439209,-0.30233779946483713,-0.1727585329762553,0.1584420429548515,0.216395,-0.274712,-0.47379499999999997,0.05334899999999998,0.05642399999999992,-0.942507,0.16304600000000002,0.33113599999999993,0.468712,0.0,0.9910007199423956,single,-0.47379499999999997
123,1.025,step_acsent,0.09480379215168182,-0.026761070442828067,0.025321012840509197,-0.10472647752580626,-0.2945518637006148,-0.28001298784779693,1.5153006120245014,-0.32665306612264816,-0.19536781471259915,0.0002400096003909192,-0.0014400576022922224,-0.005160206408256542,0.8941294122919918,-1.1667386936018183,-8.26490480767152,11.339766774433414,-1.6606373839719624,4.115422099751635,0.44638560214424045,0.11517465655453492,-0.21606566503711444,0.2282320000000001,-0.27721099999999993,-0.475634,0.05256100000000008,0.0566350000000001,-0.942761,0.17567100000000002,0.33384600000000003,0.46712699999999996,0.0,0.9910620812946545,single,-0.475634
124,1.033333,step_acsent,0.07788311532461291,-0.036121444857793165,0.06036241449658255,-0.15300295643515063,-0.45871069901003714,-0.3069141482314835,1.4296171846873567,-0.3165726629065142,-0.26329053162125043,0.0002400096003775896,-0.002400096003842512,-0.004320172806912358,-2.030562441745903,-1.1232898613902478,4.205136404184896,-10.282422577360283,1.2096967738070064,-8.151052071120857,-1.599617807440964e-12,-0.1152092165546949,0.10080806448387969,0.23949600000000004,-0.27954799999999996,-0.47833099999999995,0.051914000000000016,0.05691600000000008,-0.9433,0.18758200000000003,0.33646400000000004,0.4649690000000001,0.0,0.9917534588871186,single,-0.47833099999999995
125,1.041667,step_acsent,0.10223182145429459,-0.021958243340525162,-0.0609551235901083,-0.07034887802773414,0.3800591675449232,-0.2989738837613292,1.4142068634509464,-0.30633549316054964,-0.2805375569954532,-0.0010799136069025565,-0.0017998560115175823,-0.007439404847612279,2.9216110066813226,1.6994482262140955,-14.556940015201963,-1.8490906211195797,1.2283621005477265,-2.069477486705433,-0.1583781146244506,0.07202303723601403,-0.3742779026517855,0.25042999999999993,-0.281918,-0.48016100000000006,0.051053000000000015,0.057084000000000024,-0.9428540000000001,0.19937699999999992,0.339002,0.462693,0.0,0.9871169319187239,single,-0.48016100000000006
126,1.05,step_acsent,0.08928357134284819,-0.01872074882995827,-0.07992319692788237,-0.18371157988248665,0.5914617349394504,-0.30441975864465576,1.4096963878554971,-0.29965198607944116,-0.29449177967117646,-0.001320052802123374,-0.0012000480019279175,-0.006480259210368121,-1.5538521674602395,0.3885148818632947,-2.2762598509268854,-0.5412787226028057,0.8020529318502784,-1.6745737040349247,-0.028817856140743222,0.0719798403443723,0.11510208055251908,0.261433,-0.284259,-0.48194899999999996,0.050297999999999954,0.05723,-0.942242,0.21113500000000007,0.341489,0.46029300000000006,0.0,0.9887977663386956,single,-0.48194899999999996
127,1.058333,step_acsent,0.0943237729509133,0.004440177607112096,-0.28081123244930156,0.35016249701538765,1.9103802002168269,-0.1111039532698636,1.3906156246249894,-0.3099723988959589,-0.31165246609864206,-0.002520100804024712,-0.0027601104044156313,-0.0054002160086399666,0.6048483869032961,2.7794223493424433,-24.107528563713075,-2.2897831789881007,-1.2384990779452583,-2.059364745885726,-0.14401152068898945,-0.18721497689760327,0.12961036862212458,0.272235,-0.28687900000000005,-0.4822059999999999,0.04949100000000006,0.05716999999999994,-0.939947,0.22274399999999994,0.344049,0.45774100000000006,0.0,0.9890542435357375,single,-0.4822059999999999
128,1.066667,step_acsent,0.06107511399089139,-0.026757859371260205,0.03803695704343764,-0.31653495119638164,-0.1526917013312595,-0.23509915611471352,1.3380129589632754,-0.2724982001439825,-0.3200143988481,-0.0010799136069158492,-0.0025197984161192196,-0.008759299256059883,-3.9895199136095107,-3.743464960207831,38.258722041365104,-6.311814934210896,4.496544126706995,-1.0033516618020029,0.1728086389619453,0.028835131785026384,-0.4030577450707813,0.28287699999999993,-0.28892699999999993,-0.48519,0.04897299999999993,0.05737200000000009,-0.940337,0.233904,0.346299,0.45514699999999997,0.0,0.9847028578455639,single,-0.48519
129,1.075,step_acsent,0.14868594743789768,0.027721108844365096,-0.5001800072002865,1.2173887144093039,3.0812613427872186,0.10879502705494427,1.328213128525149,-0.25057002280091845,-0.3279731189247582,0.0004800192007685152,-0.004200168006721177,-0.006240249609984035,10.51372056246335,6.537737695382911,-64.58861925401766,-1.1760266936429218,2.6314865406293375,-0.9550846125834973,0.18719942489912142,-0.20165241696891553,0.3022980494510826,0.2927059999999999,-0.29124600000000006,-0.48375500000000005,0.04773799999999995,0.05710599999999999,-0.936221,0.24496799999999996,0.34835200000000005,0.4524659999999999,0.0,0.9874376505080662,single,-0.48375500000000005
130,1.083333,step_acsent,0.03684147365893926,0.01320052802111383,0.12756510260409296,-0.09622839757662392,-0.8519171815178164,0.16897309135110278,1.2925717028681025,-0.23148925957037378,-0.3324132965318548,-0.002400096003842512,-0.0057602304092220285,-0.0064802592103689535,-13.421873728423913,-1.742539400366136,75.33242647358317,-4.277142164532091,2.28978317899248,-0.5328426265566432,-0.34562764965930354,-0.18721497689917485,-0.028802304138355217,0.30317000000000005,-0.29328499999999996,-0.48758799999999997,0.04741099999999998,0.056948,-0.937338,0.25575900000000007,0.35023299999999996,0.44975000000000004,0.0,0.9850060683915349,single,-0.48758799999999997
131,1.091667,step_acsent,0.03611711063114968,0.03299736021118676,-0.004799616030709112,0.21780827265088418,0.23798725125458725,0.1439676590433421,1.2831773458123572,-0.23158147348213096,-0.33609311255100205,-0.0008399328053730955,-0.00443964482840826,-0.007199424046076157,-0.08691661000595016,2.375429828422523,-15.882495636525627,-1.1272326680760134,-0.01106478422812325,-0.4415425988897662,0.1872046074477377,0.15845759309020802,-0.08629287685471769,0.31356300000000004,-0.29549000000000003,-0.49034900000000003,0.047103000000000006,0.05663600000000002,-0.937358,0.26646000000000003,0.35212600000000005,0.447009,0.0,0.9858335647160883,single,-0.49034900000000003
132,1.1,step_acsent,0.06444257770310816,-0.07536301452057494,-0.07092283691347628,1.8029845745867752,0.19568505689491966,0.5198424387992434,1.232569302772093,-0.20076803072122293,-0.3205328213128444,-0.004920196807867157,-0.004440177607111978,-0.008640345613824716,3.39919201631561,-13.003765118415911,-7.935103910088325,-6.073208093155327,3.6977610417505686,1.8673096409645256,-0.48965126634993283,-6.393600188622995e-05,-0.17291750483001722,0.32329700000000006,-0.29653500000000005,-0.492429,0.04652500000000004,0.05722699999999992,-0.936839,0.276772,0.35376199999999997,0.44440999999999997,0.0,0.9818509958845927,single,-0.492429
133,1.108333,step_acsent,0.1437657506300304,0.017040681627262303,-0.02904116164646186,-0.22135080762350975,-0.04216640076972674,0.16471848292992114,1.213488539541594,-0.26881075243010205,-0.3771750870034844,-0.03120124804992684,-0.038161526461050324,-0.02688107524300937,9.519161517691462,11.088887093224299,5.026002072124662,-2.2897831789870615,-8.165453223194497,-6.797343776627929,-3.1538523031393164,-4.046723731421896,-2.188975114506759,0.33221100000000003,-0.29891700000000004,-0.49533000000000005,0.04506699999999997,0.05676700000000001,-0.936821,0.28714400000000007,0.35568400000000006,0.44149099999999997,0.0,0.9064227563879439,single,-0.49533000000000005
134,1.116667,step_acsent,0.10823134149267477,0.009239260859130448,-0.03395728341733034,0.009832844543693195,0.22004403362851024,-0.028763903563161913,1.233981281497466,-0.3140148788096905,-0.4126469882409406,-0.0029997600191914503,0.005399568034552603,-0.011159107271418538,-4.263787993443166,-0.9360956045274532,-0.5898874215104926,2.458932320119015,-5.424061240651318,-4.256287645483072,3.3839078510601364,5.2269131864173985,1.8864852377718637,0.34159300000000004,-0.301611,-0.49848600000000004,0.04414000000000007,0.05673499999999998,-0.936631,0.29745299999999997,0.358346,0.43814499999999995,0.0,0.9787423497282398,single,-0.49848600000000004
135,1.125,step_acsent,0.13752550102003971,-0.018720748829958767,-0.09012360494420546,0.2979328914023184,0.5382934829809822,-0.18084977747085096,1.1029641185647465,-0.20556822272891345,-0.3655346213848579,0.001800072002878601,-0.007800312012478379,-0.017760710428417575,3.5154397608742602,-3.355335376105781,-6.74022819235277,-15.722688459464859,13.014119294465141,5.653710171136817,0.5760028827637219,-1.5840489676024365,-0.7922240678026037,0.349638,-0.303168,-0.5007809999999999,0.043009000000000075,0.05682600000000004,-0.936028,0.30662899999999993,0.35999400000000004,0.43524700000000005,0.0,0.9675308710024403,single,-0.5007809999999999
136,1.133333,step_acsent,0.09996399855995336,-0.017040681627262303,0.014760590423615187,0.12337424188298396,-0.14980130654719473,0.0032368226274821013,1.061202448097939,-0.18096723868955036,-0.39037561502460527,-0.0020400816032695203,-0.0043201728069166365,-0.014160566422657042,-4.507560597634309,0.2016161289687363,12.586606908414929,-5.0116009200537555,2.9522361741705643,-2.981038478308841,-0.46083686621242725,0.41763341000381304,0.4320345620737508,0.35764799999999997,-0.304534,-0.504157,0.042158999999999947,0.05693199999999998,-0.9362689999999999,0.315489,0.361466,0.43211199999999994,0.0,0.9750919765581838,single,-0.504157
137,1.141667,step_acsent,0.1333093352531755,-0.04103671706262909,-0.06023518118549167,0.2912626435997556,0.27725386688383163,-0.2069850944670451,1.0003599712023008,-0.10115190784736935,-0.4275257979361598,-0.0032397408207342263,-0.004919606431480372,-0.01055915526757825,4.001120313561542,-2.879293908731294,-8.998772691277452,-7.300513186421609,9.577073535178833,-4.457665336159617,-0.14394759028854054,-0.07192628084518012,0.43213476782802557,0.36487400000000003,-0.30503500000000006,-0.5072180000000001,0.041020999999999974,0.05723299999999998,-0.9358550000000001,0.32385300000000006,0.36226800000000003,0.42863700000000005,0.0,0.9798482005221052,single,-0.5072180000000001
138,1.15,step_acsent,0.11100444017760255,-0.049921996879885605,0.009000360014393005,0.14709349412000006,-0.14893856805015065,-0.18468371632025649,0.967718708748354,-0.1526461058442346,-0.4387375495019832,-0.004200168006721177,-0.004800192007685152,-0.00816032641305643,-2.676694476847853,-1.0662762291199563,8.308597287877753,-3.9171081788008073,-6.179550941661553,-1.3454640064590764,-0.1152558725533373,0.014330304067589264,0.2878709773817163,0.37201300000000004,-0.30589099999999997,-0.510949,0.04006100000000001,0.05760900000000002,-0.935998,0.331952,0.3635,0.425049,0.0,0.982737791617802,single,-0.510949
139,1.158333,step_acsent,0.1623664946597894,-0.04644185767429598,-0.07896315852633204,0.4631951304120032,0.2812320072387051,-0.16757216384475954,0.9059162366494534,-0.14832593303732067,-0.44653786151445635,-0.00348013920556165,-0.006360254410172664,-0.005040201608064279,6.163693085585736,0.4176334100071476,-10.556044466665487,-7.416593315600561,0.5184414744886428,-0.9360748844921432,0.08640691241563839,-0.18721497689757408,0.3744299537972035,0.378209,-0.30674000000000007,-0.5140120000000001,0.03867900000000002,0.05794299999999997,-0.935382,0.33953,0.36468300000000003,0.4213699999999999,0.0,0.9852834336260361,single,-0.5140120000000001
140,1.166667,step_acsent,0.14398848092152647,-0.06731461483081885,-0.04475641948645006,0.3581522991149367,0.11111400934098292,-0.22526093647823647,0.8540916726661979,-0.14194864410847277,-0.4563234941204791,-0.00287976961843346,-0.0053995680345527465,-0.0021598272138225977,-2.2051852337728906,-2.5045304963430843,4.104480326359806,-6.218450201974623,0.7652134543854112,-1.1741819781645022,0.07203858736839466,0.11527314322293447,0.34561727792677416,0.384127,-0.307362,-0.517442,0.037455000000000016,0.05845900000000004,-0.9350269999999999,0.346672,0.36582100000000006,0.417585,0.0,0.9891842114366973,single,-0.517442
141,1.175,step_acsent,0.11376455058201515,-0.05280211208448197,-0.031561262450499054,0.3582835977561277,0.13654970761544877,-0.22681937576409705,0.7759510380415047,-0.1274450978039108,-0.42913716548660813,-0.002520100804037968,-0.006000240009612941,-0.0027601104044163906,-3.627016721410151,1.74156999236009,1.583482183601437,-9.377251245012824,1.7404951763544596,3.2624899356618884,0.04316198420682656,-0.07208352034803601,-0.07203686434582773,0.389645,-0.30798400000000004,-0.520755,0.03648600000000002,0.05884899999999993,-0.9347869999999999,0.353159,0.36683299999999996,0.41403199999999996,0.0,0.988218187547462,single,-0.520755
142,1.183333,step_acsent,0.13944557782312708,-0.043921756870272506,-0.010800432017271606,0.18010964216032546,-0.05119680415510344,-0.16323620656023397,0.7182287291491747,-0.11004440177607219,-0.43969758790352026,0.0,-0.0034801392055617427,0.0009600384015361976,3.0818465427951716,1.0656852531152698,2.491399307959635,-6.926954145245472,2.0881670500226535,-1.2673013820847505,0.30242419345229704,0.3024241934538847,0.44643571414288036,0.39446799999999993,-0.30853500000000006,-0.524329,0.03532399999999991,0.05918599999999996,-0.9346890000000001,0.359144,0.367721,0.41036000000000006,0.0,0.9939831157420436,single,-0.524329
143,1.191667,step_acsent,0.148908087353003,-0.04691624670026725,-0.039476841852654335,0.24092080212003208,0.12838405146634874,-0.185478841433834,0.6755459563234785,-0.11531077513798683,-0.4095272378209711,-0.0007199424046016851,-0.0027597792176619956,-0.0004799616030722306,1.135410310760242,-0.35931003479658263,-3.4408939087332024,-5.1215230172421276,-0.631914250289729,3.620152397714053,-0.08638617765798891,0.08643628364527738,-0.17278617765879736,0.3988569999999999,-0.309105,-0.527413,0.034077000000000024,0.059553999999999996,-0.934364,0.3647799999999999,0.368659,0.40695099999999995,0.0,0.9951795973149404,single,-0.527413
144,1.2,step_acsent,0.1726869074762968,-0.04464178567143194,-0.05640225609024058,0.3005807714025121,0.13971069292542834,-0.03548130228475997,0.6095043801752192,-0.1059642385695398,-0.40213608544342055,-0.001800072002878601,-0.0064802592103682935,-0.0036001440057597004,2.8535725576975897,0.2729462413098918,-2.0311309537485176,-7.925306150037182,1.121629253383789,0.8869737642566454,-0.129620736622696,-0.44647545814308554,-0.3744368657971317,0.402497,-0.30961599999999995,-0.530294,0.03262300000000007,0.059872000000000036,-0.9339240000000001,0.3698739999999999,0.369488,0.40363000000000004,0.0,0.9872857193685256,single,-0.530294
145,1.208333,step_acsent,0.17316692667707403,-0.0450018000720038,-0.048361934477383316,0.26693083915906,0.10932686732109187,-0.08190272374548581,0.5591023640945503,-0.08016320652825996,-0.3902556102244061,-0.0022800912036470555,-0.005400216008635659,-0.002640105604224265,0.05760460827759726,-0.04320345620687062,0.9648771886303996,-6.048483869034931,3.0962476948613213,1.4257140548439058,-0.057604608276544594,0.12961036862265873,0.11520921655291234,0.4057129999999999,-0.30990899999999993,-0.533143,0.031160999999999994,0.06020200000000009,-0.933543,0.3745519999999999,0.370111,0.4004,0.0,0.9892850952150327,single,-0.533143
146,1.216667,step_acsent,0.15994720422365527,-0.0350371970242338,-0.029277657787380205,0.15929243900840095,0.07643371423526922,-0.06166319638349496,0.5092392608591574,-0.08075353971682835,-0.32145428365731193,-0.002159827213831756,-0.005399568034566068,-0.003959683225341845,-1.5862397952266638,1.195656713195367,2.289930008399745,-5.983093740748001,-0.0708343158829365,8.255498748151602,0.01443052433588933,7.775066829744961e-05,-0.15833664760230445,0.4086240000000001,-0.31029,-0.535578,0.029810000000000003,0.060448999999999975,-0.9333319999999999,0.3788140000000001,0.370739,0.39775399999999994,0.0,0.9882740459048966,single,-0.535578
147,1.225,step_acsent,0.1516860674427002,-0.03864154566183113,-0.031561262450499054,0.19753684346879868,0.1540894831745772,-0.015864927118021153,0.4544581783271233,-0.0946837873514905,-0.3184927397095816,-0.0026401056042201017,-0.0026401056042201017,-0.002640105604224265,-0.9913760687573426,-0.432539138077195,-0.2740435213151098,-6.573992863558515,-1.6716965840227895,0.355399489707224,-0.05763571227509146,0.3311487375910138,0.15835564876005725,0.41114700000000004,-0.31075699999999995,-0.5379689999999999,0.028523999999999994,0.06074900000000005,-0.933091,0.38262300000000005,0.371506,0.3951220000000001,0.0,0.9923786715935684,single,-0.5379689999999999
148,1.233333,step_acsent,0.16776671066842952,-0.047521900876029706,-0.028801152046084265,0.12068916817469284,0.0564156702336032,-0.05870283597023893,0.4136565462618516,-0.1141245649825979,-0.31201248049922176,-0.0022800912036471162,-0.0014400576023055455,-0.004080163206528215,1.9297543772626278,-1.0656852531139633,0.33122649758968137,-4.89639170350079,-2.3329866351983184,0.7776622117316558,0.04320345620700693,0.14401152069057568,-0.17281382482946875,0.413196,-0.311312,-0.540329,0.027106999999999992,0.06113299999999999,-0.932885,0.386089,0.37244499999999997,0.392556,0.0,0.99184860039509,single,-0.540329
149,1.241667,step_acsent,0.2140628749700017,-0.05135589152867539,-0.05363570914326515,0.2344515851362888,0.1415678110204549,0.09325940280289487,0.3694504439644865,-0.11927045836333607,-0.31401487880969714,-0.00011999040077138805,-0.002519798416132541,-0.001679865610751142,5.555095308563935,-0.4600420749514823,-2.979908458984965,-5.304307931049288,-0.6174578090638496,-0.24026857577098257,0.2591913610362025,-0.12955853297660033,0.2880126704796082,0.41449100000000005,-0.31187800000000004,-0.5424990000000001,0.025321999999999956,0.06153999999999993,-0.932452,0.3891690000000001,0.37341799999999997,0.3899529999999999,0.0,0.9949486717301272,single,-0.5424990000000001
150,1.25,step_acsent,0.13620544821792963,-0.04956198247929923,0.0004800192007685152,0.06045163471475612,0.14863833104547403,-0.08187026446229569,0.30949237969517707,-0.10968438737549246,-0.32161286451457877,-0.0007200288011461112,-0.0019200768030607374,-0.0025201008040322066,-9.34326494084637,0.21527769703302238,6.494147167170786,-7.1952555225381,1.1503745335225835,-0.9117947563760586,-0.07200748834450121,0.07196947234751098,-0.10083225648398804,0.41593499999999994,-0.312379,-0.545183,0.024181000000000008,0.06193700000000002,-0.932477,0.39175399999999994,0.37431600000000004,0.387294,0.0,0.994584988851295,single,-0.545183
151,1.258333,step_acsent,0.17928717148686055,-0.061922476899085165,-0.0016800672026831415,0.11157041319837409,0.00589391491531721,0.05345305322147061,0.2431297251890198,-0.10224408976359381,-0.3556942277691167,-0.0007200288011594343,-0.000840033601354894,-0.0014400576023047128,5.1700135928154705,-1.4833186631208506,-0.2592207372436909,-7.963837094222715,0.8928714282849782,-4.089927187632093,-1.5988371506505453e-12,0.1296103686194472,0.12961036862204534,0.41646700000000003,-0.31271499999999997,-0.548133,0.02268099999999995,0.062446,-0.932475,0.3937860000000001,0.37516099999999997,0.3843420000000001,0.0,0.9969733297430914,single,-0.548133
152,1.266667,step_acsent,0.22066234701224155,-0.06515478761698537,-0.06167506599472169,0.22830956195629168,0.3027135466443862,0.02870799207102354,0.21166306695462722,-0.12706983441324315,-0.3953683705303536,-0.008399328053757375,-0.02027837772977843,0.02207823374130096,4.964623893134232,-0.38784625844734605,-7.1988239491286405,-3.77569693237249,-2.9788510498739087,-4.760516290045191,-0.921442194936151,-2.3324147022346278,2.821969203696364,0.4163919999999999,-0.313231,-0.550914,0.0207719999999999,0.06281999999999999,-0.931777,0.39561999999999997,0.37605099999999997,0.38086299999999995,0.0,0.9481131112621533,single,-0.550914
153,1.275,step_acsent,0.16356654266170834,-0.05880235209408315,0.00960038401535698,0.05024779625300754,0.10366675491693023,-0.004802608128139719,0.17388695547822475,-0.10164406576262983,-0.3952958118324792,-0.01836073442937239,-0.009240369614783925,-0.010800432017280766,-6.851770592887764,0.7623227556584995,8.553396137055,-4.533314709756729,3.0512142866450933,0.008707392040612735,-1.195416581737082,1.3246139583576868,-3.9455977149384407,0.4164779999999999,-0.313588,-0.554288,0.01925599999999994,0.06323299999999998,-0.931947,0.39722199999999996,0.37682099999999996,0.37765899999999997,0.0,0.9613006484707048,single,-0.554288
154,1.283333,step_acsent,0.1782071282851233,-0.08028321132845541,0.016920676827079716,-0.0645503827261414,0.04677988086523405,0.009141280149378447,0.14352574102963567,-0.09792391695668122,-0.4231369254770085,0.01380055202207779,0.0037201488059525624,0.008640345613823883,1.7569405524318629,-2.5778062203734406,0.8784702762177617,-3.6434914734895654,0.4464357141423906,-3.341067280034658,3.859508754524135,1.5553244234652899,2.332986635197925,0.4161889999999999,-0.313735,-0.557955,0.017885999999999957,0.06393300000000002,-0.9320160000000001,0.39830299999999996,0.377668,0.3740610000000001,0.0,0.9721636570699566,single,-0.557955
155,1.291667,step_acsent,0.1965442764578905,-0.06287497000239728,-0.03323734101272954,0.2120711572314771,0.2634188763998278,0.10878267892829419,0.12431005519559114,-0.07523398128149755,-0.4424046076313974,-0.0007199424046017042,0.0002399808015427825,0.0002399808015361217,2.200281758191449,2.088821853378745,-6.01848066232424,-2.305697844257846,2.7225744750640866,-2.3119369035744257,-1.742319945605924,-0.4175867535888944,-1.0079631404233167,0.41558699999999993,-0.313838,-0.5613649999999999,0.01624199999999998,0.06445900000000004,-0.9317369999999999,0.39934499999999995,0.37829700000000005,0.37037200000000003,0.0,0.9986734562073666,single,-0.5613649999999999
156,1.3,step_acsent,0.22752910116404362,-0.07356294251769638,-0.027241089643582534,0.09384259351934825,0.14967217606186273,0.19512448124281234,0.08808352334093358,-0.06000240009600284,-0.46933877355093356,0.0,-0.0022800912036470555,-0.0018000720028802186,3.7183276978462243,-1.2826080061561156,0.7195789474555268,-4.3473577168675055,1.8278628567736042,-3.2322291995122656,0.08639654441397955,-0.3024207374522734,-0.24481612917512358,0.41442499999999993,-0.31372500000000003,-0.5650489999999999,0.01434599999999997,0.06505300000000003,-0.9315249999999999,0.40007899999999996,0.37877800000000006,0.366476,0.0,0.9951583189579956,single,-0.5650489999999999
157,1.308333,step_acsent,0.1832473298931908,-0.07620304812193184,-0.0008400336013415707,-0.04985629814753068,0.22644278086437386,0.04391320701117501,0.05844233769352342,-0.03624144965798293,-0.4896195847833992,-0.0019200768030740608,-0.003480139205575066,-0.0019200768030715625,-5.314025113506926,-0.31682534552207864,3.168253455207153,-3.5570845610716946,2.8514281096868035,-2.433794699683883,-0.23041843310621365,-0.14401152069219023,-0.014401152069044161,0.4133850000000001,-0.31339199999999995,-0.569122,0.012803000000000009,0.06565900000000002,-0.931534,0.4005820000000001,0.37905099999999997,0.36241199999999996,0.0,0.9926430760599326,single,-0.569122
158,1.316667,step_acsent,0.2162227021838201,-0.08279337652987319,-0.04775617950564032,0.20688242266749618,0.30134326221627683,0.16832799096728285,0.021958243340511253,-0.011879049676027716,-0.5086393088552869,0.0007199424046016851,-0.002159827213818377,-0.0009599232061436286,3.9567281366245526,-0.7907761468612076,-5.629487149543843,-4.377741103073181,2.9232541375036027,-2.2821843138813933,0.316776962764066,0.15842476502959907,0.11520921489415965,0.41176599999999997,-0.312801,-0.572963,0.011006999999999989,0.06633100000000003,-0.931144,0.400759,0.379132,0.35818099999999997,0.0,0.9958820773774244,single,-0.572963
159,1.325,step_acsent,0.029401176047048238,-0.13920556822273616,0.32557302292091567,-1.2533924929084888,-1.1522754162263993,-0.06129607272085279,0.0032401296051841467,-0.0020400816032628585,-0.5533421336853496,-0.001800072002878601,-0.0038401536061481215,-0.0024000960038400776,-22.419479915609454,-6.769733792495319,44.801296343040846,-2.2462634987792245,1.1807233976677003,-5.364553561750045,-0.30241382545065515,-0.20164723296888992,-0.1728276488295286,0.4115479999999999,-0.31165799999999994,-0.580287,0.010746999999999951,0.06745900000000005,-0.933877,0.40080099999999996,0.379117,0.35358999999999996,0.0,0.991878098922254,single,-0.580287
160,1.333333,step_acsent,0.35449417976718595,-0.0362414496579753,-0.31969278771150283,1.3870821771342048,1.3992952046563802,0.43845399811983843,-0.013320532821309287,0.0345613824552922,-0.5513020520820787,-0.000360014400573046,-0.0015600624025009636,0.001080043201727465,39.01272095525405,12.3561884753101,-77.4349946756759,-1.987358985538599,4.392351381081773,0.24481958517590463,0.17281382482965676,0.2736218893132267,0.41763341000449794,0.40848299999999993,-0.31106800000000007,-0.582217,0.007789999999999964,0.06774799999999992,-0.9312039999999999,0.40069299999999997,0.378816,0.34898699999999994,0.0,0.9967811758591432,single,-0.582217
161,1.341667,step_acsent,0.023398128149741893,-0.17242620590353358,0.35001199904009045,-1.4350522293089578,-1.2148457483906827,-0.16907537665014438,-0.023638108951284674,0.07595392368611258,-0.5109191264698902,0.0009599232061444868,0.0015598752099881214,0.000719942404608365,-39.72834792625994,-16.340863480388872,80.35814575853205,-1.2380100947894868,4.966707611089652,4.845563428388439,0.15837984241871345,0.3743625644935379,-0.043208638963175755,0.408091,-0.308998,-0.589392,0.007603000000000026,0.06919799999999998,-0.934115,0.40048799999999996,0.378196,0.344723,0.0,0.9967200185051406,single,-0.589392
162,1.35,step_acsent,0.26617064682587477,-0.09228369134765466,-0.17688707548301327,0.7410740800428556,0.9972255256875843,0.1623777872672332,-0.0486019440777609,0.07980319212768025,-0.4014160566422571,0.0012000480019145944,-0.0010800432017324612,-0.0002400096003842512,29.133867595839266,9.617486446163149,-63.23041815949772,-2.9957800463789503,0.4619306902157215,13.14089401507635,0.028816128137537905,-0.31680288152172525,-0.11519884855305405,0.40546799999999994,-0.307564,-0.5912630000000001,0.005394999999999928,0.06995799999999996,-0.932643,0.400073,0.37752199999999997,0.3413799999999999,0.0,0.997279597082138,single,-0.5912630000000001
163,1.358333,step_acsent,0.12660506420257264,-0.1437657506300304,0.15936637465498715,-0.4948582057142531,-0.6783608775065866,0.2617934988095884,-0.021840873634934133,0.09312372494899868,-0.23088923556942265,0.0006000240009639748,-0.0024000960038292525,0.0008400336013440688,-16.748539856390664,-6.17809423765465,40.35202809768433,3.2114569114156986,1.5985278796734126,20.46403709022393,-0.07200576034448879,-0.15841267275852675,0.12961036862214448,0.404231,-0.30559,-0.594515,0.004344999999999932,0.07113600000000009,-0.933964,0.3998860000000001,0.37672600000000006,0.339449,0.08347038583557848,0.9956455176093041,single,-0.594515
164,1.366667,step_acsent,0.23950083993280327,-0.11939044876409413,-0.03167746580274058,0.14692395470502284,0.12166856083571312,0.30147681293596584,-0.008999280057600994,0.20506359491240736,-0.29661627069834545,0.0002399808015427761,-0.002519798416132541,0.000479961603071398,13.546409374877582,2.9248022397331495,-22.923426980768692,1.5408679598431776,13.431709858820234,-7.886613286407764,-0.04320172779232013,-0.014363140425160495,-0.043205183378049926,0.40215999999999996,-0.302886,-0.596723,0.002350999999999992,0.07211000000000001,-0.933696,0.39980899999999997,0.374996,0.33697299999999997,0.0,0.995706161396361,single,-0.596723
165,1.375,step_acsent,0.30553222128884683,-0.11028441137645645,-0.13128525141006234,0.30482272263917326,0.3684373825250637,0.40992871502389266,-0.09000360014400999,0.15588623544941876,-0.16572662906516,0.003600144005757202,-0.0004800192007685152,-0.00048001920076768247,7.9240827260343405,1.0927681972444216,-11.953412409375094,-9.720907246659035,-5.9015191963265385,15.707385291394054,0.4032357139342922,0.24478329717557237,-0.11520230455287282,0.398864,-0.300668,-0.5970099999999999,-0.00016499999999997073,0.073025,-0.9326059999999999,0.39902899999999997,0.373693,0.335596,0.09220619990416862,0.9938940207518455,single,-0.5970099999999999
166,1.383333,step_acsent,0.11124444977799347,-0.11316452658106753,0.08676347053882585,0.07247300868796026,-0.11974277634841544,0.43379832042343225,0.025681027241082253,0.1017640705628253,-0.031561262450499894,0.024000960038399112,0.027841113644547232,-0.018960758430337198,-23.315465199910612,-0.3456276496593192,26.166893309599207,13.882710594634982,-6.494919583174602,16.100488013279893,2.4481958517511213,3.3986718883134532,-2.217777418645108,0.3981509999999999,-0.29887699999999995,-0.597996,-0.0008920000000000039,0.07420000000000004,-0.933487,0.3990429999999999,0.373077,0.335491,0.31733793721478276,0.9310659725214868,single,-0.597996
167,1.391667,step_acsent,0.2399808015358755,-0.10679145668345807,-0.08219342452602957,0.4520900812095351,0.37474536912500966,0.3905940102984264,0.06083513318934861,0.056155507559391034,-0.08723302135829465,0.0009599232061444612,-0.0002399808015427761,-0.0013198944084478015,15.44712644083046,0.7647072111362377,-20.27320555133839,4.218155261371021,-5.472589753231811,-6.680076662802295,-2.764703243611048,-3.3694617765886483,2.116734343879201,0.39665799999999996,-0.29751900000000003,-0.5980380000000001,-0.0028839999999999977,0.07508799999999993,-0.932813,0.39954199999999995,0.37260699999999997,0.33477499999999993,0.29955636373620237,0.9972506745290609,single,-0.5980380000000001
168,1.4,step_acsent,0.27877115084603205,-0.07908316332654293,-0.18456738269531422,0.9225779809645142,0.5643428176577264,0.5769924623085833,0.13332533301333185,0.0619224768990785,0.045361814472584715,0.003600144005757202,0.0004800192007685152,0.0007200288011519401,4.655028118343561,3.325128207958166,-12.28536639497007,8.6991719457559,0.6920640033226355,15.912016780376884,0.31683916952031266,0.08640345641561237,0.24480057717505824,0.3954460000000001,-0.29634399999999994,-0.596122,-0.005176999999999987,0.07575100000000001,-0.931269,0.40062300000000006,0.37209499999999995,0.335147,0.2435946580299621,0.9938288537059365,single,-0.596122
169,1.408333,step_acsent,0.2589703588143472,-0.09276371054840983,-0.1724468978759146,0.9386034005327503,0.6458079006146443,0.5220211490964765,0.17448697947918407,0.0804032161286442,0.05868234729388613,0.0022800912036470555,0.0009600384015370048,0.000960038401536172,-2.3761900914057947,-1.6417313358774346,1.454516358982288,4.939595159708568,2.2177774186445913,1.5985278796713291,-0.15841267276012522,0.057604608276548806,0.02880230413827286,0.39474200000000015,-0.294901,-0.594196,-0.007315999999999989,0.07653199999999993,-0.929824,0.40205800000000014,0.37143299999999996,0.33562800000000004,0.1651949113641767,0.9955771542086701,single,-0.594196
170,1.416667,step_acsent,0.22522198224142706,-0.06575473962083074,-0.10379169666426939,0.28318727245178754,0.4043145588745023,0.448879363652776,0.1294696424285878,0.08411327093832739,0.0740340772738236,0.002399808015361217,0.00035997120231417377,0.0,-4.049481230252075,3.240817245929878,8.237965108188927,-5.401648314206518,0.445170963484912,1.84206023277391,0.014364868216242334,-0.0720023037224433,-0.11519539255293859,0.39394399999999996,-0.293652,-0.592714,-0.009172999999999987,0.07708300000000001,-0.928959,0.40311699999999995,0.37073500000000004,0.336245,0.21462269003067896,0.9959555738708524,single,-0.592714
171,1.425,step_acsent,0.18060722428896583,-0.108844353774148,-0.01188047521900378,-0.13949349482446957,0.00037199748033513494,0.3027651022508217,0.11268450738029602,0.035281411256444954,0.12828513140525236,0.00840033601344213,-0.0001200048001954564,-0.0014400576023038418,-5.353985113699801,-5.170960536819454,11.029787764942279,-2.014296777666085,-5.860057564128355,6.510386911247786,0.7200921634562353,-0.057599424278125734,-0.17281382482945118,0.393378,-0.29245100000000007,-0.591546,-0.01060799999999995,0.07798899999999998,-0.928872,0.40398599999999996,0.37044000000000005,0.337326,0.20940840455561244,0.9857937990662962,single,-0.591546
172,1.433333,step_acsent,0.18672746909876586,-0.08772350894036288,-0.056522260890436035,0.1524119327697512,0.11842585633753058,0.40490919442186285,0.05544221768870355,0.04380175207008371,0.10860434417376665,0.005160206408258207,-0.0014400576023055455,0.0018000720028802666,0.7344587555262313,2.534602764164805,-5.357228569714708,-6.8693495369726385,1.0224817969085362,-2.3617889393358804,-0.38883110586630903,-0.15841267276012252,0.3888311058663312,0.39228399999999997,-0.29135500000000003,-0.5901700000000001,-0.012120999999999937,0.078708,-0.928386,0.4044049999999999,0.37006300000000003,0.33821599999999996,0.2840567425349335,0.9905804937482932,single,-0.5901700000000001
173,1.441667,step_acsent,0.08687305015599381,-0.16054715622750793,0.1852651787856945,-0.7863956082399487,-0.8395743113216059,0.038015027206527524,-0.02315814734819849,0.018118550515960053,0.081713462922964,0.005639548836095379,-0.005879529637624834,0.002879769618430053,-11.981571747392763,-8.738138623367469,29.01217178739245,-9.431289301284071,-3.0817376474830165,-3.22664761828683,0.05751649002125847,-0.5326940287160132,0.12955334959800557,0.391367,-0.28986599999999996,-0.591033,-0.012797999999999976,0.0799970000000001,-0.929906,0.404165,0.36986300000000005,0.338873,0.3552620021838033,0.9855983746201218,single,-0.591033
174,1.45,step_acsent,0.2118084723388975,-0.09756390255609745,-0.0734429377175162,-0.01906873217556269,0.09232286187218858,0.2176754396592333,-0.08136325453017672,0.001320052802110086,-0.0006000240009573131,0.006120244809781915,-0.005160206408258207,0.0019200768030723952,14.992850375963618,7.558292772280217,-31.046215829018728,-6.984892257527752,-2.0159003616764815,-9.878013551412703,0.05768582427535582,0.0863222404136125,-0.11516774455270212,0.38892400000000005,-0.289042,-0.5904259999999999,-0.01451200000000008,0.08076700000000003,-0.9292779999999999,0.40343600000000013,0.36980900000000005,0.33885200000000004,0.36437304270798515,0.9862793928668117,single,-0.5904259999999999
175,1.458333,step_acsent,0.24924996999879506,-0.09864394575782731,-0.13212528501138707,0.06785524028260558,0.25608504278822514,0.24311949400008825,-0.06984279371175714,-0.025201008040319727,-0.024600984039362433,0.0057602304092220285,-0.004560182407294111,0.0014400576023038418,4.493159445565452,-0.12961036862232556,-7.042163361798853,1.3825105986342705,-3.1826546072758126,-2.880230413825117,-0.043203456205433796,0.07200576034610413,-0.05760460827655646,0.38626499999999997,-0.28843,-0.5895300000000001,-0.016541000000000028,0.08155100000000004,-0.928165,0.402806,0.36998100000000006,0.3386349999999999,0.3696339016523906,0.9875223217244782,single,-0.5895300000000001
