frame_id,timestamp,gait_type,root_linear_velocity_x,root_linear_velocity_y,root_linear_velocity_z,root_angular_velocity_x,root_angular_velocity_y,root_angular_velocity_z,left_linear_velocity_x,left_linear_velocity_y,left_linear_velocity_z,right_linear_velocity_x,right_linear_velocity_y,right_linear_velocity_z,root_acceleration_x,root_acceleration_y,root_acceleration_z,left_acceleration_x,left_acceleration_y,left_acceleration_z,right_acceleration_x,right_acceleration_y,right_acceleration_z,left_pos_rel_x,left_pos_rel_y,left_pos_rel_z,right_pos_rel_x,right_pos_rel_y,right_pos_rel_z,step_length,step_width,step_height,left_contact_prob,right_contact_prob,support_type,max_foot_height
1,0.008333,stand,0.19992799711989157,0.24552982119284678,0.039001560062404864,0.5589541851001258,0.7432569021254712,-0.4189867496993445,0.005880235209404265,-0.0060002400095864,0.015240609624385228,-0.011520460818430936,0.011400456018235477,-0.006360254410176106,0.0,0.0,0.0,0.0,0.0,0.0,0.0,0.0,0.0,-0.06020000000000003,-0.09330700000000003,-0.911934,0.07248500000000002,0.15924799999999983,-0.903723,0.13268500000000005,0.25255499999999986,0.008210999999999968,0.9709953917448038,0.8888716030070343,double,-0.903723
2,0.016667,stand,0.17182625389968667,0.2507799376049826,0.03683705303575068,0.38259635755052485,0.28061394078886814,-0.2732965527049196,0.009719222462202751,-0.004079673626120652,0.02135829133669361,-0.015838732901370407,0.0019198464122889367,0.01175905927525808,-3.371939431270085,0.6299635723705059,-0.25972006559325433,0.4606416190062978,0.23044953005348548,0.7340630804305711,-0.5181511978569079,-1.1375821461418933,2.1741437107552417,-0.06155100000000002,-0.09543100000000004,-0.912063,0.07092100000000001,0.15717399999999992,-0.903932,0.13247200000000003,0.25260499999999997,0.008131,0.9603038054234787,0.8856569044237128,double,-0.903932
3,0.025,stand,0.18924756990278885,0.2464898595943838,-0.007560302412100714,-0.14299269111978416,0.17286160831609337,-0.4664777065453327,0.00408016320652568,-0.002760110404402283,0.015360614424576523,-0.01500060002400597,0.00432017280692992,0.013440537621504146,2.0906415460341026,-0.5148299544700318,-5.32789576957295,-0.6767141792484185,0.15835392076303476,-0.7197500194548284,0.10057996848247167,0.2880506893844934,0.20178547296844654,-0.06309399999999998,-0.09750799999999993,-0.9118719999999999,0.06921900000000003,0.15515600000000007,-0.9037569999999999,0.13231300000000001,0.252664,0.008114999999999983,0.9731147284880899,0.8845178824763406,double,-0.9037569999999999
4,0.033333,stand,0.17544701788072414,0.22668906756270604,-0.028561142445693084,-0.06854295355934478,0.3751833535729879,-0.4727785887888376,0.005640225609026671,-0.006360254410186099,0.023520940837633713,-0.008280331213246818,0.007920316812660443,0.012720508820353044,-1.6561324879472825,-2.376190091404987,-2.5202016120955686,0.1872149768991949,-0.43203456207654095,0.9792783407004908,0.8064645158717332,0.4320345620701455,-0.08640691241462875,-0.06450900000000004,-0.09945000000000004,-0.911438,0.06768799999999997,0.15333299999999994,-0.903413,0.132197,0.252783,0.008024999999999949,0.9583166820281757,0.8912160704860443,double,-0.903413
5,0.041667,stand,0.11015118790496452,0.27009839212863,0.0433165346772325,0.5745776164555289,0.30189068658719403,-0.09966006710837808,0.00731941444684158,0.014998800095984005,-0.01859851211903076,-0.0049196064314804095,0.005519558435324033,0.006359491240701275,-7.8348728072665725,5.208702251730737,8.624631284248329,0.20148654161445995,2.5628815102195945,-5.053930040396504,0.40325471343489416,-0.28806795984358163,-0.7632610486743183,-0.06536600000000004,-0.10157600000000011,-0.911954,0.06672900000000004,0.15112799999999993,-0.903721,0.13209500000000007,0.25270400000000004,0.008233000000000046,0.9583519213059641,0.9014158397118549,double,-0.903721
6,0.05,stand,0.12936517460698707,0.22980919236768138,-0.014520580823237459,0.23164892211686033,0.42476516977847384,-0.2842365849724969,0.011040441617675747,0.0030001200048198466,0.027121084843394212,-0.010080403216138727,0.0025201008040380123,0.005880235209408428,2.305770635068109,-4.834897367208525,-6.940731489315969,0.44654112214498587,-1.4398992069079755,5.48657109833493,-0.619320386974477,-0.35994931372687156,-0.05751302427611265,-0.06635199999999997,-0.10346599999999984,-0.9116070000000001,0.06556699999999993,0.1492340000000001,-0.903551,0.1319189999999999,0.2526999999999999,0.008056000000000063,0.9509409280606189,0.8995414654936308,double,-0.903551
7,0.058333,stand,0.11472458898355417,0.23124924997000024,0.023520940837630382,0.3776212567857991,0.02911212502492864,-0.16566959797369665,0.011880475219003988,0.0090003600143796,0.03072122884915388,-0.007440297611891932,0.0012000480019279385,0.0003600144005755504,-1.7569405524340453,0.17281382483125599,4.565165205912377,0.10080806448196822,0.7200576034513085,0.43203456207364294,0.3168253455234363,-0.15841267276011925,-0.6624529951797525,-0.06720899999999996,-0.10531800000000002,-0.911547,0.06454900000000008,0.14731700000000014,-0.903744,0.13175800000000004,0.25263500000000016,0.007803000000000004,0.9430900791254797,0.9093949194691029,double,-0.903744
8,0.066667,stand,0.10271178305736486,0.21238300935925714,-0.0035997120230350957,0.1905516702668557,0.30358297027820486,-0.24581857589471207,0.012838972882165612,0.01751859851214321,0.021838252939764175,-0.0063594912407104335,0.003479721622250385,-0.0013198944084469788,-1.4414213974309222,-2.2637677718674225,-3.2542180058393897,0.11501051873789579,1.0221068511835383,-1.0658718393796138,0.12968638963060938,0.2735389513225877,-0.20157293124820364,-0.06795800000000007,-0.10694199999999987,-0.911335,0.06363999999999992,0.14557599999999993,-0.903725,0.131598,0.2525179999999998,0.007610000000000006,0.9486664012463635,0.9116192887626255,double,-0.903725
9,0.075,step_acsent,0.1260050402016076,0.2037681507260265,-0.010560422416893922,0.049704673476142866,0.21626207313790424,-0.15938656349686758,0.015600624024969952,0.025801032041264174,0.019680787231489805,-0.004680187207489653,0.0006000240009639698,-0.005280211208448626,2.795302669415908,-1.033824388963236,-0.8353186600094602,0.33141139359226474,0.9939317807657472,-0.2589062412425744,0.20152454496829258,-0.34557753765587634,-0.47525702628124933,-0.068878,-0.108425,-0.911083,0.06255099999999991,0.14388299999999998,-0.9036810000000001,0.1314289999999999,0.252308,0.007401999999999909,0.9399906000323008,0.9141778331197769,double,-0.9036810000000001
10,0.083333,step_acsent,0.11208448337933392,0.18660746429856856,-0.03360134405376908,-0.10546733235899027,0.2453468049702605,-0.2514646195062687,0.015600624024956603,0.01992079683188652,0.034081363254530095,-0.006000240009599718,0.0024000960038558753,-0.009360374414976792,-1.670533640018441,-2.0593647458847864,-2.7650211972729073,-1.6019077340263434e-12,-0.7056564513833733,1.7281382482947651,-0.1584126727601181,0.21601728103827,-0.48963917035019344,-0.06968200000000002,-0.10981399999999986,-0.910519,0.06156699999999993,0.14234800000000014,-0.9034789999999999,0.13124899999999995,0.252162,0.007040000000000046,0.9292548207831526,0.9106424487202271,double,-0.9034789999999999
11,0.091667,step_acsent,0.12514998800096194,0.16186705063595458,-0.0405567554595572,-0.12582422125731918,0.5283680680210197,-0.23465984098980683,0.024118070554356476,0.01943844492440552,0.05195584353251694,-0.005639548836095426,-0.0019198464122889385,-0.0095992320614347,1.5677351357845006,-2.9686121505416363,-0.8345826020864081,1.0220118225821788,-0.057877598689824734,2.144766052074257,0.04327947846223813,-0.5183516218076334,-0.028660624724971023,-0.07052400000000003,-0.1110009999999999,-0.909748,0.06047699999999989,0.14098300000000008,-0.903221,0.13100099999999992,0.251984,0.0065269999999999495,0.8991846552475566,0.9159006805537835,double,-0.903221
12,0.1,step_acsent,0.11304452178087095,0.16728669146767264,-0.03288131525260965,-0.197949445044574,0.18341224004165685,-0.20537355528800605,0.013800552022078019,0.031201248049913206,0.010800432017281491,-0.0062402496099773115,-0.003600144005757166,-0.008280331213248476,-1.4527140549731172,0.6503829151227715,0.9210896684204418,-1.2381517499434116,1.411592838774472,-4.938846935705678,-0.07208697634488001,-0.20164377696726582,0.15827443275965714,-0.07135100000000005,-0.1121350000000001,-0.909384,0.05948299999999995,0.139559,-0.903016,0.130834,0.2516940000000001,0.006367999999999929,0.9403570240759835,0.9180271935011094,double,-0.903016
13,0.108333,step_acsent,0.0374414976599039,0.21072842913714993,0.09036361454458229,0.5797741549510409,-0.20586815881315285,0.3664608170771492,0.009240369614783847,0.022920916836679756,0.012840513620544352,-0.004920196807867247,-0.0018000720028919094,-0.009000360014400424,-9.072725803548195,5.2132170490192395,14.789983174990045,-0.5472437786264461,-0.9936794927677255,0.24481958517495048,0.15841267276011828,0.21601728103507237,-0.0864069124147304,-0.07158600000000004,-0.11369999999999991,-0.91003,0.059130000000000016,0.13778800000000002,-0.903844,0.13071600000000005,0.25148799999999993,0.006186000000000025,0.9535830595671988,0.9207830388418363,double,-0.903844
14,0.116667,step_acsent,0.08939284857211362,0.16354691624670048,-0.0035997120230350926,0.03321700950501895,0.26655228406170695,0.07949414793099442,0.00911927045835912,0.020398368130549953,0.007439404847612131,-0.005399568034565961,-0.0031197504199761807,-0.004559635229182058,6.233663416391849,-5.661328640562683,-11.274697212337088,-0.014530736312062243,-0.3026816302051597,-0.6480812062553655,-0.05751994560819694,-0.15834874215074035,0.5328443466784691,-0.07225500000000007,-0.11489299999999991,-0.909938,0.05833999999999995,0.13639899999999994,-0.9038520000000001,0.13059500000000002,0.25129199999999985,0.006085999999999925,0.960750114629721,0.9262646951421156,double,-0.9038520000000001
15,0.125,step_acsent,0.07212288491539219,0.16944677787111123,0.005160206408244841,0.04412194259878612,0.19923379864549748,0.07989748614077802,0.0030001200048065256,0.024720988839545016,-0.027841113644545338,-0.005160206408258164,-0.003840153606121443,-0.002640105604224313,-2.072478537948091,0.7080117153979066,1.0512322610440348,-0.734327427523413,0.5187352344887876,-4.233831572321793,0.028724544138701194,-0.08645184041104802,0.2303527691056938,-0.07283099999999998,-0.11609899999999995,-0.9102129999999999,0.05769599999999997,0.13495500000000016,-0.903917,0.13052699999999995,0.2510540000000001,0.006295999999999968,0.9377447990076189,0.9254516117149905,double,-0.903917
16,0.133333,step_acsent,0.05124204968198186,0.17100684027361196,0.0020400816032695,0.07720398779280653,0.24463081133139022,0.09189165334752976,0.006720268810745822,0.010440417616698446,0.011160446417856209,-0.003480139205561708,0.0013200528021100728,-0.0021600864034557986,-2.505800460027639,0.1872149768991632,-0.37442995379519245,0.4464357141412808,-1.713737096225436,4.68037442246508,0.2016161289687333,0.6192495389693402,0.05760460827655276,-0.07320199999999999,-0.11743700000000001,-0.910137,0.05724000000000007,0.13354100000000013,-0.903952,0.13044200000000006,0.25097800000000015,0.006184999999999996,0.9721751561277421,0.9309775446709805,double,-0.903952
17,0.141667,step_acsent,0.027357811375090774,0.15634749220063082,0.005039596832251811,0.19903574190715106,0.3682396010279463,0.13493593348062394,0.005039596832265132,0.0020398368130736524,0.013318934485241211,0.0071994240460702096,-0.00731941444685492,0.005279577633788761,-2.8658793264808184,-1.7589810502737189,0.3599130344351234,-0.20166450425734264,-1.0079890573103927,0.2589978482583402,1.281445074589866,-1.0366531376247916,0.8926882694077966,-0.0733879999999999,-0.11872299999999991,-0.910068,0.05707200000000001,0.132177,-0.90395,0.1304599999999999,0.2508999999999999,0.006117999999999957,0.9760235945680218,0.9195788783510734,double,-0.90395
18,0.15,step_acsent,0.021840873634947237,0.16896675867035577,-0.009480379215161426,0.07690221581437023,0.07781171587238314,0.0991933769276315,0.003600144005757166,-0.0008400336013548856,0.009240369614784666,-0.0008400336013415624,-0.0063602544101860935,-0.007920316812672095,-0.6620590111776709,1.5143725512690427,-1.7424668243625614,-0.17274124883090902,-0.3455982736623708,-0.489447362349279,-0.964773508629757,0.11510380855260119,-1.5840506956031253,-0.07353999999999994,-0.12013800000000008,-0.909912,0.05688300000000002,0.13071599999999983,-0.903937,0.13042299999999996,0.2508539999999999,0.005975000000000064,0.9834125948105004,0.9232622665965857,double,-0.903937
19,0.158333,step_acsent,0.003240129605184114,0.15912636505459465,-0.0022800912036470937,0.15449800752821996,0.19806703118193555,0.09503561402788331,-0.0019200768030740415,-0.013440537621491644,0.007920316812672927,-0.003840153606148083,0.0004800192007818336,-0.003240129605184114,-2.2321785707144017,-1.1808944696701191,0.864069124146685,-0.6624529951795516,-1.5121209672551,-0.1584126727603189,-0.3600288017288513,0.8208656679428683,0.561644930695785,-0.07358299999999995,-0.1215759999999999,-0.909827,0.056823999999999986,0.129394,-0.903945,0.13040699999999994,0.2509699999999999,0.005882000000000054,0.9738027691827327,0.9327677671727548,double,-0.903945
20,0.166667,step_acsent,0.031677465802740785,0.13714902807774093,0.014158867290610914,0.11129897622448455,0.271072871810098,0.3413594843993183,0.002399808015361169,-0.02003839692824911,0.02099832013438858,-0.003959683225335938,-0.003359731221492315,0.0013198944084469777,3.412207367117428,-2.637069471664711,1.9725172179335242,0.5183447106353739,-0.7916797824283008,1.5692348598170915,-0.014342406909989763,-0.46073319201753593,0.5471591089070179,-0.07382699999999998,-0.12288599999999983,-0.90977,0.056526999999999994,0.1282230000000002,-0.904052,0.13035399999999997,0.251109,0.005718000000000001,0.9514594705875445,0.9338898689857926,double,-0.904052
21,0.175,step_acsent,0.00480019200768512,0.13704548181929693,0.00036001440057305316,0.11581017000287275,0.2768897021160547,0.27034294563893435,0.0106804272170894,-0.024720988839571707,0.02808112324493047,-0.002040081603269507,0.0020400816032561833,-0.0022800912036479337,-3.2254018714815476,-0.01242604805520204,-1.6559285839479054,0.993714052769501,-0.561933506698981,0.8499703720799121,0.23036140910433645,0.6480034591081857,-0.43201555407355335,-0.07377800000000001,-0.12423400000000018,-0.909539,0.05646999999999991,0.12709799999999993,-0.9040739999999999,0.13024799999999992,0.2513320000000001,0.005465000000000053,0.9351551360415845,0.9392211334669235,double,-0.9040739999999999
22,0.183333,step_acsent,0.012840513620540998,0.12756510260408174,0.006480259210368228,-0.05939125013226444,0.025907123002548046,0.20039855354238523,0.008520340813624405,-0.027481099243947257,0.026761070442816975,-0.0026401056042201455,-0.0030001200047931973,-0.002880115204608564,0.9648771886302498,-1.1376910134663605,0.7344587555256414,-0.25922073724528893,-0.33122649758496914,-0.15841267276052978,-0.07200576034449035,-0.6048483869014013,-0.0720057603456894,-0.07381400000000005,-0.1255259999999998,-0.90937,0.056340999999999974,0.12601000000000018,-0.904152,0.13015500000000002,0.251536,0.005218000000000056,0.9345111986994594,0.9396099212961526,double,-0.904152
23,0.191667,step_acsent,-0.00011999040077138885,0.13102951763859993,0.01535877129829816,-0.040934507728141674,-0.06867755877425631,0.23312202678175153,-0.00035997120230084497,-0.03623710103192035,0.022678185745140567,-0.00683945284376934,-0.00863930885530021,-0.0022798176145906127,-1.5551360716717513,0.4156965484183092,1.0653362236536985,-1.0655521977352103,-1.050636163663677,-0.4899069711634754,-0.5038813582372439,-0.6766485301784265,0.07202994840628157,-0.07381599999999999,-0.12691999999999992,-0.909309,0.05628500000000003,0.12484600000000001,-0.904299,0.13010100000000002,0.25176599999999993,0.00501000000000007,0.9287501037202472,0.931146234374042,double,-0.904299
24,0.2,step_acsent,0.014640585623432905,0.12024480979238528,0.020520820832837166,-0.13861879408341074,-0.08680034393388912,0.19128132570627332,0.011760470418821842,-0.03780151206049021,0.0241209648385935,-0.0013200528021100728,-0.0013200528021100728,-0.003720148805951792,1.771339976503574,-1.2942167102141664,0.6194707229735991,1.4545111749817206,-0.1877368329016995,0.17314041683102482,0.6623544991790786,0.8783458602172243,-0.17284665682961453,-0.07384000000000002,-0.12823699999999993,-0.9092790000000001,0.05615199999999998,0.12383300000000008,-0.904501,0.129992,0.25207,0.00477800000000006,0.9227363114739164,0.9452828644361704,double,-0.904501
25,0.208333,step_acsent,0.014400576023028713,0.0999639985599527,0.019920796831873262,-0.16968003096002834,-0.013781493310549184,0.11955946289544056,-0.0036001440057705013,-0.03948157926317347,0.012360494419776692,-0.0031201248050019893,0.010800432017271535,0.013080523220928628,-0.028802304140668828,-2.433794699679903,-0.07200576034608246,-1.84334746484968,-0.2016161289671503,-1.4113129027741311,-0.21601728103827206,1.4545163589801557,2.0161612896772425,-0.07399,-0.12939900000000004,-0.909342,0.056006,0.12308999999999992,-0.904558,0.129996,0.25248899999999996,0.0047840000000000105,0.9307874056042249,0.9234137636138926,double,-0.904558
26,0.216667,step_acsent,0.01475881929446786,0.08723302135828191,0.014398848092153693,-0.23119419139523548,0.048889852761048055,0.04288639340338695,0.009479241660673286,-0.04919606431485734,0.020998320134389414,0.00035997120231416656,-0.015718742500585685,-0.011039116870650553,0.04298575371240056,-1.5275950565959646,-0.6625808422989637,1.56940072791502,-1.1656449546056944,1.0364561692599847,0.417578114628768,-3.182046378432589,-2.8941252809670215,-0.07403400000000004,-0.13053599999999999,-0.9092870000000001,0.05588599999999999,0.12223200000000012,-0.9047700000000001,0.12992000000000004,0.2527680000000001,0.004516999999999993,0.9094609014016699,0.9228113185455178,double,-0.9047700000000001
27,0.225,step_acsent,0.021480859234360862,0.07176287051483235,0.02016080643225079,-0.26548606912044564,0.07699170097360516,-0.0858278992163673,0.057002280091203984,-0.049201968078725684,0.043561742469699016,0.00024000960037759357,0.004800192007658457,0.0078003120124808,0.8066770598695544,-1.8564923609083823,0.6914626593180239,5.702992731372934,-0.0007084800034015504,2.7077189889967097,-0.014395968071111591,2.462370635814728,2.2608218988517144,-0.07373799999999997,-0.1315440000000001,-0.909092,0.05570900000000001,0.12167399999999984,-0.904873,0.12944699999999998,0.25321799999999994,0.004218999999999973,0.8550122705822969,0.9425398115951816,double,-0.904873
28,0.233333,step_acsent,0.018480739229567663,0.07200288011519662,0.01524060962438355,-0.2920434818866178,0.11824456786648258,-0.1395538698589292,0.03600144005759831,-0.04500180007200455,0.02748109924396974,-0.0024000960038425517,-0.01272050882034554,-0.01248049921996878,-0.36002880172725266,0.028802304135877997,-0.5904472348334616,-2.5202016120971624,0.5040403224194325,-1.9297543772626022,-0.316825345520238,-2.1025682020885617,-2.433794699681935,-0.07359199999999999,-0.13251900000000005,-0.90899,0.055535,0.12096799999999996,-0.905104,0.129127,0.253487,0.003885999999999945,0.8935878490699902,0.9311708183176362,double,-0.905104
29,0.241667,step_acsent,0.014758819294454587,0.05471562275018155,0.026877849772018538,-0.2421239152349907,0.15168906786442138,-0.23873419729666442,0.03203743700504174,-0.04511639068873684,0.015958723302136008,-0.0007199424046016923,0.005039596832265132,0.004799616030717358,-0.446594664640399,-2.074304939406661,1.39635710914747,-0.4756423149215959,-0.013749774025952516,-1.3825745070594861,0.20160230372460564,2.1310421949376908,2.0734479542460016,-0.07344799999999996,-0.133351,-0.909081,0.055406000000000066,0.12055400000000005,-0.905288,0.12885400000000002,0.25390500000000005,0.0037930000000000463,0.9040172624307299,0.9504090290879696,double,-0.905288
30,0.25,step_acsent,0.016080643225738437,0.04572182887315065,0.029041161646474894,-0.21450050241123167,0.13061655673477504,-0.27902408539478435,0.018240729629190072,-0.02232089283571575,0.03768150726028976,-0.004320172806916593,-0.0026401056042201455,-0.006360254410176101,0.1586252167627324,-1.0792984371811942,0.25960780924713234,-1.6556711119466765,2.7355691651291334,2.606838348512388,-0.43204493007499073,-0.9216011564244895,-1.339238022428111,-0.07343,-0.13391799999999998,-0.9090090000000001,0.05523599999999995,0.12015100000000012,-0.905583,0.12866599999999995,0.2540690000000001,0.00342600000000004,0.9209282593007395,0.9521910263975026,double,-0.905583
31,0.258333,step_acsent,0.004200168006721149,0.041881675267002705,0.021600864034556393,-0.19802252084449165,0.06877356142688015,-0.3728127635965203,0.05112204488178657,-0.04464178567143164,0.07680307212288531,-0.007440297611905274,-0.001320052802110077,-0.007920316812672953,-1.425714054844272,-0.46083686621240283,-0.8928714282873538,3.9459156669382676,-2.6786142848573085,4.69477557453446,-0.3744299537967945,0.158412672760119,-0.18721497689869873,-0.07303900000000008,-0.13463899999999995,-0.908549,0.05513899999999994,0.1197910000000002,-0.905829,0.12817800000000001,0.25443000000000016,0.0027200000000000557,0.8291763060577875,0.954555367123514,double,-0.905829
32,0.266667,step_acsent,-0.002879769618433403,0.03635709143270506,0.009359251259901898,-0.16408424170515906,0.13815835639960336,-0.46240542221279307,0.01691864650828625,0.01367890568753868,-0.012718982481400874,-0.0074394048476129635,-0.0002399808015427777,-0.009839212862970802,-0.849524553054301,-0.6628970283534484,-1.468876022876708,-4.104079478461758,6.997923129226093,-10.74178720953757,0.00010712314522565344,0.1295982722062993,-0.23024910610725308,-0.072874,-0.13482800000000017,-0.908733,0.055100999999999956,0.11948599999999998,-0.905989,0.12797499999999995,0.25431400000000015,0.0027439999999999687,0.9579971702063386,0.9519975986976603,double,-0.905989
33,0.275,step_acsent,-0.017640705628226044,0.03636145445817124,0.002400096003842544,-0.18379623572316928,0.04016993454715513,-0.5539671939491423,0.07956318252729706,-0.027121084843374114,0.05064202568102688,-0.007920316812673734,0.0021600864034383048,-0.011880475219008934,-1.7713831765021697,0.0005235839993013372,-0.8351320360085593,7.5176450280823905,-4.896194711497975,7.603625124496279,-0.057711744277063305,0.28801958538114397,-0.2449612811758218,-0.07206400000000002,-0.13535699999999995,-0.908331,0.05518199999999995,0.11920099999999989,-0.906108,0.12724599999999997,0.25455799999999984,0.002222999999999975,0.8364417533072759,0.953701631921122,double,-0.906108
34,0.283333,step_acsent,-0.021720868834751852,0.016800672026884594,0.002640105604220154,-0.1712365262615193,0.1346804508076659,-0.613455594369245,0.01956078243130021,0.012840513620527717,0.010680427217088567,-0.007680307212282868,0.002880115204611072,-0.012360494419776692,-0.48963917034991217,-2.3473877872658937,0.028802304137478803,-7.200576034561022,4.795583639013793,-4.7955836390181705,0.02880230413906952,0.08640691241722896,-0.057604608276462195,-0.07172,-0.13539000000000012,-0.908264,0.05529899999999999,0.11908499999999989,-0.9062330000000001,0.127019,0.254475,0.002030999999999894,0.9571315149134023,0.954965742637363,double,-0.9062330000000001
35,0.291667,step_acsent,-0.026397888168946216,-0.0005999520038436226,0.008039356851443264,-0.15037163586413355,0.07662398969320186,-0.5998063029482917,0.046676265898724784,0.00227981761458978,0.02807775377969737,-0.006479481641468495,0.0027597792176753356,-0.010199184065274976,-0.5611974243093784,-2.0879078510592994,0.6478583210010925,3.253597728272684,-1.2671821461408599,2.0875121865381314,0.14408754149440509,-0.014439163299224407,0.259336495620556,-0.07111100000000004,-0.1353660000000001,-0.9080969999999999,0.05546499999999999,0.11911300000000002,-0.906385,0.12657600000000002,0.2544790000000001,0.0017119999999999358,0.9091363716588063,0.9622225141850735,double,-0.906385
36,0.3,step_acsent,-0.027481099243973996,-0.008640345613833216,-0.005400216008635768,-0.19657020453098498,0.2168689024484092,-0.6991571315076001,0.05040201608064047,0.011640465618626424,0.023280931237249516,0.029281171246852585,-0.024720988839545058,0.024840993639746345,-0.12999052862447888,-0.9648858286318989,-1.6128132557397175,0.447107906146129,1.1233226933921356,-0.5756417307629743,4.291450004598724,-3.2978240798296485,4.204989524183537,-0.07046200000000002,-0.135197,-0.9078579999999999,0.05593800000000004,0.11897900000000017,-0.906133,0.12640000000000007,0.2541760000000002,0.0017249999999999766,0.9054562796009007,0.9066362466107045,double,-0.906133
37,0.308333,step_acsent,-0.020640825633019232,-0.029161166446656932,-0.011640465618626345,-0.22332217622045,0.18975676387194781,-0.7346414612654671,0.05844233769350932,0.015360614424592281,0.011040441617664877,0.0002400096003775928,-0.0020400816032828165,0.0018000720028794098,0.8208656679412858,-2.4625970038189884,-0.74885990759517,0.9648771886318039,0.44643571414446687,-1.4689175110505925,-3.4850788007290134,2.7218177410611,-2.7650211972719116,-0.06980300000000006,-0.1348259999999999,-0.907669,0.05611199999999994,0.119205,-0.906021,0.125915,0.2540309999999999,0.0016479999999999828,0.8976207125209802,0.978967895245092,double,-0.906021
38,0.316667,step_acsent,-0.025917926565874154,0.013798896088323484,0.021358291336694563,-0.16389465069027206,-0.27257426439108556,-0.585899327550602,0.06131509479242166,0.015478761699069652,0.004919606431485433,0.0029997600192048115,-0.0025197984161325748,0.0031197504199670426,-0.6332014558261281,5.154795120588032,3.9595340719127785,0.34470327560743336,0.014176538814179393,-0.7344414670241756,0.33114355877456614,-0.057561412628961,0.15834874215114475,-0.06907600000000003,-0.13481199999999993,-0.907806,0.056352999999999986,0.11906899999999987,-0.906173,0.125429,0.2538809999999998,0.0016329999999999956,0.8942837203672418,0.9753232130410612,double,-0.906173
39,0.325,step_acsent,-0.005880235209417563,-0.04416176647064952,0.016680667226689025,-0.035852077086622545,0.18992882813057665,-0.6336156117776844,0.04188167526700243,-0.019320772830922487,0.03492139685587404,0.0032401296051841034,-0.0036001440057571543,0.007440297611904392,2.404619147540682,-6.955557729385907,-0.56133734669453,-2.3321036271953854,-4.176111188046561,3.600358865281229,0.028845504137680406,-0.12964665662121386,0.5184864024885792,-0.06867800000000002,-0.13460500000000009,-0.907654,0.05642900000000006,0.11940699999999982,-0.90625,0.12510700000000008,0.2540119999999999,0.0014039999999999608,0.9035797545417832,0.9711634627479668,double,-0.90625
40,0.333333,step_acsent,0.001440057602305536,-0.05064202568104471,0.0106804272170894,-0.17358988488533078,0.12411872603984486,-0.66707181689249,0.058322332893327576,-0.0030001200047932073,0.03156126245049802,0.007920316812673786,0.0,0.003240129605184125,0.8784702762178228,-0.7776622117358941,-0.720057603456095,1.9729578334723616,1.9585566814027746,-0.4032322579354406,0.5616449306959911,0.4320345620733425,-0.5040403224193301,-0.06820399999999993,-0.13420799999999988,-0.90748,0.05648300000000006,0.11982899999999996,-0.906312,0.12468699999999999,0.25403699999999985,0.0011679999999999469,0.8893628487950049,0.974057592314885,double,-0.906312
41,0.341667,step_acsent,0.015838732901370393,-0.07571394288457495,-0.003479721622263704,-0.23056695111915806,0.24769475218059536,-0.7738881946228449,0.05759539236860145,0.014638828893683148,0.01631869450444013,-0.008879289656829664,0.011279097672190834,-0.004559635229182058,1.727702819662208,-3.0083893932721644,-1.6990819341676373,-0.08722588489634332,2.1165045474533644,-1.8289618365800187,-2.0157915130193707,1.3533834499869,-0.9358969083712714,-0.06785600000000003,-0.13345499999999988,-0.9073150000000001,0.05627700000000002,0.12055400000000005,-0.906321,0.12413300000000005,0.25400899999999993,0.0009940000000000504,0.8972891826020348,0.9649574269506147,double,-0.906321
42,0.35,step_acsent,0.018840753630140778,-0.06900276011040365,0.020880835233410285,-0.28810008075024446,0.1021152942101716,-0.5248487800307752,0.05364214568583791,0.005520220808831226,0.015720628825152946,0.01692067682706673,-0.01800072002878589,0.018000720028801712,0.3602568977283563,0.8053741478664718,2.923383758031207,-0.4744085782747571,-1.0942767412518832,-0.07177075234455602,3.09611982286049,-3.5137186728641305,2.707350924995059,-0.0675659999999999,-0.1328339999999999,-0.907358,0.056261000000000005,0.12097900000000017,-0.9063450000000001,0.12382699999999991,0.25381300000000007,0.0010129999999999306,0.9063830083944702,0.9389244640654772,double,-0.9063450000000001
43,0.358333,step_acsent,0.0036001440057704774,-0.06300252010079017,0.018840753630140653,-0.17816999671820333,0.05589564994789977,-0.5878315062741865,0.02868114724588842,0.0170406816272754,0.019080763230529072,0.006840273610954581,0.0019200768030740352,0.004320172806911582,-1.8289463127769394,0.7200576034577529,-0.24481958517576177,-2.995439630379141,1.3825105986372406,0.4032322579354508,-1.209696773804405,2.39059124347292,-1.641731335880244,-0.067357,-0.13216699999999992,-0.907356,0.056288000000000005,0.12152000000000007,-0.906466,0.123645,0.253687,0.0008900000000000574,0.9359455838298837,0.977241595902766,double,-0.906466
44,0.366667,step_acsent,-0.019438444924405485,-0.13378929685624863,0.011039116870648055,0.09272272204236273,0.2790796091172489,-0.6477902407488478,0.04043676505878574,0.025437964962788426,0.008159347252219649,0.005039596832251794,0.00011999040075806724,0.005399568034557635,-2.7644095188596043,-8.49373371195805,-0.9361215214173975,1.4105612926442652,1.0075933927901388,-1.3104650801907143,-0.21606392833006788,-0.21599308883080948,0.12951706595225,-0.06685800000000008,-0.13084000000000007,-0.90738,0.05649199999999999,0.12263599999999997,-0.906513,0.12335000000000007,0.25347600000000003,0.0008669999999999511,0.9192260187407377,0.9790183897515243,double,-0.906513
45,0.375,step_acsent,0.040321612864515036,-0.10692427697107612,0.029161166446657127,-0.2187968257811481,0.29760678729311063,-0.4647135656281767,0.021720868834751852,0.011520460818444288,0.010320412816513014,0.005280211208440308,0.0031201248050019893,0.005400216008640764,7.171493794422257,3.223931343474448,2.1747329384386314,-2.2459973867795435,-1.6701673040134613,0.25933824124485433,0.02887488013782732,0.36003052973046074,7.776000037546099e-05,-0.0670130000000001,-0.129853,-0.907537,0.05619999999999992,0.12355300000000002,-0.9067109999999999,0.12321300000000002,0.253406,0.0008260000000001044,0.9555581503188639,0.9781203509850548,double,-0.9067109999999999
46,0.383333,step_acsent,0.0025201008040246953,-0.09900396015841566,-0.001800072002878589,-0.21616478932784153,0.07861521193069601,-0.6831939626006946,0.019200768030727157,0.061802472098862644,-0.03528141125645066,-0.013200528021114094,0.023400936037434983,-0.021000840033601583,-4.536362901774923,0.9504760365607204,-3.7154972338336485,-0.30242419345070215,6.034082716958896,-5.472437786267105,-2.2177774186432795,2.4337946996799524,-3.168253455207298,-0.06687399999999999,-0.1285130000000001,-0.907816,0.056069000000000035,0.12457300000000004,-0.906871,0.12294300000000002,0.25308600000000014,0.0009449999999999736,0.8771519340500984,0.9337146376319856,double,-0.906871
47,0.391667,step_acsent,-0.00839932805375743,-0.09071274298055894,0.023998080153585045,-0.013509204411749784,-0.014093952720514754,-0.5792507735345642,0.012479001679864756,0.04595632349412309,-0.02111831053515747,-0.00035997120230084497,0.006359491240683785,-0.0037197024238064817,-1.3102266448022695,0.9948664720250433,3.095530616326327,-0.8065474383084226,-1.9013857217110077,1.6994361316646476,1.5407435587728866,-2.044809790826876,2.0735706275252084,-0.06669999999999998,-0.1273740000000001,-0.908192,0.056136000000000075,0.12538199999999988,-0.907102,0.12283600000000006,0.252756,0.0010900000000000354,0.9131781486816907,0.9768062691870464,double,-0.907102
48,0.4,step_acsent,-0.028441137645497508,-0.0907236289451549,-0.009360374414979259,-0.09864949998464821,0.03982752167823649,-0.6444716545258311,-0.01488059522381045,0.036361454458197884,-0.022080883235328922,-0.0037201488059526123,0.005040201608076004,-0.002400096003840046,-2.405113355543021,-0.0013063680062355408,-4.003174675214708,-3.283282959759401,-1.151430341524681,-0.11551334455435575,-0.40323744193588784,-0.1583210887564833,0.15835910476016204,-0.06658700000000006,-0.12631499999999996,-0.9082979999999999,0.056342,0.12617999999999996,-0.907044,0.12292900000000007,0.2524949999999999,0.0012539999999999774,0.9248861440326398,0.9762792128810014,double,-0.907044
49,0.408333,step_acsent,-0.01608064322573849,-0.10080403216128093,-0.012840513620541042,-0.13163645731701323,0.00503397583312585,-0.6994627546859651,-0.021720868834751852,0.018840753630140778,-0.012720508820353077,-0.005160206408258173,0.002520100804038019,-0.005880235209408443,1.4833186631176107,-1.2096967738060795,-0.41763341000381515,-0.820865667939688,-2.102568202094942,1.1232898613915598,-0.17281382482966084,-0.30242419345229704,-0.41763341000460885,-0.06663399999999997,-0.12531800000000004,-0.908297,0.056433000000000066,0.12704099999999996,-0.906986,0.12306700000000004,0.252359,0.0013110000000000621,0.9475971405324088,0.9731912769901404,double,-0.906986
50,0.416667,step_acsent,-0.03119750419965523,-0.12790976721862377,-0.01751859851211655,-0.07610585932747785,0.17724423233604822,-0.7045509886598651,-0.03527717782577588,0.02807775377967905,-0.012598992080633649,-0.00455963522917956,0.00443964482839485,-0.006479481641468495,-1.8138782066134782,-3.2524280126401255,-0.5613252809665832,-1.6266269487669802,1.1083513498366047,0.014580842298947478,0.07206277646731604,0.23032685677427753,-0.07190381954164285,-0.06666800000000006,-0.12401800000000018,-0.908256,0.05665500000000001,0.1281439999999998,-0.906894,0.12332300000000007,0.252162,0.0013619999999999743,0.9219762476672156,0.9712431793695347,double,-0.906894
51,0.425,step_acsent,-0.02664106564263243,-0.11100444017761514,-0.009840393615747834,-0.072928019420864,-0.028151293732067796,-0.6622333593689194,-0.037321492859708504,0.00960038401537024,-0.011760470418816886,-0.00780031201249165,0.001080043201745806,-0.007560302412096569,0.5467944986226826,2.0287203937367897,0.9214214444220251,-0.24532761717660273,-2.217373066639728,0.10062662448299112,-0.3888967698682465,-0.40316832193076346,-0.1297036806225941,-0.06675699999999996,-0.12301300000000004,-0.908272,0.056811999999999974,0.12907800000000003,-0.906875,0.12356899999999993,0.25209100000000007,0.0013969999999999816,0.9328482260722499,0.9678358668359969,double,-0.906875
52,0.433333,step_acsent,-0.02964118564742544,-0.1255250210008518,-0.02112084483378774,-0.05831157145734941,0.043764988858318435,-0.6790010576607168,-0.0362414496579891,0.00552022080883119,-0.008880355214208253,0.00972038881555231,-0.01320052802112733,0.005880235209408404,-0.360028801727229,-1.742539400364407,-1.3537082944965628,0.12961036862107242,-0.489639170351498,0.3456276496590209,2.1025682020933503,-1.7137370962286183,1.6129290317418596,-0.06681199999999998,-0.12192099999999995,-0.90817,0.05713999999999997,0.13001400000000007,-0.9066500000000001,0.12395199999999995,0.251935,0.0015199999999999658,0.9371338233533297,0.9557733329084344,double,-0.9066500000000001
53,0.441667,step_acsent,-0.02975761939045205,-0.12970962323012883,-0.008879289656829723,-0.019953279206623424,-0.11334188246280606,-0.6261679380974294,-0.04715622750179733,0.012958963282937077,-0.01799856011519057,-0.0027597792176620325,-0.00035997120230084735,-0.0032397408207342692,-0.013970931488674376,-0.5021120985453621,1.468869111706034,-1.3096685677715727,0.8925776906774574,-1.094097060353056,-1.4975003639566131,1.5407435587744849,-1.094309578850819,-0.06695699999999993,-0.12073200000000006,-0.908246,0.057365,0.131092,-0.906603,0.12432199999999993,0.25182400000000005,0.00164299999999995,0.9131477517755664,0.9764515807813154,double,-0.906603
54,0.45,step_acsent,-0.03984159366374626,-0.1488059522381045,-0.019680787231495536,0.016474952898610475,0.0019247459088293749,-0.6685778041419689,-0.08508340333614157,-0.005760230409222106,-0.04728189127565148,-0.0009600384015370176,-0.002280091203647086,-0.0019200768030723696,-1.2101253178080125,-2.291651147002951,-1.296231558222221,-4.551443157847604,-2.246393098783044,-3.5141403048674893,0.21597753703648234,-0.23042361710623194,0.1583660167600977,-0.067334,-0.11953999999999998,-0.908476,0.05768899999999999,0.13231300000000012,-0.906455,0.125023,0.2518530000000001,0.0020209999999999395,0.8374855303858351,0.974570595883556,double,-0.906455
55,0.458333,step_acsent,-0.0864034561382389,-0.1262450498019721,-0.01680067202687127,0.13612185463155185,-8.924645881187194e-05,-0.5388125589154965,-0.010320412816503022,-0.021720868834751852,-0.013080523220928628,0.0006000240009639708,-0.003960158406330232,-0.000240009600384256,-5.587647002819243,2.707416588999455,0.34562764966089904,8.971917739066212,-1.915353225192582,4.1043283397003405,0.18721497689919503,-0.20161612896713668,0.20161612896773284,-0.06669999999999998,-0.11866900000000014,-0.9084450000000001,0.058413999999999966,0.133332,-0.906317,0.12511399999999995,0.25200100000000014,0.0021280000000000188,0.954374496916844,0.9720324310983326,double,-0.906317
56,0.466667,step_acsent,-0.06791456683466114,-0.15118790496760712,-0.015118790496768704,0.01442984648846994,0.001091742369809815,-0.644597932620475,-0.0452363810895214,-0.00371970242379316,-0.04463642908567278,0.0014398848092167015,-0.0039596832253625805,0.0002399808015361169,2.218489237290345,-2.99290318762119,0.2018096388412006,-4.1895810262800985,2.1599671719412856,-3.7864057913059903,0.10077523497152986,5.7017154745768553e-05,0.057594240691189395,-0.06651099999999999,-0.11743999999999999,-0.9086909999999999,0.058992000000000044,0.13455899999999987,-0.9061889999999999,0.12550300000000003,0.25199899999999986,0.0025020000000000042,0.8939002413643142,0.9679463605330967,double,-0.9061889999999999
57,0.475,step_acsent,-0.07248289931596537,-0.16176647065884198,-0.018120724828994673,-0.003429843097309132,0.06489234753642974,-0.6528925201829224,-0.03936157446297801,-0.004560182407294202,-0.04356174246969916,0.004320172806916608,-0.000840033601328242,0.0012000480019204473,-0.5482218266295737,-1.26947866209467,-0.36024652972830623,0.7050049953850239,-0.10086163248542473,0.1289675526189392,0.345648385659416,0.3743729298013136,0.11521267255302206,-0.06623500000000004,-0.11612999999999984,-0.9089029999999999,0.05963200000000002,0.13590000000000013,-0.906028,0.12586700000000006,0.25203,0.002874999999999961,0.9018539323424752,0.9636470647590889,double,-0.906028
58,0.483333,step_acsent,-0.08352334093364058,-0.1629665186607422,-0.010800432017271462,0.0034899729705294195,-0.019448366703593647,-0.6480974399975403,-0.009960398415929904,-0.013800552022091296,-0.07308292331693218,0.005280211208440274,-0.002760110404428918,0.004320172806912415,-1.3249059903606346,-0.1440115206888523,0.8784702762178302,3.528282256936036,-1.1088887093240196,-3.542683409004308,0.11520921655150147,-0.23041843310940452,0.37442995379718647,-0.06562199999999996,-0.11488699999999996,-0.9094220000000001,0.06037199999999998,0.137235,-0.905902,0.12599399999999994,0.25212199999999996,0.0035200000000000786,0.8749358114443816,0.9525341108792671,double,-0.905902
59,0.491667,step_acsent,-0.09011279097671532,-0.17494600431964938,-0.017878569714430716,-0.014872916322975313,0.02918917551670607,-0.6723472780746395,-0.02387808975282698,-0.04571634269258031,-0.11231101511879031,0.005639548836095417,-0.0027597792176486924,0.003719702423805649,-0.7906707515088467,-1.4374232852060451,-0.8493085789727918,-1.669989361278745,-3.829588513377608,-4.706994456666438,0.04311706595334091,3.9739234488302914e-05,-0.07205068191825839,-0.06507000000000007,-0.11380999999999997,-0.9102089999999999,0.06116999999999995,0.13867000000000007,-0.9057219999999999,0.12624000000000002,0.25248000000000004,0.004487000000000019,0.7940205560657768,0.9429670920730124,double,-0.9057219999999999
60,0.5,step_acsent,-0.1004440177607212,-0.17316692667705083,-0.004440177607098744,0.024266213638392483,-0.07698230434400882,-0.6524755192811158,0.06336253450139029,-0.04644185767429691,-0.09876395055802308,0.008040321612869245,0.0016800672026831304,0.0010800432017283193,-1.2397968059529476,0.2134978570261073,1.6126715597422305,10.469293682253388,-0.08706528041720896,1.6257127758031045,0.2881042573831553,0.5328028825551223,-0.31677177752038116,-0.0637049999999999,-0.11275400000000002,-0.910995,0.062074000000000074,0.1401269999999999,-0.905676,0.12577899999999997,0.2528809999999999,0.005318999999999963,0.7896697381860088,0.9330022032128479,double,-0.905676
61,0.508333,step_acsent,-0.10632425297011144,-0.18084723388937246,-0.004320172806916579,0.08121237872993599,-0.157854064230211,-0.6410016438379593,0.17952718108723575,0.016200648025920517,-0.0939637585503415,0.0075603024120873595,0.0007200288011461016,0.00636025441017608,-0.7056564513848811,-0.9216737324278889,0.014401152067942385,13.940315202909513,7.517401380081263,0.5760460827650968,-0.05760460827815708,-0.1152092165531051,0.6336506910413703,-0.061323000000000016,-0.11111199999999988,-0.9117419999999999,0.06302299999999994,0.14164,-0.9055869999999999,0.12434599999999996,0.25275199999999987,0.0061550000000000216,0.6612045124165129,0.9219399483311548,double,-0.9055869999999999
62,0.516667,step_acsent,-0.11099112071033825,-0.18718502519798594,-0.011399088072948977,0.06505826083301247,-0.12148674143360895,-0.6588133072092647,0.16702663786897862,0.0023998080153478634,-0.059155267578594094,0.009239260859143892,0.0022798176145897952,0.00311975041996621,-0.559979330480781,-0.7604741191040932,-0.8494018797735107,-1.499945190575619,-1.6559683238028238,4.176684781827166,0.20145889693503027,0.18715968483845724,-0.38882937247538857,-0.059006,-0.10953199999999996,-0.9121400000000001,0.064025,0.14321899999999999,-0.905466,0.123031,0.25275099999999995,0.006674000000000069,0.7046517943990116,0.9165688220023286,double,-0.905466
63,0.525,step_acsent,-0.1262450498019979,-0.2176887075482989,-0.017160686427457536,0.08629112103172717,-0.14233042677445787,-0.6825463398370656,0.11952478099123878,-0.02316092643704391,-0.02664106564262559,0.03756150246008585,-0.03912156486257351,0.0906036241449661,-1.8305447127876637,-3.6605883055697612,-0.691419459319397,-5.700450843362491,-3.0674108307202284,3.9018603067284734,3.398804944310793,-4.9683646318448496,10.4984847863914,-0.05695799999999995,-0.10791099999999987,-0.912219,0.06538999999999995,0.14470700000000014,-0.904568,0.1223479999999999,0.252618,0.007650999999999963,0.7922852639702949,0.7474977336566724,double,-0.904568
64,0.533333,step_acsent,-0.1285251410056467,-0.21348853954158062,-0.013920556822273616,0.15365171192779803,-0.13513534243572078,-0.6789078480970024,0.08976359054361907,-0.005880235209430965,-0.02628105124204956,0.017880715228617197,-0.001560062402501005,0.015960638425536477,-0.2736218893134282,0.5040403224190937,0.3888311058663086,-3.571485713142924,2.07376589794949,0.043203456207372225,-2.361788939333833,4.507560597632647,-8.957516586995116,-0.05513899999999994,-0.10618100000000008,-0.912322,0.06661000000000006,0.14647300000000008,-0.904319,0.121749,0.25265400000000016,0.008002999999999982,0.8438059166027729,0.8799389096264849,double,-0.904319
65,0.541667,step_acsent,-0.13798896088312643,-0.22630189584833693,-0.018118550515960053,0.08592932134152168,-0.21423244751199116,-0.7165749804699436,0.04655627549795308,0.027717782577404666,-0.07331413486920996,0.020638348932079272,0.00023998080151613289,0.0242380609551235,-1.1355675398943685,-1.5374797584300715,-0.5037189457267105,-5.184463048436004,4.031439619250705,-5.643518553774903,0.33088957324958657,0.21598790544961893,0.9932112466507032,-0.05360100000000001,-0.10406399999999993,-0.912782,0.06793199999999999,0.14836099999999997,-0.903966,0.121533,0.2524249999999999,0.008815999999999935,0.8480613735850494,0.8587812632523677,double,-0.903966
66,0.55,step_acsent,-0.13656546261850086,-0.22656906276249633,-0.006240249609990614,0.0936489177438109,-0.2323904587072738,-0.664022722173137,-0.03084123364934005,0.014280571222846481,-0.061802472098883884,0.016920676827079942,-0.008400336013442242,0.017400696027840955,0.17082662482006009,-0.03206131215161395,1.4254531268414006,-9.288072620579959,-1.612529863741525,1.3814547906307482,-0.44613849813984335,-1.0368794929747196,-0.8205166119383794,-0.05271999999999999,-0.10205700000000006,-0.913245,0.06921100000000002,0.15017899999999984,-0.9037689999999999,0.12193100000000001,0.2522359999999999,0.00947600000000004,0.8824478606816285,0.8624336151024649,double,-0.9037689999999999
67,0.558333,step_acsent,-0.14052562102484625,-0.24120964838594572,-0.0172806912276399,0.07820782992480713,-0.14826572099536386,-0.7358872122380226,-0.0027601104044156313,0.05088203528140932,-0.033601344053762756,0.022440897635898106,-0.005880235209404319,0.023160926437058374,-0.4752380182821828,-1.75694055243604,-1.3249059903575409,3.369869584174328,4.392351381082824,3.384270736244016,0.6624529951779929,0.3024241934522916,0.6912552993180693,-0.05157199999999995,-0.09962300000000002,-0.913381,0.07056899999999999,0.15213999999999994,-0.903432,0.12214099999999994,0.25176299999999996,0.009948999999999986,0.898269827948275,0.8458748575079493,double,-0.903432
68,0.566667,step_acsent,-0.31209503239740155,-0.22462203023756414,-0.15106791456683472,0.5703396514178752,0.19098124603955177,-2.2128403455907497,-0.059515238780903305,-0.0023998080153478313,-0.023278137748979872,0.03155747540196919,0.01691864650829946,0.024478041756658783,-20.58668243011207,1.990354949409822,-16.053182546099567,-6.810070599530507,-6.3933097308323426,1.238685661720999,1.0939018197829389,2.7356469543680833,0.1580411950564434,-0.04946700000000004,-0.09777100000000005,-0.912316,0.07343299999999997,0.15415299999999998,-0.901969,0.12290000000000001,0.25192400000000004,0.010346999999999995,0.8934154688271774,0.8242402784765164,double,-0.901969
69,0.575,step_acsent,-0.15552622104883904,-0.23760950438018852,0.01056042241689401,0.09175409726019763,-0.31016865351460693,-0.632699503930376,-0.14460578423137196,-0.0349213968558795,-0.03540141605664219,0.0045601824072942325,0.05484219368773957,-0.007920316812672173,18.78900892218456,-1.5585592394845196,19.396176285099028,-10.211273905012533,-3.9027467707346655,-1.4548515909831308,-3.2398047515510866,4.551007701840929,-3.887958546661617,-0.049376000000000086,-0.096082,-0.912699,0.07476699999999992,0.15659,-0.902123,0.124143,0.252672,0.01057600000000003,0.7451383978489969,0.8015758380062048,double,-0.902123
70,0.583333,step_acsent,-0.162486499459987,-0.2305292211688532,0.009360374414979259,-0.02361385664772618,-0.3638456175442402,-0.6817617657122356,-0.029161166446656932,0.001440057602292203,-0.029521180847234145,0.028681147245901744,0.030481219248767,-0.005400216008640727,-0.8352668200105525,0.8496679720791194,-0.14401152069059722,13.853908290497365,4.363549076943664,0.7056564513870178,2.894631565895525,-2.9234338700314977,0.3024241934515103,-0.048265,-0.09414900000000004,-0.913023,0.0763600000000001,0.15876500000000004,-0.902246,0.1246250000000001,0.2529140000000001,0.010777000000000037,0.9307992551211683,0.8218959702409582,double,-0.902246
71,0.591667,step_acsent,-0.1696664266858537,-0.23878089752818826,0.0059995200383962215,0.03967273896759384,-0.36371933030817694,-0.6773352648946157,-0.025077993760487416,-0.003959683225335912,-0.008999280057595165,-0.0254379649628149,-0.0197984161267062,0.05579553635709102,-0.8615223453163708,-0.9901219533639324,-0.4032702635688759,0.4899415270181768,-0.6479170659500928,2.4624311002686374,-6.4937739631288975,-6.033073599168804,7.3429028516596215,-0.04705999999999999,-0.09219200000000005,-0.913148,0.07756199999999991,0.16059,-0.901831,0.1246219999999999,0.25278200000000006,0.01131699999999991,0.9551059301165794,0.7794339362925059,double,-0.901831
72,0.6,step_acsent,-0.17388695547822475,-0.2446897875915208,0.006600264010563753,0.08158053203580463,-0.407873733940379,-0.6675762307142177,-0.006960278411136808,0.009360374414979384,-0.0012000480019196224,0.07584303372135878,-0.04920196807872618,0.17772710908436537,-0.506483714433109,-0.7090951714067668,0.07209216034651827,2.17421281043451,1.598470855672077,0.9359452844924533,12.154206010341367,-3.5285673769375068,14.632374022233943,-0.04566899999999996,-0.0900749999999999,-0.913213,0.07964300000000002,0.1622190000000001,-0.900405,0.12531199999999998,0.252294,0.012808000000000042,0.9804564446572925,0.5395884857523663,double,-0.900405
73,0.608333,step_acsent,-0.1694467778711104,-0.2431297251889899,0.021840873634947165,0.07019181458051983,-0.4625524385469749,-0.5148028138720726,0.007200288011514309,0.01944077763110462,-0.009600384015361016,0.07032281291251326,-0.008640345613833159,0.1550462018480726,0.5328426265587819,0.18721497690278313,1.8289463127785128,1.699335944155893,1.2096967738059754,-1.0080806448387565,-0.6624529951812674,4.8675893993631165,-2.7218177410647626,-0.04419700000000004,-0.08788700000000005,-0.913475,0.08164099999999996,0.1641729999999999,-0.8992950000000001,0.125838,0.25205999999999995,0.01417999999999997,0.9619227628659992,0.574086963536967,double,-0.8992950000000001
74,0.616667,step_acsent,-0.18694504439645646,-0.26541876649869395,0.021358291336681243,0.026154276944471862,-0.6313252027132505,-0.5497357528546715,-0.02963762898968066,-0.017878569714417515,-0.0029997600191981506,0.06011519078473441,-0.03923686105111208,0.21754259659227412,-2.099624013120489,-2.6744709994845426,-0.05790524337244107,-4.4201964244294665,-4.477963444387131,0.792011518618059,-1.2248166699998688,-3.6712881494215375,7.498967451908072,-0.04288599999999998,-0.0858239999999999,-0.913678,0.0837,0.16605800000000004,-0.8976599999999999,0.12658599999999998,0.25188199999999994,0.016018000000000088,0.9420960837215837,0.4580181725483966,single,-0.8976599999999999
75,0.625,step_acsent,-0.18240729629184682,-0.25645025801029936,0.05712228489139925,0.1114939168662124,-0.264721314183017,-0.46052715128101357,0.042001680067197886,-0.013440537621518246,0.047881915276610454,0.08556342253691009,-0.05640225609023983,0.2658106324252961,0.5445515546153384,1.0762640691701129,4.291850900602166,8.59706096926416,0.5325851545540923,6.106045277308099,3.053909966659735,-2.059929801887397,5.792395995802448,-0.04101600000000005,-0.08379900000000018,-0.913755,0.08593300000000004,0.1677249999999999,-0.895921,0.1269490000000001,0.2515240000000001,0.017834000000000017,0.8915069511881164,0.34685709914231333,single,-0.895921
76,0.633333,step_acsent,-0.18780751230049586,-0.2670106804272332,0.07092283691347723,0.26143815549561444,-0.15128177073685095,-0.37303100197331446,-0.0244809792391673,-0.0070802832113055275,0.009720388815553142,0.18288731549261533,-0.0032401296051841034,0.4538581543261704,-0.6480518431116065,-1.2673013820873384,1.6561324879488686,-7.978238246293641,0.7632610596679097,-4.579566357981178,11.679334328057703,6.379710366621325,22.56660529231651,-0.039654999999999996,-0.08163299999999984,-0.914265,0.08902200000000005,0.16992300000000005,-0.89273,0.12867700000000004,0.2515559999999999,0.02153499999999997,0.9545413889838494,0.28465000000000007,single,-0.89273
77,0.641667,step_acsent,-0.19594432445404425,-0.2662586993040537,0.05915526757858993,0.2866106583202906,-0.23100493718339488,-0.38180801319304786,-0.021718262538995413,-0.003719702423819828,0.007679385649147466,0.19438444924405615,-0.17602591792657973,0.3660907127429841,-0.9763393512777101,0.09023051634023081,-1.411995360557639,0.33149948406190344,0.403237435503446,-0.2449007879056501,1.3795456865179847,-20.732635987688578,-10.531250489943218,-0.03820299999999999,-0.07944499999999999,-0.914694,0.092275,0.1706749999999999,-0.890172,0.13047799999999998,0.2501199999999999,0.024522000000000044,0.9611094099576619,0.2547799999999999,single,-0.890172
78,0.65,step_acsent,-0.21036841473658913,-0.26269050762030327,0.08628345133805618,0.2855025982983346,-0.4986017005913213,-0.16082202709126636,-0.01824072962919001,-0.004680187207476307,0.007560302412096519,0.09984399375975657,-0.311412456498247,0.5485419416776638,-1.7309600723082703,0.42820013005525365,3.255512271626801,0.4173206420023267,-0.11526278455015898,-0.014290560068516358,-11.34530847045472,-16.247034509980402,21.895023273092395,-0.03660200000000002,-0.07729499999999989,-0.91535,0.09486000000000006,0.170269,-0.88632,0.13146200000000008,0.2475639999999999,0.02903,0.9661791261749416,0.2097,single,-0.88632
79,0.658333,step_acsent,-0.20904836193448184,-0.2727709108364323,0.09132365294612008,0.5362461381994781,-0.13163097957064443,-0.05839116205692795,-0.01248049921996807,-0.004680187207503015,0.011280451218049282,0.15444617784710654,-0.3564142565702561,0.38221528861154885,0.1584126727597861,-1.2096967738064457,0.6048483869031496,0.6912552993186117,-3.205168606489518e-12,0.4464357141429014,6.552524191449715,-5.4004320259221785,-19.959996767804686,-0.034963999999999995,-0.07506100000000004,-0.916017,0.097889,0.16957200000000006,-0.883896,0.132853,0.2446330000000001,0.032120999999999955,0.9708969459048402,0.17879,single,-0.883896
80,0.666667,step_acsent,-0.2261819054475522,-0.24982001439883625,0.0663546916246726,0.47944489382590766,-0.1918286647844341,-0.12096644868655573,-0.017038636909044204,-0.003959683225335912,0.008879289656827107,0.227861771058325,-0.04967602591794256,0.7368610511159044,-2.0558607527082113,2.7538872615305814,-2.9960356757196167,-0.5469327680676864,0.08645356157512576,-0.28811633803961567,8.809166452029986,36.8056432268192,42.55408717354845,-0.033221000000000056,-0.07301200000000008,-0.916496,0.10167300000000001,0.17123999999999984,-0.878308,0.13489400000000007,0.2442519999999999,0.038188,0.9673046034597339,0.11812,single,-0.878308
81,0.675,step_acsent,-0.24372974918996718,-0.21756870274811677,0.16104644185766814,0.7519590977264793,-1.1313307313436796,0.03615626498943249,-0.013440537621504923,-0.0003600144005730508,0.005880235209408404,0.2274090963638512,-0.1316452658106203,0.6503060122404878,-2.105825482109072,3.870312210574745,11.36346456654208,0.43178918607215483,0.4319775380730644,-0.35990092972743193,-0.05432313626230603,-9.836702255211495,-10.387020145855782,-0.03130200000000005,-0.07120199999999999,-0.917789,0.105599,0.171956,-0.874231,0.13690100000000005,0.24315799999999999,0.043557999999999986,0.9755417119227179,0.06441999999999998,single,-0.874231
82,0.683333,step_acsent,-0.23652946117845602,-0.20784831393256722,0.12000480019200889,0.6754571445519468,-0.7618376916600026,0.11168702227204616,-0.014280571222846672,-0.0025201008040380353,0.002280091203647949,0.12660506420255932,-0.18036721468859304,0.7634705388215589,0.864069124146312,1.1664933175986596,-4.925194007639461,-0.1008080644835902,-0.2592207372452903,-0.4320345620737415,-12.09696773806466,-5.846867740066385,13.580286401184706,-0.029449999999999976,-0.06949099999999997,-0.91877,0.10862499999999997,0.17218500000000003,-0.868869,0.13807499999999995,0.241676,0.04990099999999997,0.975534352972526,0.0009899999999999909,single,-0.868869
83,0.691667,step_acsent,-0.24262059035276612,-0.18358531317494836,0.12167026637869723,0.5746485591706035,-1.018034676876914,0.16990403469475138,-0.014998800095997215,-0.003719702423793135,0.00011999040076805765,0.18370530357571976,-0.02687784977201827,1.0083993280537473,-0.7308770307547454,2.9113271847394624,0.19983995520618228,-0.08618057033243788,-0.14394067911628158,-0.25919136103670204,6.851480606330695,18.417250409956036,29.38910357957602,-0.02755300000000005,-0.06799199999999983,-0.919783,0.112178,0.17349100000000006,-0.8614790000000001,0.13973100000000005,0.2414829999999999,0.05830399999999991,0.9742439549632014,0.0,single,-0.8614790000000001
84,0.7,step_acsent,-0.2148085923436907,-0.176287051482054,0.07560302412095454,0.7601835043316775,-0.013130700268235297,0.21351789156585146,-0.011400456018235581,-0.007080283211332268,0.002280091203647949,0.8187927517100787,-0.3145325813032531,1.3847353894155903,3.3375732640196407,0.8758264362047786,-5.528290202537274,0.43181856207388297,-0.40328582593773715,0.2592224652441991,76.21354231781648,-34.519948581691764,45.16213384877552,-0.025858000000000048,-0.06658199999999992,-0.9203939999999999,0.12079099999999998,0.17233900000000002,-0.8505699999999999,0.14664900000000003,0.23892099999999994,0.069824,0.9773125326034302,0.0,single,-0.8505699999999999
85,0.708333,step_acsent,-0.2034081363254524,-0.18840753630145984,0.0925237009480468,1.0146447583285099,0.19123486203560364,0.15137925129364913,-0.015960638425542923,-0.008160326413077972,-0.0015600624024959882,0.5294611784471323,-0.2839313572542998,1.1670466818672696,1.3681094465664534,-1.4545163589830534,2.0305624417487316,-0.5472437786280239,-0.12961036862422887,-0.460836866211919,-34.72117763865897,3.6722937776254887,-26.12368985339251,-0.024296000000000095,-0.06508000000000003,-0.921178,0.12689799999999996,0.171543,-0.841616,0.15119400000000005,0.23662300000000003,0.07956200000000002,0.9700108028330489,0.0,single,-0.841616
86,0.716667,step_acsent,-0.2573794096472339,-0.12658987281017758,0.3885289176865777,0.7850358207433376,-3.134961354760343,0.2946423894858804,-0.07643388528917612,-0.021478281737452348,-0.0507559395248376,0.4430045596352292,-0.2441804655627542,1.3471322294216377,-6.476034715836461,7.417526216856466,35.51778458585657,-7.256209126905777,-1.5980267967811703,-5.903033012039985,-10.373964340281061,4.7697254249514405,21.608537023562125,-0.02278800000000003,-0.06420399999999993,-0.924839,0.13273500000000005,0.17056300000000002,-0.833627,0.15552300000000008,0.23476699999999995,0.09121199999999996,0.8429471001732105,0.0,single,-0.833627
87,0.725,step_acsent,-0.20148805952238105,-0.1690867634705396,0.12276491059642451,0.6584823176075417,-0.976953716357881,0.0196190468877635,-0.00012000480018213638,-0.0024000960038292525,0.005640225609024225,0.2634105364214529,-0.2386895475819077,1.4212168486739591,6.707230304194568,-5.099830872478389,-31.892956569081438,9.15803197995856,2.289473866989472,6.76781052848462,-21.552144871448213,0.6589365151621924,8.890509930675883,-0.021109999999999962,-0.06281499999999984,-0.9258149999999999,0.13660899999999998,0.169983,-0.822807,0.15771899999999994,0.23279799999999984,0.10300799999999999,0.9897819594588302,0.0,single,-0.822807
88,0.733333,step_acsent,-0.1306852274090966,-0.19068762750508028,0.08892355694227631,0.8043872224122707,-0.1234292172190865,0.05445286987142174,0.0013200528021100684,0.0004800192007551856,-0.0012000480019196066,0.919236769470775,-0.4538581543261654,1.9072362894515689,8.496679720782929,-2.5922073724397676,-4.061124883493107,0.172813824828057,0.34562764965611736,-0.820865667939974,78.70229605776063,-25.821265659937215,58.32466587994812,-0.020009999999999972,-0.06122200000000011,-0.926566,0.145358,0.16778999999999988,-0.807655,0.16536799999999996,0.229012,0.11891099999999999,0.9969209159729793,0.0,single,-0.807655
89,0.741667,step_acsent,-0.10907127429806261,-0.1534677225821979,0.06875449964003467,0.5065854976811424,-0.1784424791353719,0.01126527596939739,0.011519078473720367,0.008279337652999418,-0.009839212862970867,0.49472042236621205,-0.2738180945524248,1.6327093832493502,2.593466895972416,4.466031308241251,-2.4200932688075056,1.2237851777790205,0.935843346801569,-1.0366168539778389,-50.93788662161812,21.603078926534874,-32.94059349678668,-0.01900499999999994,-0.05987399999999998,-0.9272210000000001,0.15039000000000002,0.16678700000000002,-0.794621,0.16939499999999996,0.226661,0.13260000000000005,0.9712266176910483,0.0,single,-0.794621
90,0.75,step_acsent,-0.18060722428896822,-0.03996159846395504,0.13704548181926937,-0.353034007724635,-1.2814923102447007,-0.49753037632427555,0.013560542421700381,0.011880475218990615,-0.011160446417857003,0.5576623064922654,-0.34585383415337084,1.6993879755190144,-8.584657385204045,13.621279745378901,8.195245671334982,0.24498547317652775,0.4321537940707047,-0.1585543687610862,7.553328228255506,-8.64463453749499,8.001751142405368,-0.01738699999999993,-0.059441999999999995,-0.928456,0.15654200000000007,0.1642380000000001,-0.781602,0.173929,0.2236800000000001,0.14685399999999993,0.9646607879715259,0.0,single,-0.781602
91,0.758333,step_acsent,-0.07800312012479607,-0.15036601464057883,0.11088443537741895,0.38154524117123195,-0.5117238418787167,-0.13155069010068474,0.016320652826102653,0.012600504020163363,-0.011400456018240426,0.38629545181806774,-0.34669386775469907,1.8387135485419344,12.31298501910137,-13.249059903590943,-3.1394511510680805,0.33122649758817474,0.08640691241722599,-0.028802304138176155,-20.56484515470983,-0.10080806448196612,16.71973755225241,-0.016601000000000088,-0.058084000000000024,-0.929475,0.16041099999999997,0.16260200000000014,-0.767204,0.17701200000000006,0.22068600000000016,0.16227100000000005,0.9607321587733622,0.0,single,-0.767204
92,0.766667,step_acsent,-0.07859371250300887,-0.18334533237340803,0.14338852891768095,0.39454129340457345,-0.9660135897817693,-0.28094709751644226,0.013438924886009314,0.012239020878335383,-0.008039356851452475,0.42620590352772014,-0.3050155987521069,1.9053275737941044,-0.07086541615224366,-3.9572015518153805,3.9001792104946227,-0.34577969043596773,-0.043374507058793046,0.4032996360436729,4.788871095470678,5.000992200935017,7.9930435867735135,-0.015834000000000015,-0.056454000000000004,-0.930737,0.16461800000000004,0.16158800000000006,-0.75252,0.18045200000000006,0.21804200000000007,0.17821700000000007,0.9668744143558217,0.0,single,-0.75252
93,0.775,step_acsent,-0.05484219368773884,-0.13296531861273037,0.1507260290411652,0.006833110819645178,-1.108946776700895,-0.32002301884899786,0.011040441617675702,0.010560422416907193,-0.005880235209407571,0.4444977799111995,-0.3134525381015298,1.9781591263650462,2.850296269683178,6.045843485020695,0.8805352362275551,-0.2878295053802475,-0.2014398729663007,0.2591049612438372,2.1951129705363335,-1.0124732208595795,8.740135913949533,-0.015284999999999993,-0.05525800000000003,-0.932042,0.168779,0.1600839999999999,-0.7372920000000001,0.184064,0.21534199999999992,0.19474999999999998,0.9727159469217936,0.0,single,-0.7372920000000001
94,0.783333,step_acsent,-0.028801152046084265,-0.09576383055323218,0.16632665306612396,-0.07038708618512655,-1.2663784238377493,-0.36717170111509556,0.001800072002878601,0.003960158406330258,-0.004920196807873117,0.4474978999159986,-0.34525381015241147,1.8978759150366182,3.125049998998538,4.464357141425481,1.8721497689858284,-1.1088887093240352,-0.7920633638037916,0.11520921655279764,0.3600288017279645,-3.816305298317769,-9.634370734240814,-0.015029999999999988,-0.054427,-0.933469,0.172748,0.15800499999999995,-0.722863,0.187778,0.21243199999999995,0.21060599999999996,0.9890542435357375,0.0,single,-0.722863
95,0.791667,step_acsent,-0.024958003359729346,-0.09683225341972594,0.16402687784977163,-0.07327223116248263,-1.4135970641736328,-0.4700603469461662,0.004679625629950918,0.007079433645312071,0.0015598752099839168,0.42980561555074953,-0.3330933525317817,1.8795296376289767,0.4611409510864998,-0.1282004879402156,-0.27595094988628643,0.34551879374517575,0.37428308603093224,0.7775464384277639,-2.1229042914865515,1.4591381834208892,-2.2013771787426637,-0.01478299999999999,-0.05356099999999997,-0.9348230000000001,0.17653799999999997,0.15603600000000006,-0.708566,0.19132099999999996,0.20959700000000003,0.22625700000000004,0.9856192173519279,0.0,single,-0.708566
96,0.8,step_acsent,0.008760350414015293,-0.15660626425058277,0.09840393615743771,0.654920225967641,-0.5698410823040931,-0.11513570797234446,-0.0012000480019279335,0.004440177607112037,0.002160086403455791,0.45793831753270436,-0.38977559102365605,1.8948757950317965,4.046364307421636,-7.173168226431847,-7.875068005800269,-0.7055890593878348,-0.31672339351974355,0.07202822434559845,3.3760592802057743,-6.802140704653082,1.8416125528404759,-0.014866000000000046,-0.05221899999999979,-0.9356249999999999,0.18028100000000002,0.15409300000000004,-0.6935959999999999,0.19514700000000007,0.20631199999999983,0.24202900000000005,0.9915308950918935,0.0,single,-0.6935959999999999
97,0.808333,step_acsent,-0.019320772830922744,-0.11472458898355521,0.14568582743310446,0.3007922927206534,-1.4446630427483225,-0.45506229541996523,-0.005160206408258207,0.001320052802110086,0.005280211208448671,0.4758190327613144,-0.41329653186127857,1.8697947917916835,-3.369869584175962,5.026002072126238,5.674053915236671,-0.4752380182803684,-0.37442995379838945,0.3744299537973008,2.145771658299553,-2.8226258055469495,-3.0098407824448823,-0.014747999999999983,-0.05125199999999985,-0.936795,0.1844070000000001,0.151605,-0.6792290000000001,0.19915500000000008,0.20285699999999984,0.25756599999999996,0.9874999000023983,0.0,single,-0.6792290000000001
98,0.816667,step_acsent,0.005639548836095379,-0.19174466042716296,0.037556995440365414,1.548017021011445,-0.6856567210073395,-0.23438967451425036,-0.005519558435323991,0.0017998560115042128,0.00431965442764508,0.46088312934964654,-0.46232301415884985,1.8273338132949282,2.994999000122142,-9.241669239693683,-12.974421885377755,-0.04311879374439419,0.05757177938494398,-0.11525759308898288,-1.7921650361972312,-5.882707259127779,-5.094909826824456,-0.014840999999999993,-0.04963899999999999,-0.937072,0.18820100000000006,0.1493500000000001,-0.6643129999999999,0.20304200000000006,0.19898900000000008,0.2727590000000001,0.9879394558168914,0.0,single,-0.6643129999999999
99,0.825,step_acsent,0.07716308652346887,0.05172206888276421,0.04740189607584757,-0.6682791740168333,0.07152821382920284,-0.09567337468125267,-0.004320172806903313,0.0022800912036471162,0.005760230409217186,0.5407416296651928,-0.5076203048121919,1.8376335053402262,8.583167849198865,29.217176204239696,1.1814353336712164,0.14393203269179036,0.05763052827828007,0.1728760328299675,9.583403374000598,-5.435892314093658,1.2360124859352104,-0.015519999999999978,-0.05005100000000007,-0.937419,0.192064,0.14468900000000007,-0.6493950000000001,0.207584,0.19474000000000014,0.28802399999999995,0.9874122013060126,0.0,single,-0.6493950000000001
100,0.833333,step_acsent,0.002520100804024679,-0.08784351374054385,0.1281651266050586,0.7718316621408057,-1.5070256358666227,-0.31290987594771735,-0.011160446417857836,-0.00552022080883119,0.008040321612864195,0.5075003000119963,-0.4706588263530499,1.7509900396015792,-8.957516586996746,-16.748539856391155,9.691975342518983,-0.820865667941257,-0.9360748844927725,0.2736218893132124,-3.989119123148487,4.435554837290512,-10.397631793909353,-0.015633999999999926,-0.0493650000000001,-0.93842,0.19627200000000006,0.14149900000000004,-0.635872,0.21190599999999998,0.19086400000000014,0.30254800000000004,0.975297594940392,0.0,single,-0.635872
101,0.841667,step_acsent,0.01979841612671952,-0.06647468202545731,0.10955123590112006,0.7937010935889856,-0.6461376377449026,-0.04788047761307374,-0.009239260859130448,-0.003839692824577845,0.006959443244540683,0.4998800095992286,-0.5227981761459243,1.6672666186704925,2.073231980164952,2.56405468143585,-2.2334882054161747,0.23052382514127348,0.20164722633229326,-0.1296950285965327,-0.9143617005960673,-6.256221477426684,-10.046006831183826,-0.015876,-0.04884299999999997,-0.939275,0.20027299999999998,0.13769600000000004,-0.6228899999999999,0.21614899999999998,0.186539,0.316385,0.9796870982101853,0.0,single,-0.6228899999999999
102,0.85,step_acsent,0.03960158406335587,-0.08688347533900799,0.09120364814593794,0.8633198359882981,0.02838147697915055,0.02716653060493609,-0.014760590423628511,-0.0074402976119053235,0.010800432017280766,0.5551422056882283,-0.578783151326061,1.6008640345613994,2.37647521140484,-2.449153163752654,-2.2017986025659777,-0.6625860511818209,-0.4320898580736243,0.4609370902124227,6.631728799832009,-6.718465760246873,-7.968628838244783,-0.016329000000000038,-0.04818100000000003,-0.939945,0.204569,0.13359699999999997,-0.61031,0.22089800000000004,0.181778,0.329635,0.967090933790226,0.0,single,-0.61031
103,0.858333,step_acsent,0.06960278411136715,-0.05424216968677487,0.028561142445692963,0.4335493910112965,0.49003546120610836,-0.02174649710246372,-0.010440417616698412,0.0,0.012000480019200229,0.5630625225009013,-0.5810632425297003,1.5046201848073852,3.60028801728203,3.91711336280247,-7.517401380084569,0.5184414744905894,0.8928714282857665,0.14401152069116263,0.9504760365622212,-0.2736218893122954,-11.549723959440025,-0.01699600000000001,-0.04772900000000013,-0.940083,0.208681,0.12920699999999985,-0.5980099999999999,0.22567700000000002,0.17693599999999998,0.34207300000000007,0.973489318677691,0.0,single,-0.5980099999999999
104,0.866667,step_acsent,0.09935205183584649,-0.10331173506119577,0.023158147348212123,0.5283684468954203,0.7911629706731257,-0.23075279043521085,-0.010679145668347281,-0.004679625629937659,0.010919126469882568,0.6258699304055709,-0.6112311015118743,1.432565394768424,3.5696265568129952,-5.887876814785359,-0.648307547093937,-0.028645074591897184,-0.5615101547801399,-0.1297520457544597,7.536286045676747,-3.6198534895817343,-8.645883134024672,-0.017912999999999957,-0.04690700000000003,-0.940185,0.21306900000000006,0.12497399999999992,-0.586264,0.23098200000000002,0.17188099999999995,0.35392100000000004,0.973376578236268,0.0,single,-0.586264
105,0.875,step_acsent,0.12240489619584984,-0.1255250210008518,0.021600864034556248,0.4749139904354551,0.8313565508645103,-0.38569936847734015,-0.007440297611905225,-0.0037201488059659354,0.006240249609984786,0.6789871594863762,-0.6511460458418227,1.3565342613704467,2.7664519812796415,-2.6657009407963446,-0.18688147289762014,0.3886773138655998,0.11514182454958834,-0.5614876826950393,6.374322462595113,-4.789984918990542,-9.124100971796109,-0.018994999999999984,-0.045892000000000044,-0.940313,0.21770700000000004,0.12059400000000009,-0.57514,0.23670200000000002,0.16648600000000013,0.36517299999999997,0.9826684094716575,0.0,single,-0.57514
106,0.883333,step_acsent,0.14376575063002847,-0.14676587063482166,0.019560782431300078,0.3637748124278229,0.939774345310495,-0.5766323300239973,-0.005280211208440274,-0.0019200768030740352,0.005400216008639895,0.7017880715228537,-0.6701068042721721,1.2312492499699992,2.563405068304158,-2.5490039162330214,-0.24481958517414631,0.25922073724528283,0.21601728103826867,-0.10080806448396586,2.7362188931330134,-2.275382026922994,-15.034802760164052,-0.02023699999999995,-0.044685000000000086,-0.940431,0.22235699999999997,0.11623300000000003,-0.565043,0.24259399999999992,0.16091800000000012,0.37538800000000005,0.9870117939957253,0.0,single,-0.565043
107,0.891667,step_acsent,0.14242860571154978,-0.15898728101752196,0.008879289656829723,0.16854248078850195,0.5790771047577475,-0.7172240101149865,-0.002759779217675354,0.000959923206144474,0.003839692824573733,0.8094552435805218,-0.7119030477561795,1.1633069354451655,-0.16044455465307197,-1.4664519297696632,-1.2816765988085452,0.30242764468021766,0.3455723553177977,-0.18724780226375934,12.919027124750261,-5.015148006240424,-8.152425548936174,-0.021447000000000105,-0.04335200000000006,-0.940473,0.22791599999999995,0.11162500000000009,-0.5554220000000001,0.24936300000000006,0.15497700000000014,0.3850509999999999,0.9919582556343839,0.0,single,-0.5554220000000001
108,0.9,step_acsent,0.16536661466458474,-0.1639265570622792,-0.033001320052805004,0.45479190433100514,1.0832411655006111,-0.6629153822488464,-0.0007200288011461016,0.003960158406356851,-0.0016800672026881154,0.7935917436697411,-0.697947917916719,1.0504020160806402,2.752671181211433,-0.5927368348442608,-5.025874200124151,0.24477984117715634,0.36004262573051293,-0.6623976991793862,-1.9036961371391654,1.6746825680379827,-13.54913228903454,-0.022831000000000046,-0.04195299999999991,-0.9402119999999999,0.23315099999999994,0.10717500000000002,-0.546394,0.255982,0.14912799999999993,0.3938179999999999,0.9927305964856754,0.0,single,-0.546394
109,0.908333,step_acsent,0.16656666266650155,-0.17004680187207663,-0.027361094443778718,0.46704196550311683,0.8088711710572327,-0.7803517353874416,-0.0008400336013415707,0.0016800672026831415,-0.00012000480019129609,0.925237009480387,-0.8136325453018205,1.0130805232209388,0.14401152069084605,-0.7344587555259182,0.6768541472490506,-0.014401152069539215,-0.2736218893164203,0.18721497689869598,15.798063819830451,-13.882710594636098,-4.478758293495953,-0.02422599999999997,-0.04052199999999995,-0.939985,0.239473,0.10181200000000001,-0.537724,0.26369899999999996,0.14233399999999996,0.402261,0.9968629970916214,0.0,single,-0.537724
110,0.916667,step_acsent,0.1462682985361124,-0.15394768418525479,-0.021118310535151504,0.002717937165547051,-0.1634041434329577,-0.9921322131736023,0.005759539236853446,0.01055915526756243,-0.007319414446844856,1.0655147588192861,-0.8792896568274472,0.8434125269978346,-2.435608846938925,1.9317395832519466,0.7490741431038116,0.7918853897522158,1.0654053353586777,-0.863860048794517,16.83198336199881,-7.878223125225126,-20.358530864303198,-0.025397000000000003,-0.03915100000000016,-0.93987,0.24713400000000002,0.09576699999999994,-0.530519,0.272531,0.1349180000000001,0.409351,0.9765336008520205,0.0,single,-0.530519
111,0.925,step_acsent,0.1347653906156356,-0.14088563542541743,-0.06408256330253596,-0.047464395766221995,-0.2162568059953122,-0.8233031194910986,0.01188047521901726,0.021840873634960487,-0.007680307212287813,1.0021600864034517,-0.8107524300971987,0.7422296891875639,-1.3804041666238733,1.5675085515225367,-5.1559165687488635,0.7345416995276358,1.3538603585021014,-0.04330886420772298,-7.6028648044922855,8.224796199477769,-12.142426234281805,-0.026421000000000028,-0.03779500000000002,-0.9394,0.2543619999999999,0.09018499999999996,-0.5238,0.28078299999999995,0.12797999999999998,0.41559999999999997,0.956629612911217,0.0,single,-0.5238
112,0.933333,step_acsent,0.08652346093843492,-0.3208928357134393,0.5757830313212544,4.126172292453333,-0.552668523101358,-0.22228947582241812,0.0007200288011461112,0.007320292811723187,-0.0024000960038409107,1.0158406336253543,-0.8357134285371456,0.7064682587303595,-5.789263131789407,-21.60172810368697,76.78694283256884,-1.3393071424302474,-1.7425394003645065,0.6336506910412757,1.6417313358817616,-2.9954396303788733,-4.291543316597241,-0.02713600000000005,-0.03505999999999987,-0.944218,0.26210599999999995,0.08589500000000005,-0.5227109999999999,0.289242,0.12095499999999992,0.4215070000000001,0.9871045239250887,0.0,single,-0.5227109999999999
113,0.941667,step_acsent,0.36969042476601593,-0.6072714182865303,0.8597312215022838,10.081016317172946,2.8758784554731225,-1.0106454196178898,-0.015118790496755281,-0.02387808975282682,0.01595872330213585,1.0885529157667333,-0.8653707703383658,0.6606671466282593,33.97731747391155,-34.36268089429912,34.07105713715229,-1.9005062752461328,-3.743506427231794,2.2028820861503022,8.724775874895426,-3.558596328440129,-5.495693796748235,-0.03034300000000001,-0.030197999999999947,-0.95125,0.268097,0.08374400000000004,-0.52437,0.29844,0.11394199999999999,0.42688000000000004,0.9459058987154236,0.0,single,-0.52437
114,0.95,step_acsent,0.18180727229088525,-0.21060842433696952,0.11796471858873936,1.1025352091532101,-0.3891484065711036,-0.9144107446985713,0.0027601104044156313,0.004200168006721177,0.0008400336013440688,1.090603624144974,-0.8436337453498327,0.6383055322212968,-22.546880172222778,47.60146333248103,-89.015540971265,2.145553930297741,3.369525712174277,-1.8143153367084985,0.2460948491828437,2.608547340517621,-2.6835010688782788,-0.03183499999999995,-0.02840799999999999,-0.952226,0.27567,0.0784689999999999,-0.520034,0.307505,0.10687699999999989,0.432192,0.9915073107942062,0.0,single,-0.520034
115,0.958333,step_acsent,0.04176167046682029,0.7663506540261582,-2.0234009360374348,-15.2558160104121,4.467129792987615,1.1302605766461318,-0.0010800432017324755,-0.0008400336013548828,-0.004680187207487964,1.011880475219004,-0.823712948517935,0.564142565702627,-16.80614446466631,117.23977899473462,-256.9741575214407,-0.46083686621241937,-0.6048483869046009,-0.6624529951796484,-9.44715575734664,2.3905912434774574,-8.89991197871949,-0.032192,-0.03480100000000008,-0.935404,0.283754,0.06521899999999992,-0.49847199999999997,0.315946,0.10002,0.43693200000000004,0.9918731750654344,0.0,single,-0.49847199999999997
116,0.966667,step_acsent,-0.11867050635949246,0.33981281497479293,-1.236741060715128,-12.947455927959627,-0.46203000566776525,1.3707061195462187,-0.004439644828408142,-0.004439644828421464,-0.0017998560115191995,1.1814254859611166,-0.9668826493880294,0.4158867290616682,-19.250321193461907,-51.180446250463405,94.39163370797947,-0.40311994560542846,-0.43191879374448683,0.3456120945486852,20.343773787150383,-17.178989785228378,-17.789277254734543,-0.031239999999999934,-0.03767000000000009,-0.925112,0.29458900000000005,0.05432900000000007,-0.48469900000000005,0.325829,0.09199900000000016,0.440413,0.9891141817452525,0.0,single,-0.48469900000000005
117,0.975,step_acsent,0.34093363734550813,-0.5355814232569213,1.3032521300852131,13.394018673462222,-0.033560412117742584,-1.8371946728750865,-0.002400096003842576,-0.003360134405366283,-0.002040081603263691,1.1887675507020354,-0.9594383775351071,0.3784951398056012,55.15470343273788,-105.0515106482326,304.81137535105773,0.2447556491738371,0.12954643262392784,-0.028828224138304798,0.8810830122307542,0.8933483562849345,-4.487170197535983,-0.03410100000000005,-0.033235000000000126,-0.935989,0.3016539999999999,0.05079699999999998,-0.492405,0.33575499999999997,0.0840320000000001,0.443584,0.9923237565253131,0.0,single,-0.492405
118,0.983333,step_acsent,0.11136445457817412,-0.08664346573864255,0.04908196327853006,0.3061611650832358,-0.3492358642332438,-0.24803785451719035,-0.002280091203647086,-0.002640105604220137,-0.0010800432017283122,1.5076203048121917,-1.183607344293788,0.10896435857433824,-27.549403908236297,53.87470989058884,-150.5064402744123,0.014401152069541534,0.08640691241403374,0.11520921655290711,38.26386104766049,-26.901352065124204,-32.34498754725331,-0.03504799999999997,-0.03253499999999998,-0.936407,0.31328900000000004,0.041655999999999915,-0.491906,0.348337,0.0741909999999999,0.444501,0.9939137069264017,0.0,single,-0.491906
119,0.991667,step_acsent,0.10583153347732835,-0.06383489320854091,0.038156947444209534,0.1005628026845793,-0.36631276000498275,-0.23940075195638047,-0.0047996160307223696,-0.005279577633781285,-0.002039836813055342,1.2754979601631908,-1.0070794336452988,0.22042236621070838,-0.6638974203078718,2.736809758831506,-1.310897028356202,-0.3023187937455361,-0.31671130664280817,-0.11516602007763803,-27.852453161627327,21.181654745439186,13.373891005084086,-0.03597000000000006,-0.03204699999999994,-0.9367420000000001,0.32303699999999996,0.03379500000000002,-0.490387,0.359007,0.06584199999999996,0.44635500000000006,0.9876316725893439,0.0,single,-0.490387
120,1.0,step_acsent,0.09900396015840168,-0.08088323532942045,0.05856234249369145,0.3768700280589052,-0.4663489009035088,-0.18572167571085213,-0.0004800192007685088,0.0003600144005730508,0.0010800432017283122,1.321132845313806,-0.9878795151806051,0.16308652346093766,-0.8193415719340739,-2.0458828898211285,2.44874535575205,0.5183723544886407,0.6767781152471274,0.3744005777971488,5.476405274284772,2.3040823790583977,-6.880576353026578,-0.036799000000000026,-0.0313699999999999,-0.937221,0.333221,0.026237000000000066,-0.48951599999999995,0.37002,0.057606999999999964,0.447705,0.9979407916034675,0.0,single,-0.48951599999999995
121,1.008333,step_acsent,0.12480499219969404,-0.08208328333132284,0.03408136325453793,0.15468314063710548,-0.25111330775788854,-0.20907764527686618,-0.0012000480019146262,-0.0006000240009639748,0.0013200528021117513,1.3513740549622133,-1.021360854434179,0.0954038161526458,3.096247694862906,-0.14401152068911569,-2.9378350220993337,-0.08640691241403145,-0.11520921655310623,0.02880230413817849,3.629090321421762,-4.017921427285994,-8.122249766985776,-0.03784900000000002,-0.030691000000000024,-0.937494,0.34344199999999997,0.018410000000000037,-0.489005,0.381291,0.04910100000000006,0.448489,0.9968629970916161,0.0,single,-0.489005
122,1.016667,step_acsent,0.1005519558435324,-0.07211423086153937,0.05183585313174762,0.18469429412806315,-0.4839918064218476,-0.1545648851804279,0.002279817614589765,0.0017998560115042128,-0.0015598752099830842,1.2762179025677822,-0.9428845692344712,0.06131509479241418,-2.9101315522151983,1.196190601125917,2.130368355796683,0.4175504699429283,0.28796256449102103,-0.3455637163540693,-9.018016845983981,9.416400911891918,-4.090319337680748,-0.038668000000000036,-0.030075000000000074,-0.9379390000000001,0.35323999999999994,0.011152999999999968,-0.488926,0.391908,0.04122800000000004,0.44901300000000005,0.9945049869354463,0.0,single,-0.488926
123,1.025,step_acsent,0.11100444017760255,-0.06816272650904921,0.022440897635898106,0.052130658600415936,-0.4698475534218804,-0.21057473052869627,0.004080163206525717,0.00432017280692996,0.0014400576023047128,1.384375375015012,-1.0594023760950337,0.040321612864515306,1.2543482940201913,0.4741994902784343,-3.527535760932411,0.21605011303683772,0.30245011345563066,0.3600063377280481,12.979415870302512,-13.982696131112881,-2.519318604092052,-0.03955900000000001,-0.029471000000000025,-0.938114,0.363851,0.0028930000000000344,-0.48877699999999996,0.40341,0.03236400000000006,0.44933700000000004,0.9898094010137367,0.0,single,-0.48877699999999996
124,1.033333,step_acsent,0.136205448217926,-0.08592343693749531,0.02736109444377799,0.1931732552983909,-0.2102024731101178,-0.2194336620230792,0.003480139205574973,0.003840153606148019,-0.0015600624024968,1.423736949477959,-1.048001920076797,-0.012960518420736242,3.02424193451614,-2.131370506233744,0.590447234834969,-0.0720057603445018,-0.05760460827816303,-0.36002880172824436,4.7235778786687,1.368109446566255,-6.3941115186908215,-0.04066499999999995,-0.028722999999999832,-0.9383549999999999,0.37458,-0.005123999999999906,-0.48911299999999996,0.415245,0.023598999999999926,0.449242,0.9909796613594186,0.0,single,-0.48911299999999996
125,1.041667,step_acsent,0.09983201343893337,-0.06911447084232313,0.02003839692824951,0.11857638379066052,-0.4211261074561634,-0.10107777829052116,-0.00143988480921673,-0.0026397888169173212,-0.0004799616030714108,1.474202063834917,-1.0397168226541982,-0.12347012239021139,-4.364463016437882,2.01691457825444,-0.8786534095906671,-0.5903556533227498,-0.7775308882967918,0.12960172779282575,6.055329296491342,0.9941321601390581,-13.26009166900375,-0.04150900000000002,-0.02816900000000011,-0.938526,0.38603399999999993,-0.01321299999999992,-0.490309,0.42754299999999995,0.014956000000000191,0.448217,0.9949249749857876,0.0,single,-0.490309
126,1.05,step_acsent,0.12420496819872676,-0.07812312492499049,0.013320532821309287,0.20329105085435553,-0.16097671680015338,-0.1787382296619614,0.0008400336013415484,0.0004800192007818256,0.002400096003840014,1.3692547701907873,-1.0098403936157343,0.000360014400573046,2.924871566037796,-1.0810817331893923,-0.8061759398704073,0.2736011533131212,0.3743919378014031,0.34562073765887125,-12.594179004455507,3.585314897211491,14.860210823326806,-0.04253700000000005,-0.02751400000000004,-0.9386169999999999,0.39640899999999996,-0.020977000000000023,-0.490417,0.438946,0.006537000000000015,0.44819999999999993,0.9956870557516578,0.0,single,-0.490417
127,1.058333,step_acsent,0.1230049201968021,-0.08388335533421476,0.0072002880115277276,0.2275774815985781,-0.2573163440608904,-0.162623899057403,0.004080163206525717,0.0038401536061481215,-0.00036001440057555366,1.4071762870514966,-1.0177607104284216,-0.10260410416416686,-0.144011520691787,-0.6912552993188915,-0.7344587555240149,0.38883110586633846,0.4032322579342766,-0.33122649758977474,4.550764053847301,-0.9504760365639526,-12.356188475307915,-0.04352800000000001,-0.026783,-0.9386800000000001,0.40711,-0.02875899999999998,-0.49133200000000005,0.45063800000000004,0.0019759999999999778,0.447348,0.9906422756387926,0.0,single,-0.49133200000000005
128,1.066667,step_acsent,0.12826973842092373,-0.07787377009840614,0.0032397408207342263,0.13699675866467936,-0.14549321596771583,-0.18317229036467866,0.006959443244540683,0.006239500839925676,-0.004079673626110629,1.37520998320133,-1.0323974082073422,-0.1277897768178515,0.6317276486826959,0.7210925408937574,-0.47522764468364176,0.3454859656845385,0.28789863616241135,-0.4463234011921103,-3.8356496100511492,-1.7562632324118554,-3.0220389553257077,-0.044538999999999995,-0.02608199999999994,-0.938741,0.41750200000000004,-0.03671399999999991,-0.49242400000000003,0.46204100000000004,0.010631999999999975,0.446317,0.9830025363084012,0.0,single,-0.49242400000000003
129,1.075,step_acsent,0.13080523220929383,-0.07320292811712528,-0.017280691227653223,0.08755355669457418,-0.19805217612647522,-0.20768649919665513,0.08808352334093593,0.017160686427457765,0.028201128045122786,1.4028561142445832,-1.0330013200528054,-0.2046081843273764,0.3042714254614322,0.5605234586920557,-2.462550347820429,9.735279022728427,1.3105946942916342,3.8738511545942287,3.3176684319276912,-0.0724723203484067,-9.218577644248843,-0.04489500000000002,-0.025328999999999935,-0.938362,0.428102,-0.04471199999999986,-0.493985,0.472997,0.019382999999999928,0.444377,0.8432225580831917,0.0,single,-0.493985
130,1.083333,step_acsent,0.11424456978278366,-0.07560302412095253,-0.02304092163686147,0.10881738804610275,-0.23003645690699723,-0.03646615779904076,0.012240489619590149,0.012720508820345328,0.012120484819392194,1.3568942757710085,-1.044521780871222,-0.24012960518420018,-1.9873589855406066,-0.28802304138092,-0.6912552993169501,-9.101528107685642,-0.5328426265585454,-1.929754377262728,-5.515641242478568,-1.3825105986339026,-4.262741012459277,-0.045744999999999925,-0.024593000000000087,-0.938069,0.43845700000000004,-0.052786,-0.495794,0.48420199999999997,0.028192999999999913,0.44227500000000003,0.9643104791666575,0.0,single,-0.495794
131,1.091667,step_acsent,0.1255099592032651,-0.06479481641468625,-0.03251739860811451,0.037026224233245364,-0.12435197711418956,-0.1616241292709234,0.0325173986081012,0.035637149028077436,-0.009239260859131527,1.3356131509479465,-1.0559155267578697,-0.21250299976002596,1.3517385913704891,1.2968811742580377,-1.137086269648815,2.4330344358665026,2.749776842780483,-2.562964444267354,-2.5535306963117828,-1.367140135186943,3.3149274567044333,-0.046520000000000006,-0.02375600000000011,-0.937875,0.448542,-0.061045999999999934,-0.497294,0.495062,0.03728999999999982,0.440581,0.9181337210868536,0.0,single,-0.497294
132,1.1,step_acsent,0.13704548181928086,-0.08676347053882354,-0.033481339253573064,0.23505642414279304,-0.042566535526271446,-0.09001851544566619,0.020880835233409868,0.023040921636888114,0.009360374414976638,1.3730949237969288,-1.0842433697347855,-0.3760950438017419,1.3843180866453326,-2.6363439486543747,-0.11567750455520633,-1.396443462701443,-1.5116077512527424,2.232045514713529,4.497992661584254,-3.399477136315291,-19.6318305582279,-0.047488000000000086,-0.02284099999999989,-0.937518,0.45884199999999997,-0.06935800000000003,-0.500149,0.5063300000000001,0.04651700000000014,0.437369,0.9458779681565564,0.0,single,-0.500149
133,1.108333,step_acsent,0.12684507380295024,-0.08964358574343693,-0.04464178567141862,0.22587217961657616,-0.14240379216339816,-0.06061644386652855,0.01860074402976331,0.025441017640691333,0.009360374414976886,1.2060482419296885,-1.0837633505340327,-0.3512540501620112,-1.2240979258767213,-0.3456276496595973,-1.3393071424271759,-0.27362188931316217,0.288023041378044,2.9769045609586664e-14,-20.046403680216223,0.057604608274667686,2.9810384783068424,-0.048390000000000044,-0.021881999999999957,-0.937068,0.467835,-0.07764199999999999,-0.502704,0.516225,0.05576000000000003,0.434364,0.9452062030517216,0.0,single,-0.502704
134,1.116667,step_acsent,0.14530837532996796,-0.09971202303815932,-0.0568754499640127,0.1951749085170137,-0.01242212141879524,-0.036873381684255205,0.022318214542838742,0.031917446604283355,0.0029997600191981107,1.2035037197024159,-1.060835133189322,-0.2837772978161733,2.2154189497261316,-1.2081158261005889,-1.467922281328772,0.446060776706912,0.7771093068864857,-0.7632126704798088,-0.30531824181336925,2.7511659880862203,8.096562556495972,-0.04941499999999999,-0.02078499999999983,-0.936569,0.476654,-0.08565199999999984,-0.5045949999999999,0.526069,0.06486700000000001,0.4319740000000001,0.9348969906334277,0.0,single,-0.5045949999999999
135,1.125,step_acsent,0.13968558742350468,-0.10020400816031763,-0.047521900876029706,0.3954570851646355,-0.07444555104871058,0.05624213766920104,0.02640105604224169,0.032641305652205736,-0.0003600144005763864,1.152046081843284,-1.031681267250722,-0.2953318132725325,-0.6747615392371696,-0.059040576282049215,1.122470789389545,0.4899605783514921,0.08686656041310312,-0.4031890579352608,-6.175163549637861,3.498603856786294,-1.3865973186558649,-0.05035900000000004,-0.019678000000000084,-0.936176,0.48508999999999997,-0.09341400000000011,-0.50666,0.5354490000000001,0.07373600000000002,0.429516,0.9300277792184855,0.0,single,-0.50666
136,1.133333,step_acsent,0.1576863074522907,-0.09864394575784327,-0.05256210248410578,0.3895479486419016,0.03802144777019589,0.056312558906781926,0.024240969638790032,0.03012120484819435,-0.0012000480019196224,1.0970838833553422,-1.01728069122764,-0.2650906036241494,2.1601728103667575,0.1872149768960008,-0.604848386904611,-0.2592207372436908,-0.30242419344910704,-0.1008080644837686,-6.595727647658984,1.7281382482997987,3.6290903214188637,-0.051470999999999933,-0.018604999999999983,-0.9357479999999999,0.492918,-0.10106899999999985,-0.508431,0.544389,0.08246399999999987,0.42731699999999995,0.935528824146356,0.0,single,-0.508431
137,1.141667,step_acsent,0.16366690664747077,-0.08603311735059409,-0.07667386609070558,0.12451363065947987,0.05095952223042043,0.19418676174363625,0.059995200383962215,0.09203263738903028,-0.013078953683704962,0.9838012958963223,-1.0373170146388226,-0.275617950563952,0.7176144942620619,1.5131783546015223,-2.893180178377683,4.290164476262529,7.4287776026920405,-1.4253546534419543,-13.592823069236754,-2.4041664760238195,-1.263180578330038,-0.05233500000000002,-0.017120999999999942,-0.935218,0.499753,-0.10899700000000001,-0.510089,0.552088,0.09187600000000007,0.425129,0.8156054242531264,0.0,single,-0.510089
138,1.15,step_acsent,0.18168726749070313,-0.07548301932077241,-0.07176287051481973,0.09648060218909073,0.02366133877069906,0.15801518247505086,0.017040681627262303,0.03192127685105963,-0.016800672026881378,0.9156366254650267,-1.0201608064322776,-0.26785071402856503,2.162529802379998,1.2660624060748562,0.5893430428280193,-5.154748440741666,-7.213651810628969,-0.44662406614381983,-8.180087655261756,2.0588273378789417,0.9321056684731835,-0.05370700000000006,-0.016226000000000074,-0.93476,0.505869,-0.11686900000000011,-0.511723,0.5595760000000001,0.10064300000000004,0.423037,0.9335082434792239,0.0,single,-0.511723
139,1.158333,step_acsent,0.18324732989318593,-0.09852394095763185,-0.032641305652231514,0.42426192136093066,0.08579002187353765,0.27701340624538884,0.009600384015370047,0.0178807152286034,-0.01476059042361646,0.8477139085563259,-0.9852394095763719,-0.28513140525620395,0.18721497689700836,-2.765021197270976,4.694775574533486,-0.8928714282841864,-1.684934792086402,0.2448195851751929,-8.151052071126795,4.190735252118692,-2.0737658979525526,-0.055153999999999925,-0.015256000000000158,-0.934611,0.511406,-0.1242580000000002,-0.513827,0.56656,0.10900200000000004,0.42078399999999994,0.9581748885907462,0.0,single,-0.513827
140,1.166667,step_acsent,0.1966642668586619,-0.06791456683466249,-0.08231341492680315,-0.08523487593158323,0.0351456198001658,0.12990902207269,0.008039356851443425,0.014998800096010937,-0.021718262538997366,0.7759779217662736,-1.063354931605483,-0.22882169426446225,1.6099036435656615,3.672831068270932,-5.960176298844802,-0.18730827500919744,-0.3458021517389629,-0.8348538655364817,-8.60762980442209,-9.37311279446994,6.75662478902601,-0.056726000000000054,-0.014564999999999939,-0.934106,0.516234,-0.13255400000000006,-0.515048,0.57296,0.11798900000000012,0.41905800000000004,0.9540145496857441,0.0,single,-0.515048
141,1.175,step_acsent,0.18996759870394497,-0.09324372974919165,-0.033481339253573064,0.248341350691242,0.048208360423084747,0.30114591168585714,0.011760470418821646,0.011400456018235278,-0.01128045121804898,0.7159486379455052,-0.9804392175686869,-0.2872914916596622,-0.803632323858971,-3.0396211345888298,5.860083484126873,0.44655149014498446,-0.4318185620755545,1.2525874620122648,-7.203802210580497,9.950283695763174,-7.016656353678021,-0.05821100000000001,-0.013692999999999955,-0.933921,0.520617,-0.13994700000000004,-0.517163,0.578828,0.1262540000000001,0.41675799999999996,0.9668535387518735,0.0,single,-0.517163
142,1.183333,step_acsent,0.2119284771390796,-0.08076323052921275,-0.07980319212768903,-0.17131487096090026,-0.04486898295562785,0.07862016124589329,0.009240369614783925,0.009600384015343657,-0.012000480019200389,0.5906636265450683,-0.8927157086283501,-0.2809312372494904,2.6354108286493267,1.4977198151900895,-5.558844698681915,-0.30242419345226734,-0.216017281038238,-0.08640691241466639,-15.034802760162973,10.527242162527008,0.7632610596630156,-0.05989999999999995,-0.012940000000000174,-0.933356,0.523773,-0.1467130000000001,-0.5188389999999999,0.583673,0.13377299999999992,0.414517,0.9701130219479046,0.0,single,-0.5188389999999999
143,1.191667,step_acsent,0.21562275017998977,-0.08543316534677711,-0.04943604511638647,0.0012051335235871037,0.16652432015701735,0.10134420444835163,0.006839452843769295,0.004439644828421464,-0.005159587233021483,0.5461963042956522,-0.8316534677225783,-0.2813774898008121,0.44327730272499805,-0.5603473503196938,3.643766140065075,-0.28808696556450825,-0.6192391632975947,0.8208414670241004,-5.335651817784465,7.3268827580719185,-0.053546022476811006,-0.06164000000000003,-0.012191000000000063,-0.932987,0.526528,-0.15293200000000007,-0.520772,0.588168,0.140741,0.412215,0.983917754629213,0.0,single,-0.520772
144,1.2,step_acsent,0.2053282131285292,-0.0936037441497672,-0.026521060842437147,0.08641808558259584,0.0388289869590198,0.04661383795240272,0.0045601824072942325,0.003960158406330258,-0.00828033121324856,0.4867394695787881,-0.800672026881084,-0.28129125165007013,-1.235393861929758,-0.9805086767058878,2.7499081091983117,-0.2735233933127425,-0.057540672277836366,-0.37450425779756447,-7.135105570246572,3.7179216178440693,0.010348992048720928,-0.06331300000000006,-0.01137800000000011,-0.932835,0.5288729999999999,-0.15882400000000008,-0.5228949999999999,0.5921860000000001,0.14744599999999997,0.4099400000000001,0.9829183331550946,0.0,single,-0.5228949999999999
145,1.208333,step_acsent,0.22908916356653128,-0.11220448817954083,-0.011640465618612867,0.17499256145138664,0.16853444964376696,-0.13134866817595894,0.002520100804037968,0.003600144005757106,-0.005640225609024074,0.3370934837393444,-0.764790591623647,-0.36121444857793833,2.8514281096845875,-2.232178570715625,1.7857428565731452,-0.24481958517415442,-0.04320345620702571,0.3168253455207536,-17.95823663019814,4.305944468671102,-9.591167278035138,-0.06520099999999995,-0.010413000000000006,-0.9327850000000001,0.529773,-0.1642619999999999,-0.525808,0.594974,0.1538489999999999,0.40697700000000003,0.9880831480381081,0.0,single,-0.525808
146,1.216667,step_acsent,0.22366210703145228,-0.10883129349652129,-0.03443724502040349,0.0012464072411783366,0.10873070817510833,-0.13253062168554655,-0.00011999040077139125,0.0015598752099881214,0.0005999520038394717,0.2925365970722393,-0.6611471082313425,-0.33141348692105105,-0.651194688634401,0.40475098188380176,-2.735394696639196,-0.31678560172899084,-0.24481267047864458,0.7487614126306293,-5.346398688157662,12.436223109228045,3.5758293324799433,-0.06706600000000007,-0.009492999999999974,-0.932493,0.5303469999999999,-0.16886499999999982,-0.5282830000000001,0.597413,0.15937199999999985,0.40420999999999996,0.9972073754012062,0.0,single,-0.5282830000000001
147,1.225,step_acsent,0.23220928837151988,-0.12528501140043258,-0.011520460818430734,0.1854245451319902,0.15630061022393832,-0.28518679617092346,0.0,0.004560182407294111,-0.0057602304092162,0.23544941797671393,-0.62006480259211,-0.3597743909756328,1.0257027889196508,-1.9745251294744988,2.7501241092010504,0.014399424069529479,0.3600512657273416,-0.7632524196634538,-6.850735520883758,4.9300738796629915,-3.4034446243347234,-0.06900099999999998,-0.008411000000000168,-0.9324450000000001,0.530374,-0.17298800000000014,-0.531185,0.599375,0.16457699999999997,0.40126000000000006,0.9877553279211082,0.0,single,-0.531185
148,1.233333,step_acsent,0.2358094323772966,-0.13356534261372277,-0.0022800912036471162,0.26646492685647505,0.18123478776184565,-0.30100562934742436,-0.0022800912036471162,0.0012000480019279496,0.0032401296051841467,0.20304812192487873,-0.5882635305412225,-0.35401416056642687,0.4320345620756924,-0.9936794927745433,1.1088887093224171,-0.273621889313229,-0.40323225793426043,1.0800864051842587,-3.8883110586626057,3.816305298318475,0.6912552993166899,-0.07098499999999996,-0.007287999999999961,-0.9323990000000001,0.530101,-0.17677699999999996,-0.534116,0.601086,0.169489,0.39828300000000005,0.9931004486936809,0.0,single,-0.534116
149,1.241667,step_acsent,0.34041276697864986,-0.1033117350611944,-0.025797936165115744,0.6410971034297264,-0.32899940719107024,-0.7011951881585873,-0.002279817614589765,0.0019198464122889224,-0.0004799616030722306,0.13258939284857216,-0.48812095032396563,-0.4058075353971647,12.551396040479057,3.630142494903785,-2.821915642124844,3.282806063731208e-05,0.08636889973133757,-0.44637523497196413,-8.454371139465566,12.016148334203995,-6.214707803064245,-0.07384100000000005,-0.0064109999999999445,-0.932188,0.528369,-0.17998399999999992,-0.537283,0.60221,0.17357299999999998,0.39490500000000006,0.994968504269494,0.0,single,-0.537283
150,1.25,step_acsent,0.20352814112563727,-0.1248049921996807,-0.021480859234361077,0.12744901220336838,0.06301840117812367,-0.25824534899290597,-0.001560062402501005,0.0003600144005730556,0.004320172806912473,0.1131645265810642,-0.3813752550102189,-0.43057722308893176,-16.426812174848653,-2.5792940283795156,0.5180699544887444,0.08637408041386853,-0.18718732889906167,0.5760391707650003,-2.331077195188784,12.809995837483223,-2.9724814222689666,-0.07555,-0.005368000000000039,-0.931973,0.5276160000000001,-0.18212200000000012,-0.5406920000000001,0.6031660000000001,0.17675400000000008,0.391281,0.992321151317869,0.0,single,-0.5406920000000001
151,1.258333,step_acsent,0.16512660506420934,-0.12792511700468273,-0.03540141605664802,0.15644761064468773,-0.07330973245206987,-0.16859180450087233,-0.004200168006721177,-0.0006000240009639748,0.0030001200048007217,0.07464298571942916,-0.32029281171244867,-0.4344173766950666,-4.608368662117878,-0.3744299537983984,-1.670533640020049,-0.3168253455202444,-0.11520921655310683,-0.15841267276032203,-4.622769814188814,7.330186403188623,-0.46083686621083125,-0.07696100000000006,-0.004307000000000061,-0.931653,0.5268619999999999,-0.18372499999999992,-0.544017,0.603823,0.17941799999999986,0.387636,0.9913393995381347,0.0,single,-0.544017
152,1.266667,step_acsent,0.18178545716343084,-0.15838732901367625,-0.011279097672190758,0.4349883104955114,-0.0184771984634678,-0.2857305866746082,-0.0033597312214922927,-0.0009599232061444612,0.00431965442764508,0.023038156947443756,-0.2799376049916154,-0.45920326373890036,1.9989023397193864,-3.6551730272370153,2.8944466504028172,0.100844346679731,-0.043184449865668786,0.15833146422418384,-6.192084085911329,4.842237427505753,-2.974068519778448,-0.07850400000000002,-0.002995000000000081,-0.931523,0.525539,-0.18473800000000007,-0.54775,0.604043,0.181743,0.38377300000000003,0.9907400712720767,0.0,single,-0.54775
153,1.275,step_acsent,0.2670106804272101,-0.13080523220929383,-0.013320532821309641,0.19327411431205196,0.2752560675017253,-0.374714393746149,-0.0038401536061481215,0.000840033601354894,0.004320172806912473,0.04608184327373249,-0.1755670226809079,-0.4470178807152301,10.227435889089168,3.3099840158865566,-0.24498201717495524,-0.057652992278391116,0.21600345703820614,6.220800040720469e-05,2.7653529732736044,12.52497087612006,1.462304455018648,-0.08076099999999997,-0.0018979999999999553,-0.931376,0.523698,-0.18511100000000003,-0.551364,0.604459,0.18321300000000007,0.380012,0.990265135786514,0.0,single,-0.551364
154,1.283333,step_acsent,0.3105724228969146,-0.11784471378855409,-0.05760230409215367,-0.04489245094837248,0.5042493384703546,-0.5158655244524363,-0.005280211208453526,0.000720028801146092,0.0057602304092162,-0.014160566422657497,-0.13404536181447438,-0.47797911916475994,5.227618201092493,1.55532442346568,-5.31402511350573,-0.1728138248296387,-0.014401152071138826,0.17281382482943736,-7.22937833870022,4.982798615916573,-3.7154972338328713,-0.08339300000000005,-0.0009099999999999664,-0.930848,0.520992,-0.18524600000000002,-0.554867,0.6043850000000001,0.18433600000000006,0.375981,0.9869212506706047,0.0,single,-0.554867
155,1.291667,step_acsent,0.24538036957043466,-0.15310775137987245,-0.015358771298298466,0.3167813097251262,0.3252234781399204,-0.2236954021513619,-0.005519558435324138,0.0003599712023008521,0.00515958723302162,-0.06119510439164942,-0.06719462443003414,-0.527597792176634,-7.822420605529301,-4.231226012877254,5.068818429788338,-0.028719369674899957,-0.04320345558498281,-0.0720714154301165,-5.643693060834272,8.02144677039135,-5.953764460268186,-0.085484,0.0003689999999998417,-0.9306770000000001,0.518437,-0.18453000000000008,-0.5591360000000001,0.603921,0.18489899999999992,0.371541,0.987393074544058,0.0,single,-0.5591360000000001
156,1.3,step_acsent,0.2845313812552467,-0.1442457698308084,-0.035281411256451616,0.15952482876682134,0.32850401932932516,-0.5189456574139546,-0.004800192007671701,0.0018000720028918764,0.0038401536061438554,-0.16476659066362356,-0.04524180967239471,-0.5742229689187514,4.698309334550743,1.063480325100673,-2.390812427475435,0.08632742441526751,0.17281900883127313,-0.15833836876007942,-12.429075515657306,2.634443148642631,-5.595245018854732,-0.08789499999999995,0.0015860000000000873,-0.930351,0.5146930000000001,-0.183705,-0.5636270000000001,0.602588,0.1852910000000001,0.36672399999999994,0.989324368058662,0.0,single,-0.5636270000000001
157,1.308333,step_acsent,0.27313092523701865,-0.14736589463578761,-0.03900156006240522,0.18799361665517858,0.43171686757753824,-0.3705642147938828,-0.004800192007685152,0.0014400576022922224,0.006120244809792739,-0.14844593783751509,-0.005040201608049424,-0.47713908556342444,-1.368109446565239,-0.37442995379566213,-0.44643571414300204,-1.6141900675296154e-12,-0.04320345621020728,0.2736218893134411,1.9585566814002913,4.824385943159204,11.650532023920293,-0.09021100000000004,0.002825999999999995,-0.929975,0.51118,-0.18251899999999988,-0.567278,0.601391,0.18534499999999987,0.36269700000000005,0.9868161498478505,0.0,single,-0.567278
158,1.316667,step_acsent,0.25653947684184747,-0.14122870170386065,-0.04115670746340048,0.07097205643350478,0.2645017494268675,-0.39340258714583604,-0.003959683225335912,0.0009599232061444612,0.005039596832253425,-0.1346292296616258,-0.003359731221518936,-0.3702903767698529,-1.9908145422571462,0.7364042394920709,-0.2585970003594006,0.10085298564305663,-0.05761151861624161,-0.12966738391400356,1.6578723513185962,0.2016403151584444,12.820819389677315,-0.09238199999999996,0.004010999999999987,-0.92959,0.50792,-0.18137000000000003,-0.570021,0.600302,0.18538100000000002,0.359569,0.9891990123859025,0.0,single,-0.570021
159,1.325,step_acsent,0.30361214448578605,-0.1610464418576703,-0.02748109924397418,0.3319062937693721,0.4269360192221875,-0.48585043401278877,-0.003480139205575066,0.0014400576023188686,0.003600144005760533,-0.09528381135245534,-0.12096483859353259,-0.09468378735149968,5.648946075115686,-2.3782239474150777,1.6411386318764458,0.05754758427467302,0.05761843227822055,-0.17274124882910183,4.721639062663005,-14.113177411738237,33.07411369475047,-0.09494100000000005,0.005365000000000064,-0.929331,0.5045959999999999,-0.18103599999999997,-0.570581,0.599537,0.18640100000000004,0.35875,0.9913163353149609,0.19872255095531727,single,-0.570581
160,1.333333,step_acsent,0.3084123364934497,-0.16320652826113094,-0.028561142445692585,0.3863798374861116,0.46624823438406143,-0.5479564480801223,-0.003840153606148019,0.000360014400573046,0.0039601584063359814,-0.08460338413536361,-0.09084363374536247,-0.11508460338413187,0.5760460827629359,-0.259220737244761,-0.12961036862095118,-0.043203456207001924,-0.1296103686242414,0.04320345620730134,1.2817025341523507,3.6146891693471246,-2.44819585174989,-0.09754300000000005,0.006728000000000067,-0.92906,0.501321,-0.18043300000000007,-0.571302,0.5988640000000001,0.18716100000000013,0.357758,0.9907865972188602,0.21787136338532265,single,-0.571302
161,1.341667,step_acsent,0.30993520518359147,-0.13750899928007118,-0.0502759779217742,0.051143347239069915,0.47247019761654824,-0.6282148170479973,-0.005879529637624991,-0.002639788816890678,0.005279577633789682,-0.05339572834173379,-0.05591552675784309,-0.10727141828653983,0.18272962444706223,3.083456801183135,-2.6055718113849324,-0.24470554733345456,-0.35994759028843065,0.1583176418830964,3.7446191257055936,4.191037555497966,0.9375072111341726,-0.10017500000000001,0.007852000000000192,-0.928597,0.498293,-0.17975299999999983,-0.571777,0.598468,0.18760500000000002,0.35682,0.9861144265764084,0.2796164510137617,single,-0.571777
162,1.35,step_acsent,0.4132965318612675,-0.1782071282851233,-0.05460218408736052,0.3039431952766033,0.8427566664026657,-0.8914862071290742,-0.0032401296051840604,-0.0016800672027097432,0.005880235209408325,-0.011880475219008776,-0.0714028561142581,-0.123484939397574,12.403855355535132,-4.883970839439747,-0.5191655064906091,0.31674067351984686,0.11517120054973215,0.07208179234592975,4.982029655913151,-1.8585538649243665,-1.9457003613385206,-0.10364600000000002,0.00932299999999997,-0.928093,0.49475,-0.178863,-0.572351,0.598396,0.18818599999999996,0.3557419999999999,0.9884652419254315,0.26143924713488453,single,-0.572351
163,1.358333,step_acsent,0.40105604224168806,-0.17172686907475976,-0.07356294251769833,0.22643314621361757,0.8286421248655853,-0.9446518028281498,-0.0034801392055617427,-0.00048001920075519197,0.006000240009599778,0.04176167046681919,-0.09456378255130422,-0.07320292811712528,-1.4689175110499912,0.7776622117321021,-2.2753820269216356,-0.028802304137487633,0.1440115206953753,0.01440115206905725,6.437314974898411,-2.7794223493395336,6.034082716962581,-0.10701699999999992,0.010750000000000037,-0.92743,0.491756,-0.17822000000000005,-0.5723480000000001,0.598773,0.18897000000000008,0.3550819999999999,0.9884116117149796,0.2888851367441664,single,-0.5723480000000001
164,1.366667,step_acsent,0.2798176145908307,-0.1450683945284385,-0.038876889848810714,0.14437702320312404,0.39413414699682475,-0.5512040682914516,-0.00359971202304839,0.0014398848092033701,0.005999520038397054,0.06491480681545425,-0.09959203263737462,0.01679865610751475,-14.547447522300986,3.198761044674952,4.161993360797619,-0.014347590291174293,0.2303700515908984,-8.638963315621068e-05,2.7781541095074256,-0.6033417429890041,10.79932616086385,-0.109379,0.011970999999999954,-0.927056,0.48996500000000004,-0.17784099999999992,-0.5718840000000001,0.5993440000000001,0.18981199999999987,0.35517199999999993,0.9880946515749595,0.2998979430130285,single,-0.5718840000000001
165,1.375,step_acsent,0.3782551302052169,-0.16488659546381843,-0.08640345613825279,0.07805810532568438,0.7398863138920828,-0.8741218792189525,-0.001800072002878601,0.006600264010577076,-0.0007200288011519401,0.007320292811713195,-0.14856594263771555,-0.07032281291252086,11.812974392702158,-2.378279243415349,-5.703416091376756,0.2159654410380182,0.6192702749758495,-0.8063781158705216,-6.9116181451747964,-5.877104284212334,-10.454994482183658,-0.11254600000000003,0.013400000000000079,-0.926342,0.48687400000000003,-0.177705,-0.57175,0.5994200000000001,0.19110500000000008,0.354592,0.9885348128741158,0.22578027861559008,single,-0.57175
166,1.383333,step_acsent,0.36337453498140626,-0.15552622104883904,-0.06156246249849878,0.10377632436634424,0.6400108974431881,-0.8803045931932432,-0.0030001200047932272,0.005280211208440344,0.004320172806912473,0.047401896075842574,-0.09540381615263248,0.03924156966278947,-1.7857428565715552,1.1232898613919926,2.98103847830964,-0.1440115206905841,-0.15841267276331988,0.6048483869032113,4.809984791087213,6.379710366624693,13.148251839110927,-0.11559900000000001,0.014739999999999975,-0.925793,0.484241,-0.17720399999999992,-0.57091,0.5998399999999999,0.1919439999999999,0.35488299999999995,0.9875785530979584,0.3107857719286458,single,-0.57091
167,1.391667,step_acsent,0.2886969042476603,-0.1648668106551447,-0.040196784257256014,0.22318168305971553,0.23969762214940576,-0.6583624732849642,-0.003359731221505614,0.00611951043916761,0.006119510439165112,0.02243820494360513,-0.0615550755939503,0.049676025917922584,-8.960598840142234,-1.1207810902694484,2.563676294845525,-0.043149894013964976,0.10070785105918645,0.21590324361082616,-2.995403303604182,4.06152394512622,1.2520345878489358,-0.11803300000000005,0.016164999999999985,-0.925407,0.48202199999999995,-0.17634299999999992,-0.570161,0.600055,0.1925079999999999,0.35524599999999995,0.9845273889017748,0.36296586066617603,single,-0.570161
168,1.4,step_acsent,0.38857554302172,-0.20220808832352719,-0.07308292331692982,0.5028100535007114,0.7205974094799371,-0.8295013328043281,-0.004080163206525717,0.006360254410186157,0.005640225609024225,-0.0015600624024960088,-0.015480619224774622,0.05520220808832595,11.985916089530852,-4.4811325655085605,-3.946494546942771,-0.08645529641426972,0.028890432139511445,-0.05751648027611806,-2.879907277823276,5.529155930538353,0.6631683871838978,-0.121305,0.017903000000000002,-0.924751,0.478771,-0.17478700000000003,-0.569092,0.6000759999999999,0.19269000000000003,0.35565899999999995,0.9842844103519546,0.40441165889158714,single,-0.569092
169,1.408333,step_acsent,0.3727349093963624,-0.16224648985959392,-0.06468258730349907,0.18979385180733813,0.5929052599568193,-0.8695116038908397,-0.0009600384015370048,0.007440297611905125,0.009240369614784512,-0.023880955238209677,0.0357614304572068,0.024240969638789387,-1.9009520731258027,4.795583639017469,1.008080644837466,0.3744299537967908,0.12961036862101874,0.4320345620737098,-2.6786142848569874,6.149291933515004,-3.7154972338336765,-0.12441899999999995,0.01931700000000003,-0.9241349999999999,0.47546600000000006,-0.1731370000000001,-0.5683509999999999,0.599885,0.19245400000000012,0.355784,0.9801628762092678,0.4177266659160569,single,-0.5683509999999999
170,1.416667,step_acsent,0.38024958003361514,-0.1949844012479024,-0.06479481641468625,0.6099017968653331,0.7028401671520532,-0.8831768443820904,0.0003599712023008521,0.00611951043914113,0.006839452843771975,-0.01979841612671006,0.07967362610991248,0.023878089752814136,0.9016883414030351,-3.9282351077884687,-0.013466416029179034,0.1583884813820353,-0.15848178218910733,-0.28808696556426466,0.4898655041396323,5.269041954968385,-0.043542102948795104,-0.12758500000000006,0.020992999999999817,-0.923538,0.47213199999999994,-0.1708480000000001,-0.567612,0.5997170000000001,0.19184099999999993,0.35592599999999996,0.9846924036211298,0.35750217205483886,single,-0.567612
171,1.425,step_acsent,0.3620544821792732,-0.17292691707668312,-0.055802232089275115,0.19148581841476217,0.5317909299374937,-0.7922150519629659,0.0033601344053795167,0.005040201608075936,0.012240489619585153,-0.022800912036482213,0.08136325453017455,-0.010080403216125227,-2.183499082484292,2.6470039807054953,1.0791532851807244,0.36003398572886264,-0.12952224061744563,0.6481503391111344,-0.36031392172952137,0.2027635209722842,-4.075182163559195,-0.13057399999999997,0.02247599999999994,-0.922971,0.46892500000000004,-0.16872900000000013,-0.567231,0.599499,0.19120500000000007,0.35573999999999995,0.9772377187240091,0.3581719026971477,single,-0.567231
172,1.433333,step_acsent,0.17208688347534615,-0.3457338293531933,0.3469338773550946,2.1443254274685675,-1.2660487255364188,-1.2043349241383812,0.0055202208088312625,0.004080163206539041,0.01272050882035233,-0.018720748829952106,0.06792271690868494,-0.02256090243610023,-22.797023725420473,-20.737658979540594,48.330266343978565,0.2592207372437016,-0.11520921655309065,0.057604608276392834,0.4896391703504313,-1.6129290317400378,-1.4977198151896216,-0.13196200000000002,0.025391000000000163,-0.925756,0.46733499999999994,-0.16528199999999993,-0.5703100000000001,0.599297,0.1906730000000001,0.35544599999999993,0.9759092044883142,0.37670094814568,single,-0.5703100000000001
173,1.441667,step_acsent,0.39140868730501105,-0.17758579313653883,-0.09575233981281009,-0.19127724037143426,0.35118781284690687,-0.8789534414282105,0.004919606431480372,0.003719702423793135,0.011399088072954653,-0.004679625629949253,0.0219582433405379,-0.038756899448039325,26.316511138668496,20.176150253978065,-53.118096612419166,-0.07206795984531866,-0.04325183378280569,-0.15855780506331496,1.6848000000003296,-5.515295604529241,-1.9433641722988928,-0.13518300000000005,0.02690199999999998,-0.9248630000000001,0.464034,-0.16361899999999996,-0.5698350000000001,0.599217,0.19052099999999994,0.355028,0.9783989504847814,0.4253496929852226,single,-0.5698350000000001
174,1.45,step_acsent,0.299171966878674,-0.13272530901236787,-0.12264490579624238,-0.4257832428537428,-0.31716858633107414,-0.6753890638019816,0.008760350414015409,0.00216008640346498,0.00972038881555244,0.019320772830912752,-0.0018000720028919243,-0.03012120484819435,-11.068849205128755,5.383473433837918,-3.227237007492204,0.4609077142127771,-0.18716140889573615,-0.20145196896702608,2.8801630218243397,-2.851111885687032,1.0363248049736054,-0.13760300000000003,0.028026000000000106,-0.92376,0.461702,-0.162528,-0.569064,0.5993050000000001,0.1905540000000001,0.354696,0.9778957224242625,0.44028262156191655,single,-0.569064
175,1.458333,step_acsent,0.23832953318132827,-0.15024600984039468,-0.06648265930636431,-0.24489851638447258,-0.09734830004543713,-0.3441904711066227,0.00516020640825807,-0.0004800192007818256,0.00900036001440026,0.02856114244569758,-0.01668066722667548,-0.04008160326412998,-7.301384099045319,-2.1025682020912644,6.739739168351984,-0.432034562073356,-0.31682534552343206,-0.08640691241475672,1.108888709322533,-1.7857428565682583,-1.1952956217371244,-0.13954600000000006,0.029274000000000022,-0.923131,0.459954,-0.16141499999999986,-0.568844,0.5995,0.1906889999999999,0.354287,0.9826903503952787,0.4133891455809116,single,-0.568844
176,1.466667,step_acsent,0.3570914326853894,-0.16450683945284822,-0.14686825053995994,-0.3795704407142625,0.5650464628636495,-0.5215782411372334,0.0029997600192048514,-0.003959683225336017,0.009239260859131527,0.023518118550516613,-0.02735781137510455,-0.029037676985844082,14.25028791745421,-1.7111626604816181,-9.645499308087013,-0.25923282806014636,-0.41752628084404336,0.028665808103104432,-0.6051144582650665,-1.2811548054270787,1.3251651401831186,-0.14249699999999998,0.030612000000000084,-0.92183,0.45717399999999997,-0.16027199999999997,-0.5678620000000001,0.599671,0.19088400000000005,0.35396799999999995,0.9825165480905746,0.42281446544335577,single,-0.5678620000000001
177,1.475,step_acsent,0.3882155286211366,-0.1426857074282808,-0.22608904356173812,-0.9011244000970483,0.6880978051328083,-0.44732963761897565,0.005520220808831116,-0.003600144005757106,0.006600264010560246,0.013440537621504744,-0.022920916836652688,-0.06108244329772864,3.735040913926158,2.618640588571588,-9.50687543763072,0.30246739345088447,0.04314643220675677,-0.316692289520129,-1.2093580858048352,0.5324486425599166,-3.8455257784572185,-0.14568599999999998,0.031770999999999994,-0.919891,0.454051,-0.15927399999999992,-0.566487,0.599737,0.1910449999999999,0.35340400000000005,0.9844546041427107,0.3889809656033897,single,-0.566487
178,1.483333,step_acsent,0.28117124684987466,-0.26101044041762367,0.06168246729869425,0.4341529016720811,-0.6088240753108116,-0.6931870137739425,0.005640225609026723,-0.004200168006721177,0.0019200768030723952,-0.026401056042243354,-0.03816152646106365,-0.046201848073926285,-12.84582764565738,-14.199535940158881,34.533962661758665,0.014401152069555726,-0.07200576034610302,-0.561644930695775,-4.781182486949294,-1.828946312781843,1.7857428565705618,-0.14798199999999995,0.033911000000000024,-0.920389,0.451488,-0.15741699999999992,-0.5673860000000001,0.59947,0.19132799999999994,0.35300299999999996,0.9878504399788052,0.39086287133164505,single,-0.5673860000000001
179,1.491667,step_acsent,0.38276937844972425,-0.24862011039117565,-0.038276937844980416,-0.05400960882955755,0.07946744064136024,-0.82730387988162,0.0015598752099747583,-0.008159347252214599,0.0022798176145905976,-0.03371730261578923,-0.04439644828413471,-0.03323734101271533,12.190800527939624,1.486720665520509,-11.994169083714171,-0.48960287965585947,-0.4750635043788567,0.04316544414665222,-0.8778793584768203,-0.7481307683070569,1.5556163980334599,-0.15115900000000004,0.03591500000000014,-0.920051,0.448017,-0.15571499999999983,-0.567344,0.599176,0.19162999999999997,0.352707,0.9856428756933173,0.3918254759720036,single,-0.567344
180,1.5,step_acsent,0.3823352934117426,-0.2341293651745868,-0.11004440177606553,-0.13940634552384898,0.24980334800329168,-0.5089145209865558,-0.014160566422651212,-0.01860074402977663,0.008520340813632817,-0.04260170406816409,-0.03828153126127243,-0.06804272170887374,-0.05209228824932801,1.7389589843500528,-8.612440169337066,-1.8865284570534158,-1.253017734016816,0.748892739594657,-1.0661708211178376,0.733819395519301,-4.176812756049289,-0.15446300000000002,0.03771099999999983,-0.9190630000000001,0.444476,-0.1540830000000002,-0.566994,0.598939,0.19179400000000002,0.3520690000000001,0.9585302812132072,0.3517678921910862,single,-0.566994
181,1.508333,step_acsent,0.3896555862234525,-0.23124924997000235,-0.14364574582983494,-0.17725107613190658,0.22997179493073852,-0.3453381486434931,-0.008880355214210869,-0.011760470418808637,-0.0015600624024960088,-0.023520940837633928,-0.04080163206528382,-0.01452058082323093,0.8784702762162413,0.3456276496561233,-4.03232257935554,0.6336506910404885,0.8208656679428845,-1.2096967738064224,2.2897831789908,-0.3024241934491075,6.422913822830108,-0.15778400000000004,0.03953999999999991,-0.917879,0.44103299999999995,-0.1524960000000002,-0.565918,0.598817,0.1920360000000001,0.35196099999999997,0.9753016437849085,0.41786097313223125,single,-0.565918
182,1.516667,step_acsent,0.27465802735780753,-0.21526277897768895,-0.08195344372450011,-0.5619780063092958,-0.4245955593339596,-0.19102864021855387,-0.007079433645312071,-0.009599232061444612,-0.007199424046076798,-0.023878089752818493,-0.026637868970475494,-0.038276937844973755,-13.798603175623239,1.918223061232695,7.40248405391581,0.21609330080378986,0.25932785665514857,-0.6766692636885945,-0.042854441466830144,1.6995156101281756,-2.850534799825131,-0.16013200000000005,0.0412539999999999,-0.9172560000000001,0.43854499999999996,-0.15092400000000006,-0.5655540000000001,0.598677,0.19217799999999996,0.35170199999999996,0.9767803158515673,0.4126809298492041,single,-0.5655540000000001
183,1.525,step_acsent,0.35197407896315736,-0.2416896675867009,-0.08352334093364171,0.0028714695852653767,-0.13277165667440877,-0.23798931179552943,-0.002520100804024712,-0.0074402976119053235,-0.005280211208447838,-0.012240489619585479,-0.025681027241082253,-0.019080763230525162,9.278297324535044,-3.1713534872209532,-0.18839520090502915,0.5471418266275532,0.25908249724460686,0.23031475310560154,1.3965678787031226,0.11482560055121192,2.3036330990578144,-0.16308599999999995,0.043205999999999856,-0.916604,0.43551,-0.14912400000000003,-0.565017,0.598596,0.1923299999999999,0.351587,0.9842247057588642,0.44290796242168484,single,-0.565017
184,1.533333,step_acsent,0.4042961718468748,-0.2310092403696053,-0.1812072482899298,0.09449003098781808,0.6506452910725281,-0.23846226469265014,0.0022800912036470555,-0.008880355214197309,-0.00528021120844853,-0.003960158406336814,-0.0205208208328235,-0.02244089763590417,6.278902302138066,1.281702534152817,-11.722537784265736,0.5760460827639126,-0.17281382482802832,-8.306188250506827e-14,0.993679492769533,0.6192495389725985,-0.4032322579357914,-0.16643600000000003,0.0450569999999999,-0.915138,0.43210799999999994,-0.14737,-0.5636939999999999,0.598544,0.1924269999999999,0.3514440000000001,0.9823663709040955,0.44889061759973214,single,-0.5636939999999999
