frame_id,timestamp,gait_type,root_linear_velocity_x,root_linear_velocity_y,root_linear_velocity_z,root_angular_velocity_x,root_angular_velocity_y,root_angular_velocity_z,left_linear_velocity_x,left_linear_velocity_y,left_linear_velocity_z,right_linear_velocity_x,right_linear_velocity_y,right_linear_velocity_z,root_acceleration_x,root_acceleration_y,root_acceleration_z,left_acceleration_x,left_acceleration_y,left_acceleration_z,right_acceleration_x,right_acceleration_y,right_acceleration_z,left_pos_rel_x,left_pos_rel_y,left_pos_rel_z,right_pos_rel_x,right_pos_rel_y,right_pos_rel_z,step_length,step_width,step_height,left_contact_prob,right_contact_prob,support_type,max_foot_height
<<<<<<< HEAD
<<<<<<< HEAD
1,0.008333,step_decsent,-0.02052082083283052,-0.09480379215168429,-0.029521180847256752,0.008351389654974393,0.09725858460645383,0.07714112078823811,-0.0019200768030673814,0.0002400096003775938,-0.0014400576023055323,-0.006480259210368234,0.002640105604224311,-0.008400336013442276,0.0,0.0,0.0,0.0,0.0,0.0,0.0,0.0,0.0,-0.035368999999999984,0.10414699999999996,-0.9095679999999999,-0.023036,-0.16678700000000002,-0.9056009999999999,0.012332999999999983,0.27093399999999995,0.003967000000000054,0.9959798889471154,0.9421084039778684,double,-0.9056009999999999
2,0.016667,step_decsent,-0.050515958723302695,-0.10811135109191418,-0.025437964962788447,0.44700481430208394,-0.049274820302747546,-0.0186181686668618,-0.002039836813053665,0.00035997120230750603,0.0010799136069158573,-0.005399568034559305,0.0013198944084469788,-0.005999520038396267,-3.5991286165673353,-1.5967793304811482,0.4899467103993646,-0.01437005159422648,0.01439424069233408,0.3023723553181413,0.12967256729168813,-0.15841267047964147,0.2880748710158399,-0.03496499999999997,0.105051,-0.909347,-0.022660000000000013,-0.165875,-0.9054390000000001,0.012304999999999955,0.270926,0.0039079999999999115,0.9961067269950517,0.9472887759475616,double,-0.9054390000000001
3,0.025,step_decsent,-0.008760350414015329,-0.10920436817472629,0.03864154566181849,-0.2634024559113871,-0.06966148946967235,0.17053503837821588,-0.0002400096003842554,0.0001200048001887969,-0.0004800192007685108,-0.003600144005757169,0.0014400576023046996,-0.007800312012478308,5.010873432051766,-0.1311672966293179,7.689848868907587,0.21598790503653062,-0.02879712013905066,-0.18719942489912014,0.21593952103709774,0.014420160069329275,-0.2161036810370864,-0.03489399999999998,0.10596199999999997,-0.909673,-0.022616999999999998,-0.16495300000000002,-0.905826,0.012276999999999982,0.27091499999999996,0.003846999999999934,0.999083448198937,0.9470118437185864,double,-0.905826
4,0.033333,step_decsent,-0.01488059522381051,-0.0987639505580245,-0.01788071522860371,0.003698360376453214,0.028244981827940906,0.08303780842342576,-0.00012000480019545849,-0.000840033601341563,0.0003600144005730523,-0.004800192007678446,0.0016800672026881223,-0.006240249609983978,-0.7344587555256428,1.2529002300134142,-6.782942624555646,0.014401152068738378,-0.11520921655230529,0.10080806448356693,-0.14401152069138093,0.02880230413817625,0.18721497689839547,-0.034770999999999996,0.10677800000000001,-0.909521,-0.02253299999999997,-0.16411599999999998,-0.905729,0.012238000000000027,0.27089399999999997,0.0037920000000000176,0.9984637093988071,0.9486630554572217,double,-0.905729
5,0.041667,step_decsent,-0.05039596832253131,-0.11651067914566829,-0.017518598512116564,0.3276914243158257,-0.04893674115461478,-0.012272338676440887,0.0010799136069091966,-0.0011999040076805855,-0.00011999040076472815,-0.002399808015361171,0.0010799136069108617,-0.004439644828414836,-4.2615038515383725,-2.1294370755512095,0.043450529936062694,0.143978690557314,-0.043180994281140195,-0.057595968483055,0.2880230372350942,-0.07201267047963289,0.21605528936514778,-0.03434200000000004,0.107739,-0.909376,-0.022133000000000014,-0.163136,-0.9056200000000001,0.012209000000000025,0.270875,0.0037559999999998706,0.9973020683218893,0.9538383628639252,double,-0.9056200000000001
6,0.05,step_decsent,-0.02208088323533151,-0.09552382095283705,0.024720988839544995,-0.035086012036002014,-0.14152261707526215,0.10367068255746142,0.00108004320173248,-0.0007200288011527661,0.000840033601341563,-0.0013200528021100738,0.0,-0.004200168006721138,3.397946128309108,2.5185237240887117,5.068953240329,1.555200087405275e-05,0.057587328276469375,0.11520748855229702,0.12957580862247656,-0.12959481662196828,0.02873836813796929,-0.034148999999999985,0.10852899999999999,-0.909575,-0.02195999999999998,-0.16233999999999998,-0.905861,0.012189000000000005,0.27086899999999997,0.003713999999999995,0.9974230771777386,0.9555221319541402,double,-0.905861
7,0.058333,step_decsent,-0.027001080043198754,-0.08964358574342945,-0.003600144005757169,0.15786920653581152,-0.1516999778369072,-0.0005134166642969522,0.002400096003835892,0.00012000480019545849,0.000840033601341563,-0.0004800192007685108,0.0001200048001921277,-0.004320172806909935,-0.5904472348334625,0.7056564513869674,-3.398671888311792,0.1584126727593198,0.10080806448436633,0.0,0.10080806448356691,0.01440115206913809,-0.014401152068738403,-0.033904000000000045,0.10927700000000001,-0.909538,-0.02173900000000001,-0.161592,-0.905867,0.012165000000000037,0.270869,0.00367099999999998,0.9957571896004725,0.9560426417328753,double,-0.905867
8,0.066667,step_decsent,-0.01715862730981572,-0.09959203263738868,-0.03815694744420931,0.08259874179414009,0.00019361556822547474,0.010358752554554809,0.0016798656107528196,-0.0009599232061444684,0.002519798416125899,-0.0002399808015361171,0.0005999520038394602,-0.0038396928245778734,1.1809998480181223,-1.193718129824721,-4.146484693838749,-0.08642073351128778,-0.1295809942812487,0.20155565332185457,0.028802303723589353,0.05758905731309484,0.057652985640996135,-0.03374700000000003,0.110099,-0.909199,-0.021598000000000006,-0.160757,-0.905581,0.012149000000000021,0.270856,0.00361800000000001,0.9947051426706359,0.9573305268620095,double,-0.905581
9,0.075,step_decsent,-0.02328093123725281,-0.08604344173766902,-0.004200168006721142,0.09641204446563995,-0.2195833806640267,0.01506346707601749,0.009600384015363561,-0.00648025921036824,0.005760230409222134,-0.0003600144005797142,0.0001200048001921278,-0.003000120004799864,-0.7347058595268322,1.6258959438041125,4.074976531559846,0.9505002285624323,-0.6624668191796202,0.38886739386730323,-0.014404608069554443,-0.05759596827641099,0.1007527684841006,-0.033472999999999975,0.110762,-0.9091159999999999,-0.02140700000000001,-0.16003900000000001,-0.9055709999999999,0.012065999999999966,0.270801,0.0035450000000000204,0.9784399168315265,0.9595099571309438,double,-0.9055709999999999
10,0.083333,step_decsent,-0.02952118084723008,-0.09024360974439002,-0.01512060482417477,0.08141647298213278,-0.040589650220185416,-0.0762855322523477,0.005040201608062698,-0.001800072002878583,0.0031201248049886558,0.0,0.0009600384015361881,-0.0026401056042201455,-0.7488599075935755,-0.5040403224194167,-1.3105048382879658,-0.5472437786272483,0.5616449306959861,-0.31682534552183805,0.043203456207813976,0.1008080644838665,0.043203456207814475,-0.03318500000000002,0.11149900000000001,-0.9089640000000001,-0.02116100000000004,-0.159279,-0.905467,0.01202399999999998,0.270778,0.0034970000000000834,0.9896748593950695,0.9603479327530282,double,-0.905467
11,0.091667,step_decsent,-0.033597312215023115,-0.11735061195104479,0.026997840172776563,0.5323042276494903,-0.13463834128190194,-0.037536701105929535,0.009239260859130525,-0.0026397888168972904,0.007799376049913821,0.002399808015361173,-0.00035997120230334335,-0.0020398368130603276,-0.48909663640425227,-3.252580058393903,5.053809094906571,0.5038468023839489,-0.1007579570456813,0.5614652321724464,0.2879539255292986,-0.1583884813822333,0.07202649281975262,-0.032828000000000024,0.112455,-0.909124,-0.02086100000000002,-0.158304,-0.9057090000000001,0.011967000000000005,0.27075899999999997,0.003414999999999946,0.9793735139936774,0.9605664847557617,double,-0.9057090000000001
12,0.1,step_decsent,-0.027721108844358158,-0.08184327373094775,-0.03780151206049021,-0.18863570770786037,-0.15429663577698516,-0.038657322788695624,0.006960278411136739,0.0006000240009573072,0.006600264010563687,0.0006000240009573072,-0.0010800432017283156,-0.002520100804031349,0.7051726113842496,4.261051028452779,-7.776233317324699,-0.27348883331258655,0.38879308986614597,-0.14389920069004353,-0.21598272103730523,-0.0864120964148532,-0.057633984275893536,-0.032538999999999985,0.11314199999999996,-0.908754,-0.020625000000000004,-0.15763100000000002,-0.905415,0.01191399999999998,0.270773,0.003338999999999981,0.9839818688346088,0.9619322066628582,double,-0.905415
13,0.108333,step_decsent,-0.02520100804032019,-0.07944317772710865,0.001560062402500992,0.08549736243820782,-0.3613215679357505,-0.025601107138243547,0.003000120004799864,0.0002400096003842556,0.002880115204611067,0.001560062402500992,-0.0006000240009598062,-0.00324012960518412,0.3024241934522946,0.2880230413823475,4.723577878674095,-0.47523801828115664,-0.043203456207014504,-0.44643571414288047,0.11520921655390444,0.057604608276552234,-0.08640691241482919,-0.032304,0.11380599999999996,-0.908743,-0.020401999999999976,-0.156974,-0.905455,0.011902000000000024,0.27077999999999997,0.0032879999999999576,0.9930571003009252,0.961043573930569,double,-0.905455
14,0.116667,step_decsent,-0.019438444924405485,-0.1081113510919141,0.014998800095983993,0.07647792106064619,-0.03276465659386733,-0.10531720241003473,0.0013198944084453126,-0.0009599232061378068,0.002519798416125897,0.0013198944084453126,-0.000959923206143635,-0.00035997120230084497,0.6914522577291454,-3.4399056113277435,1.612519521656226,-0.20161094268713098,-0.1439804183491794,-0.043234555853752084,-0.02881785385837284,-0.04318444986607013,0.3455913610371097,-0.03213100000000002,0.11469900000000002,-0.908847,-0.020228999999999997,-0.156081,-0.9055829999999999,0.011902000000000024,0.27078,0.0032640000000000446,0.994996401886576,0.9645745451809524,double,-0.9055829999999999
=======
=======
>>>>>>> 3b0d06690e55fb02323d988053aa126fb7c3a6e7
1,0.008333,stand,-0.02052082083283052,-0.09480379215168429,-0.029521180847256752,0.008351389654974393,0.09725858460645383,0.07714112078823811,-0.0019200768030673814,0.0002400096003775938,-0.0014400576023055323,-0.006480259210368234,0.002640105604224311,-0.008400336013442276,0.0,0.0,0.0,0.0,0.0,0.0,0.0,0.0,0.0,-0.035368999999999984,0.10414699999999996,-0.9095679999999999,-0.023036,-0.16678700000000002,-0.9056009999999999,0.012332999999999983,0.27093399999999995,0.003967000000000054,0.9959798889471154,0.9421084039778684,double,-0.9056009999999999
2,0.016667,stand,-0.050515958723302695,-0.10811135109191418,-0.025437964962788447,0.44700481430208394,-0.049274820302747546,-0.0186181686668618,-0.002039836813053665,0.00035997120230750603,0.0010799136069158573,-0.005399568034559305,0.0013198944084469788,-0.005999520038396267,-3.5991286165673353,-1.5967793304811482,0.4899467103993646,-0.01437005159422648,0.01439424069233408,0.3023723553181413,0.12967256729168813,-0.15841267047964147,0.2880748710158399,-0.03496499999999997,0.105051,-0.909347,-0.022660000000000013,-0.165875,-0.9054390000000001,0.012304999999999955,0.270926,0.0039079999999999115,0.9961067269950517,0.9472887759475616,double,-0.9054390000000001
3,0.025,stand,-0.008760350414015329,-0.10920436817472629,0.03864154566181849,-0.2634024559113871,-0.06966148946967235,0.17053503837821588,-0.0002400096003842554,0.0001200048001887969,-0.0004800192007685108,-0.003600144005757169,0.0014400576023046996,-0.007800312012478308,5.010873432051766,-0.1311672966293179,7.689848868907587,0.21598790503653062,-0.02879712013905066,-0.18719942489912014,0.21593952103709774,0.014420160069329275,-0.2161036810370864,-0.03489399999999998,0.10596199999999997,-0.909673,-0.022616999999999998,-0.16495300000000002,-0.905826,0.012276999999999982,0.27091499999999996,0.003846999999999934,0.999083448198937,0.9470118437185864,double,-0.905826
4,0.033333,stand,-0.01488059522381051,-0.0987639505580245,-0.01788071522860371,0.003698360376453214,0.028244981827940906,0.08303780842342576,-0.00012000480019545849,-0.000840033601341563,0.0003600144005730523,-0.004800192007678446,0.0016800672026881223,-0.006240249609983978,-0.7344587555256428,1.2529002300134142,-6.782942624555646,0.014401152068738378,-0.11520921655230529,0.10080806448356693,-0.14401152069138093,0.02880230413817625,0.18721497689839547,-0.034770999999999996,0.10677800000000001,-0.909521,-0.02253299999999997,-0.16411599999999998,-0.905729,0.012238000000000027,0.27089399999999997,0.0037920000000000176,0.9984637093988071,0.9486630554572217,double,-0.905729
5,0.041667,stand,-0.05039596832253131,-0.11651067914566829,-0.017518598512116564,0.3276914243158257,-0.04893674115461478,-0.012272338676440887,0.0010799136069091966,-0.0011999040076805855,-0.00011999040076472815,-0.002399808015361171,0.0010799136069108617,-0.004439644828414836,-4.2615038515383725,-2.1294370755512095,0.043450529936062694,0.143978690557314,-0.043180994281140195,-0.057595968483055,0.2880230372350942,-0.07201267047963289,0.21605528936514778,-0.03434200000000004,0.107739,-0.909376,-0.022133000000000014,-0.163136,-0.9056200000000001,0.012209000000000025,0.270875,0.0037559999999998706,0.9973020683218893,0.9538383628639252,double,-0.9056200000000001
6,0.05,stand,-0.02208088323533151,-0.09552382095283705,0.024720988839544995,-0.035086012036002014,-0.14152261707526215,0.10367068255746142,0.00108004320173248,-0.0007200288011527661,0.000840033601341563,-0.0013200528021100738,0.0,-0.004200168006721138,3.397946128309108,2.5185237240887117,5.068953240329,1.555200087405275e-05,0.057587328276469375,0.11520748855229702,0.12957580862247656,-0.12959481662196828,0.02873836813796929,-0.034148999999999985,0.10852899999999999,-0.909575,-0.02195999999999998,-0.16233999999999998,-0.905861,0.012189000000000005,0.27086899999999997,0.003713999999999995,0.9974230771777386,0.9555221319541402,double,-0.905861
7,0.058333,stand,-0.027001080043198754,-0.08964358574342945,-0.003600144005757169,0.15786920653581152,-0.1516999778369072,-0.0005134166642969522,0.002400096003835892,0.00012000480019545849,0.000840033601341563,-0.0004800192007685108,0.0001200048001921277,-0.004320172806909935,-0.5904472348334625,0.7056564513869674,-3.398671888311792,0.1584126727593198,0.10080806448436633,0.0,0.10080806448356691,0.01440115206913809,-0.014401152068738403,-0.033904000000000045,0.10927700000000001,-0.909538,-0.02173900000000001,-0.161592,-0.905867,0.012165000000000037,0.270869,0.00367099999999998,0.9957571896004725,0.9560426417328753,double,-0.905867
8,0.066667,stand,-0.01715862730981572,-0.09959203263738868,-0.03815694744420931,0.08259874179414009,0.00019361556822547474,0.010358752554554809,0.0016798656107528196,-0.0009599232061444684,0.002519798416125899,-0.0002399808015361171,0.0005999520038394602,-0.0038396928245778734,1.1809998480181223,-1.193718129824721,-4.146484693838749,-0.08642073351128778,-0.1295809942812487,0.20155565332185457,0.028802303723589353,0.05758905731309484,0.057652985640996135,-0.03374700000000003,0.110099,-0.909199,-0.021598000000000006,-0.160757,-0.905581,0.012149000000000021,0.270856,0.00361800000000001,0.9947051426706359,0.9573305268620095,double,-0.905581
9,0.075,stand,-0.02328093123725281,-0.08604344173766902,-0.004200168006721142,0.09641204446563995,-0.2195833806640267,0.01506346707601749,0.009600384015363561,-0.00648025921036824,0.005760230409222134,-0.0003600144005797142,0.0001200048001921278,-0.003000120004799864,-0.7347058595268322,1.6258959438041125,4.074976531559846,0.9505002285624323,-0.6624668191796202,0.38886739386730323,-0.014404608069554443,-0.05759596827641099,0.1007527684841006,-0.033472999999999975,0.110762,-0.9091159999999999,-0.02140700000000001,-0.16003900000000001,-0.9055709999999999,0.012065999999999966,0.270801,0.0035450000000000204,0.9784399168315265,0.9595099571309438,double,-0.9055709999999999
10,0.083333,stand,-0.02952118084723008,-0.09024360974439002,-0.01512060482417477,0.08141647298213278,-0.040589650220185416,-0.0762855322523477,0.005040201608062698,-0.001800072002878583,0.0031201248049886558,0.0,0.0009600384015361881,-0.0026401056042201455,-0.7488599075935755,-0.5040403224194167,-1.3105048382879658,-0.5472437786272483,0.5616449306959861,-0.31682534552183805,0.043203456207813976,0.1008080644838665,0.043203456207814475,-0.03318500000000002,0.11149900000000001,-0.9089640000000001,-0.02116100000000004,-0.159279,-0.905467,0.01202399999999998,0.270778,0.0034970000000000834,0.9896748593950695,0.9603479327530282,double,-0.905467
11,0.091667,stand,-0.033597312215023115,-0.11735061195104479,0.026997840172776563,0.5323042276494903,-0.13463834128190194,-0.037536701105929535,0.009239260859130525,-0.0026397888168972904,0.007799376049913821,0.002399808015361173,-0.00035997120230334335,-0.0020398368130603276,-0.48909663640425227,-3.252580058393903,5.053809094906571,0.5038468023839489,-0.1007579570456813,0.5614652321724464,0.2879539255292986,-0.1583884813822333,0.07202649281975262,-0.032828000000000024,0.112455,-0.909124,-0.02086100000000002,-0.158304,-0.9057090000000001,0.011967000000000005,0.27075899999999997,0.003414999999999946,0.9793735139936774,0.9605664847557617,double,-0.9057090000000001
12,0.1,stand,-0.027721108844358158,-0.08184327373094775,-0.03780151206049021,-0.18863570770786037,-0.15429663577698516,-0.038657322788695624,0.006960278411136739,0.0006000240009573072,0.006600264010563687,0.0006000240009573072,-0.0010800432017283156,-0.002520100804031349,0.7051726113842496,4.261051028452779,-7.776233317324699,-0.27348883331258655,0.38879308986614597,-0.14389920069004353,-0.21598272103730523,-0.0864120964148532,-0.057633984275893536,-0.032538999999999985,0.11314199999999996,-0.908754,-0.020625000000000004,-0.15763100000000002,-0.905415,0.01191399999999998,0.270773,0.003338999999999981,0.9839818688346088,0.9619322066628582,double,-0.905415
13,0.108333,stand,-0.02520100804032019,-0.07944317772710865,0.001560062402500992,0.08549736243820782,-0.3613215679357505,-0.025601107138243547,0.003000120004799864,0.0002400096003842556,0.002880115204611067,0.001560062402500992,-0.0006000240009598062,-0.00324012960518412,0.3024241934522946,0.2880230413823475,4.723577878674095,-0.47523801828115664,-0.043203456207014504,-0.44643571414288047,0.11520921655390444,0.057604608276552234,-0.08640691241482919,-0.032304,0.11380599999999996,-0.908743,-0.020401999999999976,-0.156974,-0.905455,0.011902000000000024,0.27077999999999997,0.0032879999999999576,0.9930571003009252,0.961043573930569,double,-0.905455
14,0.116667,stand,-0.019438444924405485,-0.1081113510919141,0.014998800095983993,0.07647792106064619,-0.03276465659386733,-0.10531720241003473,0.0013198944084453126,-0.0009599232061378068,0.002519798416125897,0.0013198944084453126,-0.000959923206143635,-0.00035997120230084497,0.6914522577291454,-3.4399056113277435,1.612519521656226,-0.20161094268713098,-0.1439804183491794,-0.043234555853752084,-0.02881785385837284,-0.04318444986607013,0.3455913610371097,-0.03213100000000002,0.11469900000000002,-0.908847,-0.020228999999999997,-0.156081,-0.9055829999999999,0.011902000000000024,0.27078,0.0032640000000000446,0.994996401886576,0.9645745451809524,double,-0.9055829999999999
<<<<<<< HEAD
>>>>>>> 3b0d06690e55fb02323d988053aa126fb7c3a6e7
=======
>>>>>>> 3b0d06690e55fb02323d988053aa126fb7c3a6e7
15,0.125,step_decsent,-0.02028081123244628,-0.09420376815072705,-0.02280091203647097,0.206255779768132,-0.19846250010334984,-0.12072906699751856,0.0016800672026897891,-0.001200048001921278,0.003000120004799864,0.0002400096003842556,-0.0001200048001921278,-0.0031201248049953227,-0.10108800048491487,1.6689767120109273,-4.53614690177067,0.04322246420790554,-0.028816128139142135,0.057640896276727145,-0.1295913606217518,0.10079424048380031,-0.33123168159060123,-0.03194800000000003,0.11547400000000002,-0.908632,-0.02005800000000002,-0.155297,-0.905419,0.011890000000000012,0.270771,0.0032130000000000214,0.9939301608442348,0.9626505958835505,double,-0.905419
16,0.133333,step_decsent,-0.006240249609990635,-0.08232329293171627,0.016080643225738437,0.0032685481160419747,-0.2295802402291659,-0.09398218045705713,0.0031201248049953175,-0.0013200528021167343,0.0026401056042201455,0.0016800672026897863,0.0010800432017283156,-0.003000120004799859,1.6849347920863595,1.4257140548434866,4.6659732703959405,0.17281382482965643,-0.014401152069537524,-0.043203456207814475,0.17281382482965674,0.14401152069128073,0.014401152069538408,-0.031869999999999954,0.11614899999999997,-0.9087440000000001,-0.019991999999999954,-0.154602,-0.9055780000000001,0.011878,0.27075099999999996,0.003166000000000002,0.9928415015927924,0.9623330967567968,double,-0.9055780000000001
17,0.141667,step_decsent,-0.014398848092147079,-0.08843292536596944,-0.023278137748983435,-0.09574581055156275,-0.1627260192850297,-0.178942292414064,0.0031197504199628693,-0.004919606431480422,0.003359731221505648,0.0008399328053730815,0.0002399808015352851,-0.0021598272138183983,-0.9789535015786491,-0.7330972443308367,-4.722675902894403,-4.492261008498127e-05,-0.43191188257303764,0.08634816622096282,-0.10080806303296218,-0.10079942406923836,0.10082706875227535,-0.03172400000000003,0.116845,-0.908522,-0.01986500000000002,-0.15386300000000003,-0.905402,0.011859000000000008,0.270708,0.0031200000000000117,0.9887919716269142,0.9649170130711733,double,-0.905402
18,0.15,step_decsent,0.0010800432017258176,-0.08976359054362151,-0.003840153606148083,-0.021380215092837832,-0.09809393442735771,-0.02108926858907447,0.0015600624024943279,-0.0001200048001954584,0.001800072002878583,0.001800072002878583,-0.0004800192007676777,-0.00048001920076851036,1.8575412569150225,-0.15968620876659873,2.332651403196368,-0.18717004889818073,0.5759752347635857,-0.1871665928989636,0.1152213125531622,-0.08640345641461204,0.20158502496698508,-0.031720000000000026,0.11759199999999997,-0.908475,-0.019859000000000016,-0.153119,-0.905374,0.01186100000000001,0.270711,0.0031010000000000204,0.9960249196139177,0.9657836278367393,double,-0.905374
19,0.158333,step_decsent,-0.020880835233410215,-0.09204368174727193,-0.003840153606148083,0.3137575317927825,-0.41596531220188515,-0.1382463828173341,0.0037201488059526245,-0.0022800912036470937,0.0010800432017258176,0.00048001920076851036,0.0008400336013440605,-0.0033601344053795727,-2.635410828649468,-0.27362188931362197,0.0,0.25922073724448513,-0.2592207372436858,-0.08640691241482837,-0.158412672760119,0.15841267276031884,-0.3456276496593136,-0.031515000000000015,0.11834,-0.908434,-0.019681000000000004,-0.152345,-0.90537,0.011834000000000011,0.270685,0.0030639999999999556,0.9925083720147506,0.9635322459761,double,-0.90537
20,0.166667,step_decsent,-0.04739620830333313,-0.07079433645308454,-0.05147588192944712,-0.15544937536002978,-0.5281745374736296,-0.10039111086703051,0.002519798416125897,-0.0033597312214989758,0.002039836813060324,0.0038396928245778704,-0.0008399328053755765,-0.0016798656107528183,-3.1815902411714534,2.5497174579058512,-5.715830132385288,-0.14403052433726019,-0.12954643842715155,0.11516602007853438,0.4031285845703572,-0.2015798424189627,0.2016161260651251,-0.031099000000000043,0.11890200000000004,-0.907988,-0.019253999999999993,-0.15176199999999998,-0.904955,0.01184500000000005,0.270664,0.0030330000000000634,0.992218591929309,0.9625459646705972,double,-0.904955
21,0.175,step_decsent,-0.029401176047041382,-0.11784471378854978,0.012120484819381612,0.8061492794998296,-0.34187565530816955,-0.1911224153841067,0.0056402256090266846,-0.003480139205568381,0.0008400336013415652,0.002640105604220154,0.000240009600384256,-0.0019200768030673862,2.15949025036503,-5.646271131101087,7.631869284630852,0.37446624179776733,-0.01444953606977146,-0.14398214469203913,-0.143956224691914,0.1295982726220851,-0.028826496137593718,-0.03080700000000003,0.11985500000000002,-0.9080819999999998,-0.01898700000000003,-0.150778,-0.9050719999999999,0.011819999999999997,0.270633,0.003009999999999957,0.9888658221051079,0.9644445091015796,double,-0.9050719999999999
22,0.183333,step_decsent,-0.012240489619590353,-0.08472338893555881,-0.019800792031677738,0.001340318010855625,-0.05319442043808646,-0.023800581095463205,0.0022800912036470937,-0.0021600864034582966,-0.0006000240009573072,0.002040081603262838,0.0007200288011519328,-0.0033601344053795727,2.059364745883957,3.974717971077757,-3.830706450385134,-0.403232257935868,0.15841267276012042,-0.1728138248288577,-0.07200576034529167,0.05760460827645223,-0.17281382483045546,-0.03068599999999999,0.12054300000000001,-0.9079219999999999,-0.018867999999999996,-0.15006599999999998,-0.9049349999999999,0.011817999999999995,0.270609,0.002986999999999962,0.9946706217870815,0.9634694032539883,double,-0.9049349999999999
23,0.191667,step_decsent,-0.01739860811134516,-0.08495320374369879,0.025557955363573137,-0.1316585446877863,-0.2472560531380078,-0.06952241080519894,-0.0033597312214989758,-0.0010799136069091957,-0.0017998560115242072,-0.002039836813053663,0.0028797696184300722,-0.0034797216222703644,-0.6189247050341737,-0.027575570931123124,5.442614278287837,-0.6767245530532834,0.12961036675655146,-0.1439683238021237,-0.48955104587430975,0.2591481662200789,-0.014349318081448483,-0.030569000000000013,0.12124200000000002,-0.90815,-0.018740000000000034,-0.14933400000000002,-0.9051769999999999,0.011828999999999978,0.27057600000000004,0.0029730000000001144,0.9933974985924268,0.9620099102359569,double,-0.9051769999999999
24,0.2,step_decsent,-0.02364094563782582,-0.107764310572424,0.012720508820372187,0.7227235375946688,-0.058801529545856546,-0.20466486631643305,-0.002520100804031349,-0.0014400576023055312,0.0,-0.003600144005757166,0.0008400336013440605,-0.003240129605184114,-0.7491104675963822,-2.7374423171397084,-1.5405552073924085,0.10075968048333447,-0.043219008207888536,0.21599136103734617,-0.1872443528985361,-0.24477811317484818,0.028752192138035523,-0.030393000000000003,0.12212800000000001,-0.9082560000000002,-0.018573000000000006,-0.148429,-0.9053100000000001,0.011819999999999997,0.270557,0.002946000000000115,0.9951624518490948,0.962346992620403,double,-0.9053100000000001
25,0.208333,step_decsent,-0.035161406456263526,-0.06744269770790931,-0.02880115204608407,-0.6040184588556297,0.07104648998729475,0.02807029693196911,0.001800072002878589,-0.003000120004799869,-0.000720028801152768,-0.003240129605184125,0.003360134405376253,-0.004680187207489661,-1.3825105986364736,4.838787095225584,-4.9827986159194,0.5184414744881733,-0.18721497689839695,-0.08640691241482897,0.043203456207013304,0.3024241934516019,-0.17281382482965918,-0.030084999999999973,0.12266500000000002,-0.9080220000000001,-0.018306999999999962,-0.147839,-0.9051090000000002,0.01177800000000001,0.270504,0.0029129999999999434,0.9940466114380041,0.9598532078451759,double,-0.9051090000000002
26,0.216667,step_decsent,-0.0038396928245712095,-0.11471082313414731,0.03611711063113564,0.5317446435933051,-0.2726667615679797,-0.14000021175147778,0.0016798656107528183,-0.00227981761458978,-0.002039836813053663,0.00011999040076472805,0.0020398368130553285,-0.002759779217662014,3.7583049714053622,-5.671721313443479,7.7895683557978925,-0.014423613166039193,0.08642937247541256,-0.15836429228472448,0.4031821461421706,-0.15842303723553192,0.2304305243373704,-0.030038999999999982,0.12360200000000002,-0.9083399999999999,-0.018274000000000012,-0.146866,-0.9054329999999999,0.01176499999999997,0.27046800000000004,0.002906999999999993,0.9941832495111406,0.9652068226456874,double,-0.9054329999999999
27,0.225,step_decsent,-0.02364094563782582,-0.0886835473418957,-0.01716068642745759,-0.06577033205900377,0.05364016557803745,-0.07043453819333687,0.0015600624024943279,-0.0018000720028852448,-0.002520100804031349,-0.0015600624024943279,0.0021600864034557986,-0.004320172806909932,-2.3762453874060476,3.1233980309914307,-6.39359139068681,-0.014376960069421619,0.05757177627559521,-0.05763398427669329,-0.2016144009671252,0.014430528069179162,-0.18725472089858594,-0.029828999999999994,0.12432599999999999,-0.908218,-0.018089999999999995,-0.146109,-0.905326,0.011739,0.270435,0.0028920000000000057,0.9942204955090983,0.9626203472208705,double,-0.905326
28,0.233333,step_decsent,-0.015360614424579009,-0.10860434417376556,-0.010320412816516312,-0.009451001328340826,0.020800167496737774,0.0015378825976053896,-0.003000120004799859,-0.0014400576022988694,-0.0022800912036470937,-0.0015600624024943279,0.0018000720028802486,-0.00396015840633688,0.9936794927693272,-2.3905912434741214,0.8208656679396704,-0.5472437786264471,0.04320345620861335,0.02880230413827612,0.0,-0.04320345620731426,0.04320345620701446,-0.029725999999999975,0.12521900000000002,-0.9081509999999999,-0.017974999999999963,-0.145189,-0.905273,0.011751000000000011,0.27040800000000004,0.002877999999999936,0.9932766365398775,0.9635177441041765,double,-0.905273
29,0.241667,step_decsent,-0.028197744180463856,-0.08111351091912786,-0.011399088072948938,-0.5626874286756853,0.08358345097922701,0.03954916354203219,-0.011519078473720327,0.0041996640268720685,-0.0067194624430046345,-0.0051595872330232,0.0026397888168947967,-0.0028797696184267516,-1.5403323441186558,3.298636099668559,-0.12943067631781002,-1.0221932408111938,0.6767124585038339,-0.5326819341681727,-0.43190842698930654,0.10075795704518241,0.129636283646524,-0.029586999999999974,0.12593,-0.908112,-0.017782999999999993,-0.14449099999999998,-0.905202,0.011803999999999981,0.27042099999999997,0.002910000000000079,0.9766977872804796,0.9601138336451789,double,-0.905202
30,0.25,step_decsent,-0.02316092643705731,-0.093363734549382,-0.020400816032641707,-0.12898178607770822,0.029987376739774606,-0.012948708522206627,-0.0016800672026897863,0.00024000960038425518,-0.0031201248049953175,-0.0019200768030740415,0.0019200768030723761,-0.003840153606148083,0.6044423069010612,-1.4700856390560584,-1.0802505651857388,1.1807285816669304,-0.47517753828006837,0.4319377940728806,0.38875680186597333,-0.08636889641454698,-0.11525068855410182,-0.02940799999999999,0.12671,-0.907968,-0.01760600000000001,-0.143697,-0.905064,0.01180199999999998,0.27040699999999995,0.0029040000000000177,0.9940803037773657,0.963121319275858,double,-0.905064
31,0.258333,step_decsent,-0.06528261130445101,-0.097443897755908,-0.05688227529099539,0.4903166201241646,-0.3605194876195339,-0.04959917761826857,-0.002040081603262845,0.000240009600384256,-0.002520100804031357,-0.004320172806909947,0.0037201488059518044,-0.00408016320652569,-5.054804376262307,-0.4896391703499355,-4.377950229011613,-0.043203456207015434,9.758209880764795e-17,0.07200576034608928,-0.2880230413819646,0.2160172810367734,-0.02880230413747844,-0.02888099999999999,0.12752399999999997,-0.9075150000000001,-0.017098000000000002,-0.142854,-0.9046240000000001,0.011782999999999988,0.270378,0.002890999999999977,0.9945812963781999,0.9594053552790333,double,-0.9046240000000001
32,0.266667,step_decsent,-0.010079193664510249,-0.07763378929685721,0.03323734101270223,-0.45430648832745846,-0.11079450307311874,0.11627818961188356,-0.0016798656107528183,0.0013198944084519733,-0.0014398848092100406,-0.004919606431487066,0.0035997120230384233,-0.004679625629950949,6.623880206376374,2.3770228532578317,10.813488877333517,0.043222461304298826,0.12957581090325368,0.1296155501345471,-0.07192628084678648,-0.014451257848977796,-0.0719297364321164,-0.028810999999999976,0.12818200000000002,-0.9078039999999999,-0.017054999999999987,-0.142177,-0.90494,0.011755999999999989,0.270359,0.0028639999999999777,0.9957061613963706,0.9585516530984644,double,-0.90494
33,0.275,step_decsent,-0.01224048961958365,-0.08952358094323695,-0.016680667226675702,-0.23967122096385388,0.3088885935535126,-0.035784101520983574,-0.002280091203647086,0.0007200288011527632,-0.0021600864034582896,0.008280331213246783,-0.0018000720028802425,0.0018000720028785772,-0.2593658892443768,-1.4268320708483966,-5.990400604749517,-0.07202995234540562,-0.07198675234599874,-0.08642764841572616,1.5840558796032393,-0.6480000031103617,0.7775948197323291,-0.028727999999999976,0.12893400000000002,-0.907683,-0.01688400000000001,-0.14144600000000002,-0.9047860000000001,0.011843999999999966,0.27038,0.0028969999999999274,0.9946294965470215,0.9565919711802315,double,-0.9047860000000001
34,0.283333,step_decsent,-0.05232209288371451,-0.10152406096244036,-0.008880355214224133,0.30016700704473437,-0.33919339533705484,0.03674112188207193,-0.002160086403458304,0.002520100804031357,-0.001440057602305536,-0.005160206408251511,0.003240129605184125,-0.00408016320652569,-4.809984791087359,-1.4401152069126895,0.9360748844895702,0.014401152068736617,0.21601728103667325,0.08640691241482724,-1.612929031741069,0.6048483869032018,-0.7056564513865693,-0.028310000000000002,0.12980100000000003,-0.907621,-0.016490999999999978,-0.140573,-0.9047459999999999,0.011819000000000024,0.270374,0.002875000000000072,0.9939698334206621,0.9590282182347756,double,-0.9047459999999999
35,0.291667,step_decsent,-0.0038396928245712095,-0.08135349172066036,0.007319414446854896,-0.4245428054671843,0.30539760577430614,-0.006545653484305777,-0.0013198944084453126,0.002759779217662014,-0.0009599232061444676,-0.004799616030722338,0.0025197984161267296,-0.002399808015361169,5.8174226132881275,2.4202746870386345,1.9438168539811629,0.10081497420362258,0.028759108906966226,0.05761151861783872,0.043267383912787685,-0.08643282806064252,0.2016264928203167,-0.02828900000000001,0.130502,-0.9076900000000001,-0.01649900000000004,-0.139874,-0.904827,0.011789999999999967,0.270376,0.00286300000000006,0.9946562718119019,0.9614894949787651,double,-0.904827
36,0.3,step_decsent,-0.028201128045126762,-0.08808352334093535,-0.015000600023992684,0.10849478215747951,0.016454180295540157,-0.038795405942520955,-0.0008400336013482268,0.003720148805952637,-0.001920076803074048,-0.005400216008635768,0.004440177607104572,-0.003960158406336893,-2.923489166033315,-0.8076360998769949,-2.67850887685679,0.05758560027566147,0.11524896055329721,-0.11522304055317206,-0.0720748803448255,0.23045472110618595,-0.18724953689856327,-0.028061000000000003,0.13126700000000002,-0.9075810000000002,-0.016308999999999962,-0.13910299999999998,-0.9047350000000001,0.01175200000000004,0.27037,0.002846000000000126,0.9928835365915973,0.9581484225551778,double,-0.9047350000000001
37,0.308333,step_decsent,-0.034801392055676915,-0.1026041041641655,-0.013440537621518246,0.24701507289087796,-0.09519750973167015,-0.008988677392169932,-0.002160086403451628,0.0007200288011527632,-0.00552022080883119,-0.0057602304092154435,0.0038401536061439066,-0.002880115204604391,-0.792063363800567,-1.7425394003636259,0.18721497689600766,-0.15841267275931784,-0.36002880172805246,-0.4320345620733381,-0.043203456207809236,-0.07200576034569342,0.1296103686226446,-0.027789000000000008,0.13212800000000002,-0.9075150000000001,-0.016066999999999998,-0.138216,-0.904647,0.01172200000000001,0.27034400000000003,0.0028680000000000927,0.9900477176650112,0.9588231006425786,double,-0.904647
38,0.316667,step_decsent,-0.02003839692824924,-0.08783297336213278,0.0017998560115308798,-0.19793999880257,0.10341218453876942,-0.022115056602290194,-0.0029997600191981506,0.0035997120230351165,-0.002519798416125914,-0.0056395488360954545,0.00311975041996621,-0.0035997120230417774,1.7714177018751809,1.7723939047315587,1.8287009398907141,-0.1007527736676899,0.3455343438783741,0.36002188537380525,0.014480630323972852,-0.08644146702396217,-0.086344710635636,-0.027646999999999977,0.13289,-0.9075510000000001,-0.01594699999999999,-0.137458,-0.904692,0.011699999999999988,0.270348,0.002859000000000056,0.9911327896658729,0.9591065135466929,double,-0.904692
39,0.325,step_decsent,-0.03600144005760485,-0.08352334093363392,0.008760350414015293,0.18060861133528294,-0.3881985352021298,0.0007136355070243691,-0.0050402016080693425,0.003120124804995307,-0.0004800192007685088,-0.00720028801152097,0.0033601344053762307,-0.002280091203647086,-1.9156418011947125,0.5171765784829998,0.8352927400077264,-0.24486278517594903,-0.057552768275507905,0.24478329717477457,-0.18729619289877703,0.028847232138487913,0.15836083276067275,-0.027388999999999997,0.133612,-0.9076280000000001,-0.01570699999999997,-0.13673400000000002,-0.904784,0.011682000000000026,0.27034600000000003,0.0028440000000000687,0.9900879941650657,0.957782656826837,double,-0.904784
40,0.333333,step_decsent,-0.06396255850233427,-0.10908436337453777,-0.016560662426520326,0.4612560044456492,-0.5342548421304086,-0.06282193505922191,-0.004440177607098744,0.002160086403451642,0.0008400336013482268,-0.006000240009599738,0.0019200768030723824,-0.002040081603262845,-3.3554684321048236,-3.0674453907240977,-3.038643086587745,0.07200576034688591,-0.11520921655390223,0.1584126727609191,0.14401152069137582,-0.1728138248294554,0.0288023041382745,-0.026893,0.134539,-0.9074829999999998,-0.015224000000000015,-0.13580899999999999,-0.9046629999999999,0.011668999999999985,0.270348,0.0028199999999999337,0.991652211386582,0.9607632548011366,double,-0.9046629999999999
41,0.341667,step_decsent,-0.005279577633794572,-0.0872330213582919,0.00011999040078471047,0.007422228462815726,0.050808640315467175,0.0027380035606325145,-0.0035997120230417535,0.0035997120230417535,0.0017998560115175463,-0.004679625629950949,0.003719702423805649,-0.00227981761458978,7.041394392673343,2.621951285846633,2.001518217819177,0.1008478022626577,0.17274125505040916,0.11516947566226525,0.15846104867396066,0.21593779946403466,-0.02876602007762596,-0.026878999999999986,0.13529600000000003,-0.9074690000000001,-0.015218999999999983,-0.13505099999999998,-0.904683,0.011660000000000004,0.270347,0.002786000000000066,0.9910007199423975,0.96147689505898,double,-0.904683
42,0.35,step_decsent,0.014520580823237495,-0.08232329293171653,-0.01176047041880856,-0.12028170749108737,0.5672137004827974,-0.04784962887565316,-0.003480139205568381,0.002280091203647101,0.001680067202689792,-0.005520220808831226,0.0025201008040321897,-0.002280091203647101,2.37611405940623,0.5891909788281995,-1.4257123268442695,0.014349312069287506,-0.15836083276066912,-0.014375232068613302,-0.10087545648389289,-0.14395795269092312,-3.283200015852682e-05,-0.027029000000000025,0.136001,-0.9073570000000001,-0.01538600000000001,-0.134344,-0.9046040000000001,0.011643000000000014,0.270345,0.0027530000000000054,0.9925217332309929,0.9616658647657372,double,-0.9046040000000001
43,0.358333,step_decsent,-0.024720988839558217,-0.07824312972518699,0.001200048001901287,-0.18138705280350978,0.05770108659496165,-0.02720873316352763,-0.006720268810752461,0.00720028801152097,0.0003600144005730508,-0.005280211208446935,0.0013200528021125664,-0.0038401536061480703,-4.70917672660453,0.4896391703503569,1.5553244234621135,-0.3888311058663227,0.5904472348342551,-0.15841267276091872,0.028802304138280346,-0.14401152069118184,-0.1872149768991915,-0.026878999999999986,0.136713,-0.907364,-0.01522399999999996,-0.133681,-0.904646,0.011655000000000026,0.270394,0.002717999999999998,0.9835737531585842,0.9617182046590821,double,-0.904646
44,0.366667,step_decsent,0.0008399328053797395,-0.09275257979361592,0.004799616030722338,-0.0916754842332455,0.20658051036450278,-0.08379560377547308,-0.0032397408207342476,0.004679625629950949,0.002039836813053663,-0.005279577633794572,0.0032397408207342476,-0.0013198944084453126,3.067065232173978,-1.74099472863318,0.43191361036969617,0.41762994840631273,-0.302455289365253,0.2015625644925139,7.602287645343221e-05,0.2303441347038252,0.3024069111714369,-0.02691300000000002,0.137525,-0.9073869999999999,-0.015275000000000039,-0.13288100000000003,-0.904697,0.011637999999999982,0.27040600000000004,0.00268999999999997,0.9899231080014836,0.9625443298772857,double,-0.904697
45,0.375,step_decsent,-0.03708148325933091,-0.08304332173287263,-0.02532101284050903,0.21912674659092696,-0.2881186261322624,-0.09880610913129154,-0.001560062402494333,0.001560062402494333,0.001440057602305536,-0.003240129605184125,0.0007200288011519352,-0.001680067202689792,-4.550751957843603,1.1651575735921422,-3.6146200493497473,0.20156947296770894,-0.3743625617972667,-0.07197638434514925,0.24474355317538127,-0.3023775374513763,-0.04322246420790595,-0.026617000000000002,0.13823000000000002,-0.9071640000000001,-0.014993000000000034,-0.132183,-0.9045000000000001,0.011623999999999968,0.270413,0.0026639999999999997,0.9956089246769693,0.9671597519900785,double,-0.9045000000000001
46,0.383333,step_decsent,-0.009120364814595066,-0.0861634465378613,-0.022680907236288874,-0.22704501567668248,0.15588562329732655,-0.07942266389496659,-0.002880115204611072,0.00240009600384256,0.002160086403458304,-0.003600144005757178,0.0019200768030723824,-0.0008400336013415652,3.355468432105594,-0.3744299537967938,0.3168253455202404,-0.1584126727609195,0.10080806448436685,0.08640691241482897,-0.04320345620701476,0.14401152069128167,0.10080806448436684,-0.026565000000000005,0.13896800000000004,-0.906957,-0.014946999999999988,-0.13144899999999998,-0.904318,0.011618000000000017,0.270417,0.002639000000000058,0.9927886089934246,0.9666671003009331,double,-0.904318
47,0.391667,step_decsent,-0.041276697864172145,-0.10139188864890615,0.00983921286296081,0.5969990160618938,-0.3500254373136247,-0.1104191033008791,-0.002039836813053663,0.002039836813053663,0.002879769618426742,-0.002759779217662014,0.0019198464122864374,-0.003959683225342598,-3.8584512898460583,-1.827266871975622,3.90210224373046,0.10082534095961218,-0.043227644683092925,0.08635507739002128,0.10083570771480244,-2.7644682738779474e-05,-0.37432800863943244,-0.026237999999999984,0.13983,-0.9070149999999999,-0.014625999999999972,-0.130588,-0.9044329999999999,0.011612000000000011,0.27041800000000005,0.002581999999999973,0.9932064283851506,0.9655227482513744,double,-0.9044329999999999
48,0.4,step_decsent,0.003120124804995307,-0.07608304332173203,0.045841833673359283,-0.3951841620986957,0.0026753089955642607,-0.010605596648659565,-0.0021600864034582896,0.0032401296051841034,0.0015600624025009842,-0.004320172806909917,0.0007200288011527632,-0.0018000720028785772,5.327831833573415,3.0371829265779446,4.320487316740468,-0.014430528069677902,0.14404089669151987,-0.15837120075912064,-0.18725472089858355,-0.14398387269094795,0.25916371324421117,-0.026282000000000028,0.140491,-0.907384,-0.014687999999999979,-0.129948,-0.90483,0.011594000000000049,0.270439,0.002553999999999945,0.9930082970146965,0.966567916453883,double,-0.90483
49,0.408333,step_decsent,0.006360254410179453,-0.09048361934477457,-0.02316092643707071,-0.11616834257316905,0.2562400394874793,-0.14372177347232828,-0.0014400576022988744,0.0006000240009573092,0.002760110404415613,-0.001440057602305536,0.0012000480019196146,-0.001680067202689792,0.3888311058663331,-1.7281382482950407,-8.280662439749209,0.08640691241562666,-0.3168253455210369,0.14401152069058343,0.34562764965851295,0.057604608276353365,0.014401152068737008,-0.02634700000000001,0.14125,-0.907168,-0.014753000000000016,-0.12918400000000002,-0.9046509999999999,0.011593999999999993,0.270434,0.0025170000000001025,0.9947158507085848,0.9706345967911882,double,-0.9046509999999999
50,0.416667,step_decsent,0.00011999040076472805,-0.09155267578593868,-0.00983921286296081,-0.15089512650189119,0.3500647737134783,-0.09183509562422185,-0.0007199424046083507,0.0,0.0009599232061378068,-0.0009599232061444676,0.0,-0.002039836813053663,-0.7487717793874152,-0.12827651081882685,1.5984777506731327,0.08640691116996917,-0.07199712034524941,-0.21600518337866625,0.05761151861783872,-0.14399424069109834,-0.04316889973168597,-0.02635399999999999,0.142013,-0.907078,-0.014761999999999997,-0.128421,-0.904586,0.011591999999999991,0.270434,0.0024920000000000497,0.9980001599872079,0.9713226417430502,double,-0.904586
51,0.425,step_decsent,-0.03960158406336227,-0.08820352814112414,0.027361094443765215,0.12064197401902582,-0.5090946901816832,-0.06932032160501415,-0.002640105604226816,0.001320052802110077,0.005880235209410941,-0.00120004800192128,0.000360014400576384,-0.001440057602305536,-4.766779606879527,0.401913793929502,4.4642154454249505,-0.23042880110626066,0.15841267276012005,0.590461058835131,-0.02881612813834309,0.04320345620741448,0.07197638434514925,-0.026046000000000014,0.14275899999999997,-0.907257,-0.01444200000000001,-0.127683,-0.9048259999999999,0.011604000000000003,0.27044199999999996,0.002431000000000072,0.9890341612369463,0.9725086780029994,double,-0.9048259999999999
52,0.433333,step_decsent,0.008160326413057988,-0.10080403216128692,0.010200408016334142,0.01714685426822182,0.10031019135977823,-0.08779162442838433,0.0002400096003842544,-0.0014400576022988647,0.0014400576023055264,0.001080043201725814,0.0013200528021117337,-0.002400096003842544,5.7316585235113475,-1.5121209672582168,-2.059364745881555,0.34562764965931336,-0.3312264975889752,-0.5328426265577099,0.2736218893132226,0.1152092165529036,-0.1152092165531026,-0.026112000000000024,0.14358700000000002,-0.90733,-0.014501000000000042,-0.126832,-0.904931,0.011610999999999982,0.270419,0.002398999999999929,0.9965822617923491,0.9711026660480864,double,-0.904931
53,0.441667,step_decsent,-0.01871850251979726,-0.10583153347732169,-0.007439404847613013,0.08986350647419708,-0.042583068068714744,-0.13041406872867461,0.0023998080153611848,-0.003839692824577896,-0.0008399328053730844,0.0011999040076805924,0.0005999520038394636,-0.001439884809216711,-3.2252014558261815,-0.6032518977723542,-2.1166082150164693,0.2591550773910419,-0.28793319201812395,-0.27357696276441373,0.014382146142882066,-0.08640518337800267,0.1152161260650154,-0.025936000000000015,0.14443699999999998,-0.907275,-0.014335000000000042,-0.125945,-0.904881,0.011600999999999972,0.270382,0.0023940000000000072,0.992324677600827,0.9727800185051458,double,-0.904881
54,0.45,step_decsent,-0.0118804752190106,-0.1123244929797178,-0.02016080643225072,0.3538202072310728,-0.024757302320382833,-0.12609488722798706,0.0008400336013415596,-0.00252010080403134,0.004320172806909917,0.00252010080403134,-0.00048001920076767607,-0.0018000720028785772,0.8205960999383932,-0.7791863077398404,-1.5266292553267318,-0.18718041689903023,0.15835737676065648,0.6192374429716764,0.15842995276019947,-0.12960172862200112,-0.043224192207112044,-0.02583000000000002,0.14535199999999998,-0.9070710000000001,-0.014215000000000033,-0.125013,-0.9047280000000001,0.011614999999999986,0.27036499999999997,0.002342999999999984,0.9915474432540887,0.9713467651277277,double,-0.9047280000000001
55,0.458333,step_decsent,0.003480139205568381,-0.08256330253210412,0.014880595223810548,-0.2611921416824131,0.053110101730239195,-0.006738641844801767,0.002640105604226816,-0.00036001440057305316,0.002040081603262845,0.004680187207489661,-0.0008400336013440632,-0.001320052802110077,1.8433474648480763,3.5714857131421773,4.20513640418353,0.2160172810374728,0.25922073724448486,-0.27362188931322184,0.25922073724448885,-0.04320345620741486,0.057604608276551214,-0.025837,0.14603700000000003,-0.907178,-0.014205000000000023,-0.124332,-0.9048630000000001,0.011631999999999976,0.270369,0.002314999999999956,0.9944069236953024,0.9686253169346952,double,-0.9048630000000001
56,0.466667,step_decsent,-0.05027597792176654,-0.10379169666426731,-0.07499400047997325,0.7585984239184275,-0.4652999523344245,-0.20471818167205094,0.0017998560115175463,-0.0019198464122889352,0.002879769618433403,0.0037197024238064817,-0.0013198944084469777,-0.0013198944084453126,-6.450218037837157,-2.5472035195780145,-10.784088757353457,-0.10082188537428231,-0.18716486821644834,0.10075450146035002,-0.1152489541256513,-0.057578690557105114,1.9005719314196943e-05,-0.02540300000000001,0.14688600000000002,-0.9065289999999999,-0.013755000000000017,-0.12347799999999998,-0.904249,0.011647999999999992,0.270364,0.0022799999999999487,0.9934982128601637,0.9702636968258447,double,-0.904249
57,0.475,step_decsent,-0.024840993639747178,-0.10512420496819753,-0.04212168486739363,-0.11551259930701326,0.22841909190906123,-0.16984871707351348,0.003960158406336893,-0.003000120004799869,0.004200168006714487,0.003840153606148096,0.0008400336013440632,-0.002040081603269507,3.052320206650597,-0.159907392767338,3.944835666936241,0.25924665724461204,-0.12963801662197727,0.15845414475952088,0.014454720069796529,0.25920172924409535,-0.08642592041572016,-0.02516299999999999,0.147737,-0.906143,-0.013515999999999972,-0.122595,-0.903915,0.011647000000000018,0.270332,0.0022280000000000078,0.9891570573475559,0.9703386479110083,double,-0.903915
58,0.483333,step_decsent,0.026521060842436793,-0.07992319692787678,0.041281651266038465,-0.5582304359627976,0.03268631955680541,0.038223788117517504,0.0020400816032628316,0.0031201248049886453,0.007920316812673734,0.004080163206525663,0.0,-0.002400096003835882,6.163693085585474,3.024241934515859,10.008800688039331,-0.23041843310621066,0.7344587555248396,0.4464357141436735,0.02880230413747346,-0.10080806448386652,-0.0432034562062131,-0.02536700000000003,0.14842899999999998,-0.9064209999999999,-0.01370300000000002,-0.121929,-0.9042789999999998,0.011664000000000008,0.270358,0.0021420000000000883,0.9854103794353086,0.9706904512487305,double,-0.9042789999999998
59,0.491667,step_decsent,-0.04535637149028613,-0.11399088072954229,-0.0008399328053597571,0.6022503373419817,-0.5460687455820474,-0.11251027264631447,0.005999520038396261,-0.0011999040076739237,0.00311975041996952,0.004319654427643443,-0.0002399808015361169,-0.002639788816897286,-8.6246019117738,-4.08779503259725,-5.054185753707485,0.47509460464763936,-0.5183619885604229,-0.5760218853736752,0.028736647602325385,-0.028795392552929767,-0.028760836700432408,-0.02493899999999999,0.14936900000000003,-0.906388,-0.013288999999999995,-0.12098099999999999,-0.904294,0.011649999999999994,0.27035000000000003,0.0020939999999999293,0.9885536452913736,0.9706131909119511,double,-0.904294
60,0.5,step_decsent,-0.017280691227646448,-0.1168846753870161,-0.02280091203649766,0.32013617094674846,-0.0829835182003841,-0.12485853075910994,0.005160206408258173,-0.001680067202689792,0.00408016320652569,0.00480019200768512,-0.0010800432017283193,-0.002280091203647101,3.3692164001727773,-0.34726924966684386,-2.635422924653541,-0.10072166448315023,-0.05762188827743543,0.11525414455252284,0.057666816277652445,-0.10081152048388389,0.043165440207630607,-0.024751999999999996,0.15032900000000002,-0.906164,-0.013104999999999978,-0.12001599999999998,-0.9041229999999999,0.011647000000000018,0.270345,0.0020410000000000705,0.9886840712349965,0.9705519396554236,double,-0.9041229999999999
61,0.508333,step_decsent,0.008280331213246783,-0.08532341293651584,0.02376095043803452,-0.4747598307246469,-0.029972316206504722,0.07358646788442243,0.004200168006721121,-0.0036001440057638156,-0.0002400096003842544,0.0013200528021100684,0.0006000240009598033,-0.00252010080403134,3.0674453907228036,3.787502994179782,5.587647002823951,-0.11520921655310785,-0.23041843310620613,-0.5184414744881708,-0.41763341000540466,0.2016161289677326,-0.0288023041382741,-0.024785999999999975,0.15100999999999998,-0.9063640000000001,-0.01316299999999998,-0.1193,-0.904342,0.011622999999999994,0.27031,0.0020220000000000793,0.9907714132604779,0.9749341895917519,double,-0.904342
62,0.516667,step_decsent,-0.005159587233016557,-0.09455243580513743,-0.032037437005041844,-0.3513927364832674,0.23756117005658456,-0.021382433006450603,0.0035997120230351165,-0.003479721622270388,0.0027597792176620325,0.003959683225342625,-0.0016798656107511643,-0.0020398368130536766,-1.6126612006555576,-1.1073941527023814,-6.695270871499482,-0.07204895412599086,0.014449530056806872,0.35994586249655675,0.31673031236291954,-0.2735648682158604,0.057627068751819804,-0.02471300000000004,0.151769,-0.906074,-0.013087000000000015,-0.11852599999999999,-0.904092,0.011626000000000025,0.27029499999999995,0.0019820000000000393,0.9904718588516381,0.972245900957972,double,-0.904092
63,0.525,step_decsent,-0.0085203408136377,-0.10272410896435763,0.0019200768030740352,0.00201238597944249,-0.03648040815541048,-0.08673944296370305,0.004920196807873884,-0.0037201488059526123,0.004800192007685088,0.005160206408258139,-0.0007200288011519304,-0.0034801392055683576,-0.403306561937013,-0.9806400047066078,4.0750646595602715,0.15846451276116189,-0.028852416138512357,0.24485932917593264,0.1440685446916487,0.11518502455288969,-0.17284320082979418,-0.024600999999999984,0.15259399999999998,-0.90605,-0.012972999999999957,-0.117676,-0.904137,0.011628000000000027,0.27026999999999995,0.0019130000000000535,0.9869733513436999,0.9704273603086445,double,-0.904137
64,0.533333,step_decsent,-0.01740069602784202,-0.09792391695667717,0.03384135365413369,0.020382849683425134,-0.4551665343519303,-0.009020792733029356,0.0064802592103682935,-0.0028801152046044293,0.005400216008635803,0.0045601824072942325,-0.0008400336013440688,-0.0020400816032695203,-1.0656852531146528,0.5760460827649714,3.830706450385209,0.18721497689840677,0.10080806448436226,0.07200576034450029,-0.07200576034608325,-0.014401152069139505,0.1728138248288552,-0.02440199999999998,0.153386,-0.906287,-0.012789999999999968,-0.11686700000000001,-0.904436,0.011612000000000011,0.270253,0.001850999999999936,0.9851441036803861,0.9730469139088738,double,-0.904436
65,0.541667,step_decsent,-0.027117830573554387,-0.11843052555795634,-0.09911207103431571,0.39517187554950556,0.026133122589607594,-0.08482586715104215,0.008879289656829605,-0.0037197024238064566,0.00659947204223984,0.00455963522917953,-0.000479961603071398,-0.0026397888168906074,-1.1659628684559986,-2.4605961844587254,-15.953134711836858,0.28786062472537716,-0.10074240691168958,0.14389921209551573,-6.565612127462416e-05,0.043205183378049926,-0.07195910890581743,-0.024101999999999957,0.154342,-0.9054059999999999,-0.012525999999999982,-0.11588399999999999,-0.903632,0.011575999999999975,0.270226,0.0017739999999999423,0.9805469937935991,0.9734425423226012,double,-0.903632
66,0.55,step_decsent,-0.011640465618619684,-0.10068402736109479,-0.00972038881555231,0.40870269146502525,-0.21538266192278116,-0.07270770711739852,0.008640345613819834,-0.00252010080403134,0.005160206408258139,0.004320172806909917,-0.0007200288011519304,-0.002280091203647086,1.8573580889157133,2.1296649702221866,10.727430963490102,-0.028674432138457905,0.14395795269112102,-0.17271878482919664,-0.02873664013795892,-0.028809216138309307,0.04316544020683067,-0.023933000000000038,0.15516000000000002,-0.9052819999999999,-0.012393000000000043,-0.11505099999999999,-0.90357,0.011539999999999995,0.270211,0.0017119999999999358,0.9827088485567068,0.974650454573611,double,-0.90357
67,0.558333,step_decsent,0.004080163206525717,-0.0972038881555244,0.0019200768030740608,-0.31523307756212143,0.16112146475894532,-0.004834907372730395,0.012000480019206217,-0.006600264010563753,0.0055202208088312625,0.006960278411136808,-0.0008400336013440688,-0.0021600864034583183,1.8865509210543074,0.4176334100048505,1.3969117507052053,0.40323225793668716,-0.489639170350708,0.04320345620702353,0.3168253455210507,-0.014401152069139505,0.014401152068734996,-0.02386699999999997,0.15591499999999997,-0.905252,-0.012369000000000019,-0.11424800000000002,-0.903604,0.011497999999999953,0.270163,0.0016479999999999828,0.9753892614067013,0.9712933095599185,double,-0.903604
68,0.566667,step_decsent,0.025077993760500735,-0.10115190784737269,0.13378929685624774,-1.0755596176454691,0.30953094858881935,0.1288398649456628,0.011879049676021056,-0.006119510439160949,0.007439404847612913,0.007439404847612913,-0.0017998560115191995,-0.0008399328053730732,2.5195381034287085,-0.4737244650645853,15.823040563135669,-0.014570475544175716,0.057685813703239774,0.23028366196083946,0.057490573131281676,-0.11516947566296176,0.15840575930948345,-0.023977000000000026,0.156707,-0.9063049999999999,-0.012516000000000027,-0.11341999999999999,-0.9047259999999999,0.011460999999999999,0.270127,0.001578999999999997,0.9745100796769552,0.9713766976984759,double,-0.9047259999999999
69,0.575,step_decsent,-0.007560302412100783,-0.10836433457338239,-0.00756030241208746,0.17006085122600187,-0.061084114125547505,-0.023862221020843094,0.00492019680787395,-0.004080163206532379,0.0021600864034516565,0.005040201608069409,-0.0002400096003842576,-0.004080163206532379,-3.9167522108006505,-0.8655258281542987,-16.962630417417078,-0.8350957480075807,0.24473145717371753,-0.6335435550415582,-0.28791590538143835,0.18718905689847068,-0.38884320186719495,-0.023872999999999978,0.15757599999999997,-0.906224,-0.01241099999999995,-0.11251900000000001,-0.9046970000000001,0.011462000000000028,0.270095,0.001526999999999945,0.9887549959623383,0.9739147627228213,double,-0.9046970000000001
70,0.583333,step_decsent,-0.006480259210368207,-0.09612384495380062,-0.028921156846266016,-0.2356394649143734,-0.06362930489330783,0.023321470362802355,-0.0007200288011527632,-0.00252010080403134,0.003960158406336867,0.0004800192007685088,-0.0008400336013440577,-0.00252010080403134,0.1296103686226535,1.4689175110502481,-2.563405068304148,-0.6768541472490928,0.1872149768991999,0.21601728103746587,-0.5472437786272509,-0.07200576034558953,0.1872149768991999,-0.023824999999999985,0.158356,-0.90595,-0.012352999999999947,-0.11172499999999999,-0.9044770000000001,0.011472000000000038,0.270081,0.0014729999999999466,0.9920851398306292,0.9807709312855717,double,-0.9044770000000001
71,0.591667,step_decsent,-0.01631869450443586,-0.11147108231341232,-0.01835853131750283,0.09193079473041302,-0.1697775591408725,-0.017497422947980495,0.0007199424046083459,-0.006839452843769295,0.002399808015361153,0.0007199424046016851,0.0,-0.0013198944084453037,-1.1805177938646,-1.8415211614604732,1.267413670357944,0.17278272207356588,-0.5182807823059661,-0.18722706875158412,0.028788481381470415,0.10079596848380745,0.14401324641061042,-0.02368300000000001,0.159228,-0.905777,-0.012211000000000027,-0.110796,-0.904335,0.011471999999999982,0.27002400000000004,0.0014420000000000543,0.987860131020901,0.9830742076461677,double,-0.904335
72,0.6,step_decsent,-0.015360614424579162,-0.08268330733229347,-0.004320172806903313,-0.0626355449488673,-0.0780384923314456,-0.015484437841279546,0.001200048001921288,-0.0043201728069166365,0.002640105604220172,0.0038401536061481215,0.0001200048001921288,-0.0022800912036471162,0.11497420855114682,3.4546711845816773,1.684670408088281,0.05761497627660465,0.3023256974502198,0.02883686413764803,0.3744403217984478,0.014401152069138353,-0.11522822455320068,-0.023544999999999983,0.15988099999999997,-0.9057190000000002,-0.012050999999999978,-0.11010600000000001,-0.9043180000000001,0.011494000000000004,0.269987,0.0014010000000000966,0.9913278597589157,0.9785438979683192,double,-0.9043180000000001
73,0.608333,step_decsent,-0.029881195247809696,-0.08856354254170327,-0.025561022440899778,-0.1232629766909107,-0.20300077925021903,0.001703142243440891,-0.0002400096003842544,-0.0037201488059526123,0.002640105604226798,0.006480259210368207,-0.0006000240009598033,-0.0032401296051841034,-1.7425394003636714,-0.7056564513872293,-2.549003916236215,-0.17281382482965757,0.07200576034609645,7.951770067637563e-13,0.31682534552022973,-0.08640691241472807,-0.1152092165531001,-0.023297999999999985,0.16058799999999998,-0.9054840000000001,-0.01174799999999998,-0.109373,-0.904132,0.011550000000000005,0.26996099999999995,0.0013520000000000199,0.9923865489376847,0.9743634103517256,double,-0.904132
74,0.616667,step_decsent,0.004319654427650133,-0.12706983441324818,0.005159587233023217,0.24613866780881163,0.08379197136646682,-0.02690334891177699,-0.0017998560115175582,-0.006839452843769386,0.001919846412288948,-0.011639068874491756,0.00635949124070048,-0.007199424046076894,4.10377365916247,-4.6203853937539145,3.686178266609452,-0.18716659600831687,-0.37428654161468583,-0.08642418909741471,-2.1741454385481243,0.835075022997399,-0.475077326721,-0.02334900000000001,0.16159,-0.9055110000000001,-0.01188100000000003,-0.108261,-0.9042350000000001,0.011467999999999978,0.269851,0.0012759999999999438,0.9877862319137696,0.9620880860182162,double,-0.9042350000000001
75,0.625,step_decsent,-0.01608064322573172,-0.10176407056282061,-0.0340813632545508,-0.1643566036047472,0.05973699939945885,0.010745457800637553,-0.000120004800195458,-0.002400096003842544,0.0004800192007685088,0.0013200528021100684,-0.0009600384015361848,-0.0006000240009639668,-2.448133643751562,3.0368131345766787,-4.709102422605767,0.20159020896700985,0.5327441305564411,-0.17278617682952516,1.555156807464511,-0.8783786922160848,0.7919596838009,-0.023216000000000014,0.16241799999999998,-0.9052229999999999,-0.011736000000000024,-0.107421,-0.903956,0.01147999999999999,0.269839,0.001266999999999907,0.9959157210575056,0.9844316087151113,double,-0.903956
76,0.633333,step_decsent,-0.03276131045242075,-0.09300372014880531,-0.006480259210368207,0.131257435340008,-0.2598643263319324,0.03614114763693917,0.0007200288011527632,-0.0006000240009573052,0.002640105604220137,0.002880115204611053,-0.00012000480019129449,-0.0009600384015370176,-2.0017601376081795,1.0512841010458727,3.3122649759009333,0.1008080644843655,0.21601728103746923,0.259220737243684,0.1872149768991933,0.10080806448396577,-0.0432034562070142,-0.022936999999999985,0.163188,-0.9051469999999999,-0.011438999999999977,-0.10664699999999999,-0.90391,0.011498000000000008,0.269835,0.0012369999999999326,0.9953307662186843,0.9825662018876018,double,-0.90391
77,0.641667,step_decsent,-0.0016798656107461687,-0.10967122630189625,-0.0064794816414685385,0.05262134167927961,0.09339482457616496,0.06005807831876412,0.0022798176145897952,-0.00035997120230084735,0.0033597312215056588,0.0035997120230351165,0.0021598272138225686,-0.0032397408207342692,3.729475022999131,-1.9999407431114755,9.33008038958779e-05,0.1871596848376579,0.028804031516253804,0.08634816622096544,0.0863447106340374,0.27355795704510155,-0.27354240691111886,-0.022904000000000035,0.16409900000000002,-0.9050649999999999,-0.011395000000000044,-0.105715,-0.903883,0.011508999999999991,0.269814,0.0011819999999999053,0.9932064283851407,0.9793421551100017,double,-0.903883
78,0.65,step_decsent,-0.013680547221889177,-0.09492379695187934,-0.018360734429358823,-0.16992902996062556,0.2158829599193035,0.026779564772661888,-0.0006000240009573052,0.0016800672026831191,0.0015600624024943227,0.002760110404422256,0.0028801152046077218,-0.003960158406330205,-1.4401393989131115,1.7697623124945216,-1.4258073668415019,-0.3455948176583569,0.24481440117412193,-0.21596889703724093,-0.10075622448252211,0.08643801641487461,-0.08645356841424848,-0.02279500000000001,0.164904,-0.9048990000000001,-0.01125799999999999,-0.1049,-0.9037630000000001,0.01153700000000002,0.269804,0.0011360000000000259,0.9960501584747217,0.9792715945208788,double,-0.9037630000000001
79,0.658333,step_decsent,-0.03900156006240522,-0.11292451698067994,-0.009600384015370304,0.14966509251450566,-0.0578676939518218,0.00411913940679844,-0.0006000240009639748,-0.0027601104044156313,0.0009600384015370304,0.0012000480019146262,0.0012000480019204553,-0.001560062402501005,-3.038643086585416,-2.1601728103685063,1.0512841010426737,-8.003813853668415e-13,-0.5328426265569173,-0.07200576034528955,-0.1872149768999933,-0.2016161289676325,0.28802304138116186,-0.022475000000000023,0.165822,-0.904811,-0.010923000000000016,-0.10394899999999999,-0.903696,0.011552000000000007,0.269771,0.0011149999999999771,0.9950278799573349,0.9850079717764104,double,-0.903696
80,0.666667,step_decsent,-0.015598752099834173,-0.09383249340052784,-0.012958963282936905,0.003576849841408766,-0.09947477501167365,0.09976981491358886,0.0010799136069158492,0.0,0.0014398848092166917,0.000839932805379734,0.001319894408446969,0.00011999040077138805,2.808112306523982,2.290859560853367,-0.40299727232620297,0.20157638683463058,0.33118675358958605,0.057576962764537755,-0.04321036675484635,0.014380418349713556,0.20159020917595155,-0.022335999999999967,0.166604,-0.9046909999999999,-0.010785999999999962,-0.103156,-0.9035869999999999,0.011550000000000005,0.26976,0.0011039999999999939,0.9970002399807952,0.9863448698442845,double,-0.9035869999999999
81,0.675,step_decsent,-0.025681027241088575,-0.0985239409576365,-0.014760590423628314,-0.1057983406285856,0.045412529038040085,0.02231384265866405,0.0008400336013415596,0.0014400576023055264,0.004320172806909917,0.002880115204604391,0.0019200768030723696,-0.00132005280211673,-1.2099214138070755,-0.5629962267021057,-0.21620390503916964,-0.0287867521390002,0.17281382482965563,0.34564838565861195,0.24483168117420478,0.0720247683457816,-0.17281209683044665,-0.022114999999999996,0.167437,-0.9045319999999999,-0.010548000000000002,-0.102319,-0.9034749999999999,0.011566999999999994,0.269756,0.0010569999999999746,0.9922821787345232,0.9832556134083652,double,-0.9034749999999999
82,0.683333,step_decsent,-0.02124084963398348,-0.1023640945637826,-0.012720508820345667,0.09042245727529832,0.010443131840468623,0.061316416318281365,0.0036001440057638638,0.001200048001921288,0.0032401296051841467,0.003960158406336919,0.0009600384015361976,-0.002640105604220172,0.5328426265576787,-0.4608368662121852,0.24481958517732696,0.33122649759058315,-0.028802304138274407,-0.1296103686218385,0.12961036862264944,-0.11520921655300381,-0.15841267275932486,-0.021907999999999983,0.1683,-0.904399,-0.010338000000000014,-0.101458,-0.9033909999999999,0.01156999999999997,0.269758,0.0010080000000000089,0.9916834181822058,0.9818277049785442,double,-0.9033909999999999
83,0.691667,step_decsent,-0.013798896088316638,-0.09299256059515143,-0.008999280057600994,0.018633687164575273,0.026558942767668434,0.034090703663607065,0.003359731221498953,-0.0019198464122889224,-0.0011999040076805766,0.0003599712023075034,0.002879769618430886,-0.002399808015361153,0.8929629884409388,1.1244941167063962,0.4465117305909101,-0.028847226333682353,-0.3743573811147332,-0.5327614126307523,-0.4319879054510905,0.23034931808191428,0.028833403990762778,-0.02176499999999998,0.169059,-0.904334,-0.010219999999999951,-0.100659,-0.9033359999999999,0.011545000000000027,0.269718,0.0009980000000000544,0.993247762972511,0.9837435601845916,double,-0.9033359999999999
84,0.7,step_decsent,-0.04020160806431985,-0.1122044881795305,-0.006120244809768591,0.036083900853904484,-0.11095498897941165,0.0038570930550395244,-0.0010800432017258282,-0.0020400816032628585,0.0037201488059526618,0.0022800912036471162,0.0012000480019196224,-0.0015600624024943435,-3.1684521752074226,-2.305523531066753,0.3454980496618779,-0.5327942425566808,-0.01442880006887522,0.5904299548341874,0.23042361710543988,-0.20157465696763216,0.10077350448419745,-0.021438999999999986,0.16997700000000002,-0.9042520000000001,-0.009865999999999986,-0.099714,-0.9032980000000002,0.011573,0.269691,0.0009539999999998994,0.9927031335865628,0.9854398390343599,double,-0.9032980000000002
85,0.708333,step_decsent,-0.010920436817473582,-0.09216368654746042,-0.007200288011540955,0.17864711099408476,-0.13292881192205885,0.11199609564811634,0.0006000240009573052,0.0019200768030740352,0.0033601344053795614,0.0018000720028785772,0.0002400096003842544,-0.0002400096003842544,3.513881104865732,2.4049923955442223,-0.1296103686274282,0.20161612896713385,0.4752380182811565,-0.043203456207020145,-0.057604608276555516,-0.11520921655290581,0.15841267276012042,-0.021343,0.17076100000000002,-0.904164,-0.009759999999999991,-0.098944,-0.9032399999999999,0.01158300000000001,0.26970500000000003,0.0009240000000000359,0.9934728713660167,0.9877070103759229,double,-0.9032399999999999
86,0.716667,step_decsent,-0.024478041756657118,-0.0925125989920792,-0.012598992080636062,-0.12189452973247628,-0.0005900498704830268,0.05344927175443404,0.002399808015361153,0.0009599232061378004,0.002279817614589765,0.001559875209981419,0.000839932805375571,-0.0009599232061444612,-1.6267824501060033,-0.04186614406272816,-0.6477926648782176,0.2159568051840454,-0.11520921489515568,-0.12962764468319993,-0.02882130944290332,0.0719850257968937,-0.08638272207345829,-0.021119,0.17153999999999997,-0.90404,-0.009543000000000024,-0.098166,-0.9031429999999999,0.011575999999999975,0.269706,0.0008970000000000367,0.9942558968817126,0.9876716975394493,double,-0.9031429999999999
87,0.725,step_decsent,-0.04380175207008371,-0.10416416656666454,0.004080163206539041,0.07688252110009852,-0.09006475353275023,-0.031178097715264634,0.001320052802110086,-0.0004800192007618536,0.001200048001921288,0.0013200528021167475,0.0027601104044156313,-0.00012000480018879799,-2.318937995131017,-1.398244038711802,2.0015786976089354,-0.12957580862247414,-0.17280000082799318,-0.12957753662168328,-0.028779840137366338,0.23043052910597359,0.10079424048429989,-0.02074300000000001,0.17240400000000003,-0.904064,-0.00916699999999998,-0.097275,-0.903178,0.01157600000000003,0.269679,0.0008859999999999424,0.9969209159729746,0.9860368555453503,double,-0.903178
88,0.733333,step_decsent,-0.022920916836672977,-0.08868354734189207,0.0012000480019279335,0.05222531441478831,-0.037870084028484775,-0.0033021682836577053,0.002760110404415595,-0.0003600144005797124,0.0033601344053729,0.006600264010557003,0.0002400096003842544,-0.0006000240009639668,2.5058004600276784,1.8577486169173647,-0.3456276496593178,0.17281382482965352,0.0144011520679396,0.2592207372436821,0.6336506910404697,-0.302424193451502,-0.05760460827735111,-0.02052900000000002,0.17314,-0.9040460000000001,-0.008921000000000012,-0.09653400000000001,-0.9031930000000001,0.011608000000000007,0.26967399999999997,0.0008529999999999927,0.9927278455287464,0.9804169563745416,double,-0.9031930000000001
89,0.741667,step_decsent,-0.0301175905927529,-0.09395248380129714,-0.005159587233023217,-0.07068989185260481,0.012331093395795736,-0.0138657068188073,0.00035997120230750815,-0.0013198944084453212,0.002519798416125914,0.022318214542839037,-0.007679385649148299,0.005519558435324065,-0.8635317681881405,-0.6322217973848214,-0.7630951805796962,-0.28799366475979127,-0.11517638683292708,-0.10083225212946856,1.886003183619165,-0.9502514098311253,0.734291149062643,-0.020274999999999987,0.173912,-0.9039820000000001,-0.008483999999999992,-0.09581500000000001,-0.9031040000000001,0.011790999999999996,0.269727,0.0008779999999999344,0.9952212610409792,0.9508212517503639,double,-0.9031040000000001
90,0.75,step_decsent,-0.03168126725068827,-0.09360374414976595,-0.010680427217089328,0.05851117798021818,-0.08426183218702182,-0.02709882078040171,-0.006120244809795156,0.005640225609019986,0.004680187207489629,0.0015600624024943227,0.002520100804032173,-0.0004800192007618472,-0.18764870490043956,0.04185043220103076,-0.6625272991798977,-0.7776570277334257,0.8352478120083137,0.25925702524465455,-2.4910778999573533,1.2239873338750065,-0.7199781154549246,-0.020062000000000024,0.17473899999999998,-0.903854,-0.00820700000000002,-0.095014,-0.903019,0.011855000000000004,0.26975299999999997,0.0008350000000000302,0.9840858471662608,0.9866458014307814,double,-0.903019
91,0.758333,step_decsent,-0.023160926437057233,-0.08436337453498215,-0.013320532821309464,0.10194279002518065,-0.09011006177962991,-0.0008383458558755739,-0.006600264010557003,0.0022800912036537477,-0.0007200288011527632,-0.0014400576023055264,0.003120124804992809,0.0014400576022988647,1.0224817969075963,1.108888709322425,-0.3168253455202358,-0.05760460827575245,-0.40323225793426426,-0.6480518431108089,-0.3600288017280495,0.07200576034568988,0.23041843310460863,-0.019923999999999997,0.17546100000000003,-0.9037490000000001,-0.008026000000000033,-0.09428499999999998,-0.9028960000000001,0.011897999999999964,0.26974600000000004,0.0008529999999999927,0.9882999593566087,0.9852600817247666,double,-0.9028960000000001
92,0.766667,step_decsent,-0.038036957043438145,-0.08855291576673781,-0.020158387329033953,-0.03027698978236116,-0.2835340171026899,-0.12390261785285842,0.00143988480921005,0.004079673626107353,0.002519798416125914,-0.018238540916725023,0.012479001679865672,-0.005039596832251828,-1.784980874295776,-0.5027047314321677,-0.8204769027747213,0.9647406791177224,0.21593261608514708,0.38874816622014585,-2.0156567451907357,1.1229753869537937,-0.7774963324394923,-0.01959500000000003,0.176233,-0.9035599999999999,-0.007861000000000007,-0.093443,-0.9027699999999999,0.011734000000000022,0.269676,0.0007900000000000684,0.991655609133266,0.9543226039833052,double,-0.9027699999999999
93,0.775,step_decsent,-0.02784111364454686,-0.08976359054362121,-0.017160686427457536,-0.009329971081559012,0.11498410965254754,0.007167375937391581,0.0016800672026897807,0.0001200048001887964,0.0015600624025009842,0.020520820832830435,-0.006720268810752461,0.0076803072122894785,1.223550149872944,-0.14528678469739525,0.3597384977290777,0.02882304013917312,-0.4751792662808761,-0.11517292855213315,4.651309462325129,-2.304004619058929,1.5264495433266834,-0.019349000000000005,0.17698199999999997,-0.9034039999999999,-0.00745800000000002,-0.092751,-0.9025629999999999,0.011890999999999985,0.269733,0.0008409999999999807,0.9961736216509169,0.9533926608177625,double,-0.9025629999999999
94,0.783333,step_decsent,-0.036481459258373844,-0.08376335053402263,-0.014760590423601864,0.05870521567802657,-0.1568772990851269,-0.06329847277549776,-0.001200048001921288,0.0037201488059526618,0.0033601344053729447,0.007080283211332268,0.0026401056042243353,-0.0014400576023055455,-1.0368829489772065,0.7200576034559739,0.28802304138433865,-0.34562764965931775,0.43203456207415075,0.21601728103587867,-1.6129290317410645,1.1232898613916815,-1.094487557253703,-0.01905499999999999,0.17771099999999998,-0.9032530000000001,-0.0070949999999999624,-0.092031,-0.902452,0.011960000000000026,0.269742,0.0008010000000000517,0.9914089637205856,0.9791691907591942,double,-0.902452
95,0.791667,step_decsent,-0.04751619870409754,-0.07943364530837424,-0.01535877129831138,0.16161460275871842,-0.42307817296748423,-0.07211303642023283,-0.0029997600191981107,0.001679865610752807,-0.00035997120230084253,0.001679865610752807,0.0027597792176619956,0.0003599712023075034,-1.3240628084621564,0.5195230652325845,-0.07177596288811022,-0.2159481662199195,-0.24481439827211895,-0.44637696276382993,-0.6479982722077539,0.014359684837732109,0.21598617765935146,-0.018684000000000034,0.178387,-0.9031279999999999,-0.0066849999999999965,-0.09134600000000001,-0.9023209999999999,0.011999000000000037,0.269733,0.0008070000000000022,0.9942385168023002,0.9865119465706154,double,-0.9023209999999999
96,0.8,step_decsent,-0.01272050882035216,-0.09360374414976595,0.023160926437070555,-0.23055866295577374,0.09064509872488508,0.029334998205954275,-0.001200048001921272,0.004680187207489629,0.0007200288011461016,0.0006000240009573052,0.003600144005760485,0.002160086403451628,4.17564981204191,-1.7004798801622047,4.62254863019102,0.2159740810364612,0.36005299372816635,0.12960518462101758,-0.12958617662252458,0.10084780848415767,0.21602246503589548,-0.01858800000000005,0.179206,-0.9033150000000001,-0.006574000000000024,-0.090536,-0.902496,0.012014000000000025,0.269742,0.0008190000000001252,0.9918584213620343,0.9847414784403127,double,-0.902496
97,0.808333,step_decsent,-0.04608184327373749,-0.09456378255130422,-0.03876155046202762,0.040341690250036866,-0.04490734177172628,-0.051309355429916347,-0.0009600384015303687,0.0037201488059526618,0.0013200528021167475,0.0015600624024943435,0.005040201608064413,0.002400096003842576,-4.0035202752172845,-0.11520921655325574,-7.430994467670556,0.028802304139074215,-0.11520921655309929,0.07200576034689206,0.11520921655310777,0.17281382482946617,0.028802304139079603,-0.01821199999999995,0.18002500000000002,-0.9029809999999999,-0.006176999999999988,-0.08970599999999998,-0.902153,0.012034999999999962,0.269731,0.0008279999999999399,0.9932292048162674,0.9820593858348458,double,-0.902153
98,0.816667,step_decsent,-0.04571634269258001,-0.08747300215982577,-0.022798176145897648,0.012050058944078764,-0.23035378334556098,-0.03519293462259566,-0.0011999040076805766,0.0002399808015361153,-0.002279817614589765,0.005279577633787876,0.004679625629949253,0.0010799136069091885,0.04385656121400027,0.8508255809309332,1.9154516818010383,-0.02878157021240773,-0.4175867535896952,-0.4319498940132571,0.4463061232653593,-0.04326565612132918,-0.1584092148948137,-0.017840999999999996,0.18075600000000003,-0.90281,-0.005752000000000035,-0.08893799999999999,-0.901954,0.012088999999999961,0.269694,0.0008559999999999679,0.9956875732635699,0.9795447337349338,double,-0.901954
99,0.825,step_decsent,-0.03012120484819435,-0.10392415696627862,0.014400576023028808,0.10544847379927452,-0.04722751442726068,0.005128875084355575,-0.0031201248049953488,0.0027601104044156313,0.0004800192007685152,0.0044401776071054345,0.005640225609024225,0.0001200048001954596,1.8714914009823354,-1.9742175454761783,4.464028821424073,-0.230435713106299,0.3024276494515228,0.3311936655896202,-0.10073203248319323,0.11527660855333978,-0.11519366455223061,-0.01761600000000002,0.181645,-0.9029259999999999,-0.005464000000000024,-0.088025,-0.9020729999999999,0.012151999999999996,0.26967,0.0008529999999999927,0.9930111583624686,0.979504572573985,double,-0.9020729999999999
100,0.833333,step_decsent,-0.029281171246852387,-0.09288371534861319,-0.017160686427457536,0.07894803581566574,-0.14372182907010708,-0.013619274568377167,-0.0057602304092154435,0.004920196807873884,0.0001200048001887964,0.002760110404415595,0.004320172806912415,0.0016800672026831191,0.10080806448361446,1.3249059903594604,-3.787502994178112,-0.31682534552023084,0.259220737244479,-0.043203456207814385,-0.20161612896793862,-0.15841267276032692,0.18721497689759428,-0.01741999999999999,0.18246,-0.902782,-0.005197000000000007,-0.08721500000000001,-0.9019159999999999,0.012222999999999984,0.269675,0.0008660000000000334,0.9873725396074522,0.9823485336241524,double,-0.9019159999999999
101,0.841667,step_decsent,-0.03707703383729318,-0.11723062155027576,0.003359731221518936,-0.002872860562500629,0.1186873540508856,0.019974957361689832,-0.005759539236860106,0.004319654427643415,0.0005999520038369578,0.0032397408207342263,0.004319654427645913,0.0014398848092166917,-0.9354286765587635,-2.9213950325968794,2.462253137626148,8.293404791662766e-05,-0.07205932088198522,0.05758905731319387,0.057551045874565374,-6.22005359374187e-05,-0.028819581649439117,-0.01715899999999998,0.183473,-0.9028050000000001,-0.004861000000000004,-0.086202,-0.9019320000000001,0.012297999999999976,0.269675,0.0008730000000000127,0.987959368671718,0.9819562402830205,double,-0.9019320000000001
102,0.85,step_decsent,-0.02460098403936309,-0.11448457938317595,0.012000480019199556,0.08669717100190749,-0.05501978764851563,0.13403487743949752,-0.001200048001921288,0.0031201248049953488,0.0037201488059526618,0.0027601104044156313,0.0025201008040322066,0.0007200288011527728,1.4971858631861523,0.3295382415816435,1.036931332975003,0.5471608346260483,-0.14394931269027683,0.37443859379763983,-0.05755795227632298,-0.21595507303656816,-0.08638617641472765,-0.01696399999999998,0.18445300000000003,-0.9028740000000001,-0.004632999999999998,-0.085227,-0.902026,0.01233099999999998,0.26968000000000003,0.0008480000000000709,0.9916642001743328,0.9851762456389643,double,-0.902026
103,0.858333,step_decsent,-0.040801632065276615,-0.06636265450617972,-0.003960158406330205,0.055869297240879245,-0.023735515056692448,-0.13986623252516034,-0.0018000720028785772,0.009120364814588344,0.0033601344053795614,0.0033601344053795614,0.0038401536061439066,0.0032401296051841034,-1.9441555293307882,5.774861979718713,-1.915353225192571,-0.0720057603452882,0.7200576034552947,-0.043203456207020145,0.07200576034608515,0.15841267276031373,0.30242419345149646,-0.016639000000000015,0.18508199999999997,-0.9028130000000001,-0.004265000000000019,-0.08464200000000001,-0.901966,0.012373999999999996,0.26972399999999996,0.0008470000000000422,0.9835251187165849,0.9814558688271802,double,-0.901966
104,0.866667,step_decsent,-0.05399568034557337,-0.09683225341972723,-0.02399808015361185,-0.0006207828174730439,-0.13451346678382228,0.009310763620372718,-0.004919606431487099,0.013558915286780705,0.0027597792176620325,0.005879529637631573,0.005039596832253493,-0.0007199424046083555,-1.5831591409043475,-3.6560593848749328,-2.40435826101293,-0.37431418629812085,0.5325834499870874,-0.0720368595773377,0.3023032436107543,0.14392167339927925,-0.47517062752489575,-0.016230000000000022,0.186002,-0.9025899999999999,-0.0037659999999999916,-0.083793,-0.9017719999999999,0.01246400000000003,0.269795,0.0008179999999999854,0.9755242130687702,0.978858012620508,double,-0.9017719999999999
105,0.875,step_decsent,-0.044641785671431344,-0.10500420016800638,0.0012000480019279335,-0.02024758405418827,-0.020337388428228288,0.004218247558003075,0.01440057602304194,0.05256210248409842,-0.006000240009599698,0.003000120004799849,0.004320172806912415,0.0007200288011527632,1.1225122613874943,-0.9806728367069617,3.023896334518142,2.31851463512888,4.680569686465565,-1.051244357045685,-0.3455429776589118,-0.08633433641438557,0.17280345682960668,-0.015737999999999974,0.187315,-0.90265,-0.0033689999999999554,-0.08288200000000001,-0.9017759999999999,0.012369000000000019,0.270197,0.0008740000000000414,0.9086193235914684,0.9824120475376638,double,-0.9017759999999999
106,0.883333,step_decsent,-0.05064202568102438,-0.11172446897875883,-0.004680187207476307,0.27549424196438504,-0.21001699774713153,0.00690705259889061,-0.006480259210368207,0.011520460818430887,0.0016800672026897807,0.002160086403451628,0.0021600864034566243,0.0004800192007685088,-0.7200576034552998,-0.8064645158709258,-0.7056564513865613,-2.5058004600276083,-4.925194007640389,0.9216737324240305,-0.1008080644843655,-0.2592207372441836,-0.02880230413827594,-0.015369999999999995,0.188342,-0.9025970000000001,-0.002929000000000015,-0.081933,-0.9017330000000001,0.01244099999999998,0.270275,0.0008639999999999759,0.9777928063014033,0.986206154355489,double,-0.9017330000000001
107,0.891667,step_decsent,-0.048116150707941806,-0.10715142788577034,-0.0158387329013705,-0.06251023490151603,0.045570524888813996,0.07183891277981723,-0.016078713702906616,0.017638588912888057,0.010319174466039773,0.0017998560115242191,0.0035997120230376145,0.0007199424046083555,0.3030807503098862,0.548721033475944,-1.3389183697977272,-1.1517224013125107,0.7341166420035043,1.0366099428065805,-0.0432241890961616,0.17274125504931587,0.028788481382271188,-0.015103000000000033,0.189382,-0.902379,-0.0025129999999999875,-0.08101,-0.901595,0.012590000000000046,0.270392,0.0007840000000000069,0.9566624933151157,0.9853458551166271,double,-0.901595
108,0.9,step_decsent,-0.05808232329293627,-0.10428417136685361,-0.0007200288011461016,0.17126723682608935,-0.24796105537450397,0.006215306007510152,-0.00840033601343558,0.01104044161766238,0.0118804752190106,0.0013200528021100684,0.0018000720028802425,0.0001200048001887964,-1.1959885497413205,0.34408454565183194,1.8143170647095086,0.9214421804237374,-0.79180934780099,0.18736358489989435,-0.05757868827722894,-0.2159654410365252,-0.07199539234604063,-0.014688999999999952,0.19034299999999998,-0.902274,-0.0020179999999999643,-0.080126,-0.9015880000000001,0.012670999999999988,0.27046899999999996,0.0006859999999999644,0.9695586772224388,0.9894142637685137,double,-0.9015880000000001
109,0.908333,step_decsent,-0.045721828873151106,-0.11064442577703283,-0.009840393615761223,-0.047300509835819175,0.0609662816876325,0.05187442113950537,-0.0064802592103682935,0.008400336013442354,0.010200408016320954,0.001800072002878601,0.002280091203647949,0.00108004320173249,1.4833186631207582,-0.7632610596638999,-1.0944875572561148,0.23041843310540075,-0.3168253455202267,-0.20161612896791795,0.0576046082765555,0.05760460827645636,0.11520921655390645,-0.014361999999999986,0.191335,-0.902107,-0.0016220000000000123,-0.079185,-0.901497,0.012739999999999974,0.27052,0.0006099999999999994,0.9754706678833662,0.9887345247529313,double,-0.901497
110,0.916667,step_decsent,-0.04247660187185244,-0.10127189824813908,-0.002039836813046989,-0.13074740804523538,0.0580099687691641,0.0829834099632154,-0.011399088072955485,0.010439164866811025,0.008399328053757375,-0.0029997600191981107,0.003359731221502284,-0.0026397888168972683,0.38939608846875945,1.1246133344004898,0.9359919369707432,-0.5902122465307361,0.24463989121294155,-0.21611230652310606,-0.5759337679477652,0.129546438427445,-0.44634413470479123,-0.014102999999999977,0.192266,-0.90202,-0.0012929999999999886,-0.078313,-0.901502,0.012809999999999988,0.270579,0.0005180000000000184,0.9706806811998332,0.9861189721151065,double,-0.901502
111,0.925,step_decsent,-0.05172206888275686,-0.11340453618144695,-0.011520460818444211,0.2913659344831193,-0.23311996644809052,0.08002731603963907,-0.013200528021120669,0.012360494419779109,0.0067202688107458,-0.008640345613826497,0.0063602544101769125,-0.002280091203647086,-1.1095004213253783,-1.4559747909885787,-1.1377203894632404,-0.21618144103746265,0.23056876910693339,-0.20149516896814681,-0.6768973472492935,0.36007718572838304,0.04316544020763001,-0.013781999999999961,0.19331400000000004,-0.9018679999999999,-0.0009339999999999904,-0.077315,-0.9014249999999999,0.01284799999999997,0.270629,0.0004429999999999712,0.967845953458975,0.9772892250053735,double,-0.9014249999999999
112,0.933333,step_decsent,-0.04632185287411508,-0.11088443537741542,-0.013440537621491779,-0.14358562573319053,0.19399422213993758,0.0916029555012707,-0.021600864034563197,0.013920556822266955,0.006720268810752551,-0.030601224048962865,0.014520580823232595,-0.009120364814595126,0.6480518431107433,0.3024241934515248,-0.2304184331030343,-1.0080806448389061,0.18721497689761915,8.10113573354591e-13,-2.635410828649534,0.9792783407003188,-0.82086566794049,-0.013575999999999977,0.19435399999999997,-0.9017000000000001,-0.0008029999999999982,-0.07627,-0.901389,0.012772999999999979,0.270624,0.00031100000000006123,0.9557299561350259,0.938426734347062,double,-0.901389
113,0.941667,step_decsent,-0.05891528677705303,-0.11735061195104382,-0.0005999520038436186,0.03862927668721383,0.04580763311832686,0.035272969116154455,-0.024838012958964623,0.015118790496761942,0.001679865610752807,-0.008519318454522102,0.007919366450684312,-0.001439884809210031,-1.5110911810580576,-0.7758791185059215,1.5407470143566189,-0.3884267967844254,0.1437765388162921,-0.6047999999999647,2.6496167019967114,-0.7920823581171386,0.9215838739362895,-0.013292000000000026,0.195458,-0.901681,-0.0003830000000000222,-0.07522599999999999,-0.901396,0.012909000000000004,0.270684,0.0002849999999999797,0.9514565869468694,0.9776159542099794,double,-0.901396
114,0.95,step_decsent,-0.04572182887315777,-0.11676467058682474,-0.012960518420736587,-0.04342115629625362,0.07629969104291323,0.11068733510315325,-0.011400456018242243,0.002880115204611091,-0.004080163206525717,-0.0038401536061414597,0.004920196807872285,-0.0009600384015370304,1.58327827959863,0.0703157763373435,-1.4833273031192944,1.61257133574013,-1.4686997830494375,-0.6912311073177219,0.56152224269539,-0.3599147537275956,0.05758387227565163,-0.013006000000000018,0.19645500000000002,-0.901607,-3.399999999997849e-05,-0.074212,-0.901296,0.012972000000000039,0.270667,0.00031100000000006123,0.9792559785850106,0.9863653213193171,double,-0.901296
115,0.958333,step_decsent,-0.0429617184687349,-0.1287651506060226,0.008760350414015293,0.08438524176422367,0.11157236194478691,0.14757610686213163,-0.012480499219967906,0.0019200768030673734,0.012000480019199396,-0.005880235209410902,0.006840273610944588,-0.003000120004799849,0.3312264975906462,-1.440115206912012,2.606608524511195,-0.12961036862182393,-0.11520921655390778,1.9297543772620962,-0.24481958517573907,0.23041843310599971,-0.2448195851749442,-0.012752000000000041,0.19754399999999997,-0.90158,0.0002749999999999697,-0.07308200000000001,-0.901394,0.01302700000000001,0.270626,0.00018600000000001948,0.9709664429591234,0.9822963867377119,double,-0.901394
116,0.966667,step_decsent,-0.06215502759779391,-0.1370290376769853,-0.006599472042226519,0.23834128569895296,-0.09049277166492095,0.0817905816515741,-0.022558195344368197,0.011039116870654644,0.015118790496761942,-0.004799616030715645,0.005639548836092881,-0.003119750419969499,-2.303012854458707,-0.9915871215457934,-1.8430312522488232,-1.209226796784283,1.094197272328678,0.3741673239215889,0.1296639283291635,-0.14407544694644805,-0.014354501460241056,-0.012421999999999989,0.198778,-0.9013990000000001,0.0007530000000000037,-0.071893,-0.9013650000000001,0.013174999999999992,0.270671,3.399999999997849e-05,0.9511432904481657,0.9862670429163645,double,-0.9013650000000001
117,0.975,step_decsent,-0.04536181447257805,-0.12036481459258527,-0.005400216008649127,-0.22434379294547802,0.2742712378883712,0.16135797449559366,-0.01968078723148914,0.0055202208088312625,0.0153606144245725,-0.003000120004799889,0.004560182407295898,-0.001200048001921288,2.0152661856733487,1.9997867615984848,0.14391648068851587,0.3453027856569164,-0.662294019179579,0.02902003213855276,0.21594816103633413,-0.12952915262174403,0.23037350510599167,-0.012207999999999997,0.199827,-0.9012260000000001,0.0011059999999999959,-0.070852,-0.90133,0.013313999999999993,0.270679,0.00010399999999988196,0.9563456212539,0.9906851225871478,double,-0.9012260000000001
118,0.983333,step_decsent,-0.052802112084482676,-0.12408496339853461,-0.004080163206538986,-0.0788384206574714,0.17382622718831625,0.1973626450378364,-0.02580103204128403,0.0044401776071053755,0.025681027241095236,-0.0034801392055683576,0.00720028801152097,-0.0020400816032628316,-0.8928714282856824,-0.44643571414248484,0.15841267276012663,-0.7344587555256049,-0.12961036862185077,1.238499077945841,-0.05760460827654706,0.31682534552082814,-0.10080806448356416,-0.011983000000000021,0.20089800000000002,-0.9009779999999998,0.0015169999999999906,-0.069758,-0.9013129999999999,0.013500000000000012,0.270656,0.00033500000000008523,0.9355280001477942,0.9862444506867877,double,-0.9009779999999998
119,0.991667,step_decsent,-0.04727621790256872,-0.12874970002399935,0.0023998080153745066,0.19550922689039446,0.10307095502581767,0.26160094765874187,-0.023878089752820478,0.00035997120230084735,0.03527717782576945,-0.0013198944084453212,0.00743940484761218,-0.0023998080153545243,0.6630542574890798,-0.5597236171663985,0.777534343882113,0.23073461584635985,-0.48958560172840787,1.1514459544845537,0.25920863896364876,0.028691724992945963,-0.04316371635369507,-0.01178800000000002,0.201974,-0.9007040000000001,0.0019000000000000128,-0.06862299999999999,-0.9013530000000001,0.013688000000000033,0.270597,0.0006490000000000107,0.922509764772276,0.9867874276784613,double,-0.9007040000000001
120,1.0,step_decsent,-0.059642385695430594,-0.12828513140525574,-0.0015600624025009842,0.1103136745157896,0.15155429285988994,0.2069118050453046,-0.025681027241088575,0.0003600144005797124,0.04416176647066284,-0.0003600144005797124,0.0066002640105603345,-0.004200168006721121,-1.483999495123224,0.05575046426780373,-0.4752034582833883,-0.2163611530382923,5.184000823836891e-06,1.066193285118607,0.11519020855221467,-0.1007009284833604,-0.2160518410376322,-0.011504999999999987,0.203046,-0.900323,0.0023940000000000072,-0.067499,-0.901375,0.013898999999999995,0.27054500000000004,0.001052000000000053,0.904334595146898,0.9869472750117918,double,-0.900323
121,1.008333,step_decsent,-0.046201848073919624,-0.15360614424577163,-0.007680307212296243,0.14470385681881953,0.16265697115878283,0.2695874306493285,-0.024720988839551886,-0.001560062402501005,0.060482419296772956,-0.00012000480018879799,0.005040201608064413,-0.003480139205568404,1.6129290317426008,-3.038643086585397,-0.7344587555256589,0.11520921655306587,-0.2304184331070125,1.9585566814004878,0.028802304139075554,-0.1872149768985882,0.0864069124148234,-0.011326000000000003,0.20431299999999997,-0.8997549999999999,0.0027780000000000027,-0.06617699999999999,-0.9013399999999999,0.014104000000000005,0.27048999999999995,0.0015850000000000586,0.8752197964559212,0.9897897923772148,double,-0.8997549999999999
122,1.016667,step_decsent,-0.07103431725462352,-0.13150947924165962,0.017038636909057527,-0.026476497131978582,0.2494174617405213,0.18798431732672186,-0.0219582433405379,-0.01631869450443586,0.07955363570913897,0.0034797216222703414,0.0032397408207342263,-0.00155987520998808,-2.9796579290501204,2.6513876894782618,2.966036011681495,0.3315029396465042,-1.7708941806977132,2.288362900451868,0.4319326160858066,-0.21603801143870568,0.23041324640992433,-0.01091700000000001,0.205273,-0.8992340000000001,0.003399000000000041,-0.065054,-0.901495,0.014316000000000051,0.270327,0.0022609999999999575,0.8371793925843283,0.9916604033829296,double,-0.8992340000000001
123,1.025,step_decsent,-0.07464298571942417,-0.10728429137165489,-0.020520820832824048,0.590037957065466,-0.2282469839576666,0.08583950269989717,-0.02724108964358326,-0.020040801632068856,0.09768390735629291,0.006240249609984035,0.0025201008040322066,-0.0028801152046044293,-0.4330575380776053,2.907138829953792,-4.507315221634696,-0.6339669150420507,-0.4466707221448495,2.175719626443551,0.3312766095900299,-0.08636025641449972,-0.15843513675943374,-0.010522000000000031,0.20599999999999996,-0.8982490000000001,0.004072999999999993,-0.064139,-0.901348,0.014595000000000025,0.27013899999999996,0.003098999999999963,0.7967226395022738,0.9877995119804821,double,-0.8982490000000001
124,1.033333,step_decsent,-0.049201968078724866,-0.13344533781351042,-0.001320052802136697,0.13031413608712006,0.20882592373450723,0.28173687126298513,-0.019320772830915565,-0.04668186727468689,0.11172446897875901,0.006960278411136623,0.0028801152046076836,-0.0013200528021100508,3.053044238653409,-3.1394511510686516,2.304184331055684,0.9504760365615691,-3.197055759344482,1.684934792087586,0.08640691241480564,0.04320345620730477,0.18721497689839806,-0.010273000000000032,0.206723,-0.8973069999999999,0.004541000000000017,-0.063003,-0.9013479999999998,0.01481400000000005,0.269726,0.004040999999999961,0.7552288955548092,0.9872542949987166,double,-0.8973069999999999
125,1.041667,step_decsent,-0.03659707223422192,-0.14806815454763889,0.01523878089755372,0.17761201961999473,0.13197302354718574,0.314083784989599,-0.02291816654667631,-0.05351571874250185,0.11915046796256785,0.004079673626107408,0.003599712023038495,-0.0021598272138250952,1.5124665040200604,-1.7545976402842263,1.9869010918755377,-0.43165271367420344,-0.8199965764116973,0.8910485941695445,-0.34564492260970364,0.0863447106348482,-0.10076486821634993,-0.010159000000000029,0.207511,-0.896441,0.0048799999999999955,-0.061739,-0.9014930000000001,0.015039000000000025,0.26925,0.0050520000000000564,0.7284595853691924,0.9902437317673394,double,-0.896441
126,1.05,step_decsent,-0.033361334453377606,-0.1384855394215747,-0.017280691227666085,-0.07950210634360992,0.4881692857518994,0.3043838424127492,-0.02808112324492408,-0.061562462498497145,0.13392535701427893,0.004920196807873819,0.0018000720028802186,-0.0028801152046110143,0.3883040658639456,1.1499598135202218,-3.9024927547364974,-0.6195795869732007,-0.965647876634484,1.7730576085096388,0.10086681648462695,-0.21596544103663085,-0.08643801641496537,-0.010114999999999985,0.208152,-0.895181,0.005199000000000009,-0.06057,-0.901373,0.015313999999999994,0.268722,0.006191999999999975,0.6879995267131354,0.9900356664609891,double,-0.895181
127,1.058333,step_decsent,-0.049321972878914974,-0.13752550102004138,0.02232089283571597,0.24010504684696307,-0.07559447742990019,0.2593139869108887,-0.02808112324493149,-0.06468258730349413,0.15720628825152885,0.0010800432017258282,0.002040081603263691,-0.005280211208447005,-1.9153532251935095,0.11520921655266285,4.752380182813203,-8.893242156933863e-13,-0.37442995379779387,2.7938235014100723,-0.4608368662124116,0.028802304138182497,-0.2880230413819768,-0.009938000000000002,0.208759,-0.894057,0.005618999999999985,-0.05940700000000001,-0.9016029999999999,0.015556999999999988,0.268166,0.007545999999999942,0.6373785875466458,0.9903954500551708,double,-0.894057
128,1.066667,step_decsent,-0.033717302615794226,-0.12874970002399763,0.033237341012728655,0.02699540772479355,0.05854760154770963,0.332385609837678,-0.05651547876169854,-0.08111351091912704,0.1665466762658975,0.005039596832251761,-0.0002399808015352827,-0.004679625629950918,1.8724106387233777,1.0530118785749556,1.3098689917221744,-3.4118497140348967,-1.9715531096271635,1.1207569011721357,0.47510842698894923,-0.2735856017277366,0.07206450425918924,-0.01012799999999997,0.209156,-0.892946,0.005942000000000003,-0.058336,-0.9019190000000001,0.016069999999999973,0.267492,0.00897300000000012,0.58747320991326,0.9885309567563083,double,-0.892946
129,1.075,step_decsent,-0.0422416896675827,-0.15168606744269925,0.004920196807867288,0.17379215009650087,0.2125059364382979,0.23801336306291523,-0.06960278411136808,-0.09264370574823017,0.19152766110644437,0.02820112804512695,-0.013200528021120844,0.0007200288011527728,-1.022967364909223,-2.7524741892117874,-3.3981932323126873,-1.5705394635389012,-1.3836787266414536,2.9978380943894267,2.7794949253420618,-1.5553278794654601,0.6479844511104932,-0.010356000000000032,0.209648,-0.891391,0.006529000000000007,-0.057182,-0.901954,0.01688500000000004,0.26683,0.010562999999999989,0.521281357197622,0.948089928066561,double,-0.891391
130,1.083333,step_decsent,-0.030961238449541757,-0.15108604344173457,0.0178807152286034,-0.4040741200369533,0.38070501097349874,0.2156083287378513,-0.07716308652346016,-0.10332413296531688,0.21156846273850757,0.001920076803067348,-0.0013200528021125489,-0.011160446417857689,1.3537082944966699,0.07200576034617387,1.5553244234652446,-0.9072725803542472,-1.2817025341517496,2.4049923955433643,-3.1538523031392227,1.4257140548431642,-1.425714054843424,-0.010741,0.210046,-0.889777,0.0068030000000000035,-0.055934000000000005,-0.902196,0.017544000000000004,0.26598,0.012418999999999958,0.4628557625555534,0.9809981873250708,single,-0.889777
131,1.091667,step_decsent,-0.04727621790256935,-0.14662826973842383,0.03227741780658506,-0.0006001759104456019,0.11299097805243219,0.2609229561279231,-0.08795296376289868,-0.12023038156947707,0.22282217422606584,-0.0028797696184267997,0.001079913606911715,-0.009119270458359302,-1.957640923089501,0.5348900531930437,1.7274661120688666,-1.2946816941971122,-2.028587545495622,1.3503373515188968,-0.5759354957396495,0.2879729312484173,0.24492152141809756,-0.011079999999999979,0.210266,-0.8881890000000001,0.0071730000000000405,-0.054703,-0.902541,0.01825300000000002,0.264969,0.01435199999999992,0.4097611292513832,0.9839600862302893,single,-0.8881890000000001
132,1.1,step_decsent,-0.030721228849150843,-0.1257650306012227,0.008880355214197309,-0.12173753644048069,0.2686253724590971,0.24142862892937048,-0.11052442097683776,-0.13452538101523623,0.2322092883715332,-0.004680187207489568,0.0036001440057604373,-0.00840033601344213,1.9866781535363274,2.503688844017851,-2.80775982147934,-2.7086832130011618,-1.7154685522331579,1.12649875740636,-0.2160587530376499,0.30243974545165947,0.08627558441343564,-0.011745000000000005,0.21019300000000002,-0.886328,0.007390000000000008,-0.05362499999999999,-0.902685,0.019135000000000013,0.263818,0.016356999999999955,0.3527121088015429,0.9828867469893705,single,-0.886328
133,1.108333,step_decsent,-0.03444137765510433,-0.13092523700948094,0.0007200288011461112,0.005353742849751006,0.28443440965292544,0.25139271437424154,-0.1240849633985346,-0.17160686427457097,0.2697707908316324,-0.002520100804031374,0.0008400336013440688,-0.010200408016320954,-0.4464357141429879,-0.6192495389725525,-0.9792783406997807,-1.627330183810988,-4.449955989359784,4.507560597635852,0.2592207372444754,-0.3312264975898708,-0.21601728103670229,-0.012492000000000003,0.20985400000000004,-0.8840859999999999,0.007655999999999996,-0.052527,-0.9027759999999999,0.020148,0.26238100000000003,0.018689999999999984,0.31310000000000016,0.9824322827469997,single,-0.8840859999999999
134,1.116667,step_decsent,-0.0373170146388293,-0.13042956563474878,-0.001199904007660594,-0.14027413403438982,0.37336073996442043,0.2074356690231285,-0.14878809695224496,-0.18898488120950763,0.290136789056877,-0.0034797216222703414,0.001319894408446969,-0.013318934485237747,-0.3450488341402626,0.05947580690330709,-0.2303735071762288,-2.9641388953335936,-2.0851952165750562,2.443724289086206,-0.11514528656574996,0.05757869055710301,-0.3741932408107474,-0.013421000000000016,0.209366,-0.881658,0.007938,-0.051428999999999996,-0.902877,0.021359000000000017,0.260795,0.021218999999999988,0.2878100000000001,0.9769514642764447,single,-0.881658
135,1.125,step_decsent,-0.03720148805952662,-0.12096483859354425,-0.002760110404428955,-0.11891160434326888,0.2796881363999557,0.2555770110216828,-0.18060722428897064,-0.21324852994119636,0.322452898115927,-0.004080163206532379,0.0013200528021117513,-0.011880475219010759,0.013863744066084364,1.1358126774516524,-0.1872322569024811,-3.8184480183278495,-2.911754317975394,3.8780882106144565,-0.07205587234633905,1.9008000093879736e-05,0.17262201682791325,-0.014615999999999962,0.208597,-0.878948,0.008213999999999999,-0.05041,-0.9029529999999999,0.02282999999999996,0.259007,0.024004999999999943,0.25995,0.9789487422768303,single,-0.878948
136,1.133333,step_decsent,-0.04644185767430388,-0.1276851074042968,-0.006960278411123485,-0.2136965697761626,0.4069109812378594,0.16449664698039554,-0.20040801632065525,-0.250810032401296,0.3907356294251783,-0.024360974438972168,0.011760470418816964,-0.016200648025920732,-1.1088887093216544,-0.8064645158709499,-0.504040322416245,-2.376190091405831,-4.507560597635905,8.194255527331329,-2.433794699680784,1.2529002300138377,-0.5184414744881811,-0.015898999999999996,0.207571,-0.875634,0.008398000000000017,-0.04924800000000001,-0.90303,0.024297000000000013,0.256819,0.027395999999999976,0.22604000000000024,0.9474477314014393,single,-0.875634
137,1.141667,step_decsent,-0.04871610271178478,-0.12874970002399763,0.0009599232061444612,-0.1325620917598546,0.4379840993471221,0.2190958665650171,-0.23182145428365425,-0.2892968562515039,0.4542836573074133,0.018118550515953392,-0.008999280057595165,-0.004919606431487034,-0.27288757349182674,-0.1277408950924902,0.9503481662188489,-3.7693110106789973,-4.618049418071468,7.625153333601455,5.097135223773127,-2.4909707795070757,1.3536167019958738,-0.01742499999999997,0.20623299999999997,-0.8718560000000001,0.00895499999999999,-0.04825,-0.9030790000000001,0.02637999999999996,0.25448299999999996,0.031223,0.18777,0.9653000383527703,single,-0.8718560000000001
138,1.15,step_decsent,-0.04008160326413105,-0.1224048961958498,-0.008280331213260217,-0.24127065942984496,0.416097008349944,0.24360251193570417,-0.2642505700228078,-0.322452898115927,0.45757830313213077,0.0031201248049953488,-0.0015600624024960088,-0.013200528021120844,1.0361813809736962,0.7614069156543737,-1.1088748853239845,-3.8916495546806456,-3.9788841790979674,0.3953733138986531,-1.7998830806382071,0.8927418282850383,-0.9937503407696971,-0.019293000000000005,0.20456599999999997,-0.867974,0.009315000000000018,-0.04724299999999999,-0.9031199999999999,0.028608000000000022,0.25180899999999995,0.0351459999999999,0.1485399999999999,0.9772438705732801,single,-0.867974
139,1.158333,step_decsent,-0.039001560062397515,-0.14532581303251754,-0.0016800672026830968,-0.18095897317082005,0.44179776320206593,0.3101109871907457,-0.2838113524540939,-0.3573742949717903,0.46897875915035386,0.0004800192007685024,-0.000960038401536172,-0.010080403216131888,0.1296103686227669,-2.75062004520189,0.7920633638037927,-2.3473877872657836,-4.190735252113609,1.3681094465646098,-0.31682534552103686,0.07200576034559299,0.37442995379682004,-0.021333000000000046,0.202799,-0.864052,0.009643999999999986,-0.046040000000000005,-0.90319,0.030977000000000032,0.248839,0.039138000000000006,0.10861999999999994,0.9831043545086207,single,-0.864052
140,1.166667,step_decsent,-0.07799376049916629,-0.144348452123834,-0.005519558435324138,-0.19180106975253514,0.38978868503263403,0.18704313749905244,-0.2876169906407521,-0.4004079673626161,0.46196304295657464,0.0002399808015361217,-0.002639788816894841,-0.01139908807294913,-4.678689757231763,0.11727392712785867,-0.4607020917495937,-0.45664005119489576,-5.163627596691457,-0.8418185977657011,-0.028802303723588343,-0.20155392552900178,-0.15822952445611543,-0.02307999999999999,0.20066500000000004,-0.860156,0.010296000000000027,-0.044858999999999996,-0.903239,0.03337600000000002,0.24552400000000002,0.04308299999999998,0.06917000000000018,0.980494638580511,single,-0.860156
141,1.175,step_decsent,-0.05448217928717173,-0.12420496819872509,0.0010800432017191379,-0.2705522382023875,0.4204081324556193,0.20997821370398798,-0.3458538341533596,-0.4659786391455607,0.4676587063482438,-0.006000240009599618,-0.0039601584063359814,-0.016680667226688803,2.821502605543519,2.4173147636035694,0.7919838758002112,-6.988700769543558,-7.8687953657678475,0.6835069472781783,-0.7488564515943396,-0.15845068876048451,-0.6338148510427914,-0.025507999999999975,0.197817,-0.856268,0.010700000000000043,-0.043857,-0.9033869999999999,0.03620800000000002,0.241674,0.04711899999999991,0.028810000000000335,0.9697266897020016,single,-0.856268
142,1.183333,step_decsent,-0.09180367214688194,-0.14724588983559547,-0.006120244809795237,-0.25791397762435864,0.3136482953819461,0.26289674293402887,-0.4076563062522518,-0.529821192847719,0.4548181927277151,0.0015600624024943435,-0.003720148805951829,-0.0098403936157479,-4.478758293497006,-2.765021197272362,-0.8640691241466988,-7.4165933155997585,-7.661412900775097,-1.5409232713943117,0.9072725803544979,0.028802304138264075,0.8208656679396334,-0.02814,0.194629,-0.8524269999999999,0.011477999999999988,-0.04266099999999999,-0.9034179999999999,0.03961799999999999,0.23729,0.05099100000000001,0.0,0.9822747317563822,single,-0.8524269999999999
143,1.191667,step_decsent,-0.05567554595632546,-0.14182865370770092,0.0013198944084453037,-0.3427528781723907,0.32170401910982976,0.3459023149331538,-0.41528677705783124,-0.5993520518358452,0.4613630909527187,0.0010799136069091885,-0.0020398368130553146,-0.010079193664503522,4.3350283405994965,0.6500163340406175,0.8927452865659329,-0.9155832500095247,-8.343035635724219,0.7853249610035449,-0.05761324641050532,0.20162130944282478,-0.02865371355359012,-0.03113699999999997,0.190816,-0.8485929999999999,0.01195099999999999,-0.041496000000000005,-0.9035129999999999,0.04308799999999996,0.23231200000000002,0.05491999999999997,0.0,0.9827665302593365,single,-0.8485929999999999
144,1.2,step_decsent,-0.031201248049920177,-0.13488539541581787,0.028921156846293046,-0.4995832838225931,0.2812868511325488,0.5567592407575631,-0.4701788071522943,-0.6933877355094273,0.4358574342973788,-0.0006000240009573131,-0.0010800432017283265,-0.010440417616705213,2.937033230097865,0.833224323998934,3.3122839839011156,-6.587307103619775,-11.28473343016717,-3.060801230690048,-0.20160057696706074,0.11517984055286175,-0.04334860820853172,-0.03479500000000002,0.186162,-0.845202,0.012205999999999995,-0.04038100000000001,-0.9038410000000001,0.047001000000000015,0.22654300000000002,0.05863900000000011,0.0,0.98247788364741,single,-0.845202
145,1.208333,step_decsent,-0.08496339853593832,-0.1326053042121672,-0.0062402496100038545,-0.16188143080533002,0.39133066439067393,0.39745516245102586,-0.5189007560302314,-0.8165126605064098,0.4197767910716356,-0.002640105604226763,0.003360134405376186,-0.015840633625347256,-6.451716126967142,0.2736218893136474,-4.219537556257805,-5.846867740061955,-14.775582022918554,-1.929754377264235,-0.24481958517573674,0.5328426265575945,-0.6480518431107583,-0.03841100000000003,0.18046299999999998,-0.8416519999999998,0.012891999999999959,-0.039248,-0.903921,0.05130299999999999,0.219711,0.06226900000000013,0.0,0.9726551683495895,single,-0.8416519999999998
146,1.216667,step_decsent,-0.10403167746580551,-0.12898968082553552,0.004319654427663512,-0.20412719948266558,0.2674085430284868,0.47310261795197633,-0.5557955363570983,-0.8860091192704721,0.37724982001440366,-0.005159587233016625,0.0,-0.009719222462202937,-2.2880104307496465,0.43384009918787525,1.2670871175507041,-4.427019477665897,-8.33890793905251,-5.102828300603885,-0.30231361036595994,-0.4031838739352352,0.7345105787310339,-0.04217599999999999,0.174154,-0.8385440000000001,0.013716000000000006,-0.038173000000000006,-0.9040380000000001,0.055892,0.21232700000000002,0.06549400000000005,0.0,0.9816602567504872,single,-0.8385440000000001
147,1.225,step_decsent,-0.0632425297011869,-0.12984519380775,0.014040561622455379,-0.30884744460568475,0.34098879606536253,0.49331975455518556,-0.5441017640705579,-0.930037201488044,0.2864514580583207,-0.008040321612869085,0.0003600144005763768,-0.01080043201727798,4.894893527495246,-0.10266566449231539,1.1665555255960276,1.403308806737099,-5.283581209356913,-10.896239284301139,-0.34570195366043555,0.043203456207412755,-0.12975033662246777,-0.04618300000000003,0.167486,-0.836274,0.014175999999999966,-0.037088,-0.904245,0.060358999999999996,0.204574,0.067971,0.0,0.977550939529259,single,-0.836274
148,1.233333,step_decsent,-0.08700348013921011,-0.16296651866074768,-0.0003600144005730556,-0.22306988633499336,0.512501665496334,0.4471440225486561,-0.6043441737669544,-1.0402016080643333,0.2394095763830538,-0.030241209648383147,0.009240369614784758,-0.008880355214210869,-2.851428109687198,-3.974717971078601,-1.7281382482933598,-7.229378338701193,-13.220257599458806,-5.645251611096521,-2.6642131327870233,1.0656852531151402,0.23041843310537963,-0.05049399999999998,0.16017599999999999,-0.834276,0.014649000000000023,-0.035653000000000004,-0.904316,0.065143,0.19582899999999998,0.07003999999999999,0.0,0.9452587931884677,single,-0.834276
149,1.241667,step_decsent,-0.0977921766258704,-0.15346772258219255,0.01211903047755051,-0.15161763631542485,0.3047621524517934,0.6019890761200457,-0.6179505639548775,-1.0611951043916394,0.1879049676025918,-0.004679625629950918,-0.0003599712023041729,-0.00455963522917953,-1.2945400151980098,1.1397643482787456,1.4973655961271264,-1.632636211653826,-2.519018037833696,-6.180058648963477,3.0671447106349934,-1.1519487421512906,0.518444922609948,-0.05482899999999996,0.152611,-0.832811,0.015425000000000022,-0.034377000000000005,-0.9044549999999999,0.07025399999999998,0.186988,0.07164399999999993,0.0,0.9890939939169388,single,-0.832811
150,1.25,step_decsent,-0.09576383055321885,-0.16164646585863593,0.02664106564264593,-0.27549179070265944,0.46074457970527494,0.5354057642337451,-0.6765870634825493,-1.100684027361106,0.13656546261850266,-0.005760230409215521,0.0009600384015361976,-0.0037201488059526618,0.2434112651687952,-0.9814884527113236,1.7427139283686013,-7.036661409777071,-4.738860310748465,-6.160987037572254,-0.12967776062217845,0.15840748876039631,0.10074240048324441,-0.05966900000000003,0.14478599999999997,-0.831895,0.016174999999999995,-0.033022,-0.9047080000000001,0.07584400000000002,0.177808,0.07281300000000002,0.0,0.9884600410122399,single,-0.831895
151,1.258333,step_decsent,-0.09684387375495135,-0.16164646585863593,0.018360734429359066,-0.17492784191556687,0.29734481963325116,0.5114641408984548,-0.7027481099244001,-1.1898475939037645,0.14844593783752008,-0.05124204968198903,0.01044041761670438,-0.0031201248049953488,-0.12961036862264544,0.0,-0.9936794927741439,-3.1394511510681675,-10.700055987358606,1.4257140548442968,-5.45803663419824,1.1376910134607308,0.07200576034529203,-0.064718,0.136218,-0.830811,0.016554999999999986,-0.031588000000000005,-0.904887,0.08127299999999998,0.167806,0.07407600000000003,0.0,0.9126869432822748,single,-0.830811
152,1.266667,step_decsent,-0.10979121670266284,-0.17014638828893588,0.02447804175667044,-0.28774120204631987,0.4216042929125749,0.49760539725670955,-0.7247420206383421,-1.188144948404118,0.04571634269258001,-0.001679865610752807,-0.0029997600191981107,-0.0040796736261072995,-1.5535568691758332,-1.0199090989080741,0.7340181578247335,-2.6390581610201473,0.20430111586830818,-12.32656529216934,5.9469863296419305,-1.6126923009242127,-0.11513664760162508,-0.06984299999999999,0.12773400000000001,-0.8306340000000001,0.01745599999999997,-0.030195,-0.905125,0.08729899999999996,0.157929,0.07449099999999986,0.0,0.9911080177284182,single,-0.8306340000000001
153,1.275,step_decsent,-0.10632425297011952,-0.17316692667706865,0.03528141125645256,-0.3425396901357624,0.3134817536965622,0.5579812782239297,-0.7502700108004431,-1.241089643585757,0.04008160326413105,-0.0037201488059526618,-0.002040081603263691,0.0014400576023055455,0.4160522899968022,-0.36247910574016473,1.296456198221795,-3.0634813587064897,-6.353617566499401,-0.6761957792450508,-0.24484377717507183,0.11516601655279352,0.6623942431792746,-0.07520900000000003,0.118835,-0.830594,0.018310999999999966,-0.028768999999999996,-0.9054070000000001,0.09351999999999999,0.14760399999999999,0.07481300000000002,0.0,0.9925324394165378,single,-0.830594
154,1.283333,step_decsent,-0.10320412816512808,-0.13824552982119045,0.03804152166085385,-0.14256893945100665,-0.05114053266984776,0.6443167693844419,-0.7814712588503359,-1.2740909636385218,0.019920796831872863,-0.005160206408251408,-0.000600024000960628,-0.007440297611905125,0.3744299537971177,4.190735252115394,0.33122649758805295,-3.744299537968586,-3.960316819004466,-2.4193935476128448,-0.17281382482883967,0.17281382482935773,-1.0656852531153862,-0.08086099999999996,0.10937000000000001,-0.830745,0.019128000000000034,-0.027622,-0.905786,0.099989,0.136992,0.07504100000000002,0.0,0.9848759033758111,single,-0.830745
155,1.291667,step_decsent,-0.10295176385888963,-0.15226781857451602,0.0434365250779914,-0.2274684450424779,0.19351149056203587,0.6030378559978953,-0.8004559635229379,-1.2954163666906895,-0.02579793616510311,0.005879529637624991,-0.0037197024238057232,0.006479481641468625,0.03028129424507571,-1.6825400471953238,0.6473486221667448,-2.277982322126519,-2.558843658767469,-5.485809094909628,1.3246623525169916,-0.3743314642242806,1.6702398912135845,-0.08667400000000003,0.099843,-0.8313219999999999,0.02003499999999997,-0.026384000000000005,-0.906094,0.106709,0.126227,0.07477200000000006,0.0,0.9841545014082596,single,-0.8313219999999999
156,1.3,step_decsent,-0.11484459378375428,-0.17220688827552869,0.032521300852049385,-0.2075706246555982,0.312261360929987,0.5757783372566353,-0.8229929197167712,-1.3220928837153254,-0.039721588863556936,0.0016800672026897584,-0.01800072002880135,-0.008520340813630924,-1.4271966788508872,-2.3927840754844976,-1.3098793022851105,-2.704542924976952,-3.201310095360068,-1.670905160020831,-0.5039556504182358,-1.7137906642260143,-1.80005069663978,-0.09257499999999996,0.09026100000000001,-0.8319240000000001,0.021006000000000025,-0.025099000000000003,-0.906436,0.11358099999999999,0.11536000000000002,0.07451199999999991,0.0,0.9666898099115939,single,-0.8319240000000001
157,1.308333,step_decsent,-0.1353654146165814,-0.15480619224769127,0.08124324972999458,-0.4590237519084354,0.4626188816285587,0.6461625017936649,-0.8471138845553945,-1.3434537381495395,-0.052442097683903656,0.0019200768030740608,-0.0008400336013440688,0.012000480019199556,-2.4625970038194285,2.0881670500225105,5.84686774006308,-2.8946315658974524,-2.563405068308447,-1.5265221193263934,0.02880230413828208,2.059364745884728,2.462597003819833,-0.09850600000000004,0.080356,-0.8330380000000001,0.022150000000000003,-0.023816000000000004,-0.9070130000000001,0.12065600000000004,0.104172,0.07397500000000001,0.0,0.9796964786803224,single,-0.8330380000000001
158,1.316667,step_decsent,-0.11843052555795634,-0.16582673386129,0.030357571394268628,-0.13624953758782712,0.2333353135932506,0.6374275710054602,-0.8311735061194994,-1.3874490040796619,-0.06371490280777534,0.00863930885528683,0.001679865610751142,0.00011999040076472725,2.0320241251049813,-1.322359204895445,-6.1057929368521195,1.9126923969156477,-5.279009590847377,-1.3526284045922239,0.8062433467977822,0.30236371635411463,-1.4255447106353178,-0.10444599999999998,0.07017500000000002,-0.8338219999999998,0.02320899999999998,-0.022420000000000002,-0.907265,0.12765499999999996,0.09259500000000001,0.07344300000000015,0.0,0.9853301136428418,single,-0.8338219999999998
159,1.325,step_decsent,-0.10812432497299812,-0.1519260770430835,0.029041161646475182,-0.135018636244746,0.07972064095471301,0.6624616784470017,-0.8601944077763198,-1.4114964598584083,-0.09600384015360977,0.006000240009606439,-0.0026401056042243353,0.006120244809795237,1.2367935419366753,1.6681455440065538,-0.1579754887547652,-3.4826475047186776,-2.885810125854635,-3.8748274745991513,-0.31670092951883044,-0.5184172824883615,0.720059331456926,-0.110713,0.059679,-0.834864,0.024160000000000015,-0.021176,-0.907456,0.13487300000000002,0.08085500000000001,0.07259199999999999,0.0,0.9850528305999873,single,-0.834864
160,1.333333,step_decsent,-0.10284411376454838,-0.16596663866554315,0.013800552022091113,-0.0077318445347839245,0.0384691410200427,0.685782854348546,-0.8630745229809079,-1.416296651866049,-0.11220448817952751,0.03084123364933964,0.030721228849154174,-0.014280571222852954,0.633650691041599,-1.6849347920868116,-1.8289463127785675,-0.3456276496565504,-0.5760460827601713,-1.9441555293312678,2.9810384783070645,4.00352027521636,-2.44819585175181,-0.11704800000000004,0.049260000000000005,-0.835914,0.025273999999999963,-0.019537,-0.9076900000000001,0.142322,0.068797,0.07177600000000006,0.0,0.9236435568194536,single,-0.835914
161,1.341667,step_decsent,-0.11111111111111777,-0.17278617710583527,0.03731701463882363,-0.12612470597078312,0.30532465600182196,0.7140815062955368,-0.8516918646508433,-1.4368850491960932,-0.14062874970002745,0.04319654427646194,-0.008279337652987873,-0.05411567074633883,-0.9919603247623637,-0.81827915050303,2.821749774026033,1.3658097348289888,-2.470410046801613,-3.4106385313775474,1.4825186737608034,-4.679693604768754,-4.77982955645388,-0.12322,0.038724999999999996,-0.8373970000000001,0.026560000000000028,-0.018165999999999995,-0.908452,0.14978000000000002,0.05689099999999999,0.07105499999999998,0.0,0.8837747076468547,single,-0.8373970000000001
162,1.35,step_decsent,-0.12384495379814704,-0.18720748829952857,0.03348133925355974,-0.12965803303290563,0.3547856792354243,0.7658321794280498,-0.8551542061682277,-1.444257770310786,-0.13560542421696203,0.008160326413057879,-0.006120244809792576,-0.005280211208446865,-1.5281222473333798,-1.7306265683058983,-0.4602994582099868,-0.4154976019901928,-0.8847619242400879,0.6028231708946752,-4.204514324181382,0.25910150524364084,5.860489564129498,-0.12931399999999998,0.028250000000000004,-0.8388059999999999,0.027660000000000018,-0.016656999999999998,-0.9087749999999999,0.156974,0.044907,0.06996899999999995,0.0,0.9808566116646235,single,-0.8388059999999999
163,1.358333,step_decsent,-0.1123244929797193,-0.1785671426857086,0.008040321612869298,0.06132933226538527,0.04966489624275815,0.7686844194266748,-0.8321132845313883,-1.4618984759390508,-0.15984639385575566,0.006840273610941349,-0.0090003600144005,0.005640225609026723,1.3825105986352866,1.0368829489763638,-3.053044238652427,2.7650211972686383,-2.116969354165963,-2.909032717963981,-0.15841267276089546,-0.34562764965894044,1.3105048382903741,-0.135312,0.017556000000000002,-0.840205,0.028652999999999984,-0.015244,-0.908795,0.16396499999999997,0.0328,0.06859000000000004,0.0,0.9789439921227218,single,-0.840205
164,1.366667,step_decsent,-0.10427165826733886,-0.18970482361411015,0.007079433645312071,0.046382588632072265,0.12362182151625542,0.8044172762266661,-0.8417326613870818,-1.4706023518118443,-0.18910487161027237,-0.004319654427643415,0.0037197024238056244,-0.004679625629950918,0.966262864456489,-1.3364147982243157,-0.1152973323202808,-1.1542328840524838,-1.044381554210879,-3.5107364716242477,-1.33908423789113,1.526285389753543,-1.238283086030425,-0.14145799999999997,0.006881000000000005,-0.84184,0.029486000000000012,-0.013631999999999998,-0.908893,0.17094399999999998,0.020513000000000003,0.06705299999999992,0.0,0.9877078958798275,single,-0.84184
165,1.375,step_decsent,-0.1363254530181184,-0.16524660986439563,0.03420136805470674,-0.1495894734983364,0.18168238330647155,0.7895146948335255,-0.8490339613584619,-1.455178207128299,-0.1882875315012602,-0.002400096003842576,-0.0046801872074880265,0.009960398415936697,-3.846609234462959,2.9351030540879326,3.254762319620175,-0.8761910442073848,1.8509714008814822,0.09808473647091895,0.23035622510510695,-1.0080270768383208,1.756873160432947,-0.147397,-0.0038680000000000034,-0.8436939999999999,0.030601999999999963,-0.012294,-0.9090949999999999,0.17799899999999996,0.008425999999999996,0.06540099999999993,0.0,0.9812269290287488,single,-0.8436939999999999
