frame_id,timestamp,gait_type,root_linear_velocity_x,root_linear_velocity_y,root_linear_velocity_z,root_angular_velocity_x,root_angular_velocity_y,root_angular_velocity_z,left_linear_velocity_x,left_linear_velocity_y,left_linear_velocity_z,right_linear_velocity_x,right_linear_velocity_y,right_linear_velocity_z,root_acceleration_x,root_acceleration_y,root_acceleration_z,left_acceleration_x,left_acceleration_y,left_acceleration_z,right_acceleration_x,right_acceleration_y,right_acceleration_z,left_pos_rel_x,left_pos_rel_y,left_pos_rel_z,right_pos_rel_x,right_pos_rel_y,right_pos_rel_z,step_length,step_width,step_height,left_contact_prob,right_contact_prob,support_type,max_foot_height
1,0.008333,stand,0.049201968078725726,-0.04404176167046756,0.019800792031677755,0.7125014309236618,0.5468322344694452,0.2080838790991464,-0.0013200528021100738,-0.0004800192007685108,0.0028801152046081502,0.07332293291730675,0.14652586103443802,0.08760350414016578,0.0,0.0,0.0,0.0,0.0,0.0,0.0,0.0,0.0,0.06499799999999989,0.057360999999999995,-0.909266,-0.22224700000000008,-0.07319700000000001,-0.893648,0.287245,0.130558,0.01561800000000002,0.9946593744058501,0.5341586510094394,double,-0.893648
2,0.016667,stand,0.01931845452362079,-0.031437485001198036,0.15802735781137658,-0.48448122567852375,0.05858539484466788,0.2920079776740779,-0.055555555555567813,0.037437005039600964,-0.02243820494360447,0.07475401967843054,0.15958723302135802,0.09083273338132956,-3.5857347678311653,1.512392208935628,16.585861024681883,-6.507739711238028,4.549678934529574,-3.037955381355005,0.17171667400093435,1.5672392592896573,0.3874765108187885,0.06437399999999993,0.057935000000000014,-0.91077,-0.2217849999999999,-0.07160500000000003,-0.894208,0.28615899999999983,0.12954000000000004,0.016561999999999966,0.8822500042402208,0.5039474810233138,double,-0.894208
3,0.025,stand,0.061682467298707,-0.013680547221889234,0.029281171246852512,-0.015910614581934764,0.03716011541265425,0.12091311930446824,-0.03660146405856231,0.0038401536061414246,-0.0006000240009598058,0.07464298571941683,0.17700708028321183,0.08532341293651702,5.083884888405882,2.130917770227865,-15.450160394158656,2.2745819629191772,-4.031783443352879,2.6206865405789825,-0.013324608065968097,2.0904652900340577,-0.6611448991734724,0.0635549999999998,0.058080999999999994,-0.911019,-0.22167700000000012,-0.07001600000000002,-0.893741,0.28523199999999993,0.12809700000000002,0.017278000000000016,0.9386545759256397,0.4768901293279597,single,-0.893741
4,0.033333,stand,0.0666026641065476,-0.020760830433214774,-0.027121084843400874,0.2932019043895951,0.8080284301125709,0.15864281105399433,-0.0007200288011461046,-0.0001200048001887969,-0.0045601824072962725,0.07968318732749285,0.20076803072123311,0.09108364334573416,0.5904472348302645,-0.8496679720779479,-6.768541472489305,4.305944468668691,-0.4752380182803578,-0.4752380182811072,0.6048483869045995,2.851428109686942,0.6912552993180292,0.062994,0.058253,-0.910831,-0.221568,-0.06817000000000001,-0.892756,0.284562,0.126423,0.018074999999999952,0.9923029395556264,0.42854748960123407,single,-0.892756
5,0.041667,stand,0.0397168226541974,-0.002399808015361171,0.006479481641468501,0.13864442695799814,0.14851665427846028,0.09069656401191613,-0.001439884809203381,-0.0010799136069158573,0.021478281737460834,0.09071274298055901,0.21058315334773295,0.08975281977441787,-3.2260428908507546,2.203146438427358,4.03174543854924,-0.08637581090200099,-0.11517984241985364,3.1243657481110034,1.32344080310369,1.1777204975401767,-0.1596860536736598,0.06265100000000001,0.05826399999999998,-0.910706,-0.2211430000000001,-0.06639499999999998,-0.8920619999999999,0.2837940000000001,0.12465899999999996,0.018644000000000105,0.9640773953842772,0.4031752385653769,single,-0.8920619999999999
6,0.05,stand,0.05220208808351892,-0.003240129605184117,0.03984159366374643,-1.362590482171781,-0.6894827099900799,0.12713321133403,-0.0010800432017458032,0.0030001200047998617,0.002280091203647928,0.09432377295091245,0.2139685587423472,0.08820352814112559,1.4982917831899099,-0.10084262448373285,4.00361358721684,0.04318272020371748,0.4896236183506203,-2.303875019058311,0.43334093007961577,0.40626489794962656,-0.18592243289239024,0.0622069999999999,0.05831599999999998,-0.911019,-0.2207920000000001,-0.064585,-0.891659,0.282999,0.12290099999999998,0.019360000000000044,0.9934667454813872,0.38986875317118935,single,-0.891659
7,0.058333,stand,0.02484099363975378,-0.022200888035520307,-0.006600264010550369,1.5125344671149972,1.375217589471082,0.27643637209823113,0.000720028801172751,0.0019200768030740432,0.0010800432017283165,0.13608544341775955,0.1738869554782165,0.04680187207488317,-3.2834626717586874,-2.2753820269214198,-5.573245850749645,0.21601728104146814,-0.12961036862184308,-0.14401152069118103,5.011600920058455,-4.8099847910873255,-4.968397463847643,0.062006000000000006,0.058516999999999986,-0.9109550000000001,-0.21986499999999998,-0.06295100000000003,-0.8912140000000001,0.281871,0.12146800000000002,0.01974100000000001,0.9961372039049771,0.4264017476825185,single,-0.8912140000000001
8,0.066667,stand,0.019078473722104656,-0.009599232061438024,0.028197744180463787,-0.07513073402073209,-0.1140077024371581,0.1607664681572061,0.0011999040076606032,0.0010799136069091966,0.00983921286297081,0.09155267578591877,0.2102231821454321,0.04883609311255071,-0.6914470743519466,1.5120777506698202,4.1754269487657965,0.057580418345074644,-0.10081151861829211,1.051016278046855,-5.343504635450056,4.359998400193854,0.24408699756029975,0.06185699999999983,0.05860599999999999,-0.911108,-0.21926100000000015,-0.06111899999999998,-0.891042,0.281118,0.11972499999999997,0.020066000000000028,0.98338206350649,0.4086118949568823,single,-0.891042
9,0.075,stand,0.01536061442456571,-0.015360614424572374,0.020040801632055363,-0.054853971444323024,0.18647854066322153,0.13058630852748218,-0.00012000480018213538,-0.0012000480019146163,0.016680667226689108,0.09540381615265833,0.22128885155406383,0.0432017280691227,-0.44616096214315953,-0.6913935393176952,-0.9788722606994396,-0.15839539275683903,-0.2736063373123503,0.8210073639407541,0.46215533022195626,1.3279334463736647,-0.6761508512454112,0.061728000000000005,0.058724,-0.911136,-0.21859399999999996,-0.059147000000000005,-0.890849,0.28032199999999996,0.117871,0.020286999999999944,0.9721263178943078,0.38909598294462305,single,-0.890849
10,0.083333,step_acsent,0.017880715228603697,-0.005400216008642411,0.009000360014406239,-0.16892045619809876,0.19854350209321323,0.1641128638758286,0.00036001440057305197,-0.003840153606148083,0.019920796831873196,0.0914436577463013,0.23484939397575721,0.03480139205568203,0.3024241934522962,1.195295621736464,-1.324905990357508,0.05760460827495343,-0.31682534552183655,0.3888311058663249,-0.4752380182835753,1.6273301838105572,-1.0080806448386734,0.061582000000000026,0.058736999999999984,-0.911045,-0.21798099999999998,-0.057145,-0.890634,0.279563,0.11588199999999999,0.020410999999999957,0.966182083294658,0.37186393528156647,single,-0.890634
11,0.091667,step_acsent,0.034197264218873404,0.003719702423806488,0.029397648188151056,-0.9849153901548259,-0.3354880930823385,0.20339905624976534,0.001799856011530871,0.012239020878328661,-0.03887688984881187,0.08051355891529742,0.30717542596592373,0.020758339332853332,1.9578292524921668,1.0943026676804541,2.447478782546776,0.1727671719411831,1.929346590409978,-7.0551579890430896,-1.311506939165333,8.678429564454833,-1.6850315242175073,0.06131200000000003,0.05880799999999997,-0.911614,-0.21759499999999998,-0.054616,-0.890706,0.278907,0.11342399999999997,0.020908000000000038,0.9320039691101373,0.29092000000000007,single,-0.890706
12,0.1,step_acsent,0.0022800912036470937,0.009120364814588375,-0.05712228489139944,2.403597857413391,1.2643983222387842,0.24536501061871194,0.0010800432017191559,0.0,-0.019800792031681485,0.09864394575781564,0.30877235089403454,0.029521180847234242,-3.83021397038597,0.6481054111102702,-10.382807281837325,-0.08638099241710243,-1.4687412550496401,2.289223306987924,2.175733450440202,0.19163865691957382,1.05158304504751,0.06130199999999997,0.058732000000000006,-0.911303,-0.2167920000000001,-0.05211899999999997,-0.889984,0.27809400000000006,0.11085099999999998,0.021318999999999977,0.9669496235355328,0.28681,single,-0.889984
13,0.108333,step_acsent,0.017280691227639755,-0.00012000480018879699,-0.00816032641306469,-0.38637013364705086,-0.07371942912717092,0.10808463842260199,0.005760230409222134,-0.0050402016080627055,0.021000840033601545,0.11964478579144816,0.29857194287771416,-0.053042121684867195,1.8001440086394664,-1.1088887093216344,5.875670044201943,0.5616449306975858,-0.6048483869030012,4.8963917035021085,2.5202016121003883,-1.224097925875482,-9.907992623557123,0.061206000000000094,0.05869099999999999,-0.91106,-0.21593899999999988,-0.04963000000000001,-0.890358,0.277145,0.108321,0.020701999999999998,0.9627463958218594,0.29298,single,-0.890358
14,0.116667,step_acsent,0.013798896088323392,0.008999280057594393,-0.01751859851211655,0.106070808023924,0.4215602219661384,0.08457525094716911,0.0,-0.0005999520038369618,-0.00191984641228727,0.127669786417081,0.3478521718262518,0.00035997120230334275,-0.41778199415843054,1.0942266448023976,-1.1229028196606492,-0.69117235531823,0.532787329520727,-2.7502623525184537,0.9629230412326398,5.913154421470791,6.407738527378268,0.061091000000000006,0.058611000000000024,-0.91093,-0.21499000000000001,-0.046806000000000014,-0.890209,0.276081,0.10541700000000004,0.02072099999999999,0.9966476572645717,0.29279,single,-0.890209
15,0.125,step_acsent,0.00792031681266045,0.021240849633983303,-0.006720268810745833,-0.4567628915782001,-0.08412949938750536,0.14524444919528312,-0.002400096003855879,-0.0004800192007685112,-0.003480139205567959,0.13776551062041614,0.3834153366134653,-0.06804272170886817,-0.7054577313888092,1.4690471110511123,1.295851398220416,-0.28802304138436113,0.01439251206869684,-0.18724262489867877,1.2115353658148522,4.267750484485003,-8.208651495400405,0.061004999999999976,0.05843000000000004,-0.910903,-0.213908,-0.043787999999999994,-0.8907200000000001,0.27491299999999996,0.10221800000000003,0.02018299999999995,0.9929088771945789,0.29817000000000005,single,-0.8907200000000001
16,0.133333,step_acsent,-0.006000240009586395,0.006840273610947942,0.02364094563782582,-0.4232266004319347,-0.15560123968223388,0.11919662960114319,-0.0006000240009373224,-0.0009600384015370207,-0.0013200528021121544,0.11964478579144795,0.3978159126365066,-0.04728189127565081,-1.6705336400152204,-1.7281382482941736,3.6434914734875345,0.21601728104146828,-0.05760460827655216,0.2592207372441861,-2.1745739624346783,1.7281382482948917,2.4913993079584,0.06105000000000005,0.058365,-0.911111,-0.21286099999999997,-0.04053000000000001,-0.8913110000000001,0.273911,0.09889500000000001,0.01979999999999993,0.9971016087151228,0.302,single,-0.8913110000000001
17,0.141667,step_acsent,0.0065994720422265845,0.002279817614589788,0.03707703383729355,-0.9216638181339823,-0.256434274957872,0.13968677351706357,-0.0011999040076872494,-0.0011999040076805885,-0.0007199424046075204,0.11507079433644521,0.46532277417806595,0.04319654427645789,1.5118444986576685,-0.5472109426875649,1.6122016078075068,-0.0719798424225976,-0.02878157021161127,0.07200748710158812,-0.5488350677949069,8.100175370957462,10.856543742753647,0.06098500000000007,0.058336,-0.9114260000000001,-0.21195699999999995,-0.03667100000000001,-0.89126,0.272942,0.09500700000000001,0.020166000000000017,0.9969277874778446,0.29834000000000005,single,-0.89126
18,0.15,step_acsent,-0.01872074882995858,-0.007080283211325536,0.06492259690387775,-0.5444675710777981,-0.08928577574208033,0.18249146884092693,-0.0012000480019279376,-0.0010800432017258176,-0.0028801152046081476,0.08796351854075292,0.519500780031204,-0.06324252970118796,-3.0385480465840806,-1.1232570293910136,3.3416012320393826,-1.7280000082591452e-05,0.01438387206945527,-0.2592311052442848,-3.2530032156116966,6.501620767207253,-12.773199805309703,0.061131000000000046,0.05838599999999999,-0.911991,-0.2110679999999998,-0.032283000000000006,-0.892328,0.27219899999999986,0.090669,0.019662999999999986,0.9944970532852488,0.30337000000000003,single,-0.892328
19,0.158333,step_acsent,-0.023280931237252767,0.009000360014399578,-0.03744149765991716,1.8937145961908388,1.4043560103199269,0.11011290151253204,0.0013200528021100728,-0.00048001920076851036,-0.0007200288011523493,0.09552382095281366,0.6116644665786581,-0.04008160326413065,-0.5472437786264471,1.9297543772621026,-12.284182714963977,0.3024241934522991,0.07200576034529062,0.2592207372441854,0.9072725803505017,11.060084789086046,2.779422349340849,0.06133600000000006,0.058307,-0.911685,-0.210078,-0.027261000000000035,-0.89235,0.27141400000000004,0.08556800000000003,0.01933499999999999,0.9973693054846285,0.30665,single,-0.89235
20,0.166667,step_acsent,-0.008879289656816343,0.014158867290617575,-0.018478521718261018,-0.24952844220067924,0.020083060204317056,0.048273686039772966,0.0008399328053864003,-0.00011999040077138885,0.0025197984161267296,0.10367170626352257,0.5580753539716836,-0.060715142788576794,1.7280587449527731,0.6189713554377241,2.2753750829920953,-0.05760979082357475,0.04319999999965457,0.3887481662201915,0.9776680238431609,-6.430179098509056,-2.4758266767993913,0.061417000000000055,0.05818799999999996,-0.9115099999999999,-0.20913999999999988,-0.022728000000000026,-0.892702,0.27055699999999994,0.08091599999999999,0.018807999999999936,0.9955686505467183,0.31192,single,-0.892702
21,0.175,step_acsent,-0.011280451218053369,0.03540141605664112,-0.01704068162726219,-0.7377105420991016,-0.7251268068066022,0.0891673381547176,-0.004920196807867256,0.001920076803074048,-0.004800192007680124,0.07692307692306412,0.542781711268452,0.013800552022080564,-0.2881509133849793,2.5492078202356407,0.17254771282837308,-0.6912432033185733,0.24481785717574003,-0.8784339882163532,-3.2099639194117984,-1.8353105368092733,8.942241066921582,0.061470000000000136,0.05790899999999999,-0.911408,-0.20840499999999995,-0.018500000000000016,-0.892445,0.2698750000000001,0.076409,0.018962999999999952,0.9881049876385513,0.31037000000000003,single,-0.892445
22,0.183333,step_acsent,-0.012600504020163404,0.023400936037441564,-0.02664106564261902,-0.6307303857615454,-0.36493536833191914,-0.031895841520993624,0.0014400576022922079,0.0008400336013415624,0.0013200528021121544,0.05448217928716597,0.4995799831993309,0.014040561622464772,-0.15841267276011448,-1.440115206912222,-1.1520921655294398,0.7632610596615215,-0.12961036862264305,0.7344587555252938,-2.6930154369252524,-5.1844147448843225,0.028802304138270552,0.06158700000000006,0.05772099999999997,-0.9111750000000001,-0.20784599999999998,-0.01453199999999999,-0.8921060000000001,0.26943300000000003,0.07225299999999996,0.019069000000000003,0.9964558492046494,0.3093100000000001,single,-0.8921060000000001
23,0.191667,step_acsent,-0.03599712023037757,0.010199184065274976,0.049316054715615405,-0.8105681907273387,-0.433267407859872,0.12316633204365503,0.00299976001919147,-0.0008399328053730787,0.0004799616030718175,-0.005519558435324028,0.8960883129349613,0.19510439164866822,-2.807369355677243,-1.5840835099791908,9.114125312963086,0.1871493180824647,-0.20157984241836327,-0.10080287965446798,-7.199632556094305,47.577193392804176,21.72592152942204,0.06191199999999997,0.057628999999999986,-0.911582,-0.207592,-0.0071490000000000165,-0.890891,0.26950399999999997,0.064778,0.020691000000000015,0.9947468500373837,0.2930900000000001,single,-0.890891
24,0.2,step_acsent,-0.0490819632785169,0.008760350414015322,0.017040681627262133,0.2326044611040415,0.015826090442671987,0.0784158865017351,-0.00012000480018213519,0.00024000960038425518,0.0006000240009598053,0.04620184807393248,0.5291011640465609,-0.05676227049081973,-1.5702439755357398,-0.17266694482895154,-3.873199698590333,-0.37438675379498415,0.12959827262178483,0.014408064069121282,6.2068170537929275,-44.04021947538702,-30.22520846507713,0.06231999999999993,0.057558,-0.911719,-0.20679800000000004,-0.00281300000000001,-0.8915059999999999,0.26911799999999997,0.06037100000000001,0.020213000000000036,0.9989045110654355,0.29787,single,-0.8915059999999999
25,0.208333,step_acsent,-0.08964358574343634,0.007200288011521018,0.05664226569063112,2.1077311554440405,1.7551449282739515,0.18796699485242704,0.0012000480019279415,0.000240009600384256,-0.0008400336013440632,0.03480139205567049,0.5341413656546254,-0.011280451218048373,-4.867589399366319,-0.18721497689839295,4.752380182811603,0.15841267276012,9.758209880764795e-17,-0.1728138248294578,-1.3681094465693053,0.6048483869032187,5.458036634197944,0.06307700000000005,0.057499999999999996,-0.912198,-0.20576100000000008,0.0015779999999999683,-0.892072,0.26883800000000013,0.05592200000000003,0.020125999999999977,0.9975260376661254,0.29874,single,-0.892072
26,0.216667,step_acsent,-0.022678185745139735,0.024118070554356434,-0.04355651547876192,-0.62272964625084,-0.3537009553728824,0.024006260185332414,-0.0005999520038436226,-0.00011999040077138885,0.0010799136069112771,0.006359491240710428,0.6079913606911493,0.04679625629949617,8.035205183380915,2.029971507419654,-12.022891908974435,-0.2159827220748215,-0.043196544415124126,0.2303752349718429,-3.4127550773890127,8.861290501142767,6.968647410312514,0.06326100000000001,0.05729799999999996,-0.911826,-0.205519,0.006444000000000005,-0.891319,0.26878,0.050853999999999955,0.020507000000000053,0.9979313494054864,0.29492999999999997,single,-0.891319
27,0.225,step_acsent,-0.023280931237252767,0.037561502460099296,-0.04764190567622469,-0.8087479866054699,-0.590354669715928,0.020796175652042163,0.0002400096003909168,0.0014400576023055312,-0.0007200288011519328,0.00180007200286526,0.5851434057362279,-0.018000720028801653,-0.07233235234765777,1.6132763597435318,-0.49026643435290607,0.10079942448512405,0.18721324889918622,-0.2160017290367465,-0.547152194629205,-2.741864269161335,-7.7759481973236255,0.0634570000000001,0.056996999999999964,-0.911435,-0.2053100000000001,0.011006999999999989,-0.891072,0.2687670000000002,0.045989999999999975,0.02036300000000002,0.9972869594851256,0.29637,single,-0.891072
28,0.233333,step_acsent,-0.07248289931597846,0.005160206408251494,0.07368294731789307,-0.36362208750076846,-0.2006855792627185,0.2039388224584457,0.0015600624024743432,-0.0012000480019212759,-0.00012000480019171124,0.01008040321615204,0.5718228729149117,-0.02304092163686518,-5.904472348341011,-3.8883110586640792,14.559564741883795,0.15841267275692134,-0.3168253455210374,0.07200576034564035,0.9936794927741238,-1.5985278796731268,-0.604848386903099,0.06407399999999996,0.056943999999999995,-0.91205,-0.20462199999999986,0.015728999999999993,-0.8918780000000001,0.2686959999999998,0.041215,0.020171999999999968,0.9967135331963244,0.29828,single,-0.8918780000000001
29,0.241667,step_acsent,-0.038276937844967475,0.0565154787616991,-0.0850731941444638,0.48973901936802205,0.20997112751659103,0.13239613767442834,0.0,0.001679865610752824,0.0002399808015357014,0.014518838492898487,0.5555555555555596,-0.020638348932085306,4.104387025559283,6.162139711236828,-19.049213038439795,-0.18719251289588995,0.34556198856180786,0.04319481662195986,0.5325696276393637,-1.9519219293679146,0.28828566172064807,0.06439299999999992,0.05648700000000001,-0.911339,-0.20418200000000009,0.019888000000000017,-0.891341,0.268575,0.03659899999999999,0.01999799999999996,0.9971717991313206,0.30001999999999995,single,-0.891341
30,0.25,step_acsent,-0.07224288971558754,0.016560662426500283,0.05424216968677505,-0.5730868938041475,-0.48689046097401806,0.1848392551159975,0.0007200288011727504,-0.0014400576023055312,0.00024000960038383885,0.04212168486739348,0.596183847353897,0.010440417616704275,-4.076077267565107,-4.794769751013894,16.71851240024466,0.08640691241722666,-0.3744057617974742,3.4560000164935696e-06,3.312474063901953,4.8755900394020575,3.7296011699015423,0.06500100000000009,0.05633699999999997,-0.911789,-0.2032290000000001,0.024718000000000018,-0.891706,0.2682300000000002,0.03161899999999995,0.020082999999999962,0.9972869594851119,0.29917000000000005,single,-0.891706
31,0.258333,step_acsent,-0.0679227169086845,0.005760230409215482,0.016920676827080056,-0.3684297377866807,0.2675411924210862,0.039076037814042404,0.001800072002865266,0.000240009600384256,0.0003600144005759676,0.018960758430349563,0.5124204968198736,0.003120124804991997,0.5184414744873458,-1.2961036862216282,-4.47875829349515,0.12961036861784692,0.20161612896793368,0.014401152069138253,-2.7794223493392507,-10.052004144248603,-0.8784702762165242,0.06558200000000003,0.05629099999999998,-0.911927,-0.20250499999999994,0.02894000000000002,-0.891821,0.26808699999999996,0.02735099999999996,0.020106000000000068,0.9969144268529899,0.29894,single,-0.891821
32,0.266667,step_acsent,-0.07139428845691152,0.0404367650587924,-0.015838732901370393,0.01458181253230604,-0.7530229595640555,0.1523749488614581,0.0004799616030855554,0.0002399808015361169,-0.00011999040076764214,-0.00755939524837103,0.5104391648668077,-0.04931605471562207,-0.4165552613663334,4.160851289846039,-3.930814702237871,-0.15840057592749093,-3.455585329864929e-06,-0.057595968483754416,-3.182163868337001,-0.23774081510269038,-6.291838195418048,0.06618100000000005,0.055956000000000006,-0.9117959999999999,-0.20197299999999996,0.032857000000000025,-0.8921,0.268154,0.02309899999999998,0.019695999999999936,0.9990835581763347,0.30304,single,-0.8921
33,0.275,step_acsent,-0.06300252010081682,0.04320172806912582,-0.0759630385215399,1.1527147248238703,0.525557625005975,0.16460646262851952,0.0016800672026831191,-0.0004800192007685088,-0.0003600144005759652,-0.017760710428421502,0.48013920556821793,-0.0066002640105603345,1.0070524848307534,0.3318088335933524,-7.215205282631617,0.14401843268901462,-0.08640345641481131,-0.02880403213828418,-1.2242067898776465,-3.6361405614532196,5.126099928604531,0.06672000000000011,0.055591999999999975,-0.911166,-0.2015959999999999,0.036497999999999975,-0.891522,0.268316,0.019094,0.019643999999999995,0.9970266673172365,0.30356,single,-0.891522
34,0.283333,step_acsent,-0.11832473298931163,-0.000960038401537024,0.14976599063962917,-0.33208957490496915,-0.6477551808659924,0.4177321324235622,0.002280091203647101,0.0013200528021167386,0.001800072002879838,0.008400336013442297,0.5777031081243312,-0.0015600624024968313,-6.638931103863549,-5.299623961438011,27.08856704202204,0.07200576034609185,0.21601728103747173,0.2592207372441868,3.1394511510697063,11.708136632198913,0.6048483869030981,0.06772500000000004,0.05561100000000002,-0.9123990000000001,-0.20053999999999994,0.04132000000000002,-0.892783,0.268265,0.014290999999999998,0.019616000000000078,0.9946818929555932,0.30384,single,-0.892783
35,0.291667,step_acsent,-0.13174946004320162,-0.009119270458365782,0.14290856731460774,-0.773232575719162,0.5620265696609299,0.2499384814447647,-0.006359491240710428,0.003959683225342598,-0.008759299256059524,-0.023518118550526136,0.49460043196543735,0.004439644828413999,-1.6108383793964451,-0.9790295244574934,-0.8228249730047301,-1.0366669599661054,0.31673031236211385,-1.267023189217585,-3.8299081550238063,-9.97152341719388,0.7199072751272888,0.06877,0.05572000000000005,-0.913663,-0.19963799999999998,0.045518,-0.893937,0.268408,0.010202000000000044,0.01972600000000002,0.9807900818771673,0.30274,single,-0.893937
36,0.3,step_acsent,-0.03288131525259644,0.07224288971559444,-0.17268690747629564,0.9799805289396183,0.3582038480884067,0.05506900034883582,0.00816032641305138,-0.002880115204611072,0.005520220808832475,-0.02868114724587529,0.4684987399496014,0.009480379215168951,11.86465196095109,9.763849774866246,-37.87297189378425,1.742447816364076,-0.8208086439402,1.713610952225133,-0.6195882269709788,-3.1323283350337237,0.6049123229035118,0.06911199999999984,0.055093999999999976,-0.912178,-0.19960299999999997,0.048819999999999975,-0.892419,0.2687149999999998,0.006274000000000002,0.019759000000000082,0.982892591879406,0.30240999999999996,single,-0.892419
37,0.308333,step_acsent,-0.0297611904476209,0.02412096483858759,-0.07008280331213566,-1.0996971503995017,-0.5842226889947497,-0.0040056579378037836,-0.00204008160325617,-0.0009600384015370176,-0.001200048001920023,-0.02856114244571961,0.4552982119284776,0.010680427217088496,0.374429953795215,-5.7748619797199865,12.31298501909991,-1.224097925873936,0.23041843310620982,-0.8064645158709313,0.014401152064763863,-1.5841267276039552,0.14401152069117243,0.06934299999999993,0.05488500000000002,-0.911604,-0.19959300000000013,0.05241300000000004,-0.8917459999999999,0.26893600000000006,0.0024719999999999742,0.019858000000000042,0.9957430703920671,0.30142,single,-0.8917459999999999
38,0.316667,step_acsent,-0.14542836573074128,0.014998800095997415,0.2085433165346805,-1.2942456212975515,-1.0606874323327504,0.37863150151459785,-0.0002399808015427793,-0.001439884809216711,0.00059995200383988,-0.024238060955101344,0.4181665466762635,-0.016678665706743583,-13.87895071791709,-1.0945722033345606,33.432459784835345,0.21599481662027847,-0.057576962764542376,0.2159827220734237,0.5187282806117461,-4.45544339479413,-3.282828524577902,0.07055299999999987,0.05474799999999996,-0.913337,-0.19858299999999995,0.05577299999999996,-0.893623,0.2691359999999998,0.0010249999999999981,0.01971400000000001,0.9973696211427113,0.30286,single,-0.893623
39,0.325,step_acsent,-0.11376455058201668,0.05148205928236594,-0.1052442097683923,2.4836412391027913,1.974222827097726,0.19736609469848143,0.0006000240009639668,0.0,-0.0003600144005763816,-0.004080163206538986,0.41041641665666867,-0.06192247689907601,3.7998098102393456,4.378166229013365,-37.65600939674445,0.10080460848514851,0.17279308882955777,-0.11520057655301302,2.419044491607137,-0.9300528044635563,-5.429474522060751,0.07150599999999985,0.054319000000000006,-0.9124629999999999,-0.1976690000000001,0.05876400000000004,-0.893262,0.26917499999999994,0.004445000000000032,0.019200999999999913,0.9988337629715438,0.30799,single,-0.893262
40,0.333333,step_acsent,-0.09696387855515948,0.024480979239174125,0.01716068642745765,-0.9011286770493443,-0.7212389361176674,0.10831465514652049,0.000960038401537024,-0.0008400336013415652,-0.0013200528021117424,-0.026041041641655136,0.398175927037081,-0.015600624024960819,2.016161289674456,-3.240259215551648,14.68917511050645,0.04320345620701525,-0.10080806448356741,-0.1152092165529057,-2.6354108286470908,-1.4689175110509674,5.558844698681784,0.072322,0.05410799999999999,-0.912617,-0.19707799999999986,0.06187799999999999,-0.893535,0.26939999999999986,0.007769999999999999,0.019082000000000043,0.9969404659104822,0.30918,single,-0.893535
41,0.341667,step_acsent,-0.060835133189349015,0.047876169906405364,-0.08483321334293406,-0.7005421661598961,-0.2172133625612809,-0.05602681892195973,0.0011999040076872453,-0.002639788816897286,-0.0023998080153590875,0.017878569714417397,0.3446124310055175,-0.03731701463882871,4.335102635686396,2.8071983042034097,-12.238288909334246,0.028781570212409534,-0.2159533495987184,-0.12956026076881977,5.269931768187243,-6.42710535535918,-2.6057584129911047,0.0728390000000001,0.053686999999999985,-0.9119299999999999,-0.19642199999999987,0.06435099999999999,-0.8931389999999999,0.269261,0.010664000000000007,0.018791000000000002,0.9937267470036888,0.31209,single,-0.8931389999999999
42,0.35,step_acsent,-0.09636385455416886,0.11688467538701942,-0.12216488659545972,0.5027720983404621,-0.1570615151461988,0.05183113570537917,0.000960038401537024,-0.0048001920076784586,-0.004800192007680124,-0.041401656066247516,0.38137525501020303,-0.07824312972518918,-4.26361710846273,8.281351911750178,-4.479979989502671,-0.028785024138992185,-0.2592587532438711,-0.2880576013825804,-7.1139116501458135,4.411715349176238,-4.911330263573812,0.07365,0.05267299999999997,-0.910952,-0.19596400000000003,0.06655499999999998,-0.892773,0.269614,0.013882000000000005,0.018178999999999945,0.9885732574446313,0.31821,single,-0.892773
43,0.358333,step_acsent,-0.13248529941197518,-0.02028081123245284,0.13716548661946482,-0.7118509666940576,0.494783002688773,0.1749642564618719,0.0009600384015370176,-0.006720268810752461,-0.006960278411136299,-0.015600624024956551,0.3283331333253336,-0.06720268810752378,-4.334746772807652,-16.460516815009203,31.120889621375667,-7.676458439534921e-16,-0.23041843310620364,-0.25922073724422967,3.0962476948626976,-6.365309214552888,1.324905990359457,0.074762,0.052786,-0.912153,-0.19499,0.06946000000000002,-0.894476,0.269752,0.016674000000000022,0.017676999999999943,0.9837956485455186,0.32323,single,-0.894476
44,0.366667,step_acsent,-0.11471082313414398,0.011519078473720289,0.006719462443011273,-0.9924359901004377,-0.5571188294157363,0.03728774687510028,-0.014638828893683148,-0.0015598752099814294,-0.001559875209983511,-0.04043676505879906,0.3341732661387064,0.0026397888168939554,2.1327665320171807,3.8156815102199544,-15.652270719516848,-1.8717143382793557,0.6191976962768211,0.6479965444147807,-2.980098516179804,0.7007598768145915,8.380426796786377,0.075596,0.05267700000000003,-0.9122220000000001,-0.19437100000000007,0.07214900000000002,-0.89451,0.26996700000000007,0.01947199999999999,0.01771200000000006,0.9753264799655825,0.32288000000000006,single,-0.89451
45,0.375,step_acsent,-0.14532581303253045,0.08064322572903007,0.0436817472698813,1.936235039662869,0.8808828340556903,0.44324800772421813,0.009360374414979321,0.008040321612862583,-0.007800312012480409,0.02052082083282391,0.3158526341053678,-0.0990039601584065,-3.6739457456362112,8.295229479816387,4.4356516052886255,2.880019597823416,1.1520697015293457,-0.7488823715944934,7.315202915111379,-2.1985637865521013,-12.197737786547547,0.07688500000000009,0.05207200000000001,-0.912651,-0.19298900000000008,0.07410900000000004,-0.895699,0.26987400000000017,0.02203700000000003,0.016951999999999967,0.9756696207090514,0.33048,single,-0.895699
46,0.383333,step_acsent,-0.10356414256570987,0.10440417616705143,-0.10704428177127158,-0.2131811630026123,-1.030760277339169,-0.09949018318774437,-0.002400096003855883,-0.0008400336013415652,-0.002640105604224318,-0.06768270730829357,0.2821312852514098,0.005280211208448636,5.011600920055285,2.8514281096869576,-18.087846998818343,-1.4113129027763391,-1.065685253114625,0.6192495389722913,-10.584846770804957,-4.046723731424227,12.51460114806857,0.07772800000000002,0.05119499999999999,-0.911781,-0.19269000000000003,0.07558999999999999,-0.894763,0.27041800000000005,0.024395,0.017017999999999978,0.9938907458900987,0.346179604387383,single,-0.894763
47,0.391667,step_acsent,-0.14674826013918563,-0.030237580993524086,0.1427885769138497,-1.4469039210898063,-0.037492898597210264,0.2994836737249489,-0.00455963522917956,0.01223902087832864,0.01715862730981529,-0.03515718742499117,0.2714182865370751,-0.11627069834413208,-5.18167957445113,-16.155718401796904,29.977544838627434,-0.25912397712067137,1.5693609886813287,2.3756578970529865,3.9027501659830053,-1.285457009159427,-14.584942350921597,0.07891300000000001,0.05154900000000001,-0.912828,-0.19175999999999993,0.078104,-0.896922,0.27067299999999994,0.026554999999999995,0.015905999999999976,0.9640601429607556,0.34534050503402686,single,-0.896922
48,0.4,step_acsent,-0.09708388335534097,0.0879635185407393,-0.12708508340333946,1.2880905103842768,-0.03981377755803319,0.2912572888346216,0.0019200768030740352,0.004080163206525663,-0.006960278411136299,-0.027961118444755646,0.22812912516500397,-0.07992319692787678,5.959963612605837,14.184699332084831,-32.3861346834499,0.7775965477323374,-0.979102084699741,-2.8943844618926544,0.8635628201410646,-5.194907160934953,4.361874644936415,0.07973800000000009,0.050850000000000006,-0.9118269999999999,-0.19118400000000002,0.07927200000000001,-0.8965289999999999,0.2709220000000001,0.028422000000000003,0.015298000000000034,0.9861777250744678,0.4414598958764836,single,-0.8965289999999999
49,0.408333,step_acsent,-0.1484459378375058,0.03636145445817814,0.07620304812193134,-1.4814942332726537,-0.40492653779540283,-0.016346777869843447,0.011160446417844588,0.0066002640105637085,0.0004800192007680956,0.0016800672027097766,0.20172806912276398,-0.08748349933997387,-6.163693085583216,-6.192495389722944,24.395551605096763,1.108888709320842,0.30242419345230426,0.892871428285661,3.5570845610783026,-3.1682534552070156,-0.9072725803548681,0.08106799999999992,0.050602000000000036,-0.912458,-0.1899329999999999,0.08065,-0.897893,0.2710009999999998,0.030047999999999964,0.014564999999999939,0.978375074329747,0.4878712634841496,single,-0.897893
50,0.416667,step_acsent,-0.13930885529157266,0.056515478761705575,-0.10991120710343497,0.9656691908990293,0.10441043976871146,0.30355937939730354,0.02543796496281507,0.01451883849291842,0.007679385649147831,0.023398128149741425,0.1748260139188913,-0.0926325893928487,1.0963621965362509,2.418289453267028,-22.331924073118085,1.7131651721826817,0.9501529256485127,0.8638548654163342,2.6059588369368405,-3.2279883853938864,-0.6178413790346555,0.08244099999999999,0.05025199999999996,-0.911478,-0.188577,0.08163599999999999,-0.897749,0.271018,0.03138400000000002,0.013728999999999991,0.9495338480711744,0.5306607894515558,double,-0.897749
51,0.425,step_acsent,-0.16908676347053847,0.018600744029756523,0.06660266410656109,-0.7179237275101742,-1.2419117968997526,0.27165524162679516,0.01776071042842162,0.014040561622468983,0.017040681627265106,0.01860074402974986,0.1447257890315598,-0.07056282251290048,-3.5734919211527516,-4.549950165840531,21.182511845673407,-0.9213073964230734,-0.057395520274743685,1.1234004533922115,-0.5757091227638996,-3.612171473338722,2.648477964712381,0.08399800000000002,0.050214000000000036,-0.911891,-0.1870130000000001,0.08268700000000001,-0.8988919999999999,0.2710110000000001,0.032472999999999974,0.012999000000000094,0.952772270506548,0.5998729277454431,double,-0.8988919999999999
52,0.433333,step_acsent,-0.159966398655949,0.08760350414016625,-0.07692307692307693,1.480988359837315,0.985870597549746,0.012893925098879997,-0.04920196807872552,-0.044641785671431344,-0.032761310452417834,0.020280811232459502,0.1243249729989172,-0.07992319692787678,1.0944875572530222,8.280662439746724,-17.223777874671473,-8.035842854571806,-7.042163361802483,-5.976478108686276,0.2016161289703149,-2.4481958517511715,-1.1232898613916062,0.08492100000000002,0.04911199999999999,-0.911523,-0.18551099999999998,0.08299299999999998,-0.898917,0.270432,0.033880999999999994,0.012606000000000006,0.8765425607151999,0.6253007721651022,double,-0.898917
53,0.441667,step_acsent,-0.19462443004559893,0.04019678425726322,0.17482601391889246,-1.340942787835943,-0.34380636228389466,0.14285778584894537,-0.004919606431480438,-0.00791936645068525,0.004679625629949731,-0.004079673626120675,0.13702903767699046,-0.04871610271178376,-4.158631076271914,-5.688351317842969,30.20747430309225,5.31345832100376,4.406337799465599,4.492552925650082,-2.9230243410823515,1.5243658121038306,3.74455174179184,0.08650200000000008,0.04871099999999995,-0.912941,-0.18392300000000006,0.08379999999999999,-0.90078,0.27042500000000014,0.03508900000000004,0.012160999999999977,0.9826140391521249,0.6359094190650242,double,-0.90078
54,0.45,step_acsent,-0.16032641305652207,0.12852514100563833,-0.12756510260410797,0.990523103873356,0.61072883757065,0.04940738217936155,0.0030001200047931873,-0.009480379215168056,0.007200288011520554,0.03216128645147676,0.061562462498497963,-0.12012480499219941,4.115926675756237,10.599826802877084,-36.288385518180625,0.9504051885603735,-0.18732902489893186,0.3024915854519155,4.34908917287859,-9.05635127547008,-8.569387049131809,0.08786300000000002,0.047560999999999964,-0.9118179999999999,-0.1823189999999999,0.08324199999999998,-0.9007179999999999,0.2701819999999999,0.03568100000000002,0.011099999999999999,0.9795384875141294,0.65773383594326,double,-0.9007179999999999
55,0.458333,step_acsent,-0.1512060482419347,0.11244449777990735,-0.18240729629184801,0.7117740047854865,-0.5298390915584043,0.055758112949007115,0.008520340813624433,-0.004680187207482999,0.009480379215168535,0.012480499219954665,0.0669626785071408,-0.06792271690867616,1.0944875572527761,-1.929754377262813,-6.5813264955886455,0.6624529951795584,0.5760460827655188,0.2736218893133309,-2.361788939340231,0.6480518431108664,6.264501150068808,0.089194,0.04658500000000004,-0.910219,-0.18095499999999998,0.08286300000000002,-0.899764,0.270149,0.03627799999999998,0.010454999999999992,0.9773690262680153,0.7351269004835155,double,-0.899764
56,0.466667,step_acsent,-0.1849052075833949,0.10415166786657483,-0.015838732901370393,-0.28266728044960826,0.07997179965699133,0.06942420875920875,0.005879529637624873,-0.0019198464122889352,0.007439404847612131,-0.0034797216222770253,0.049436045116393455,-0.14530837532997307,-4.0435756349244265,-0.9950599848011176,19.98662867656317,-0.3168719913606381,0.3312143982714257,-0.2448973323201826,-1.9150732952041847,-2.103027764668506,-9.285536167662208,0.09078399999999998,0.04570099999999999,-0.910025,-0.17944300000000002,0.08240700000000001,-0.900843,0.270227,0.036706000000000016,0.009182000000000023,0.9838755341610297,0.6523015839919988,double,-0.900843
57,0.475,step_acsent,-0.21084843393735905,0.13320532821312883,0.03612144485779389,-0.8510839345532197,-0.7570698303543977,0.048616553527898,0.055442217688729825,0.00120004800192128,-0.018240729629185135,0.003960158406356878,0.030961238449535713,-0.050522020880835926,-3.1133116949435036,3.4865787047346783,6.235470749929727,5.947760476551672,0.3744023057974587,-3.081739406791951,0.8928213162887222,-2.2170654826422402,11.374817526597548,0.09300300000000017,0.044601,-0.910478,-0.17765299999999984,0.08155499999999999,-0.901565,0.270656,0.03695399999999999,0.00891300000000006,0.9027031484628321,0.8118925090850329,double,-0.901565
58,0.483333,step_acsent,-0.23160926437057233,0.14808592343693175,0.01236049441978577,0.8162109397222391,0.16163176066568385,0.2126206703119824,-0.004680187207502953,-0.002040081603269493,-0.0007200288011523468,-0.016680667226702348,0.010680427217089328,-0.06612264490579547,-2.4913993079579013,1.7857428565706055,-2.8514281096853495,-7.214977186635369,-0.3888311058671258,2.1025682020920096,-2.4769981558933325,-2.433794699681543,-1.8721497689858975,0.09489400000000003,0.04335,-0.910587,-0.17586199999999996,0.08041000000000004,-0.902219,0.270756,0.03706000000000004,0.008368000000000042,0.9914066358418316,0.8012774915036783,double,-0.902219
59,0.491667,step_acsent,-0.23902087832973265,0.11363090952724145,-0.009599232061444677,0.11605554146680615,-0.020100019965615976,0.10666802118084856,-0.041156707463400756,0.0064794816414751565,-0.03491720662347004,-0.03383729301654586,0.00611951043916099,-0.07655387568994469,-0.8893225292968936,-4.134270927488633,-2.634956381237152,-4.376832284125002,1.0222658081047085,-4.103333072032357,-2.0586304043488717,-0.5472662320528359,-1.2516475622929215,0.09654300000000005,0.04245700000000002,-0.910798,-0.17415199999999986,0.07951399999999997,-0.9027769999999999,0.2706949999999999,0.03705699999999995,0.008021000000000056,0.9093990806712656,0.7799199542645419,double,-0.9027769999999999
60,0.5,step_acsent,-0.23112924516979202,0.11124444977799273,-0.0012000480019146184,-0.2993875170502459,-0.19617082220249707,0.0619061848146564,-0.00276011040440229,-0.0008400336013482268,-0.003240129605184125,-0.046561862474505694,0.011760470418821882,-0.05208208328333192,0.9470338605472993,-0.28638662537486115,1.0079424048398031,4.607775958118152,-0.8783769642173769,3.801401298246249,-1.5270094153317972,0.6769422752503188,2.9367325580958634,0.09844600000000003,0.04152299999999998,-0.910815,-0.17261400000000005,0.078685,-0.903201,0.2710600000000001,0.03716200000000003,0.00761400000000001,0.9927692197757945,0.805786822352752,double,-0.903201
61,0.508333,step_acsent,-0.225009000360022,0.1578063122524907,-0.08940357614304482,-0.02893375598010665,-0.727896066569816,0.19699845428748006,-0.00528021120846692,-0.003960158406336867,-0.004320172806912415,-0.02256090243610659,0.009000360014399546,-0.21876875075002888,0.734458755522621,5.587647002819845,-10.584846770806413,-0.30242419345549254,-0.3744299537967871,-0.12961036862213915,2.8802304138244335,-0.3312264975905825,-20.003200224012513,0.10027699999999995,0.04017499999999996,-0.910106,-0.17092700000000005,0.07744499999999999,-0.904279,0.271204,0.037270000000000025,0.005826999999999916,0.9868526113607972,0.5748748700105457,double,-0.904279
62,0.516667,step_acsent,-0.22522198224141074,0.14506839452843376,-0.04475641948644946,-1.0393463638812475,-0.4050851424520947,0.020372090328883305,-0.00947924166066003,-0.004799616030715709,-0.009959203263738926,-0.047876169906412344,0.009119270458359181,-0.025197984161267464,-0.025555781304144702,-1.528427852658629,5.357230220373844,-0.5038433467954324,-0.10072685677691946,-0.6766295244572286,-3.037589089309563,0.014268111826210128,23.22663385994271,0.10207499999999992,0.038926000000000016,-0.909816,-0.16944900000000018,0.07631199999999999,-0.9041159999999999,0.2715240000000001,0.037385999999999975,0.005700000000000038,0.9757284994425353,0.8515574384230453,double,-0.9041159999999999
63,0.525,step_acsent,-0.27757110284411374,0.08964358574342908,0.027481099243973812,0.5658056663074787,0.5021719948978254,0.4980774823069266,-0.006240249609977291,-0.00504020160806268,-0.00972038881555231,-0.027241089643582895,0.003000120004799849,-0.04716188647545853,-6.28214575815466,-6.65124310392469,8.668849001610822,0.38869459386568167,-0.028871424138601966,0.028658880137599384,2.476308683886879,-0.7343274275242178,-2.6357737086512625,0.10433599999999998,0.03813700000000003,-0.910126,-0.16736300000000015,0.07558999999999999,-0.9047379999999999,0.27169900000000013,0.03745299999999996,0.005388000000000059,0.9789953506356956,0.8552091581313355,double,-0.9047379999999999
64,0.533333,step_acsent,-0.30469218768751855,0.23484939397576624,0.022680907236289027,0.5310433522026254,-0.09539702348225117,0.2662230848735077,0.001800072002865278,-0.0064802592103682935,0.011280451218048866,-0.015000600023992783,-0.02604104164166197,-0.04596183847353953,-3.2546603676233117,17.42539400364076,-0.5760460827654901,0.9648771886286621,-0.17281382482966834,2.520201612096648,1.4689175110512689,-3.4850788007274796,0.14401152069110834,0.10688999999999993,0.03612599999999999,-0.910221,-0.164949,0.07341599999999998,-0.90531,0.27183899999999994,0.03728999999999999,0.004910999999999999,0.9781112282505491,0.8593651939100309,double,-0.90531
65,0.541667,step_acsent,-0.34053275737942124,0.16330693544516328,0.09287257019439003,1.364363347445221,0.4081170996922015,0.5719334608891229,-0.013918886489081366,-0.0013198944084519646,0.009719222462202678,-0.0010799136069025276,-0.013918886489081366,-0.01667866570674336,-4.300524321082603,-8.584408271010608,8.422325768910543,-1.8861241291032547,0.6191942406906995,-0.1873324641044127,1.6703487421514456,1.4545422549292673,3.51369963604463,0.10961200000000004,0.03475399999999995,-0.910914,-0.16211999999999982,0.07193899999999998,-0.906223,0.27173199999999986,0.037185000000000024,0.004691000000000001,0.9716205861183782,0.9168393485019617,double,-0.906223
66,0.55,step_acsent,-0.28429137165484625,0.15000600024000577,0.045841833673345954,-0.1773163455505567,-0.06237196743037556,0.29232969212495136,-0.012360494419772447,-0.0009600384015303559,0.0019200768030723696,-0.002520100804038002,0.0076803072122894785,-0.005040201608064346,6.749236256399226,-1.5961760716617617,-5.643914139090829,0.18701452889822537,0.0431844482085212,-0.9359349164922929,-0.17282937683132946,2.5920069244414683,1.396671558703824,0.11187799999999992,0.033496000000000026,-0.91128,-0.15977200000000003,0.07075300000000001,-0.906647,0.27164999999999995,0.037256999999999985,0.004632999999999998,0.9790907921025651,0.937793597245913,double,-0.906647
67,0.558333,step_acsent,-0.2721708868354683,0.14964598583943473,-0.04296171846873548,0.19992388601369634,-0.19731496909039378,0.2180774874104468,-0.009120364814588465,0.001920076803067399,0.0031201248049920177,0.0003600144005730556,0.01644065762630499,0.033721348853954884,1.4545163589797254,-0.043203456206773516,-10.656852531151117,0.3888311058663161,0.3456276496577201,0.14401152069118672,0.34562764965931647,1.051284101045913,4.651572118327083,0.1140699999999999,0.03226499999999999,-0.910896,-0.1575010000000001,0.06964300000000001,-0.906008,0.271571,0.03737800000000002,0.0048880000000000035,0.9836188685711962,0.8885910244481248,double,-0.906008
68,0.566667,step_acsent,-0.3009359251260088,0.15394768418526145,-0.002519798416132541,-0.15729320275113984,-0.33688091487055133,0.36825388364398226,-0.012479001679877996,0.004679625629950918,0.00443964482841397,0.00155987520998808,0.012359011279093286,0.058915286777057194,-3.451528472587027,0.5161625084985227,4.85264219493672,-0.4030041835000606,0.3311193696764456,0.15832973643171852,0.14397177938745082,-0.4897583809949213,3.0230307083155887,0.11647399999999997,0.03102100000000002,-0.910838,-0.1549799999999999,0.068463,-0.905496,0.27145399999999986,0.037441999999999975,0.005342000000000069,0.9765873476059208,0.8462169176648773,double,-0.905496
69,0.575,step_acsent,-0.26941077643103933,0.12948517940717708,-0.020760830433214965,-0.20888189902798843,-0.2879997839051739,0.27147092934220957,0.022680907236289027,0.007320292811709864,0.013440537621504685,0.023280931237253,-0.031081243249724718,0.03156126245049823,3.7831691701631778,-2.9356179980900747,-2.189011402506011,4.219357844253851,0.31689273752057734,1.080150341184543,2.6066309885113546,-5.2130390650208085,-3.282614223756056,0.11890799999999979,0.030003000000000002,-0.9105530000000001,-0.15254100000000004,0.06712500000000005,-0.90506,0.27144899999999983,0.037122000000000044,0.005493000000000081,0.9543972987074048,0.8616673833228988,double,-0.90506
70,0.583333,step_acsent,-0.28789151566063004,0.09228369134765588,0.03876155046201378,0.27751716864649584,0.31695752147360645,0.4548215366488799,-0.003480139205548373,0.013800552022084635,0.016200648025920934,0.004440177607085391,-0.03504140165606783,0.01584063362534497,-2.217777418647621,-4.464357141428183,7.142971426284471,-3.1394511510665177,0.7776622117334386,0.331226497589852,-2.2609808748550977,-0.47523801828190293,-1.8865509210552254,0.121278,0.029349000000000014,-0.910741,-0.15010500000000015,0.06606400000000001,-0.905251,0.27138300000000015,0.036715,0.005489999999999995,0.9640591689383774,0.8805816847524686,double,-0.905251
71,0.591667,step_acsent,-0.26697864170867847,0.1377489800815903,-0.022438204943596808,-0.765691904403224,-0.08440658042399524,0.41491559060646666,-0.05015598752100147,0.014158867290617482,0.012958963282937322,-0.01607871370288642,-0.027237820974325772,0.011999040076793276,2.509344126704033,5.455398216214793,-7.343383178018973,-5.600653745554685,0.04299439267252747,-0.3889710514739126,-2.4620699915972706,0.9363547734271658,-0.46095434947824154,0.12308500000000011,0.02831900000000004,-0.9104460000000001,-0.14801399999999987,0.064689,-0.9049640000000001,0.271099,0.03636999999999996,0.005481999999999987,0.9104947031901232,0.8887983420158918,double,-0.9049640000000001
72,0.6,step_acsent,-0.29425177007079334,0.09672386895476255,0.04116164646585688,-0.03178175046363225,-0.2815422270737601,0.3491765101320807,-0.024000960038399112,0.02436097443897883,0.013440537621505102,-0.011760470418835283,-0.024000960038399112,0.002880115204608593,-3.272906319706603,-4.9232102636299215,7.632287460632936,3.1387288470661945,1.224301829876568,0.05779123227742522,0.5182099224830407,0.3884388498651974,-1.094314757252462,0.12533700000000003,0.02771600000000002,-0.9106770000000001,-0.14566000000000012,0.06368299999999999,-0.9052830000000001,0.27099700000000015,0.03596699999999997,0.00539400000000001,0.9387593270154434,0.901256422178179,double,-0.9052830000000001
73,0.608333,step_acsent,-0.29209168366735117,0.11808472338893325,0.05628225129004437,0.24279207529285937,0.17189583839231756,0.4332942659527888,0.07536301452056261,0.02652106084243013,-0.0003600144005759652,-0.01728069122763967,0.07188287531501424,-0.14064562582503234,0.2592207372425495,2.5634050683032052,1.8145451607089198,11.924153913231887,0.2592207372436449,-1.6561324879492392,-0.6624529951763306,11.506520503229684,-17.22377787467183,0.12839899999999993,0.026953000000000005,-0.911149,-0.14337,0.06329800000000002,-0.906924,0.2717689999999999,0.036345000000000016,0.004225000000000034,0.8668430308474344,0.6929284557030595,double,-0.906924
74,0.616667,step_acsent,-0.28449724022077205,0.10679145668346617,-0.019918406527477853,0.17000355400863995,0.21135779786317044,0.36369981562028675,-0.019198464122862836,0.033477321814258554,0.008639308855291523,-0.019438444924405617,-0.003959683225342625,0.014278857691384896,0.9112603127644776,-1.3550835979682203,-9.143347470305095,-11.346469719633548,0.8346845418560669,1.079832404111776,-0.25890973083344865,-9.100378994523313,18.589450865900904,0.1306099999999999,0.026342000000000032,-0.910911,-0.1411610000000001,0.062375000000000014,-0.906639,0.271771,0.03603299999999998,0.0042720000000000535,0.9340886589165794,0.9165431067671579,double,-0.906639
75,0.625,step_acsent,-0.3360134405376364,0.18204728189127375,0.08952358094324028,0.8692368655165545,-0.21160961849004709,0.15321601076774158,0.08508340333614157,0.007920316812667071,-0.03564142565702597,-0.010320412816516277,-0.017640705628226044,-0.03000120004800182,-6.18219132567672,9.031060267347566,13.133563839039683,12.5143246680672,-3.066963278722114,-5.313900697505978,1.0942076212515663,-1.6417883598803986,-5.313819481505644,0.1341190000000001,0.024890999999999996,-0.911954,-0.138447,0.060711000000000015,-0.907635,0.2725660000000001,0.03582000000000002,0.004319000000000073,0.8456894530451762,0.8963079931442751,double,-0.907635
76,0.633333,step_acsent,-0.312372494899784,0.0933637345493817,-0.017640705628226044,0.42944440112805654,-0.042174162892133965,0.21554569778733912,-0.016560662426493566,0.05496219848794096,0.03492139685587404,0.004560182407294172,-0.002400096003842544,-0.028801152046082214,2.837026957620575,-10.642451379082166,-12.860228797727816,-12.197775802548268,5.6452516110972875,8.467877416644631,1.7857428565715092,1.8289463127785235,0.1440115206911797,0.13658400000000004,0.02457100000000001,-0.911516,-0.1358060000000001,0.059912999999999994,-0.907728,0.27239000000000013,0.035341999999999985,0.0037880000000000136,0.8880153437966023,0.9133557689262519,double,-0.907728
77,0.641667,step_acsent,-0.28845692344613466,0.08387329013679015,-0.01715862730981582,0.2908024832071634,-0.09049122542964307,0.2816001660413056,-0.03455723542117442,0.06611471082313737,0.03995680345572376,0.022558195344381818,-0.011519078473720367,-0.07619390448764102,2.869639003317675,-1.1387622285327093,0.057844770627576786,-2.159416006081228,1.3381944246696031,0.6042004559454948,2.159588785347702,-1.0941903611564525,-5.686675358958372,0.13870000000000005,0.024423000000000028,-0.91104,-0.13321399999999994,0.059118000000000004,-0.90822,0.271914,0.034694999999999976,0.0028199999999999337,0.8589532814830797,0.8379772272000641,double,-0.90822
78,0.65,step_acsent,-0.2617304692187663,0.09288371534861319,-0.04872194887795701,0.05680333604663646,-0.3047666807735425,0.10076549565477269,0.031201248049913102,0.08640345613824497,0.11352454098163867,0.005160206408258139,-0.0037201488059526123,-0.037081483259330666,3.207302799396165,1.081294277189847,-3.7877500981808536,7.891333669877265,2.4347468276860096,8.828481642375447,-2.0878421860222733,0.9359089964919863,4.693678294529004,0.14114099999999996,0.02436900000000003,-0.9096879999999999,-0.13098999999999994,0.058313000000000004,-0.908123,0.2721309999999999,0.033943999999999974,0.0015649999999999276,0.7566044798778152,0.9216447007815688,double,-0.908123
79,0.658333,step_acsent,-0.2770910836433356,0.08232329293172042,-0.060482419296766295,0.4504501162400133,-0.09243707662072463,0.20681746517452362,0.04380175207010369,0.04464178567142528,0.24540981639265774,0.006600264010550429,0.010320412816516415,-0.03156126245049823,-1.843347464846929,-1.2673013820824273,-1.4113129027732383,1.5121209672615752,-5.011600920055211,15.826866123967392,0.17281382482806956,1.6849347920879822,0.6624529951797058,0.14381500000000003,0.024054999999999993,-0.907139,-0.12862600000000013,0.057713000000000014,-0.9078820000000001,0.27244100000000016,0.03365800000000002,0.0007430000000000492,0.5704804212563988,0.9435743435724318,double,-0.907139
80,0.666667,step_acsent,-0.24910007199423456,0.05639548836092715,-0.011399088072962147,0.5949671592993154,-0.4910229592958132,0.16724214251207895,0.05699544036477077,0.019078473722104514,0.2902567794576417,0.02075833933285066,-0.020398368130549818,-0.043796496280296915,3.3586527056756474,-3.1110876614822494,5.889528584569687,1.5831159460843505,-3.067352045754808,5.381205071392325,1.6988331320254526,-3.6859588369409644,-1.468110610726973,0.146366,0.023744000000000043,-0.9046249999999999,-0.12637700000000018,0.05707300000000004,-0.908152,0.2727430000000002,0.033329,0.003527000000000058,0.47070608469083974,0.9123590791816899,single,-0.9046249999999999
81,0.675,step_acsent,-0.2613704548181932,0.043921756870278585,-0.03516140645625663,0.5223716156868927,-0.3108411990813976,0.30094107287528815,0.025921036841472827,0.10812432497299669,0.32497299891995485,0.020640825633032555,-0.021000840033605604,-0.037681507260290466,-1.4725048390685944,-1.496907655184029,-2.8515922696861136,-3.729077585899174,10.685929587290508,4.166112979996758,-0.014102208066495307,-0.072299520347508,0.7338280355221917,0.14876,0.024278999999999995,-0.901624,-0.12402700000000011,0.05653199999999997,-0.908173,0.2727870000000001,0.032252999999999976,0.006549000000000027,0.43451,0.9202961217600202,single,-0.901624
82,0.683333,step_acsent,-0.25873034921397653,0.0350414016560683,-0.015600624024956758,0.49272094220429374,-0.2240189940885119,0.28545647652026124,0.02796111844472937,0.15636625465018728,0.38893555742230057,0.033721348853951554,-0.03012120484819435,-0.025681027241089747,0.31682534551982533,-1.0656852531153689,2.3473877872674964,0.24481958517419455,5.789263131788195,7.675814052843671,1.5697255755333155,-1.0944875572529495,1.440115206912376,0.15114899999999998,0.02528999999999998,-0.898253,-0.12159000000000009,0.055988999999999955,-0.908257,0.27273900000000006,0.030698999999999976,0.010004000000000013,0.39996,0.9133344309333224,single,-0.898253
83,0.691667,step_acsent,-0.23638108951284045,0.008039356851449872,0.007559395248384302,0.6760613979877059,-0.24211784907616316,0.30049799929581616,0.02123830093590957,0.18070554355651497,0.44288456923445785,0.02387808975282682,-0.02843772498199969,0.0,2.681696628406036,-3.2399861776599734,2.778979994401354,-0.8066735671729962,2.920481030276879,6.473363548374953,-1.1810966044066065,0.20200142382945122,3.081476750790683,0.15329599999999988,0.026729000000000003,-0.894625,-0.119421,0.055684999999999985,-0.90832,0.2727169999999999,0.028955999999999982,0.013695000000000013,0.36305,0.9381114942372643,single,-0.894625
84,0.7,step_acsent,-0.266290651626064,-0.004680187207489692,-0.019920796831873394,0.577661575492522,-0.5885784389463874,0.14450622376118563,0.013200528021127506,0.23016920676826988,0.45253810152406554,-0.003960158406330258,-0.08088323532941487,-0.006000240009600611,-3.5892910252278702,-1.5264063433264947,-3.297754959829347,-0.9645713326271617,5.935877020491463,1.158470213561476,-3.3407234080352013,-6.293712990209488,-0.7200576034562182,0.1556249999999999,0.02868599999999999,-0.890688,-0.11723499999999998,0.05504999999999999,-0.908204,0.2728599999999999,0.026364,0.017515999999999976,0.32483999999999996,0.8646631415470442,single,-0.890688
85,0.708333,step_acsent,-0.2526101044041779,0.00804032161286253,0.0037201488059526123,0.7438871871776702,-0.5341682571881621,0.3129195739090062,0.02880115204608388,0.26833073322932993,0.5247809912396468,0.004320172806903256,-0.005640225609019986,-0.025201008040320896,1.6417313358797614,1.5265221193270333,2.8370269576174136,1.8721497689855164,4.5795663579815065,8.669493545611543,0.993679492767728,9.029522347341242,-2.3041843310596675,0.15796999999999994,0.03085500000000002,-0.8863460000000001,-0.11509400000000003,0.05493600000000004,-0.9084450000000001,0.273064,0.02408100000000002,0.02209899999999998,0.2790100000000001,0.9563611142999711,single,-0.8863460000000001
86,0.716667,step_acsent,-0.23914086873048912,-0.015598752099827513,0.026757859371246882,0.3708001156810687,-0.2719927777314167,0.20381726840115091,0.034317254619631185,0.3263738900887904,0.6107511399088031,-0.006359491240710386,0.0016798656107461464,-0.011399088072954653,1.6161789865237213,-2.836461928568498,2.764304123505411,0.6618793584769934,6.964621653402933,10.315592592891248,-1.281457169140096,0.8783406791175997,1.6560979082512766,0.16024899999999986,0.033704999999999985,-0.881479,-0.1131540000000002,0.05507999999999996,-0.908763,0.27340300000000006,0.021374999999999977,0.027283999999999975,0.22715999999999997,0.9780654834282043,single,-0.881479
87,0.725,step_acsent,-0.17736709468379983,-0.02124084963399014,0.05976239049562018,0.28009234697201674,-0.12816607043351463,0.4346441087333293,0.02736109444379204,0.3822152886115472,0.7209888395535887,-0.02136085443417894,0.01068042721708947,-0.020040801632065525,7.413149411579246,-0.6770787872510116,3.960702163011353,-0.8347726120051853,6.7012358721657606,13.22905311949917,-1.8002355926399487,1.0801105971850962,-1.0370471089776734,0.16195500000000007,0.03706700000000002,-0.875969,-0.11185400000000012,0.055346000000000006,-0.909428,0.2738090000000002,0.01827899999999999,0.033459000000000017,0.16541,0.9480387067736011,single,-0.875969
88,0.733333,step_acsent,-0.22632905316213206,0.008160326413057988,0.020640825633019232,0.8103324959072281,-0.19129830123714847,0.40263205752064624,0.02388095523819001,0.44281771270850967,0.8175927037081449,-0.018480739229567604,0.009840393615747768,-0.012600504020160448,-5.875670044201612,3.528282256936038,-4.694775574535075,-0.417633410008642,7.272581794907263,11.592927415643313,0.3456276496593454,-0.10080806448358323,0.892871428285737,0.16403999999999996,0.04068900000000003,-0.869328,-0.11012200000000005,0.05536000000000002,-0.909705,0.274162,0.01467099999999999,0.040376999999999996,0.09623000000000004,0.9592724577716543,single,-0.869328
89,0.741667,step_acsent,-0.19090472762177912,-0.02507799376050107,0.04835613150948458,0.41935455898647667,0.09184367422114316,0.348919219947061,-0.011519078473707044,0.5667146628269744,0.9532037437005102,-0.020518358531308158,0.005639548836088793,0.026277897768178748,4.250579018520895,-3.9882793584784313,3.325570659523099,-4.247664232289087,14.866444698639956,16.272023037240956,-0.24449475662833756,-0.5040610486751859,4.665035011799786,0.165535,0.04562100000000002,-0.861787,-0.10870200000000008,0.055616,-0.909889,0.27423700000000006,0.009994999999999976,0.04810199999999998,0.01897999999999994,0.9436445935993718,single,-0.861787
90,0.75,step_acsent,-0.16116644665787694,-0.022800912036477522,0.046801872074882976,0.6007962233892878,-0.2050990135510931,0.35756090274908153,-0.20880835233410147,0.6104644185767415,0.9907596303852112,-0.024480979239180623,0.014640585623426194,0.007440297611904392,3.5687364651268525,0.2732607373123173,-0.1865185928959079,-23.67565988964282,5.250180697199923,4.506886677631207,-0.4755335062849453,1.080167621185331,-2.2606024428506273,0.165138,0.050898,-0.853921,-0.10756300000000008,0.05592799999999998,-0.910217,0.2727010000000001,0.005029999999999979,0.05629600000000001,0.0,0.9508680031711689,single,-0.853921
91,0.758333,step_acsent,-0.19428777151086407,-0.009960398415936565,0.056522260890435286,0.5873647405087977,-0.13262123259710057,0.4828881666689993,-0.21876875075001806,0.4674186967478658,1.1982479299171909,-0.02016080643225072,0.008400336013442242,0.012960518420736413,-3.9747179710772826,1.5409232713957641,1.1664933175989762,-1.195295621734855,-17.166173266395667,24.899591927514557,0.5184414744905657,-0.7488599075943749,0.662452995179647,0.16493400000000014,0.05487599999999998,-0.844407,-0.10611199999999998,0.05608099999999999,-0.9105800000000001,0.2710460000000001,0.0012050000000000116,0.06617300000000004,0.0,0.9576719557480025,single,-0.844407
92,0.766667,step_acsent,-0.19402447804175532,-0.017758579313652788,0.0669546436285038,0.4697112010437332,-0.14220230221502136,0.4369260492593288,-0.3033357331413607,0.4562035037197083,1.2630189584833278,-0.017998560115175585,-0.00467962562995098,0.0015598752099839376,0.0315926888779399,-0.9357068511778578,1.2517857857053722,-10.147226108872465,-1.3457155061384152,7.771901675802411,0.2594488021448463,-1.569469839620026,-1.3679677478704753,0.16402300000000003,0.05882599999999999,-0.8344389999999999,-0.10464499999999988,0.05618999999999996,-0.911125,0.2686679999999999,0.002636000000000027,0.07668600000000003,0.0,0.9688962188379859,single,-0.8344389999999999
93,0.775,step_acsent,-0.15768630745230192,0.002160086403451628,0.06612264490580547,0.609579803254835,-0.07341368230639635,0.36287075225697485,-0.40861634465377006,0.528261130445211,1.4045361814472528,-0.013560542421700381,-0.0076803072122894785,0.008400336013439744,4.360754900930428,2.390335499472499,-0.09984384047741854,-12.634178748639016,8.647261097504181,16.98274606551355,0.5325834265540843,-0.36009619372836743,0.8208881319399709,0.1619320000000002,0.06320999999999999,-0.8232860000000001,-0.10344399999999987,0.05610799999999999,-0.911606,0.26537600000000006,0.007101999999999997,0.08831999999999995,0.0,0.9704928881084682,single,-0.8232860000000001
94,0.783333,step_acsent,-0.15936637465498715,0.0074402976119053235,0.09840393615743903,0.779910180969725,-0.07408167618399897,0.42228495364137425,-0.5507020280811494,0.4932197287891564,1.5618624744989957,-0.016200648025920732,-0.0003600144005730556,0.01068042721708947,-0.20161612896738898,0.6336506910420909,3.873909906592327,-17.050964049847675,-4.205136404182754,18.879910362623832,-0.3168253455202658,0.8784702762170274,0.2736218893135423,0.158671,0.06725799999999998,-0.811091,-0.10225099999999987,0.05604300000000001,-0.912337,0.2609219999999999,0.011214999999999975,0.10124599999999995,0.0,0.967653691075765,single,-0.811091
95,0.791667,step_acsent,-0.16390688744900023,0.024958003359729346,0.05531557475402462,0.5916736874203455,-0.44892795996415635,0.2909275038679641,-0.6973842092632451,0.5931125509959195,1.6652267818574389,-0.009599232061444612,-0.011039116870647982,0.01979841612670953,-0.5448179498455771,2.1019565332162093,-5.170189753229431,-17.600453705554898,11.986179770429853,12.40272466503988,0.7921065472133513,-1.2813897852261633,1.0940711434629218,0.15422500000000006,0.07199300000000003,-0.797674,-0.10096499999999997,0.05574300000000004,-0.912633,0.25519000000000003,0.016249999999999987,0.11495900000000003,0.0,0.9589720745988634,single,-0.797674
96,0.8,step_acsent,-0.0616824672986801,-0.028561142445692963,0.29821192847713296,2.245034132551809,0.8129570614053084,0.43845751910884784,-0.7723508940357712,0.6287051482059248,1.7910716428657063,-0.002400096003829221,-0.011400456018242092,0.009600384015360184,12.267421114882959,-6.422554398826604,29.148728395908716,-8.996362027184182,4.2712825165012775,15.101987400488046,0.8639308841492094,-0.04336243220858128,-1.2238128058741515,0.14830299999999985,0.07746999999999998,-0.785234,-0.10047099999999998,0.05588599999999999,-0.915038,0.24877399999999983,0.021583999999999992,0.12980400000000003,0.0,0.9748395023292766,single,-0.785234
97,0.808333,step_acsent,-0.1533661346454007,0.030241209648383147,0.15636625465019394,1.1027123874742593,-0.542320181160132,0.31860980440816816,-0.6979479179167016,0.5275411016440719,1.7809912396496015,-0.004200168006721177,-0.015720628825152218,0.011040441617665023,-11.002480180813805,7.056564513869753,-17.022161745702668,8.92871428285974,-12.140171194270238,-1.2096967738035411,-0.21601728103827827,-0.5184414744881994,0.1728138248295755,0.14376500000000014,0.08161400000000002,-0.771696,-0.09922799999999987,0.055503000000000025,-0.916249,0.24299300000000001,0.026110999999999995,0.14455299999999993,0.0,0.9672267498536467,single,-0.771696
98,0.816667,step_acsent,-0.13378929685624774,0.026157907367409923,0.07403407727381497,0.7101553278217474,-0.24889969794673455,0.3242412740673934,-0.7764578833693384,0.4028077753779666,1.7982961363090817,0.005879529637624834,-0.006959443244540683,-0.023038156947443756,2.349032612089369,-0.48995707715061115,-9.87907095948864,-9.420442218938826,-14.966801807787897,2.0764214854187752,1.209466959964715,1.0512581690198546,-4.089104699437067,0.138409,0.08475300000000002,-0.7573259999999999,-0.09806399999999993,0.055227000000000026,-0.917058,0.23647299999999993,0.029525999999999997,0.1597320000000001,0.0,0.9587097201857944,single,-0.7573259999999999
99,0.825,step_acsent,-0.20340813632545512,0.06156246249849878,0.07704308172327341,1.662528756276825,-0.5980284470519921,0.4053540995641808,-0.8503540141605653,0.3410536421456903,1.7994719788791727,0.0055202208088312625,-0.013320532821316304,0.023640945637825223,-8.354594920101766,4.248716564393278,0.36109497773412524,-8.867890410563735,-7.410792419570006,0.14110675268102335,-0.04311878420659719,-0.7633612836644281,5.601716378887485,0.13301800000000008,0.08708200000000005,-0.742973,-0.09632299999999994,0.05460300000000001,-0.9175030000000001,0.22934100000000002,0.032479000000000036,0.17453000000000007,0.0,0.953847964319827,single,-0.742973
100,0.833333,step_acsent,-0.20448817952717158,0.03732149285971492,0.17772710908435718,1.4427263787917475,-0.43331603850440575,0.8126734973644065,-0.821792871714861,0.3751350054002099,1.8948757950317932,0.0010800432017191524,-0.0008400336013415596,-0.005520220808832022,-0.1296103686207185,-2.9090327179627695,12.082566585993442,3.4274741924521988,4.089927187629841,11.448915894950211,-0.5328426265585133,1.4977198151895705,-3.4994799527969667,0.12787400000000004,0.089897,-0.728664,-0.09461000000000008,0.05428500000000003,-0.91903,0.22248400000000013,0.03561199999999998,0.19036600000000004,0.0,0.9905212243601201,single,-0.728664
101,0.841667,step_acsent,-0.0676745860331179,0.025797936165109083,0.023038156947440425,-0.06905287300161679,0.14629511331222153,0.18690990955092462,-0.8546916246700187,0.3908087353011741,1.9686825053995536,0.09311255099593281,-0.061795056395486415,-0.06611471082313398,16.416317913853206,-1.3827161860578054,-18.561189361280967,-3.94753455185474,1.880697132345104,8.856096756390674,11.043017493906042,-7.3140176138882165,-7.270757141144888,0.12131500000000006,0.092939,-0.7124489999999999,-0.09326999999999996,0.05355500000000002,-0.919773,0.21458500000000003,0.039383999999999975,0.20732400000000006,0.0,0.7835916210345835,single,-0.7124489999999999
102,0.85,step_acsent,-0.16404656186249017,0.023880955238210315,0.19620784831394072,1.0517949637178512,-0.3903189673979231,0.805521443551349,-0.7920316812672773,0.5328213128525189,1.9435977439097727,0.010800432017271606,-0.006120244809795237,0.018240729629185257,-11.565099703512917,-0.23004691310437847,20.781194211748694,7.519493988088559,17.04219099380128,-3.0102917904453528,-9.87784939141509,6.681244640068606,10.123057776589466,0.11608200000000002,0.09717999999999999,-0.6978880000000001,-0.09181299999999992,0.05330499999999999,-0.921256,0.20789499999999994,0.043875,0.2233679999999999,0.0,0.9632262568876859,single,-0.6978880000000001
103,0.858333,step_acsent,-0.1893675747029702,0.03744149765990371,0.0694827793111717,0.8826412714140824,0.3569893845050074,0.7510176163315,-0.8306732269290584,0.5924636985479425,1.888155526221044,-0.003960158406330205,0.045721828873157164,0.04248169926797056,-3.0386430865810534,1.6273301838105534,-15.20761658499562,-4.637170966252366,7.157372578353933,-6.653332255937641,-1.7713417045003899,6.221297693862017,2.9090327179629427,0.110738,0.10180500000000003,-0.682733,-0.09026800000000001,0.05337400000000003,-0.921481,0.20100600000000002,0.048431,0.23874799999999996,0.0,0.8957718413127055,single,-0.682733
104,0.866667,step_acsent,-0.285817134629244,0.02207823374130292,0.18250539956803494,1.6164476405985364,0.06268438414326584,1.1488305818757172,-0.8392128629709604,0.5327573794096468,1.898848092152636,0.011159107271406198,-0.009239260859130571,-0.00839932805375499,-11.57302134944497,-1.8434441946965296,13.56162950046363,-1.0246743510801593,-7.164185161782571,1.2830052713693327,1.8141667479885395,-6.594803183619876,-6.1052348598183155,0.10612600000000016,0.10606099999999999,-0.6684289999999999,-0.08779300000000001,0.05311300000000002,-0.923072,0.19391900000000017,0.05294799999999997,0.25464300000000006,0.0,0.9720895117248607,single,-0.6684289999999999
105,0.875,step_acsent,-0.20448817952717158,0.005160206408258139,0.15684627385094704,0.8082936706944054,-0.7595017244578889,1.0639953061038405,-0.7879515180607277,0.6779071162846504,1.917316692667701,0.016440657626311434,-0.008160326413057988,-0.07008280331213233,9.759865006848926,-2.030244489744955,-3.0792182547807254,6.15160745352604,17.418665171607216,2.216320714636369,0.6338113950444275,0.12947731262121434,-7.402313123530191,0.10126400000000002,0.11166699999999999,-0.653759,-0.08595200000000003,0.053001999999999994,-0.924963,0.18721600000000005,0.058664999999999995,0.271204,0.0,0.8792559471163133,single,-0.653759
106,0.883333,step_acsent,-0.16560662426496234,0.04764190567622453,0.1412456498260038,1.2677903752081336,-0.08785067512644447,0.7015124290055769,-0.7993519740789632,0.695427817112681,1.8544341773670863,-0.091443657746301,0.03768150726028797,0.08508340333613325,4.665973270395905,5.0980078324692455,-1.8721497689839415,-1.3681094465661137,2.1025682020917453,-7.546203684221105,-12.946635710141845,5.5012400904051075,18.62068962537681,0.09598299999999993,0.117065,-0.639483,-0.08533400000000002,0.052918999999999994,-0.925431,0.18131699999999995,0.06414600000000001,0.285948,0.0,0.7825589220636178,single,-0.639483
107,0.891667,step_acsent,-0.07895368370530971,0.043556515478762214,0.233141348692096,1.5413920568603319,-0.22130378893354147,0.605575588281575,-0.787257019438454,0.6670266378689753,1.8167746580273634,-0.068754499640048,0.026157907367410273,0.07103431725461948,10.397521065473137,-0.4902076070869141,11.026601735792262,1.451278454584738,-3.4078688797343206,-4.518780818301309,2.7224811742564357,-1.3827213694357763,-1.6857554693441146,0.09007999999999994,0.12226100000000001,-0.626285,-0.08524900000000013,0.05277399999999999,-0.926782,0.17532900000000007,0.06948700000000002,0.300497,0.0,0.8295651675010087,single,-0.626285
108,0.9,step_acsent,0.0762030481219175,0.022920916836672977,0.09780391215648707,-0.13351869177773748,-1.077848281808325,-0.21721958972279665,-0.8477139085563338,0.7943117724708938,1.7585503420136732,-0.05736229449177684,0.014280571222853145,0.06252250090003582,18.619552601371243,-2.4763708918863734,-16.2411420299542,-7.2551168988214885,15.274827145315967,-6.987197409539172,1.3671193025646355,-1.425337350840883,-1.021458820902871,0.08238100000000004,0.128689,-0.612446,-0.08636200000000005,0.05270200000000003,-0.927076,0.1687430000000001,0.07598699999999997,0.31462999999999997,0.0,0.8565946821979424,single,-0.612446
109,0.908333,step_acsent,-0.12264490579621573,0.060002400096004445,0.17976719068762906,1.259701340689052,-0.2575194273799182,0.5825821113944424,-0.8291131645265951,0.5792631705268261,1.7304692187687718,0.11148445937839772,-0.07260290411616797,-0.059642385695428055,-23.86270897853535,4.449955989359392,9.835986863211657,2.232178570711488,-25.806864507868678,-3.369869584171568,20.262420961259583,-10.42643409804655,-14.660372806368054,0.07649399999999984,0.133016,-0.599524,-0.08441100000000001,0.051597000000000004,-0.929071,0.16090499999999985,0.08141899999999999,0.32954700000000003,0.0,0.7570026260976532,single,-0.599524
110,0.916667,step_acsent,0.02027837772976511,0.14530837532997462,0.05567554595632546,-0.09189462978738976,-0.3861790965735867,0.2142142733459759,-0.7694984401247844,0.946604271658261,1.6046316294696263,-0.02951763858893552,0.06359491240700395,-0.0004799616030722306,17.14942206935202,10.235898156223845,-14.889806183261658,7.153194672643418,44.07740594329639,-15.099302771675605,-16.918898244220323,16.34243058833344,7.098922977244465,0.06991199999999997,0.13969399999999998,-0.586615,-0.08482600000000007,0.05091599999999996,-0.929539,0.15473800000000004,0.08877800000000002,0.342924,0.0,0.8831449825750118,single,-0.586615
111,0.925,step_acsent,-0.0957638305532309,0.06720268810752461,0.08184327373094415,0.7811236569364339,-0.6317131180100953,0.2078492367678387,-0.8305532221288763,0.9077163086523408,1.4860194407776288,0.006840273610967904,-0.0057602304092154435,0.0007200288011519304,-13.925622018840217,-9.37305738898952,3.140252943071952,-7.3268669151676,-4.666742230399625,-14.234032004319817,4.363123988947951,-8.32295005594853,0.14400460869124637,0.0637890000000001,0.14669799999999997,-0.5749139999999999,-0.0839709999999998,0.050307999999999964,-0.9302149999999999,0.1477599999999999,0.09639,0.355301,0.0,0.9850474789458765,single,-0.5749139999999999
112,0.933333,step_acsent,-0.12072482899314167,0.09972398895955577,0.13044521780872076,1.2497652974941815,-0.331358784438277,0.5071196285503445,-0.849153966158664,0.8630745229809276,1.485059402376105,0.007320292811696541,0.009360374414979384,-0.010320412816512251,-2.995439630374535,3.902712210732204,5.832466587996767,-2.2321785707173767,-5.3572285697124205,-0.11520921655152039,0.05760460827176781,1.8145451607098242,-1.3249059903593283,0.057718999999999854,0.153059,-0.563626,-0.08290400000000009,0.049555000000000016,-0.931388,0.14062299999999994,0.10350399999999998,0.36776200000000003,0.0,0.9737684341583992,single,-0.563626
113,0.941667,step_acsent,-0.11147108231340899,0.09863210943124348,0.12874970002399597,0.8844463415455123,-0.18759641557485482,0.40989778421901446,-0.885169186465072,0.9541636669066419,1.309815214782805,0.0026397888168906074,0.004199664026878687,-0.0009599232061436286,1.1103607727060967,-0.131015062192498,-0.2034458584982937,-4.321480718311465,10.929822885254815,-21.02762030157171,-0.561615550132697,-0.6192357077154615,1.1231688997322475,0.051270999999999844,0.16018900000000003,-0.553783,-0.08195300000000016,0.048768000000000034,-0.932469,0.133224,0.11142099999999999,0.37868599999999997,0.0,0.9915792723496435,single,-0.553783
114,0.95,step_acsent,-0.07440297611905324,0.08628345133805733,0.01056042241689401,0.02070789559230195,-0.6966021604120338,-0.0642844068907495,-0.889475579023166,1.1087243489739687,1.3399735989439712,0.014160566422664536,-0.002400096003842576,-0.01044041761670438,4.448350677349826,-1.4818982471122362,-14.183280644078128,-0.5167877784824183,18.54802376903014,3.619150865374582,1.3825486146374695,-0.792002883801911,-1.1377048374607992,0.044478999999999935,0.168709,-0.542705,-0.08121500000000004,0.04802899999999999,-0.932644,0.12569399999999997,0.12068000000000001,0.38993900000000004,0.0,0.9704062496157669,single,-0.542705
115,0.958333,step_acsent,-0.21588863554543364,0.01776071042841484,0.15408616344654477,1.9470205400507565,-0.17732865147318863,0.690443204762766,-0.8966758670346684,1.038881555262206,1.1828873154926154,0.000480019200781832,0.0019200768030740352,-0.0016800672026881154,-16.978958289497157,-8.223057831470323,17.223777874673008,-0.8640691241452513,-8.381470504231661,-18.851108058484954,-1.6417313358793528,0.5184414744889707,1.0512841010459892,0.03880600000000012,0.17721800000000001,-0.534132,-0.07941199999999982,0.04789700000000002,-0.933942,0.11821799999999993,0.129321,0.39981,0.0,0.9956731653960524,single,-0.534132
116,0.966667,step_acsent,-0.07847372210222311,0.14026877849772285,0.17818574514038243,1.5005871137579267,0.40050456241714927,0.2954454931181273,-0.8965682745380475,0.9056875449963933,1.0346772258219255,0.0015598752099614365,0.003359731221498953,-0.0003599712023041729,16.488470535542294,14.699792184942053,2.8917184657832347,0.012910066789158198,-15.982002671683665,-17.783788057438063,0.1295723553131265,0.17274471063413813,0.15839884813822083,0.031987999999999905,0.18359699999999998,-0.526994,-0.07874500000000006,0.046755999999999964,-0.93543,0.11073299999999997,0.13684100000000002,0.408436,0.0,0.9937972712506118,single,-0.526994
117,0.975,step_acsent,-0.06708268330733005,0.09744389775590866,0.12960518420736586,0.7926521434080646,-0.13748439756678818,0.059315733175853785,-0.8647545901835941,1.0825633025321113,1.0124804992199814,-0.0014400576022922224,0.010560422416900672,-0.0007200288011519401,1.366979334560562,-5.139191256668016,-5.829900507982361,3.8177948343278185,21.225939941884036,-2.6637137407829417,-0.3600063377239513,0.86411750814854,-0.04320864020734075,0.025341000000000058,0.191806,-0.5196369999999999,-0.07819799999999999,0.04603200000000002,-0.936516,0.10353900000000005,0.145774,0.4168790000000001,0.0,0.9821959173692766,single,-0.5196369999999999
118,0.983333,step_acsent,-0.10392415696628222,0.12996519860794384,0.04068162726508782,0.5171971492227473,-0.1317889880199777,0.12474834191203951,-0.8802352094083836,1.091083643345728,0.8929557182287224,0.004920196807867223,0.004680187207482968,0.0010800432017283122,-4.42115368522165,3.9027122107326346,-10.67125368322065,-1.8577486169194082,1.0224817969058813,-14.34354746084945,0.7632610596615167,-0.705656451388177,0.21601728103687085,0.018872,0.199815,-0.512535,-0.077291,0.04498799999999997,-0.936846,0.096163,0.15482700000000002,0.424311,0.0,0.9885400477212996,single,-0.512535
119,0.991667,step_acsent,-0.07211423086154033,0.10739140868730312,0.05015598752100214,0.22215560047587757,-0.20968174794747246,0.13044659626577104,-0.853131749460042,1.3066954643628597,0.802495800335981,0.0033597312214923374,0.008639308855293605,-0.0021598272138234013,3.816885781706513,-2.7086380994289465,1.1368322841269953,3.2521550213993016,25.87134881415081,-10.854321801384923,-0.18724089109369982,0.47505659320982235,-0.38875334959824,0.012363000000000124,0.20981000000000002,-0.506265,-0.07666200000000001,0.04416500000000001,-0.937282,0.08902500000000013,0.16564500000000001,0.431017,0.0,0.9841368434404858,single,-0.506265
120,1.0,step_acsent,-0.07080283211326845,0.13332533301332342,0.10188407536301274,0.8579539735656913,0.06817629561165382,0.09242988818163549,-0.8913956558262282,1.264250570022796,0.7296291851674006,0.006600264010576988,0.006960278411136715,-0.0010800432017283122,0.15737414475841532,3.1121954069386994,6.207618845795077,-4.59185243803984,-5.093591064450202,-8.74434359397337,0.38887948986975124,-0.20149171296734464,0.12957926462199504,0.005525000000000002,0.21923399999999998,-0.501034,-0.076017,0.043111999999999984,-0.93814,0.081542,0.176122,0.437106,0.0,0.9839120944420063,single,-0.501034
121,1.008333,step_acsent,-0.03312132485298758,0.11628465138605622,0.09396375855035358,0.7511294557319829,0.17196906386248262,-0.09608507390124697,-0.8673946957878409,1.239769590783642,0.6170646825873134,0.005640225609013399,0.008160326413058097,-0.0010800432017274938,4.521961749703734,-2.0449635938158353,-0.9504760365605702,2.8802304138230497,-2.9378350220993963,-13.508280640836222,-0.11520921655629394,0.1440115206913948,9.820662424001755e-14,-0.001427000000000067,0.228596,-0.49667500000000003,-0.07569400000000015,0.042211,-0.9389320000000001,0.07426700000000008,0.186385,0.44225700000000007,0.0,0.9833692415648809,single,-0.49667500000000003
122,1.016667,step_acsent,-0.0843532517398746,0.09695224382049067,0.1585073194144343,1.7915099964273717,0.2356138835304417,0.025404336952327484,-0.7884569234461308,1.258939284857202,0.5271178305735478,0.005279577633807858,0.010919126469883255,-0.001679865610751142,-6.147339439271254,-2.3197033316013203,7.744607735070822,9.471774939010015,2.3001792744852443,-10.792758820946117,-0.04327429508105809,0.33102952445705985,-0.07197293124833735,-0.0072950000000000514,0.23828000000000002,-0.49360299999999996,-0.07494699999999987,0.04149400000000003,-0.940267,0.06765199999999982,0.196786,0.446664,0.0,0.9795928109530752,single,-0.49360299999999996
123,1.025,step_acsent,-0.21792871714869272,0.1584063362534568,0.020880835233410427,1.9056138701081005,-1.0608890436520229,0.2985777679795682,-0.8268330733229213,1.3408136325453144,0.47125885035402015,0.008880355214197546,0.011280451218046784,-0.003480139205568404,-16.029697036939798,7.374786083399338,-16.51583873527243,-4.605322198102826,9.825314735162973,-6.703345760173783,0.4321105940705293,0.04336070420779219,-0.21604147303699492,-0.012368999999999852,0.248133,-0.48984999999999995,-0.07305699999999993,0.04026799999999997,-0.9404699999999999,0.060688000000000075,0.20786500000000002,0.45061999999999997,0.0,0.9753795107175168,single,-0.48984999999999995
124,1.033333,step_acsent,0.05280211208448197,0.006000240009599618,0.07536301452058826,-1.0022813143788039,0.18379695612383998,-0.6050181512935978,-0.7986319452778065,1.3087723508940128,0.37993519740788995,0.005640225609013249,0.014160566422657497,-0.003000120004799809,32.48899906794311,-18.289463127787652,6.538123039382801,3.3842707362431756,-3.845107602460223,-10.959276724604416,-0.3888311058663435,0.34562764965926585,0.057604608276561435,-0.019463999999999926,0.25898899999999997,-0.487312,-0.07345000000000002,0.04033599999999998,-0.941123,0.05398600000000009,0.218653,0.453811,0.0,0.9741084255245572,single,-0.487312
125,1.041667,step_acsent,-0.08123350131990059,0.1659467242620583,0.12095032397408544,1.9521798247471982,0.6961862051490862,-0.012206252436598203,-0.8006959443244608,1.3778497720182639,0.31929445644348686,0.005639548836108851,0.012718982481401127,-0.004319654427646027,-16.082986969568648,19.192042746875657,5.470039531257265,-0.2476600727927009,8.28862744471471,-7.2763068111836136,-8.120625202763182e-05,-0.17297623485197947,-0.15833146422441122,-0.025459999999999816,0.269089,-0.48565900000000006,-0.07272599999999985,0.03905900000000001,-0.9421670000000001,0.04726600000000003,0.23003,0.456508,0.0,0.9757194384554155,single,-0.48565900000000006
126,1.05,step_acsent,0.0,0.3583343333733273,-0.557302292091685,-5.610717120181281,-0.6478260860730515,-0.8745169369855988,-0.7519500780031195,1.4432977319092515,0.2757710308412315,0.004440177607111978,0.01488059522381025,-0.004920196807872153,9.748410094791693,23.08743659081551,-81.39356967067786,5.849737948078772,7.854069349692364,-5.223019993070275,-0.1439303046918099,0.25940390524529994,-0.07206796834586765,-0.03172599999999992,0.27813000000000004,-0.47871699999999995,-0.07268899999999978,0.036197000000000035,-0.937564,0.04096299999999986,0.24193299999999998,0.458847,0.0,0.9728504333968611,single,-0.47871699999999995
127,1.058333,step_acsent,-0.07584303372134546,0.14532581303252473,0.04548181927277351,0.15445123891383197,-0.06152092811570503,-0.18824272395665792,-0.7631105244209843,1.4929797191887813,0.21132845313812895,0.006600264010550429,0.008520340813631152,-0.007800312012480878,-9.101528107685846,-25.562044922693453,72.33698684320942,-1.3393071424294773,5.962076956621892,-7.733418661118821,0.2592207372421062,-0.7632610596638854,-0.34562764965903653,-0.03745299999999996,0.28936,-0.47733499999999995,-0.0720019999999999,0.035057000000000005,-0.938008,0.03454899999999994,0.254303,0.460673,0.0,0.9778261565451638,single,-0.47733499999999995
128,1.066667,step_acsent,-0.1941444684425108,0.17554595632349182,-0.053995680345566,0.1913523004038689,-0.3612435625751005,0.08869124138587568,-0.7325413966882626,1.512598992080622,0.17950563954883442,-0.0014398848092300135,0.016198704103671132,-0.01763858891288699,-14.195036563614643,3.6261271047476433,-11.936345046596923,3.668001887775553,2.3541244170675046,-3.8184321561428236,-0.9647406791193162,0.9213298884137175,-1.1804987881456726,-0.04194000000000009,0.300503,-0.475389,-0.07039600000000013,0.03372900000000001,-0.937705,0.028456000000000037,0.266774,0.462316,0.0,0.960014200376885,single,-0.475389
129,1.075,step_acsent,-0.15888635545423196,0.1221648865954672,-0.1168846753870202,-0.5444901281905656,-0.8550888458575784,-0.319735542382421,-0.598343933757348,1.4280571222849046,0.1428057122284867,0.005040201608076071,0.005760230409215521,0.0,4.23114280430567,-6.405984606747283,-7.546981284225943,16.104339725298914,-10.145430192693892,-4.404167445139572,0.7776414757357666,-1.2526669500126852,2.1167153381599846,-0.04560199999999992,0.311385,-0.473225,-0.06902999999999992,0.03275899999999998,-0.936731,0.023428000000000004,0.27862600000000004,0.463506,0.0,0.9872433147572969,single,-0.473225
130,1.083333,step_acsent,-0.21288851554061097,0.1953678147125873,-0.188407536301444,-0.7416985210316339,-1.3565655282675364,-0.1052130352573382,-0.7543501740069487,1.6211448457938034,0.11400456018240607,0.007320292811722992,0.00624024960998387,0.0039601584063359814,-6.480518431102611,8.784702762164743,-8.583086633196032,-18.721497689859355,23.17145367921462,-3.456276496589479,0.27362188931319825,0.057604608276531924,0.4752380182810407,-0.05011399999999999,0.323266,-0.47070500000000004,-0.0671949999999999,0.03118299999999996,-0.9351280000000001,0.017080999999999902,0.29208300000000004,0.46442300000000003,0.0,0.9826626401593792,single,-0.47070500000000004
131,1.091667,step_acsent,-0.08015358771297139,0.09623230141588489,0.02603791696664589,0.37346115056324414,0.8329190076601133,0.0952143038225741,-0.6129109671226287,1.6123110151188214,0.05327573794096573,0.00023998080151613928,0.013318934485244762,-0.018958483321334464,15.926917185942177,-11.895309970806851,25.731395880500838,16.971347118349254,-1.0599748830072198,-7.286875718915465,-0.8495694756667852,0.8493742350925159,-2.750017005960029,-0.05455399999999999,0.335901,-0.47047800000000006,-0.06652500000000017,0.03049200000000002,-0.9355030000000001,0.011971000000000176,0.305409,0.465025,0.0,0.9613823695828556,single,-0.47047800000000006
132,1.1,step_acsent,-0.11664466578665282,0.07608304332173435,0.18612744509779694,1.284539991130326,0.5299992669331983,0.20636293656028729,-0.6488659546381935,1.5580223208928086,-0.03672146885875046,0.00516020640825807,0.0044401776071053166,0.0,-4.379104533023016,-2.4180076916056863,19.211511836211237,-4.31477109271141,-6.514903903277552,-10.800096819838547,0.5904506908366549,-1.0654934451145193,2.2751090029202126,-0.05898899999999996,0.34825,-0.472335,-0.06550999999999996,0.029895000000000005,-0.937054,0.006520999999999999,0.318355,0.46471900000000005,0.0,0.9886540624795496,single,-0.472335
133,1.108333,step_acsent,-0.09300372014880322,0.16488659546381843,0.02028081123244645,0.1623286324648765,0.3246177797283166,-0.3502397496147295,-0.5951038041521638,1.5305412216488796,-0.06528261130445812,0.002760110404428955,0.007920316812667177,-0.009480379215168182,2.837026957620283,10.656852531151433,-19.90239215952862,6.451716126968705,-3.297863823824456,-3.427474192452648,-0.28802304138115176,0.4176334100038272,-1.1376910134607308,-0.06317299999999992,0.35963,-0.473048,-0.06471199999999988,0.028586999999999974,-0.937302,0.001538999999999957,0.33104300000000003,0.46425399999999994,0.0,0.9789031849480485,single,-0.473048
134,1.116667,step_acsent,-0.1325893928485605,0.14242860571154123,0.012479001679864673,0.23064186248325988,-0.3097990338411125,-0.18434204914080898,-0.6208303335733109,1.5025197984161152,-0.08039356851451203,0.003959683225335912,0.007559395248384302,-0.004559635229182028,-4.749900731912285,-2.6947431908179778,-0.9361422549294117,-3.0869365756115745,-3.362301803787407,-1.813169811621526,0.14393722353095126,-0.043307123144093136,0.5904420429548977,-0.06724200000000002,0.370965,-0.47382199999999997,-0.06357400000000002,0.027463000000000015,-0.9374439999999999,0.0036680000000000046,0.343502,0.463622,0.0,0.9838742940559784,single,-0.47382199999999997
135,1.125,step_acsent,-0.11268450738029902,0.1586463458538344,0.004680187207489692,0.23605422532537995,-0.035715851137621206,-0.4036550425242737,-0.5771030841233779,1.5133805352214231,-0.1239649585983458,0.003960158406330258,0.005880235209404319,-0.006720268810752551,2.3886818034635384,1.9462066653418104,-0.935895172491906,5.247479833185336,1.3033405502589785,-5.2287759610985445,5.702400028153512e-05,-0.20150726496819854,-0.2592864012445149,-0.07111200000000006,0.38225400000000004,-0.474894,-0.06260200000000005,0.02618999999999999,-0.937539,0.008510000000000018,0.35606400000000005,0.46264500000000003,0.0,0.9837192996320183,single,-0.474894
136,1.133333,step_acsent,-0.12864514580582884,0.14976599063963017,-0.10020400816033095,-0.48142441788559887,-0.7382756078503049,-0.298864437567248,-0.5714628585143378,1.4971798871955009,-0.19464778591143972,0.008640345613833273,-0.0007200288011461112,0.003960158406336086,-1.9153532251926035,-1.0656852531146404,-12.586606908414929,0.6768541472507076,-1.9441555293318609,-8.482278568714095,0.5616449306975949,-0.7920633638006109,1.2817025341520143,-0.07480200000000004,0.393482,-0.47568099999999996,-0.06145800000000001,0.024936000000000014,-0.936671,0.013344000000000023,0.368546,0.46099000000000007,0.0,0.9841135217870107,single,-0.47568099999999996
137,1.141667,step_acsent,-0.12610991120711867,0.19378449724021662,-0.09791216702662847,-0.2840479072268036,-0.2600626995966318,-0.39008327568590273,-0.5475161987041108,1.4629229661626968,-0.22942164626829975,0.012598992080636062,0.0002399808015361153,0.001679865610751142,0.30420381553997394,5.281798248210477,0.27499893612940546,2.8733693076825944,-4.110501683801755,-4.172529440467934,0.474999576050247,0.11519193696690895,-0.2736132464104784,-0.078314,0.404059,-0.47677700000000006,-0.060301999999999856,0.023323000000000038,-0.935841,0.01801200000000014,0.38073599999999996,0.45906399999999997,0.0,0.978812074933584,single,-0.47677700000000006
138,1.15,step_acsent,-0.13968558742349135,0.17400696027841356,0.0021600864034516565,0.07248353960222752,-0.1848552682110191,-0.6062481549086166,-0.5420616824672895,1.4130565222609026,-0.26233049321972707,0.0021600864034383334,0.00480019200767849,-0.0021600864034558203,-1.629146311817209,-2.3733993713912453,12.00915077764083,0.6545681311438151,-5.984212636720825,-3.9492196029554325,-1.2527187900153396,0.5472472346264751,-0.46081267421180816,-0.08166699999999993,0.414384,-0.478981,-0.05912000000000006,0.021913000000000016,-0.935877,0.022546999999999873,0.392471,0.45689599999999997,0.0,0.9905170050073105,single,-0.478981
139,1.158333,step_acsent,-0.11112444497779506,0.15060602424096772,-0.03276131045241365,-0.05174317606123297,0.05229358930174908,0.04083781871675474,-0.5179407176286944,1.3645745829832963,-0.2876515060602419,0.00516020640825807,0.002760110404415558,0.0012000480019204232,3.427474192451194,-2.80822465347959,-4.190735252113848,2.894631565893991,-5.818065435930098,-3.0386430865851928,0.36002880173043134,-0.24481958517495453,0.4032322579354596,-0.08505699999999994,0.4245,-0.48110500000000006,-0.058151000000000064,0.020681000000000005,-0.935594,0.026905999999999874,0.403819,0.454489,0.0,0.990043698976234,single,-0.48110500000000006
140,1.166667,step_acsent,-0.12658987281018097,0.14002879769618382,-0.0004799616030722434,0.2858203986639877,0.13235762951464175,-0.354130158695438,-0.5298776097912239,1.3122150227982012,-0.3318934485241233,0.005159587233023286,0.0009599232061444868,-0.004079673626110739,-1.8557028836556526,-1.2691656521219232,3.873451985762181,-1.4323124745056028,-6.282644610642671,-5.308608406993304,-7.42950845673715e-05,-0.21600518337786243,-0.6335159140906242,-0.08841799999999989,0.434269,-0.48386700000000005,-0.05705300000000002,0.01952200000000004,-0.935624,0.031364999999999865,0.414747,0.45175699999999996,0.0,0.9889211751184153,single,-0.48386700000000005
141,1.175,step_acsent,-0.12696507860314232,0.14916596663866888,-0.08268330733229792,-0.26718251827352296,-0.1461893867065289,-0.10209924646593618,-0.5187807512300493,1.252730109204345,-0.3535341413656489,0.0046801872075028905,0.0006000240009572972,-0.0008400336013440465,-0.04502649621521016,1.096504133263519,-9.864796079350082,1.3316762943927036,-7.138475170269432,-2.5969870204638505,-0.057530304274617416,-0.04318963220775031,0.3887723538661509,-0.09168299999999996,0.443465,-0.486124,-0.055955999999999895,0.018283999999999967,-0.9349419999999999,0.035727000000000064,0.42518100000000003,0.44881799999999994,0.0,0.9920121902685013,single,-0.486124
142,1.183333,step_acsent,-0.12264490579621573,0.11208448337933505,0.04332173286932185,0.42908424841804876,0.2158000547572509,-0.057211546271202264,-0.4921396855874172,1.1947677907116385,-0.378975159006363,0.004200168006721177,-0.00012000480018879799,-0.0010800432017274938,0.5184414744901754,-4.449955989359675,15.121209672581417,3.1970557593462523,-6.955756449382819,-3.0530442386552665,-0.05760460827813724,-0.08640691241402877,-0.028802304138179465,-0.09476200000000001,0.452487,-0.48964300000000005,-0.05489900000000003,0.017349000000000003,-0.935312,0.03986299999999998,0.43513799999999997,0.445669,0.0,0.9927692197757798,single,-0.48964300000000005
143,1.191667,step_acsent,-0.10871130309576033,0.07679385649147696,0.04007679385648463,0.48173630830429476,0.19769863349749842,0.12361497334807486,-0.4946004319654607,1.1467482601391814,-0.3921286297096194,0.0031197504199495167,0.0,-0.0038396928245745146,1.6718985721688624,-4.234536463625847,-0.38936153261785394,-0.2952659440896905,-5.761882718077364,-1.5782902211730618,-0.1296397392334596,0.014399424068730151,-0.331131464224502,-0.09797800000000012,0.46140400000000004,-0.493245,-0.0539670000000001,0.01670900000000003,-0.935678,0.04401100000000002,0.44469499999999995,0.442433,0.0,0.9917544483929104,single,-0.493245
144,1.2,step_acsent,-0.1341653666146601,0.23988959558382897,-0.01248049921996807,-0.09122999211351993,0.5620237109268544,-0.16125070381090786,-0.46669866794669923,1.0794431777271194,-0.4281771270850892,0.0012000480019279496,0.001800072002878601,-0.0019200768030715625,-3.0546098066602685,19.572271581945696,-6.307127454272553,3.348345616076052,-8.076932966766186,-4.3259927247654035,-0.23037350510279428,0.21601728103667556,0.23036313710584058,-0.10074899999999998,0.4684,-0.496709,-0.05283900000000008,0.014724999999999988,-0.93559,0.0479099999999999,0.453675,0.438881,0.0,0.9951790188434729,single,-0.496709
145,1.208333,step_acsent,-0.13992559702387855,0.10344413776550568,-0.1402856114244516,-0.6918856582333556,-0.7886927469634224,-0.16062359596419765,-0.454218168726759,1.0375615024600786,-0.45529821192846487,0.0033601344053661936,0.0006000240009572972,-0.0010800432017282976,-0.6912552993181736,-16.37410990259461,-15.337226953615898,1.4977198151854065,-5.0260020721276915,-3.2546603676197274,0.25922073724207445,-0.1440115206913816,0.10080806448376937,-0.10336800000000013,0.476184,-0.499334,-0.05164500000000016,0.013867999999999991,-0.93443,0.05172299999999996,0.462316,0.435096,0.0,0.9940331877714567,single,-0.499334
146,1.216667,step_acsent,-0.14866810655147752,0.14770818334533303,0.1754259659227251,1.2507809374923151,0.48823885255323335,0.06182842458655928,-0.43292536597071063,0.9742020638349136,-0.462682985361183,0.00287976961843346,0.000719942404608365,-0.0008399328053755933,-1.049017221934142,5.311260568733885,37.882358692966484,2.554931936170962,-7.602524433065302,-0.8861019237722931,-0.0576391632988652,0.014389057313543334,0.028810942686910115,-0.10573699999999997,0.48307200000000006,-0.504652,-0.05038200000000015,0.012643000000000015,-0.935899,0.05535499999999982,0.470429,0.43124700000000005,0.0,0.9948584272729404,single,-0.504652
147,1.225,step_acsent,-0.12156486259451997,0.16092643705748388,-0.13452538101522957,-0.953601933767245,-0.16167693222586885,-0.0021970708699043007,-0.43801752070083877,0.8989559582383135,-0.48661946477857965,0.003600144005757106,0.001800072002878553,-0.004200168006720233,3.252519375609874,1.586253895613899,-37.19564945853225,-0.6110830109358035,-9.029893867346543,-2.8724924297847365,0.08644838441421257,0.1296207366218852,-0.40324435393550706,-0.10837399999999997,0.489222,-0.5075860000000001,-0.04933900000000002,0.011316999999999966,-0.934813,0.05903499999999995,0.477905,0.4272269999999999,0.0,0.9903042524552697,single,-0.5075860000000001
148,1.233333,step_acsent,-0.12060482419295954,0.23316932677306976,-0.13788551542062608,-1.0106374492410095,0.18851672092513316,-0.2309680647964678,-0.4542181687267445,0.8453138125525091,-0.5519020760830508,0.0012000480019279496,-0.0002400096003842576,-0.002280091203647949,0.11520921655591537,8.669493545612209,-0.40323225793790224,-1.9441555293298758,-6.437314974895581,-7.834226725605628,-0.2880230413811567,-0.24481958517494654,0.2304184331060004,-0.11115399999999998,0.494323,-0.511036,-0.048324000000000034,0.009371999999999991,-0.933683,0.06282999999999994,0.484951,0.422647,0.0,0.9956870557516546,single,-0.511036
149,1.241667,step_acsent,-0.13810895128388448,0.08243340532757235,0.1424286057115479,0.8799395776691128,0.18696336310466213,0.21973829003916143,-0.3903287736980952,0.7363810895128338,-0.4611231101511826,0.0032397408207342263,-0.0008399328053730732,-0.0003599712023041729,-2.1003272247329985,-18.086863624369602,33.635003735561774,7.666114114308709,-13.070881094273405,10.892604503463815,0.2447435587720496,-0.07198502579659359,0.23039596848377267,-0.11325600000000002,0.499773,-0.516066,-0.04714600000000013,0.008678000000000019,-0.9348730000000001,0.06610999999999989,0.491095,0.41880700000000004,0.0,0.9943897447647778,single,-0.516066
150,1.25,step_acsent,-0.15372614904597376,0.21324852994120302,-0.024480979239167627,-0.30318591689231855,-0.07345839333564433,-0.17837726395938122,-0.3952958118324925,0.6854674186967535,-0.47053882155286736,0.0003600144005730556,-0.0021600864034583183,-0.0006000240009598112,-1.8741386969986107,15.69844289135148,-20.02995139214173,-0.5960684188644367,-6.1098848933254155,-1.1299305654247955,-0.34558099365909,-0.1584247687609813,-0.028807488138202386,-0.11526900000000007,0.503708,-0.5197830000000001,-0.04586200000000007,0.0068829999999999725,-0.934674,0.069407,0.496825,0.4148909999999999,0.0,0.9962156710411542,single,-0.5197830000000001
151,1.258333,step_acsent,-0.13620544821794295,0.09780391215648837,-0.001560062402501005,-0.10082791959776997,-0.19997187307494357,-0.023235262119313083,-0.3924156966278548,0.6656666266650723,-0.4312972518900779,0.009360374414979384,-0.0021600864034516565,0.0015600624024960088,2.1025682020918004,-13.853908290497506,2.7506200452018277,0.34562764966251514,-2.3761900914054315,4.709176726603843,1.0800864051849766,7.99444597218288e-13,0.2592207372441906,-0.11740399999999984,0.50844,-0.5233639999999999,-0.04464899999999994,0.00605,-0.934648,0.0727549999999999,0.50239,0.4112840000000001,0.0,0.9837796101260499,single,-0.5233639999999999
152,1.266667,step_acsent,-0.11855051595872107,0.2325413966882626,-0.0417566594672441,-0.5891282651733131,0.29287693104601215,-0.08524995621205628,-0.3116150707943293,0.5585553155747521,-0.30261579073674166,-0.004919606431480372,-0.00155987520998808,-0.0007199424046075133,2.118422397314824,16.16720476743139,-4.82320579130583,9.6952994760649,-12.852329144506756,15.440540095192615,-1.7134606247251796,0.0720195816490967,-0.273578690557176,-0.11901299999999981,0.511157,-0.5255380000000001,-0.04370199999999991,0.004098999999999964,-0.934306,0.0753109999999999,0.507058,0.4087679999999999,0.0,0.9913150744938027,single,-0.5255380000000001
153,1.275,step_acsent,-0.12552502100082683,0.15132605304212451,-0.04332173286930853,-0.42664277009563806,0.00038394779769508136,0.002535278122084487,-0.3087723508940576,0.5273010920436844,-0.3373334933397376,0.0010800432017191667,-0.0033601344053729447,0.00036001440057555366,-0.8369740840160589,-9.74623108678013,-0.1878163209005694,0.34114003363395723,-3.750656850002167,-4.166290963998112,0.7199867554541695,-0.2160397450359872,0.1296000006219941,-0.12054000000000009,0.5142899999999999,-0.5279880000000001,-0.0426470000000001,0.002809999999999979,-0.933942,0.07789299999999999,0.5114799999999999,0.4059539999999999,0.0,0.9940870652829833,single,-0.5279880000000001
154,1.283333,step_acsent,-0.13020520820832637,0.12264490579622579,0.09396375855033774,0.3824653414569256,-0.03531974063510338,-0.10803645133805385,-0.2757710308412182,0.5496219848793856,-0.33169326773070207,-0.001440057602292184,-0.003000120004799809,0.005160206408256404,-0.5616449306971638,-3.4418753445215673,16.474917967075946,3.960316819013419,2.6786142848554992,0.6768541472501433,-0.3024241934490947,0.04320345620702379,0.5760460827650026,-0.121753,0.517848,-0.5315350000000001,-0.041574,0.0017630000000000146,-0.934682,0.080179,0.516085,0.4031469999999999,0.0,0.9897663116080964,single,-0.5315350000000001
155,1.291667,step_acsent,-0.17878569714423082,0.18682505399568758,-0.05615550755939919,-0.44474986759946605,-0.37620941241482037,0.07009879725490659,-0.2360211183105459,0.5247180225582072,-0.2954163666906727,0.004799616030722434,-0.001319894408445339,-0.004799616030717439,-5.8291923369216905,7.701001703799257,-18.01287090349649,4.769607935045961,-2.988236419627897,4.352879894412051,0.7487009398865774,0.2016109426871253,-1.1950830860300015,-0.12223000000000006,0.520664,-0.533529,-0.04004399999999997,0.00019500000000000073,-0.934254,0.08218600000000009,0.520469,0.400725,0.0,0.9884752983487481,single,-0.533529
156,1.3,step_acsent,-0.11304452178086906,0.12360494419776279,-0.004440177607098654,-0.3114706513117372,-0.20007617959694085,-0.03304214333250695,-0.1671666866674611,0.49093963758549286,-0.3025321012840455,0.0016800672026830968,-0.002640105604226763,-0.0025201008040321394,7.889256613867827,-7.586716644416619,6.206087837789467,8.262862311662499,-4.053568339459229,-0.8539223080970425,-0.3743608337980658,-0.15843168076099856,0.27355276931300365,-0.12268100000000004,0.523725,-0.5360130000000001,-0.03908800000000001,-0.0008569999999999967,-0.934238,0.08359300000000003,0.524582,0.39822499999999994,0.0,0.9933034645214682,single,-0.5360130000000001
157,1.308333,step_acsent,-0.1404056162246641,0.17448697947918207,-0.037681507260295136,-0.4786602974627221,-0.1625423309462079,-0.11635770184272558,-0.13476539061562406,0.45613824552982524,-0.3242529701188056,0.001320052802110086,-0.0026401056042268333,-0.00048001920076768247,-3.283462671762306,6.106088477309462,-3.9891191231485403,3.8883110586628256,-4.176334100044155,-2.6066085245122164,-0.04320345620700997,-8.431093336980839e-15,0.2448195851751441,-0.12263399999999991,0.526072,-0.538401,-0.03790699999999991,-0.0023330000000000295,-0.933928,0.084727,0.528405,0.39552699999999996,0.0,0.9950158263152994,single,-0.538401
158,1.316667,step_acsent,-0.1372690184784981,0.130909527237821,-0.006479481641468453,-0.15473304768814722,-0.19602876289068838,-0.04175691363784814,-0.08795296376290966,0.4019678425725935,-0.34233261339092547,0.0021598272138316985,-0.003359731221498953,-0.001199904007679744,0.37636162061026934,-5.228875958886576,3.7439435587744714,5.617041858976967,-6.499928360598912,-2.1693836419630097,0.10076486821713536,-0.08634816621935618,-0.08637926648812766,-0.12222300000000019,0.528331,-0.5412,-0.03674500000000003,-0.0034520000000000106,-0.933884,0.08547800000000016,0.531783,0.39268400000000003,0.0,0.9930492971774294,single,-0.5412
159,1.325,step_acsent,-0.08988359534382785,0.16644665786631277,-0.001320052802110086,-0.3986803097290887,0.2168253585926871,0.013894092788224514,-0.044641785671405296,0.2715708628345143,-0.4090963638545574,-0.001680067202709788,-0.0009600384015370304,0.0001200048001921288,5.686478235289893,4.264626260469469,0.6191562269720885,5.197549272951489,-15.648263499109609,-8.011970534457282,-0.46080576221547115,0.2879746573817286,0.1583953927603366,-0.1218459999999999,0.529207,-0.544598,-0.0360100000000001,-0.00484699999999999,-0.933872,0.0858359999999998,0.534054,0.389274,0.0,0.9967687718665619,single,-0.544598
160,1.333333,step_acsent,-0.18516740669627327,0.15456618264730454,-0.006960278411136623,-0.07885294539092047,-0.4640732376343095,0.09139988032763734,-0.0271210848434004,0.28825153006119925,-0.3772950918036698,0.00012000480020877961,-0.003960158406336814,0.0002400096003842512,-11.434514742882966,-1.4257140548431564,-0.6768541472490626,2.1025682020886345,2.001760137607661,3.8163052983183734,0.21601728104146597,-0.36002880172803686,0.014401152069137202,-0.12052899999999989,0.530321,-0.5476840000000001,-0.034465999999999886,-0.006168000000000007,-0.9338120000000001,0.086063,0.536489,0.386128,0.0,0.9933846012206305,single,-0.5476840000000001
161,1.341667,step_acsent,-0.11951043916486871,0.13978881689465433,-0.011039116870648276,-0.3674657902935586,-0.18121512555023828,0.03105277594824866,-0.04211663066954606,0.27669786417086856,-0.38576913846892597,-0.000479961603085565,-0.002039836813053704,-0.002279817614591491,7.8782058473009124,-1.7731420389549422,-0.4894214614244936,-1.7993215534132405,-1.3863290005196673,-1.016804255490317,-0.07199020917858844,0.23042015758137108,-0.30235507739090356,-0.11988399999999988,0.531462,-0.550807,-0.033474000000000004,-0.007350000000000023,-0.9337390000000001,0.08640999999999988,0.538812,0.38293200000000005,0.0,0.9948390177183539,single,-0.550807
162,1.35,step_acsent,-0.0790831633265275,0.11832473298931592,0.013440537621504744,-0.3024864313681661,0.1907205145953821,-0.10131435024489348,-0.0018000720028918764,0.18360734429376896,-0.3895355814232533,0.000360014400573046,-0.0034801392055683117,0.0012000480019204232,4.851467159287233,-2.575793100364579,2.937676046100155,4.838180567221106,-11.17130923762126,-0.4519912341686373,0.10080115248513097,-0.17284320082978308,0.41760057800454253,-0.11924000000000001,0.532006,-0.554165,-0.03281200000000006,-0.008365000000000011,-0.933841,0.08642799999999995,0.5403709999999999,0.379676,0.0,0.9938353394106076,single,-0.554165
163,1.358333,step_acsent,-0.1719668786751507,0.1632065282611286,-0.033361334453378494,-0.49897655464956336,-0.7257950524456961,-0.04074727266171108,0.057362294491777606,0.14916596663866954,-0.3722548901956105,-0.001320052802110086,-0.0004800192007685152,-0.0025201008040322066,-11.146491701502947,5.386030873852525,-5.616449306958319,7.099767970079205,-4.133130643837721,2.073765897953074,-0.20161612896713635,0.360028801728048,-0.44643571414288535,-0.11732900000000002,0.5318890000000001,-0.5569890000000001,-0.03139000000000003,-0.009728999999999988,-0.9335840000000001,0.08593899999999999,0.541618,0.376595,0.0,0.9951914815471947,single,-0.5569890000000001
164,1.366667,step_acsent,-0.12215022798175613,0.1715862730981559,-0.05855531557475885,-0.5873182222417982,-0.26586893542593304,0.13637357490223692,-0.0503959683225176,0.23134149268058202,-0.4665226781857419,0.00155987520998808,-0.0020398368130536497,0.0009599232061436286,5.977519881616773,1.0054889413279624,-3.023035891694284,-12.929957141144035,9.860274303085175,-11.311229660442848,0.34556371635446886,-0.18716314042298088,0.41756947566304403,-0.11673099999999992,0.5323869999999999,-0.560389,-0.030359000000000025,-0.01117600000000002,-0.933088,0.0863719999999999,0.543563,0.372699,0.0,0.9954309016643454,single,-0.560389
165,1.375,step_acsent,-0.11472458898355521,0.12684507380295024,0.15648625945037606,0.5868914704981525,0.3969925052060389,0.12628454775494,0.038521540861636706,0.14964598583943473,-0.37129485179407345,0.0006000240009639748,-0.0007200288011527728,0.0010800432017274938,0.89111232427709,-5.369158681772001,25.80602124386618,10.670527923215543,-9.803852975056767,11.42779627885147,-0.11518675255299579,0.1583832967599771,0.014414976069106715,-0.11545399999999995,0.532577,-0.5647869999999999,-0.029398000000000035,-0.012239,-0.934383,0.08605599999999991,0.544816,0.36959600000000004,0.0,0.997616629607619,single,-0.5647869999999999
166,1.383333,step_acsent,-0.15084603384136266,0.17100684027361365,-0.09480379215168182,-0.7606441791031859,-0.601457644983234,0.024467740148394927,0.06756270250808524,0.09072362894515944,-0.32737309492380096,0.0002400096003909192,-0.001800072002878601,-0.00024000960038342487,-4.334746772807846,5.299623961438116,-30.15601243274453,3.4850788007258853,-7.070965665939736,5.27082165729904,-0.04320345620701535,-0.12961036862184544,-0.15841267276022208,-0.11363400000000001,0.531908,-0.566725,-0.028138999999999914,-0.013678999999999997,-0.9335950000000001,0.0854950000000001,0.545587,0.36687000000000003,0.0,0.9969470103759214,single,-0.566725
167,1.391667,step_acsent,-0.0977921766258704,0.31713462922965996,-0.11795056395489077,-2.130076589000228,0.09382005076487153,0.16102543142469275,0.0568754499640127,0.00911927045836239,-0.3663306935445103,0.0019198464122889224,-0.004679625629950918,-0.0004799616030722306,6.365953589571856,17.53393196016861,-2.777390425151041,-1.282367715871426,-9.791739679241232,-4.674537871455371,0.20156429228437608,-0.34551879374517575,-0.028791936967699053,-0.11234499999999992,0.529341,-0.5687949999999999,-0.027307999999999888,-0.016361000000000014,-0.932616,0.08503700000000003,0.545702,0.36382100000000006,0.0,0.9915319113031964,single,-0.5687949999999999
168,1.4,step_acsent,-0.08700348013919013,-0.049921996879878944,0.1840873634945457,1.9567681918474986,0.2224664900232522,-0.0957941081634867,0.055082203288130495,-0.0045601824072942325,-0.33721348853954886,0.00012000480018213638,-0.0036001440057638638,0.002760110404416464,1.294695366216294,-44.04855707542809,36.24600113397807,-0.21519820903422765,-1.6416000078791249,3.4942043687701574,-0.2159896330381378,0.1295429766215125,0.38882419386640155,-0.11116100000000007,0.529719,-0.5731390000000001,-0.026582000000000106,-0.015975000000000017,-0.934127,0.08457899999999996,0.545694,0.360988,0.0,0.9924366293046919,single,-0.5731390000000001
169,1.408333,step_acsent,-0.12756510260410628,0.19368774750989753,0.0004800192007685024,-0.43234014490287254,-0.23612731604316473,0.16097050523412393,0.03744149765991654,-0.021360854434178372,-0.26257050282010436,-0.0021600864034649224,0.0009600384015370048,0.005880235209408325,-4.867589399365828,29.234338700320677,-22.033762665759507,-2.116969354159804,-2.0161612896776484,8.957516586996663,-0.2736218893132148,0.5472437786272397,0.37442995379716865,-0.10978599999999994,0.527927,-0.575331,-0.025537000000000143,-0.017581000000000013,-0.934082,0.0842489999999998,0.545508,0.35875099999999993,0.056524393754984914,0.9894373807540162,single,-0.575331
170,1.416667,step_acsent,-0.13666906647468477,0.33369330453564083,-0.21178305735541758,-2.5344157680193855,-0.3198443393645266,0.14589462454628097,0.004799616030695791,-0.04799616030717772,-0.22174226061915664,0.0,-0.002759779217662069,0.0019198464122873083,-1.0923882734075672,16.799322897257735,-25.469531624212877,-3.916712458509884,-3.19598102627788,4.898997144342272,0.259189633245136,-0.4463424069113444,-0.47520863896341403,-0.10860700000000012,0.524746,-0.575414,-0.024398000000000142,-0.020384999999999986,-0.9323009999999999,0.08420899999999998,0.545131,0.35688699999999995,0.12178673761880937,0.9943968779593149,single,-0.575414
171,1.425,step_acsent,-0.10512420496820876,0.18732749309972485,-0.03600144005759771,-0.43435214549595447,0.0695505734983156,0.18455156336468392,-0.01032041281651614,-0.07596303852153889,-0.1832473298931926,0.0019200768030740096,-0.0025201008040313068,0.0007200288011519209,3.7855348021691415,-17.564599956307863,21.094637861252465,-1.8144760407070284,-3.3561596321085667,4.619576470174412,0.23041843310620136,0.028762560138096475,-0.1439838726911516,-0.10781700000000005,0.522552,-0.576641,-0.023506000000000027,-0.021967000000000014,-0.931995,0.08431100000000002,0.544519,0.35535400000000006,0.16893908728019774,0.994584988851281,single,-0.576641
172,1.433333,step_acsent,-0.11544461778470133,0.1124444977799081,-0.4627385095403823,-2.5592420401384164,-2.696008640063029,-1.0913962276130147,0.010200408016334279,-0.11208448337933505,-0.13824552982119248,-0.00024000960036427277,-0.0028801152046044293,0.0031201248049920177,-1.2384990779422373,-8.986318891133738,-51.21049675780493,2.462597003822226,-4.334746772806491,5.400432025921099,-0.25922073724208594,-0.04320345620702338,0.28802304138246954,-0.10677000000000003,0.5206810000000001,-0.573937,-0.022545999999999955,-0.02292799999999995,-0.9281130000000001,0.08422400000000008,0.543609,0.35417600000000005,0.20288981536186523,0.992911698409275,single,-0.573937
173,1.441667,step_acsent,0.012359011279093286,0.18910487161027237,-0.1498680105591608,-2.030004694754419,1.0497082144561785,-0.2528812977076251,0.00155987520998808,-0.0825533957283404,-0.175185985121191,-0.0002399808015427761,0.0002399808015361153,0.0002399808015361153,15.33520867096156,9.198508978925329,37.5414565612214,-1.0367809942819934,3.543447042355942,-4.432500035996908,3.4555821330296236e-06,0.3743815702112456,-0.3455896332440461,-0.10685999999999996,0.518417,-0.574148,-0.022650999999999977,-0.024501999999999968,-0.926862,0.08420899999999998,0.5429189999999999,0.35271399999999997,0.17721857352487969,0.9993072350981576,single,-0.574148
174,1.45,step_acsent,-0.05520220808831263,0.15660626425057153,-0.12456498259930311,-0.8338794867790533,0.11245192335413684,0.04332839026911759,0.025561022440900118,-0.025081003240131603,-0.051962078483141806,-0.0016800672026831415,0.001800072002878601,0.0019200768030715625,-8.10767063091402,-3.899988882719445,3.036484814575533,2.8802528778245837,6.896962977104204,14.787460294977837,-0.17281728082807857,0.18721843289841592,0.20161958496765423,-0.10618700000000003,0.516903,-0.573543,-0.02220500000000003,-0.02579199999999998,-0.925808,0.083982,0.5426949999999999,0.35226499999999994,0.39482184172605195,0.9947959471053875,single,-0.573543
175,1.458333,step_acsent,-0.03156126245051238,0.12528501140045256,-0.10800432017280645,-0.771412883636094,0.5965806161054048,0.054368991785203845,0.018120724828994312,-0.005520220808831116,-0.08280331213248006,-0.000360014400573046,0.0014400576023055071,0.0007200288011527536,2.8370269576142855,-3.7587006900418123,1.9873589855389862,-0.8928714282858125,2.347387787267508,-3.701096081763796,0.15841267276011908,-0.04320345620701879,-0.1440115206910822,-0.1057729999999999,0.5158130000000001,-0.573333,-0.02194499999999988,-0.02682399999999996,-0.924902,0.08382800000000001,0.542637,0.351569,0.35842922847353675,0.9972503445968088,single,-0.573333
176,1.466667,step_acsent,-0.2502999760019285,0.06371490280777703,0.22774178065754636,2.0675936430941277,-0.9880077385529231,0.7294720476547047,-0.0019198464122889736,-0.03503719702424046,-0.09395248380130172,0.0031197504199495995,-0.0017998560115242432,-0.002999760019199023,-26.246545902498234,-7.387822005360776,40.28630919490752,-2.404676174860051,-3.5417538055447455,-1.3377935767724833,0.417538375392694,-0.3887585329769393,-0.4463389513261156,-0.10370299999999988,0.5149900000000001,-0.576014,-0.01983299999999999,-0.027370000000000005,-0.9268249999999999,0.08386999999999989,0.54236,0.3508109999999999,0.33284770585218393,0.9921878149809664,single,-0.576014
177,1.475,step_acsent,-0.09708388335531302,0.16500660026400948,0.00948037921517459,-0.14983395841306646,-0.05493645042726862,0.2811318357455749,-0.04116164646585578,-0.03732149285971109,-0.03288131525260911,-0.0004800192007551792,0.0022800912036470555,-0.003120124804991935,18.386666584256904,12.155489914344255,-26.192415869718943,-4.709204374602918,-0.2741264653150833,7.328833379178152,-0.4319896340699287,0.4896132503505613,-0.01444435206923191,-0.10323700000000002,0.513304,-0.5763670000000001,-0.019028000000000045,-0.02872600000000003,-0.92693,0.08420899999999998,0.54203,0.35056299999999996,0.3923953240664,0.9935097480940926,single,-0.5763670000000001
178,1.483333,step_acsent,-0.09348373934958507,0.1286451458058355,0.029641185647425836,0.06021274921190413,-0.08206323943673009,0.24083006441409435,-0.05964238569545137,-0.026041041641668632,-0.04788191527660943,-0.0004800192007818384,0.0001200048001954596,0.0,0.43203456206984187,-4.363549076943996,2.419393547612076,-2.217777418648237,1.3537082944968875,-1.8001440086404004,-3.199235614882013e-12,-0.2592207372436836,0.37442995379718746,-0.10295500000000013,0.512015,-0.577013,-0.018253000000000075,-0.029797000000000018,-0.927177,0.08470200000000006,0.541812,0.35016400000000003,0.3653396470974257,0.9991753458886883,single,-0.577013
179,1.491667,step_acsent,-0.054115670746337385,0.2123830093592489,-0.15202783777297918,-1.4457369148887729,-0.484937088735571,-0.09764231304995968,-0.09959203263737462,-0.027357811375087172,-0.033117350611950605,0.0,-0.0009599232061444612,-0.0002399808015361153,4.723790329163353,10.047739807224954,-21.79853892733425,-4.793574147098986,-0.15799972803198103,1.771606031276543,0.05759769627811792,-0.129580994281247,-0.028795392552929382,-0.10333400000000004,0.5100169999999999,-0.576022,-0.017802000000000096,-0.03157500000000002,-0.925912,0.08553199999999994,0.5415920000000001,0.3498899999999999,0.3192317189232948,0.998350889678577,single,-0.576022
180,1.5,step_acsent,0.0,-0.041761670466820854,0.7730709228369276,5.2168860163596875,2.9751311459318672,1.2226228665395256,-0.09660386415456042,-0.021600864034563197,0.013800552022078158,-0.001320052802110086,-0.0006000240009573131,-0.0006000240009598112,6.494140255170753,-30.498581522389546,111.01629192486682,0.3585945617201766,0.690861315315496,5.630373531024744,-0.15841267276012216,0.04318963220774648,-0.0432069122073322,-0.10413899999999998,0.510185,-0.582349,-0.01781300000000008,-0.031231999999999982,-0.932359,0.0863259999999999,0.541417,0.35001000000000004,0.33342203082884936,0.997384556016121,single,-0.582349
181,1.508333,step_acsent,-0.08424336973478781,0.15480619224769293,0.030241209648376486,0.11633812261895717,-0.0969137558536998,0.17934530934373308,-0.0662426497060018,0.02208088323532838,0.054722188887557435,-0.0021600864034383334,0.001440057602298884,0.00048001920076768247,-10.10960875252473,23.58908708922544,-89.14313130787926,3.643491473486007,5.242019353161163,4.910792855571781,-0.10080806448196988,0.24481958517415287,0.12961036862204534,-0.10398900000000011,0.509079,-0.5821449999999999,-0.01712899999999995,-0.03251000000000004,-0.932607,0.08686000000000016,0.541589,0.35046200000000005,0.35214335019303905,0.9955998239929889,single,-0.5821449999999999
182,1.516667,step_acsent,-0.05315574754019292,0.15706743460523093,-0.023638108951284046,-0.22706053139351753,-0.289489387994549,0.19157970147279557,-0.0525557955363493,0.005159587233023149,0.023158147348211814,-0.0010799136069291708,0.0010799136069158492,0.0013198944084478015,3.730216246051674,0.27132737671442025,-6.465001031876664,1.6422911170689218,-2.030393088829506,-3.787381994161913,0.12961036675175838,-0.04321382234017662,0.10077696276459235,-0.10398400000000008,0.507813,-0.581755,-0.016695000000000126,-0.03381000000000001,-0.932399,0.08728899999999995,0.541623,0.35064399999999996,0.40389483807545884,0.9966357483718579,single,-0.581755
183,1.525,step_acsent,-0.045481819272786835,0.08736349453978316,-0.05808232329292372,-0.27431535208201274,-0.4868090856326714,0.022523257090733405,-0.02256090243610689,0.02316092643705754,0.027121084843394462,0.0010800432017458131,0.0004800192007685152,-0.0008400336013440688,0.9209082284178756,-8.364807400149814,-4.133471059839192,3.599531153275253,2.1602471143687216,0.4755715222828134,0.2592051852484104,-0.07199020834601458,-0.25920172924419654,-0.10379300000000002,0.507278,-0.581045,-0.01630699999999985,-0.03453400000000001,-0.931922,0.08748600000000017,0.541812,0.350877,0.42966397960826175,0.9975832941370242,single,-0.581045
184,1.533333,step_acsent,-0.07392295691826943,0.1530061202448036,-0.23784951398055978,-1.4394541947725479,-0.8902547480430503,0.008600927710682204,-0.026761070442800707,0.03624144965798529,-0.0031201248049886037,0.0020400816032561425,0.002760110404415558,0.0018000720028802186,-3.413073040379467,7.8774301818095855,-21.572925799547935,-0.5040403224161458,1.5697255755343242,-3.6290903214187615,0.1152092165498995,0.2736218893132129,0.3168253455207298,-0.10339999999999994,0.506305,-0.579089,-0.015673999999999966,-0.035785999999999984,-0.929925,0.08772599999999997,0.542091,0.35083600000000004,0.4247350468279719,0.9935406395208064,single,-0.579089
185,1.541667,step_acsent,-0.031197504199655855,0.13258939284857735,0.03995680345572763,0.12178631823946591,0.225286196428755,0.3155893425668339,-0.026517878569718135,0.01583873290136738,0.00719942404607699,0.0014398848092034085,0.005519558435324138,0.00035997120230334996,5.126644194698151,-2.449811302642984,33.33409136504592,0.02918069031468399,-2.4481301603813654,1.238246802383704,-0.07201785385802081,0.3311072751270257,-0.17279827220745092,-0.10336100000000004,0.505332,-0.5793619999999999,-0.015402000000000138,-0.03684500000000002,-0.930255,0.0879589999999999,0.542177,0.3508930000000001,0.44714025238755745,0.9904739577923316,single,-0.5793619999999999
