frame_id,timestamp,gait_type,root_linear_velocity_x,root_linear_velocity_y,root_linear_velocity_z,root_angular_velocity_x,root_angular_velocity_y,root_angular_velocity_z,left_linear_velocity_x,left_linear_velocity_y,left_linear_velocity_z,right_linear_velocity_x,right_linear_velocity_y,right_linear_velocity_z,root_acceleration_x,root_acceleration_y,root_acceleration_z,left_acceleration_x,left_acceleration_y,left_acceleration_z,right_acceleration_x,right_acceleration_y,right_acceleration_z,left_pos_rel_x,left_pos_rel_y,left_pos_rel_z,right_pos_rel_x,right_pos_rel_y,right_pos_rel_z,step_length,step_width,step_height,left_contact_prob,right_contact_prob,support_type,max_foot_height
<<<<<<< HEAD
1,0.008333,step_decsent,0.08544341773671497,0.04644185767430679,-0.01032041281651632,-0.42339489640419875,-0.10430234072543952,0.09195186511647536,-0.0006000240009639692,0.0004800192007685108,-0.00012000480019545849,-0.0004800192007551876,0.002040081603264505,-0.0013200528021100738,0.0,0.0,0.0,0.0,0.0,0.0,0.0,0.0,0.0,-0.11542500000000011,-0.044047,-0.9127449999999999,0.093804,0.046634999999999996,-0.9061049999999999,0.2092290000000001,0.090682,0.006639999999999979,0.9987038000123125,0.9294718813871505,double,-0.9061049999999999
2,0.016667,step_decsent,0.07511399088073138,0.0115190784737203,0.014398848092167026,0.5180063800797534,0.08214266347691114,-0.2006630847310675,0.00023998080154277791,0.0008399328053764098,-0.0005999520038369624,-0.0007199424046016905,0.001799856011519213,-0.0016798656107528196,-1.2394320681525788,-4.190398272208601,2.9660740231201514,0.10079251289977766,0.04318617765873518,-0.05758905731239546,-0.0287884813830697,-0.028824765028232807,-0.043174083110480654,-0.11604900000000007,-0.04413599999999998,-0.9128700000000001,0.09317200000000003,0.04655400000000001,-0.906239,0.2092210000000001,0.09068999999999999,0.0066310000000000535,0.9982337891236034,0.9294148303482865,double,-0.906239
3,0.025,step_decsent,0.04944197767908999,0.020640825633025977,-0.08292331693267696,-0.25966795313072505,0.4381591342968629,0.1336533003167019,0.00048001920078183396,0.0025201008040313506,-0.0004800192007685108,0.004200168006721138,0.0070802832113288725,0.006480259210368234,-3.0807648147895583,1.0946534452544914,-11.67912696806,0.02880576013909229,0.20162822496759158,0.014392512068696938,0.5904368668334127,0.6336766110416008,0.9792541487004743,-0.11645699999999981,-0.04428699999999999,-0.9121830000000001,0.09279500000000018,0.04644100000000001,-0.905494,0.209252,0.090728,0.006689000000000056,0.9956501133703455,0.9156484882709562,double,-0.905494
4,0.033333,step_decsent,0.11208448337933402,0.035641425657025286,0.045841833673332825,-0.3370391801006196,-0.4500005703818802,0.20923934249219026,0.0003600144005730523,0.0009600384015370216,-0.001200048001921277,-0.004200168006721138,-0.0034801392055683724,-0.012000480019199447,7.517401380084487,1.8001440086402627,15.452436170167982,-0.014401152071136646,-0.18721497689839542,-0.08640691241482854,-1.0080806448388666,-1.2673013820829528,-2.2177774186448675,-0.11738799999999983,-0.04457599999999998,-0.9125749999999999,0.09182600000000019,0.04611500000000002,-0.9059759999999999,0.209214,0.090691,0.0065990000000000215,0.9973693054846249,0.912040052036549,double,-0.9059759999999999
=======
1,0.008333,stand,0.08544341773671497,0.04644185767430679,-0.01032041281651632,-0.42339489640419875,-0.10430234072543952,0.09195186511647536,-0.0006000240009639692,0.0004800192007685108,-0.00012000480019545849,-0.0004800192007551876,0.002040081603264505,-0.0013200528021100738,0.0,0.0,0.0,0.0,0.0,0.0,0.0,0.0,0.0,-0.11542500000000011,-0.044047,-0.9127449999999999,0.093804,0.046634999999999996,-0.9061049999999999,0.2092290000000001,0.090682,0.006639999999999979,0.9987038000123125,0.9294718813871505,double,-0.9061049999999999
2,0.016667,stand,0.07511399088073138,0.0115190784737203,0.014398848092167026,0.5180063800797534,0.08214266347691114,-0.2006630847310675,0.00023998080154277791,0.0008399328053764098,-0.0005999520038369624,-0.0007199424046016905,0.001799856011519213,-0.0016798656107528196,-1.2394320681525788,-4.190398272208601,2.9660740231201514,0.10079251289977766,0.04318617765873518,-0.05758905731239546,-0.0287884813830697,-0.028824765028232807,-0.043174083110480654,-0.11604900000000007,-0.04413599999999998,-0.9128700000000001,0.09317200000000003,0.04655400000000001,-0.906239,0.2092210000000001,0.09068999999999999,0.0066310000000000535,0.9982337891236034,0.9294148303482865,double,-0.906239
3,0.025,stand,0.04944197767908999,0.020640825633025977,-0.08292331693267696,-0.25966795313072505,0.4381591342968629,0.1336533003167019,0.00048001920078183396,0.0025201008040313506,-0.0004800192007685108,0.004200168006721138,0.0070802832113288725,0.006480259210368234,-3.0807648147895583,1.0946534452544914,-11.67912696806,0.02880576013909229,0.20162822496759158,0.014392512068696938,0.5904368668334127,0.6336766110416008,0.9792541487004743,-0.11645699999999981,-0.04428699999999999,-0.9121830000000001,0.09279500000000018,0.04644100000000001,-0.905494,0.209252,0.090728,0.006689000000000056,0.9956501133703455,0.9156484882709562,double,-0.905494
4,0.033333,stand,0.11208448337933402,0.035641425657025286,0.045841833673332825,-0.3370391801006196,-0.4500005703818802,0.20923934249219026,0.0003600144005730523,0.0009600384015370216,-0.001200048001921277,-0.004200168006721138,-0.0034801392055683724,-0.012000480019199447,7.517401380084487,1.8001440086402627,15.452436170167982,-0.014401152071136646,-0.18721497689839542,-0.08640691241482854,-1.0080806448388666,-1.2673013820829528,-2.2177774186448675,-0.11738799999999983,-0.04457599999999998,-0.9125749999999999,0.09182600000000019,0.04611500000000002,-0.9059759999999999,0.209214,0.090691,0.0065990000000000215,0.9973693054846249,0.912040052036549,double,-0.9059759999999999
>>>>>>> 3b0d06690e55fb02323d988053aa126fb7c3a6e7
5,0.041667,step_decsent,0.08159347252219988,0.02855771538277129,0.01319894408447978,0.8468931075221648,0.6733972842385357,-0.39354653104770504,0.001439884809203381,0.0007199424046050209,-0.0008399328053730795,0.004319654427636786,0.005159587233021522,0.006479481641468501,-3.658628612567091,-0.8499772347317007,-3.9168334039900454,0.1295740831089907,-0.028809214894648504,0.04321036675644317,1.022296908370281,1.0366842378917558,2.217418005839686,-0.11805599999999994,-0.044808000000000014,-0.9126920000000001,0.0911820000000001,0.04592,-0.906032,0.20923800000000004,0.09072800000000002,0.00666000000000011,0.9969736929145019,0.9178307606398343,double,-0.906032
6,0.05,step_decsent,0.11964478579144805,0.02820112804512003,-0.01332053282130952,-0.85138863057425,0.07542457548951405,0.2403984828112296,0.00024000960039091698,0.0006000240009606385,-0.0003600144005797139,-0.001080043201719157,0.00204008160326284,-0.003240129605184117,4.566340245919617,-0.04279219220583939,-3.1824645272758065,-0.14399078468888324,-0.014390784068688642,0.057592512275694896,-0.6479896351081176,-0.3743556497970338,-1.1664000055985382,-0.11905100000000002,-0.045037999999999995,-0.9125840000000001,0.09017600000000003,0.045702000000000007,-0.905948,0.20922700000000005,0.09074,0.006636000000000086,0.9987670678821139,0.9270095009983446,double,-0.905948
7,0.058333,step_decsent,0.06600264010558363,0.02316092643705733,-0.027721108844364843,0.2945349584299662,-0.2616775439670016,-0.16424817131924707,-0.00024000960039091698,0.0006000240009606385,-0.0004800192007685108,-0.0003600144005996987,0.0025201008040330163,-0.00204008160326284,-6.437314974902727,-0.6048483869030004,-1.7281382482965706,-0.0576046082781512,0.0,-0.014401152068738376,0.08640691241083143,0.05760460827675224,0.14401152069138087,-0.1196029999999999,-0.04522599999999999,-0.912357,0.08962300000000001,0.045530000000000015,-0.9057339999999999,0.2092259999999999,0.090756,0.0066230000000000455,0.9986583055457173,0.9283328716272332,double,-0.9057339999999999
8,0.066667,step_decsent,0.10703143748501498,0.01811855051596019,-0.004799616030722342,0.22370376665276231,0.3381621043281797,0.03690244795297879,0.0011999040076872464,0.00035997120230417564,0.0,-0.00035997120230084524,0.0016798656107511545,-0.002639788816897288,4.923061840584515,-0.6050367075950492,2.750359108908387,0.1727758109045072,-0.028804031516254235,0.057597696276519166,5.183381191917261e-06,-0.1008201575812169,-0.0719591089074212,-0.12048499999999995,-0.045374,-0.9123169999999999,0.08872799999999992,0.045393,-0.905716,0.20921299999999987,0.090767,0.006600999999999968,0.9979121057297469,0.9287406580479901,double,-0.905716
9,0.075,step_decsent,0.1134045361814442,0.028321132845312184,0.03264130565223211,-0.4440385601564826,-0.44237979844190933,0.1343472769298948,0.00048001920075518796,0.0002400096003842556,0.0006000240009639698,-0.0008400336013282406,0.0021600864034549694,-0.004080163206525683,0.764802435668933,1.2243588538763954,4.493090325567561,-0.08638963241714376,-0.014395968069113182,0.07200576034609028,-0.057609792274978484,0.05762880027646889,-0.1728518408290407,-0.12142600000000003,-0.04560799999999998,-0.912584,0.08777600000000008,0.04517500000000001,-0.9060219999999999,0.2092020000000001,0.09078299999999999,0.006562000000000068,0.9986583055457297,0.9265592012496524,double,-0.9060219999999999
10,0.083333,step_decsent,0.11436457458298102,0.018120724828994614,0.0028801152046110624,0.5627974024300529,0.06021831163993633,-0.148063935492181,-0.0012000480019012912,0.0010800432017291483,-0.0001200048001954584,0.0013200528021100728,0.0015600624024976588,-0.0026401056042268073,0.11520921655308138,-1.2240979258751423,-3.5714857131430486,-0.20161612896393588,0.1008080644839664,-0.08640691241562794,0.25922073724208705,-0.07200576034529102,0.17281382482885813,-0.12238899999999986,-0.045749999999999985,-0.912609,0.08683400000000008,0.04503700000000001,-0.906068,0.20922299999999994,0.09078699999999999,0.006541000000000019,0.9973017445571575,0.9290256063269521,double,-0.906068
11,0.091667,step_decsent,0.08519318454523506,0.033957283417327296,-0.031077513798897217,-0.0896260769288974,0.10031738975507055,0.023876542177419798,0.0009599232061444692,0.0009599232061411388,0.00035997120230750636,0.0,0.0023998080153578424,-0.0019198464122889385,-3.500286781586991,1.9002350117989792,-4.0745895132599355,0.25917581090061936,-0.014413246410848284,0.057592512899323864,-0.15839366476002803,0.1007614126302117,0.08642418909741652,-0.12309099999999984,-0.04602500000000001,-0.912347,0.08612400000000009,0.044773999999999994,-0.905825,0.20921499999999993,0.090799,0.006522000000000028,0.9976592472780739,0.929657910377223,double,-0.905825
12,0.1,step_decsent,0.12660506420257137,0.04272170886835412,0.012120484819408217,-0.4951307703493036,0.2253114000576838,0.03552029254871067,-0.0006000240009639688,0.0003600144005763828,0.0012000480019212759,0.0,0.002520100804033014,-0.0022800912036470937,4.9696243438541075,1.0517731250482203,5.183967192884364,-0.18720115289912836,-0.07199193634522447,0.10081324848359159,0.0,0.014435712069503379,-0.043231104207146875,-0.1241509999999999,-0.046378,-0.9124380000000001,0.08506900000000006,0.044439000000000006,-0.9059450000000001,0.20921999999999996,0.09081700000000001,0.006492999999999971,0.9976847400090376,0.9294058525306992,double,-0.9059450000000001
13,0.108333,step_decsent,0.11508460338412732,0.0020400816032628416,-0.031081243249731123,0.436145308568738,0.07865663553003435,-0.05139460003413177,0.0014400576022922103,0.0001200048001921278,-0.0007200288011527668,0.0002400096003909172,0.001440057602303868,-0.003720148805952631,-1.382510598637232,-4.881990551433015,-5.184414744886521,0.24481958517414865,-0.028802304138276155,-0.23041843310620957,0.02880230413907565,-0.12961036862224254,-0.1728138248296578,-0.12509799999999993,-0.04639399999999999,-0.912185,0.08411200000000019,0.044434000000000015,-0.9057170000000001,0.20921000000000012,0.090828,0.006467999999999918,0.9973091675573047,0.9286594032539905,double,-0.9057170000000001
14,0.116667,step_decsent,0.08051355891529728,0.017758579313655997,-0.034317254619631414,-0.3035879477331881,-0.367824790345981,0.03268723779581683,0.0010799136069025348,-0.0007199424046083507,0.0032397408207342476,0.0013198944084453126,-0.0008399328053764092,-0.0017998560115175463,-4.1481934807811385,1.8860688397399976,-0.3882903011639415,-0.043213822340973734,-0.10078560172791909,0.47513434387893094,0.1295758109016552,-0.2735769627646118,0.23041670199605024,-0.1257600000000001,-0.046548000000000006,-0.911872,0.08345200000000008,0.044279,-0.9054460000000001,0.20921200000000018,0.090827,0.006425999999999932,0.994183249511144,0.9317653965854062,double,-0.9054460000000001
15,0.125,step_decsent,0.15624624984998384,0.032881315252609705,0.02688107524300998,0.22864495091861078,0.5028489908977922,-0.004155327640878586,0.002880115204611067,0.001200048001921278,0.0008400336013415638,0.0006000240009373234,0.000600024000960639,-0.0021600864034583005,9.088286443620138,1.8148009047106348,7.344093347250864,0.21603283303834558,0.2304080651061599,-0.2879763853825376,-0.08638790441713547,0.1728017288295991,-0.043229376207938854,-0.12703799999999998,-0.04681199999999999,-0.9120890000000001,0.08215499999999998,0.04401000000000001,-0.905688,0.20919299999999996,0.090822,0.006401000000000101,0.9946146197776526,0.9321220293600179,double,-0.905688
16,0.133333,step_decsent,0.1362054482179416,0.015480619224771137,-0.013680547221909208,-0.2467531450073862,-0.4721900266908618,0.163963086425102,-0.008040321612842571,-0.027961118444739082,0.04680187207488313,-0.0007200288011461039,0.00048001920076851036,-0.001800072002878583,-2.4049923955408894,-2.0881670500226273,-4.867589399366274,-1.310504838287967,-3.499479952797352,5.515641242474682,-0.15841267275692142,-0.01440115206913819,0.04320345620781437,-0.1282399999999999,-0.04717400000000002,-0.9115849999999999,0.08101399999999992,0.04388499999999999,-0.905589,0.20925399999999983,0.09105900000000001,0.00599599999999989,0.9081534167750918,0.9367112034527252,double,-0.905589
17,0.141667,step_decsent,0.12706983441323777,0.01031917446603974,-0.01415886729059764,0.31464779751401384,0.7946273554836933,-0.0906054844525833,0.001199904007660606,0.0011999040076805885,-0.001679865610752824,0.0002399808015427785,-0.0004799616030722354,-0.0019198464122889415,-1.0961859616875258,-0.6193238251417577,-0.057393816737273055,1.1087383753903528,3.4990427708686993,-5.817343134825542,0.11519193696770876,-0.11518848138237917,-0.014371779386892101,-0.129289,-0.047249999999999986,-0.9114810000000001,0.07995700000000006,0.043795000000000014,-0.9054870000000002,0.20924600000000004,0.091045,0.005993999999999944,0.9960203686220965,0.9367376162455285,double,-0.9054870000000002
18,0.15,step_decsent,0.13344533781351264,0.027241089643586316,0.003600144005757166,-0.26875217773967797,-0.8391885701064099,0.0830436228904861,0.004560182407294187,0.0014400576023055312,0.002520100804031349,-0.0006000240009639688,-0.002760110404415604,-0.0006000240009573072,0.7650910116734511,2.0307110497475773,2.131166602226664,0.4032495379375469,0.028819584138358636,0.504016130419317,-0.10080460848514901,-0.2736288013132565,0.15838502476078642,-0.130363,-0.04746499999999998,-0.9114900000000001,0.07884000000000002,0.043545000000000014,-0.905522,0.20920300000000003,0.09101,0.005968000000000084,0.9909907551265639,0.9355073237267428,double,-0.905522
19,0.158333,step_decsent,0.1189247569902752,0.010080403216128726,-0.025681027241108642,0.08091909070346698,0.3837632079036737,-0.05643588563307026,0.003480139205575031,0.0004800192007651796,0.0,-0.0007200288011461039,-0.009240369614785499,0.0008400336013415624,-1.742539400364506,-2.0593647458847446,-3.5138811048680885,-0.1296103686210435,-0.11520921655350423,-0.3024241934514997,-0.01440115206793892,-0.777662211732856,0.17281382482885735,-0.13132499999999991,-0.047545000000000004,-0.911276,0.0778430000000001,0.043384000000000006,-0.9053009999999999,0.20916800000000002,0.09092900000000001,0.005975000000000064,0.9941448533268007,0.9247393827990384,double,-0.9053009999999999
20,0.166667,step_decsent,0.15742740580755946,0.04115670746340409,0.028797696184307386,-0.2907399324496593,-0.28966013402350704,0.12404451192378736,0.0038396928245778704,-0.0004799616030689034,0.0014398848092167015,-0.0010799136069025348,-0.012838972882168932,0.0014398848092167015,4.619948262213129,3.728858201016958,6.536923857141346,0.04314298284171334,-0.11518848138157932,0.1727723553175786,-0.04318272207300582,-0.431797848258151,0.0719763868340699,-0.13260500000000008,-0.04789199999999999,-0.9115039999999999,0.07652199999999998,0.042934,-0.9055289999999999,0.20912700000000006,0.09082599999999999,0.005974999999999953,0.9931186902911364,0.9186424713267667,double,-0.9055289999999999
21,0.175,step_decsent,0.11640465618623759,0.001080043201729152,-0.038161526461036745,0.27628049254333825,0.1877279220323518,-0.23618324944447386,0.006600264010550386,0.000120004800192128,0.002760110404415613,-0.0021600864034649653,-0.002880115204607741,-0.001320052802110077,-4.922926871633502,-4.809392087084488,-8.035428134566697,0.3312817935884462,0.07199884834525776,0.1584334087602202,-0.12962592062431696,1.1951107257363753,-0.33120576158967785,-0.13352000000000008,-0.0479,-0.9111630000000002,0.07553399999999999,0.042900999999999995,-0.9052220000000001,0.20905400000000007,0.09080099999999999,0.005941000000000085,0.9880747588417584,0.9341991262415745,double,-0.9052220000000001
22,0.183333,step_decsent,0.14352574102963805,0.02952118084723341,-0.03132125285012199,-0.2777010545448952,0.29648667495734043,0.12078366599362106,0.00660026401057701,-0.0010800432017291483,0.0015600624025009894,-0.0022800912036470937,-0.0032401296051857795,0.0,3.254660367622758,3.4130730403821232,0.8208656679364876,3.1950721119995214e-12,-0.14401152069138068,-0.14401152069058235,-0.014401152067938114,-0.043203456207612914,0.15841267276011953,-0.13466099999999992,-0.048155,-0.9108890000000001,0.07431900000000002,0.042627999999999985,-0.904961,0.20897999999999994,0.09078299999999999,0.005928000000000044,0.9885540190184725,0.9341167062605618,double,-0.904961
23,0.191667,step_decsent,0.15538756899448583,0.013198944084473108,0.03071754259659632,0.09065502924199761,-0.0675175791025693,-0.17192534042035845,0.007199424046070185,-0.0021598272138250523,0.0010799136069091957,-0.001799856011530868,-0.0032397408207342476,-0.0008399328053797395,1.4233054913424243,-1.958511730592787,7.4440599288118845,0.07189345278295828,-0.12956371635420003,-0.05761324641130229,0.057623613164893846,4.6650402151665615e-05,-0.10078387393565379,-0.13589600000000002,-0.04828300000000002,-0.9111360000000001,0.07300899999999988,0.04249099999999999,-0.905224,0.2089049999999999,0.09077400000000001,0.005912000000000028,0.9873439986142827,0.9345464716334136,double,-0.905224
24,0.2,step_decsent,0.15336613464537252,0.02112084483379114,-0.03420136805473305,-0.0072098348397307,0.04302289290627925,-0.002577057127116873,0.008160326413051353,-0.00012000480018879679,0.0009600384015370207,0.002760110404428927,0.0030001200048015244,0.0049201968078739005,-0.24258182516660368,0.9506661165628255,-7.7905809013955745,0.11531289655360212,0.24478848117559748,-0.014385600068663731,0.5472178586295201,0.7488132515943557,0.6912432033185689,-0.13710599999999995,-0.048459999999999975,-0.910843,0.0717540000000001,0.042340000000000017,-0.904898,0.20886000000000005,0.09079999999999999,0.005944999999999978,0.9863041975152931,0.9299006304156252,double,-0.904898
25,0.208333,step_decsent,0.1770070802832256,0.04176167046682057,-0.015360614424565737,-0.3918924520064627,0.0686747756764611,0.04634232270200492,0.007800312012478328,-0.004800192007681789,0.004920196807873917,-0.0007200288011461063,0.0006000240009589745,0.0008400336013482268,2.8370269576206804,2.476998155889773,2.260980874855077,-0.043203456207011375,-0.5616449306963883,0.47523801828116,-0.41763341000540527,-0.288023041382762,-0.48963917034989607,-0.13851600000000008,-0.048848,-0.910674,0.07027300000000003,0.04199699999999999,-0.904763,0.2087890000000001,0.090845,0.005911,0.9826718719810472,0.9387922983955974,double,-0.904763
26,0.216667,step_decsent,0.11507079433644483,0.008279337652986041,-0.04379649628031802,0.6396925318993704,-0.060911217343541574,-0.4586213125017029,0.009959203263745522,-0.0035997120230384233,0.00227981761458978,-0.0023998080153744905,-0.0002399808015361169,-0.002519798416132558,-7.431759772831858,-4.017558532977501,-3.412032860061466,0.2590462264539467,0.14404607447124607,-0.3168201575814896,-0.20155738111691657,-0.100792512898379,-0.40314759029047054,-0.13939199999999996,-0.04894699999999999,-0.9102899999999998,0.06929399999999997,0.041926000000000005,-0.9044189999999999,0.20868599999999993,0.090873,0.00587099999999996,0.9819459742367833,0.93547668832341,double,-0.9044189999999999
27,0.225,step_decsent,0.17568702748108828,0.03492139685587582,0.022800912036497582,-0.37068204675506156,-0.19252399514869972,0.18854169015970834,0.010560422416907229,-0.004800192007681773,0.003240129605184114,-0.0010800432017191559,0.0015600624024959932,-0.003000120004799859,7.274238946915084,3.197174991346425,7.992008678365,0.0721491843467787,-0.14406336069162948,0.11524204855326213,0.15837811276315056,0.2160138250368545,-0.05764089627592714,-0.14076799999999978,-0.049278000000000016,-0.910453,0.06782100000000013,0.04164799999999999,-0.904634,0.2085889999999999,0.090926,0.005818999999999908,0.9799263297941114,0.9358936835642484,double,-0.904634
28,0.233333,step_decsent,0.16524660986441647,0.03156126245049625,-0.0009600384015370207,-0.3333218376831641,-0.4940397939157628,-0.04027009564369152,0.012000480019199436,-0.004680187207486314,0.00192007680306738,-0.0008400336013548856,0.0034801392055683693,-0.004200168006714473,-1.2529002300098158,-0.4032322579358656,-2.8514281096885377,0.17281382482805785,0.014401152069537784,-0.15841267276091842,0.02880230413587784,0.23041843310600918,-0.1440115206905812,-0.14204499999999998,-0.049579999999999985,-0.910429,0.06643699999999986,0.041414000000000006,-0.9046609999999999,0.20848199999999983,0.09099399999999999,0.005768000000000106,0.9782947543515141,0.9331218062422001,double,-0.9046609999999999
29,0.241667,step_decsent,0.154667626589858,0.0145188384929218,-0.07667386609071966,0.5415839555208013,0.6370417509892934,-0.19424627404924713,0.011879049676007853,-0.00611951043916434,0.0052795776337945894,-0.0015598752099880956,0.004919606431485417,-0.0052795776337945894,-1.2693764428315932,-2.0449272807264807,-9.08493252809969,-0.014570475544946433,-0.17270497140365124,0.4031078510591814,-0.08637408310933666,0.1727222493300997,-0.12951879374611455,-0.143235,-0.04975199999999999,-0.9097459999999999,0.06513499999999994,0.041333999999999996,-0.904066,0.20836999999999994,0.09108599999999999,0.005679999999999907,0.9760536381091124,0.9308948883585916,double,-0.904066
30,0.25,step_decsent,0.1605664226569135,-0.03804152166086781,-0.06816272650904853,0.991942374651624,-0.13227036790339944,-0.251149327099238,0.011280451218053333,-0.0076803072122895045,0.009960398415936598,-0.0013200528021100728,0.00444017760710539,-0.008160326413051353,0.7078838434003968,-6.307495518275479,1.0213776049047307,-0.07183468834207606,-0.18730310489921553,0.5617209626955484,0.028779840138968272,-0.05753376027601418,-0.3457036816580776,-0.14447900000000002,-0.04949899999999999,-0.909095,0.0637859999999999,0.04168800000000002,-0.9035660000000001,0.20826499999999992,0.091187,0.005528999999999895,0.9718414590043063,0.9290709601965552,double,-0.9035660000000001
31,0.258333,step_decsent,0.14220568822752844,0.024360974438978666,-0.06288251530060845,-0.2593697962645987,-0.3329297191289096,-0.028837191114261845,0.06324252970118151,-0.022800912036481002,-0.02196087843514277,-0.00036001440057305316,0.007800312012479993,-0.01008040321613209,-2.2033762665768775,7.4885990759446335,0.6336506910404525,6.2356988459292335,-1.8145451607094125,-3.8307064503875488,0.11520921655310477,0.40323225793527073,-0.2304184331070133,-0.14513700000000007,-0.04989199999999999,-0.9087540000000001,0.06259799999999993,0.041550000000000004,-0.9031260000000001,0.207735,0.091442,0.005627999999999966,0.8821279020111761,0.9224682675960765,double,-0.9031260000000001
32,0.266667,step_decsent,0.19018478521717616,0.0016798656107528183,-0.0724742020638407,-0.06128037903751242,0.07162056731739147,-0.06268926545740419,0.019918406527491044,-0.009119270458362451,-0.002039836813053663,0.0009599232061444676,0.00803935685145159,-0.012479001679864756,5.75703107627162,-2.7215153381600463,-1.1509103387607673,-5.198478902530648,1.6416656561217349,2.3903337679492545,0.15837984241870884,0.028683086029709332,-0.2878087909446442,-0.1465559999999999,-0.049982,-0.9081670000000001,0.06102099999999999,0.04160299999999999,-0.902626,0.2075769999999999,0.09158499999999999,0.005541000000000018,0.9633308733207405,0.9197976291935992,double,-0.902626
33,0.275,step_decsent,0.1317652706108291,0.0501620064802592,-0.002160086403464951,-0.18757983420485433,-0.3891808663577153,-0.14048852644892154,0.015720628825138687,-0.009480379215171387,-0.002280091203647086,0.0015600624025009842,0.004800192007680092,-0.0244809792391673,-7.010622177648724,5.8180896279258585,8.438031400501075,-0.5037534744212575,-0.043334784208440426,-0.02883168013841614,0.07201958434615555,-0.3887153298657729,-1.4402949189130558,-0.14752300000000007,-0.050479000000000024,-0.908168,0.05993599999999999,0.041224999999999984,-0.902812,0.20745900000000006,0.09170400000000001,0.005356000000000027,0.9691682623557863,0.9047802011487079,double,-0.902812
34,0.283333,step_decsent,0.1754470178807246,-0.021600864034563055,-0.09240369614783864,0.1500401805587262,0.1252189361681767,-0.2276662246696951,0.0129605184207365,-0.008160326413054711,0.002280091203647101,-0.001800072002865266,0.011040441617665783,-0.024000960038405614,5.242019353161598,-8.611888937336186,-10.829666355979109,-0.33122649758816675,0.1584126727609119,0.5472437786264489,-0.40323225793426837,0.7488599075945885,0.057604608275733576,-0.14887700000000015,-0.050366999999999995,-0.907379,0.05845900000000004,0.041497000000000006,-0.902242,0.2073360000000002,0.091864,0.005137000000000058,0.9741927669054458,0.9044970665585297,double,-0.902242
35,0.291667,step_decsent,0.17290616750660237,0.0004799616030722338,-0.07019438444925091,-0.08786760057557871,-0.3179913995943201,-0.12674753639454495,0.012359011279120011,-0.012119030477560582,0.0035997120230417535,-0.0002399808015427777,0.012359011279096698,-0.018118550515960175,-0.3048776546822911,2.6494871175468284,2.664904211493605,-0.0721750829873396,-0.4750064872217264,0.15834183098087967,0.18719596848121992,0.15821570211554048,0.7058326760793657,-0.150215,-0.05047199999999999,-0.9067639999999999,0.057015999999999956,0.041595999999999994,-0.9018079999999999,0.20723099999999994,0.09206799999999998,0.0049559999999999604,0.9705337299158339,0.9138839310639222,double,-0.9018079999999999
36,0.3,step_decsent,0.12228489139564186,0.027601104044162793,-0.05892235689427822,-0.19733746930976692,-0.16720731466600117,-0.11450921302420071,0.01176047041880856,-0.009240369614787193,0.004680187207482999,-0.001320052802110077,0.011760470418816886,-0.017520700828030703,-6.074796125160283,3.2546672796220597,1.352697414493306,-0.07182777634842837,0.34545312165767383,0.12966220862129466,-0.12961382462106108,-0.07182777634463146,0.07174483234483053,-0.15113599999999994,-0.05077900000000002,-0.906234,0.05598600000000009,0.04146399999999999,-0.9014629999999999,0.20712200000000003,0.092243,0.004771000000000081,0.9738807623374264,0.9170516780030609,double,-0.9014629999999999
37,0.308333,step_decsent,0.14604584183367558,0.010680427217085998,-0.05208208328333657,0.13953539540174104,-0.3004914669196232,-0.2983281712066606,-0.037441497659917035,0.0016800672026897807,0.01908076323053157,-0.002400096003855867,0.007920316812672067,-0.008520340813631039,2.851428109688422,-2.0305624417468766,0.8208656679397124,-5.90447234834098,1.310504838290763,1.7281382482957532,-0.12961036862423922,-0.46083686621202485,1.0800864051841625,-0.15266500000000005,-0.05085399999999998,-0.9056409999999999,0.05474899999999994,0.041441000000000006,-0.9010999999999999,0.207414,0.09229499999999999,0.004541000000000017,0.9299055419395701,0.9347932489463233,double,-0.9010999999999999
38,0.316667,step_decsent,0.15622750179984662,-0.008759299256058334,-0.05063594912406105,-0.21841780019075777,0.16971062711058785,-0.21550013466002177,0.03611711063116252,0.03443724502039637,-0.024238060955121325,0.0,0.015958723302136893,-0.0158387329013705,1.2217014598237461,-2.332580570331707,0.1735222173356763,8.826326888778494,3.930546894373263,-5.197843074832391,0.28798848138419497,0.9645316162064881,-0.8781367995847736,-0.15366599999999986,-0.05049400000000001,-0.905421,0.05344700000000002,0.041647,-0.90081,0.20711299999999988,0.09214100000000001,0.004611000000000032,0.9075359961359943,0.9164160716795768,double,-0.90081
39,0.325,step_decsent,0.1222848913956677,0.03264130565222529,0.006960278411150039,-0.21590572871440347,-0.3673153891446097,-0.05647621326849998,0.010440417616698412,-0.024600984039359428,0.07140285611424574,-0.00204008160325617,0.01728069122764966,-0.020400816032641638,-4.073276179548636,4.968271319846808,6.911823777176389,-3.081326414792272,-7.084870882005946,11.477369143089723,-0.24481958517414631,0.15864249676140188,-0.5474718746275193,-0.154598,-0.05097099999999999,-0.904884,0.052410999999999985,0.041519000000000014,-0.9010380000000001,0.207009,0.09249,0.003845999999999905,0.8729328852208457,0.9168504064732507,double,-0.9010380000000001
40,0.333333,step_decsent,0.1441257650306025,0.015720628825155444,-0.03828153126127218,-0.04506533371293528,-0.48437968471302445,-0.1647716913854244,0.0106804272170894,-0.03132125285011543,0.19536781471258452,-0.003360134405366261,0.013200528021120756,-0.021720868834751852,2.6210096765792468,-2.0305624417460564,-5.429234330063882,0.028802304139084196,-0.8064645158713571,14.876390087404188,-0.15841267276012172,-0.48963917035028376,-0.15841267276013643,-0.15571000000000002,-0.05136300000000002,-0.9029369999999999,0.05118200000000006,0.04149799999999999,-0.9008999999999999,0.20689200000000008,0.09286100000000001,0.0020369999999999555,0.6697489362822616,0.9368989097639209,double,-0.9008999999999999
41,0.341667,step_decsent,0.09743220542357021,0.033477321814255,0.02471802255821338,-0.02068166784587413,-0.5833105309704535,-0.12384242883536013,-0.002879769618433403,0.017398608111351823,0.0773938084953211,-0.0019198464122889352,0.01295896328293699,-0.021958243340531383,-5.6027789305294275,2.1306327080752987,7.55934171100138,-1.6270934527865117,5.845915642124695,-14.1557482862087,0.17282073351059807,-0.02898544974607215,-0.02848266208057729,-0.15654600000000007,-0.051497000000000015,-0.902498,0.05035400000000001,0.04132699999999999,-0.901289,0.20690000000000008,0.092824,0.0012090000000000156,0.8677039700910819,0.9452946340239787,double,-0.901289
42,0.35,step_decsent,0.10332413296531895,0.003240129605184125,-0.020160806432277502,-0.2126069414937657,-0.21891482464501122,-0.17361151074815745,0.024000960038398952,-0.006240249609983994,0.22296891875675398,-0.001320052802110077,0.01236049441977586,-0.02184087363494731,0.7070595873933456,-3.6286082094168908,-5.385674905855153,3.22581659148355,-2.8367763976162097,17.469712019852782,0.071978112345957,-0.07181913634478965,0.014084928067211474,-0.1572070000000001,-0.05157600000000001,-0.9004719999999999,0.049482000000000026,0.04140299999999998,-0.901303,0.20668900000000012,0.09297899999999999,0.0008310000000000262,0.6177837226407467,0.9581156313021126,double,-0.9004719999999999
43,0.358333,step_decsent,0.12228489139564105,0.034081363254527486,-0.07392295691827042,-0.02615331878417429,0.019981303535902797,-0.3558623472434123,0.024480979239180623,-0.028201128045123244,0.1542061682467269,-0.0012000480019279335,0.008760350414016958,-0.02028081123244618,2.27538202691972,3.701096081764458,-6.451716126964201,0.057604608278131374,-2.635410828649845,-8.25186013560864,0.014401152067939887,-0.43203456207354934,0.18721497689921085,-0.15802199999999988,-0.052095,-0.898571,0.04845300000000008,0.041192000000000006,-0.9008559999999999,0.20647499999999996,0.09328700000000001,0.0022849999999998705,0.7127105283872213,0.9631257708619401,double,-0.898571
44,0.366667,step_decsent,0.09779217662587106,0.030357571394288813,0.022678185745139735,-0.29577032017823873,-0.3579778567860666,-0.19178044389626264,0.03659707223422119,-0.10319174466042702,0.22954163666906602,-0.0011999040076872453,0.008879289656827999,-0.018238540916731563,-2.9388906611195074,-0.4468192776864254,11.59120982282338,1.4538148542165297,-8.998154141505124,9.039533048036843,1.7277926648456268e-05,0.0142715674119319,0.24505283365906103,-0.1585319999999999,-0.053208000000000005,-0.896847,0.047628000000000004,0.04101300000000001,-0.901197,0.2061599999999999,0.09422100000000001,0.004350000000000076,0.5326379783372465,0.9661323684024928,double,-0.896847
45,0.375,step_decsent,0.14388575543021156,0.030961238449539043,-0.027361094443765215,-0.520035559015824,-0.19938444590285587,-0.2459762819989012,0.04692187687507875,-0.0669626785071408,0.17148685947438103,-0.002280091203647101,0.0075603024120957365,-0.018840753630140778,5.5314507145494565,0.07244294434780171,-6.004953820821442,1.2390261179476276,4.347661844868152,-6.9668519374397135,-0.12962764862112786,-0.15828480075990223,-0.0722684163457598,-0.15933999999999982,-0.054024000000000016,-0.89519,0.04641000000000006,0.04081799999999999,-0.9011260000000001,0.20574999999999988,0.09484200000000001,0.005936000000000052,0.6240022565194798,0.965952199213991,double,-0.89519
46,0.383333,step_decsent,0.09096363854554641,0.03000120004800202,-0.002520100804038019,-0.17640507338640105,0.15662409176331896,-0.2988854131367774,0.0602424096963883,-0.077763110524419,0.22572902916116294,-0.0016800672026831304,0.013800552022081396,-0.017400696027841906,-6.3509080624823335,-0.11520921655310508,2.9810384783064032,1.598527879672337,-1.2961036862208366,6.509320735243255,0.0720057603460905,0.7488599075945849,0.17281382482885824,-0.15959599999999985,-0.054922,-0.8932880000000001,0.04563800000000007,0.040683,-0.90125,0.20523399999999992,0.095605,0.007961999999999914,0.5099945311671342,0.9628792479357697,double,-0.8932880000000001
47,0.391667,step_decsent,0.12131029517639719,0.04511639068874335,-0.05723542116631392,-0.27942898403419547,-0.4667166296858612,-0.25182338953623884,0.08735301175903998,-0.04703623710103229,0.36237101031917685,0.0010799136069025348,0.011759059275258072,-0.014398848092153693,3.641307491102801,1.8136777826663448,-6.565313218415628,3.253012006557674,3.686929856417889,16.395726080875182,0.3311712034540032,-0.2449595328561702,0.36019293684763737,-0.1598790000000001,-0.05568999999999999,-0.889791,0.0446359999999999,0.04040500000000001,-0.9008929999999999,0.204515,0.096095,0.011101999999999945,0.38898,0.9689637973570324,single,-0.889791
48,0.4,step_decsent,0.03432137285491507,0.037201488059522794,0.07572302892116231,-0.21071580395562495,-0.02813707782197663,-0.23774405982277205,0.08004320172806557,-0.09096363854554249,0.31081243249729634,0.0014400576023188495,0.011040441617664045,-0.017160686427457536,-10.439088242107495,-0.9498263085588055,15.955652236586545,-0.8772122922086131,-5.2714990333025336,-6.187276829698822,0.043219008210286,-0.08623756841401949,-0.3314338575907634,-0.15949800000000014,-0.056758,-0.887832,0.04436200000000001,0.040187,-0.901667,0.20386000000000015,0.096945,0.013835000000000042,0.36165000000000014,0.9659064084030538,single,-0.887832
49,0.408333,step_decsent,0.16152646105845106,0.053762150486020045,-0.04020160806431958,-0.3033320912752187,-0.15201556667477087,-0.23069412285907487,0.0972038881555504,-0.11712468498740035,0.40009600384015503,0.005640225609013362,0.00624024960998566,-0.014520580823230832,15.265221193272087,1.9873589855390965,-13.911512898773813,2.059364745888019,-3.139451151068994,10.714457139428648,0.5040403224162393,-0.5760460827647182,0.31682534552102604,-0.160034,-0.05818200000000001,-0.884163,0.04306299999999985,0.03979100000000001,-0.9014530000000001,0.20309699999999986,0.09797300000000002,0.017290000000000028,0.3271000000000003,0.9720317577142557,single,-0.884163
50,0.416667,step_decsent,0.0899928005759306,0.04595632349411976,-0.0031197504199761807,-0.07792406725219109,-0.10354243996448091,-0.18120901112067578,0.12119030477561248,-0.1046316294696404,0.329853611711063,0.005999520038409583,0.01775857931365433,-0.012479001679864756,-8.58335258969527,-0.9366243090833067,4.449466959964406,2.878139743227989,1.499046738392121,-8.428412782468442,0.04311188257694036,1.3820889973204538,0.24496989961195992,-0.15977399999999986,-0.05943699999999999,-0.881388,0.04236300000000015,0.03955600000000001,-0.9015309999999999,0.202137,0.098993,0.02014299999999991,0.29857000000000034,0.96246901787794,single,-0.881388
51,0.425,step_decsent,0.07932317292692,0.030241209648386277,0.00852034081365108,-0.6797534965990838,0.09231367855678846,-0.47602367750927743,0.16872674906996543,-0.1692067682707306,0.38629545181807695,0.009840393615734511,0.01716068642745765,-0.009600384015363578,-1.280406534142642,-1.8858890970519047,1.3968668227081833,5.704601499382344,-7.749326629196013,6.773291744511474,0.4609232662096409,-0.0717500163442557,0.34544793765764853,-0.15902899999999986,-0.06109899999999999,-0.8782400000000001,0.04178400000000004,0.03944700000000001,-0.9016820000000001,0.2008129999999999,0.100546,0.023441999999999963,0.2655799999999998,0.9633526612146801,single,-0.8782400000000001
52,0.433333,step_decsent,0.06696267850714702,0.037921516860675554,0.004800192007658442,-0.2759620957397543,-0.16023779305978003,-0.14206060008426707,0.20952838113524758,-0.13416536661466497,0.35593423736948954,0.00972038881555231,0.017040681627263743,-0.011160446417857836,-1.483318663119276,0.9216737324240064,-0.4464357141476807,4.896391703501977,4.205136404184027,-3.643491473489414,-0.01440115206794686,-0.014401152069351627,-0.18721497689838607,-0.1578409999999999,-0.062533,-0.8753139999999999,0.04130699999999998,0.03927299999999999,-0.9018149999999999,0.19914799999999988,0.101806,0.026500999999999997,0.23499000000000003,0.9623825412395774,single,-0.8753139999999999
53,0.441667,step_decsent,0.09059275257980147,0.03395728341732746,0.03419726421887357,-0.48366377928973014,-0.2079109726655529,-0.34079885970975793,0.25389968802496027,-0.2898968082553414,0.5254379649628086,0.00947924166066003,0.006839452843772716,-0.003839692824571235,2.835382058153898,-0.47566995960500535,3.5273664760277534,5.32413089629385,-18.68627809463371,20.338820205581957,-0.028935343759573014,-1.2240495300565257,0.8784201575817906,-0.15647999999999995,-0.06523200000000001,-0.87122,0.04063099999999986,0.039046999999999984,-0.9021319999999999,0.19711099999999981,0.104279,0.03091199999999994,0.19088000000000005,0.9794940808917654,single,-0.87122
54,0.45,step_decsent,0.08328333133324967,0.0014400576023021955,0.012600504020163363,-0.23562011444852485,-0.09036622709520674,-0.017585865935616132,0.30697227889113493,-0.2198487939517572,0.44737789511580384,0.006000240009613022,0.009480379215169721,-0.0034801392055683576,-0.8771656362116612,-3.902223186730485,-2.591714892440912,6.368965662567436,8.406097960348486,-9.367583084963929,-0.41749689800155926,0.31692384152130015,0.04314816020675338,-0.1546160000000001,-0.067076,-0.867597,0.039986999999999995,0.03911400000000001,-0.902266,0.19460300000000008,0.10619,0.03466900000000006,0.15330999999999995,0.980421678717512,single,-0.867597
55,0.458333,step_decsent,0.15024600984039768,0.000480019200768512,-0.0018000720028919124,-0.5012550932761599,-0.22396107270293253,-0.2300459089287473,0.3243729749190122,-0.28693147725909157,0.42565702628104835,-0.00036001440057305316,0.004680187207487995,-0.006960278411136762,8.035842854571964,-0.11520921655270443,-1.728138248296569,2.088167050027276,-8.050244006640412,-2.6066085245116457,-0.7632610596647175,-0.5760460827651191,-0.41763341000460974,-0.153165,-0.069471,-0.8640349999999999,0.03873199999999999,0.039149,-0.9023089999999999,0.19189699999999998,0.10862000000000001,0.03827400000000003,0.11726000000000025,0.9860080143746609,single,-0.8640349999999999
56,0.466667,step_decsent,0.07751379889607916,0.011879049676024465,0.031677465802740785,-0.221184840985889,-0.027372391492010355,-0.07190534415749245,0.39272858171344566,-0.2697384209263256,0.3664506839452842,-0.0020398368130736455,-0.003959683225342598,-0.004919606431487066,-8.727167139947017,1.3677742350919058,4.016983178021679,8.202016653999689,2.0630017197943302,-7.104192744872103,-0.2015625644949113,-1.0367015158184048,0.2448610486740694,-0.15053800000000006,-0.07181799999999999,-0.861245,0.03806899999999991,0.03901700000000001,-0.902614,0.18860699999999997,0.110835,0.04136899999999999,0.08631000000000011,0.988939239413615,single,-0.861245
57,0.475,step_decsent,0.06348253930157242,-0.029881195247809893,0.04404176167046767,-0.4368767950521152,0.011985052533446821,0.027145668415170496,0.45889835593424444,-0.35281411256450323,0.39217568702748123,0.004080163206539014,-0.0009600384015353585,-0.001920076803074048,-1.683818504080976,-5.011429848054058,1.4837748551214351,7.9406905341172385,-9.969481775852374,3.0871238548178463,0.734429379528702,0.3599717777279788,0.3599579537277121,-0.147243,-0.07450899999999999,-0.858344,0.037573999999999996,0.039258000000000015,-0.902997,0.184817,0.11376700000000001,0.044653000000000054,0.05347000000000002,0.9923159435528057,single,-0.858344
58,0.483333,step_decsent,0.031921276851085846,-0.00252010080403134,-0.03612144485778032,-0.09267900800099903,0.11050741991886313,-0.44765561016464345,0.5135005400215893,-0.400696027841113,0.37549501980079625,0.0033601344053662383,-0.0022800912036487512,-0.0007200288011461016,-3.7875029941781406,3.283462671760283,-9.619969582173006,6.552524191449013,-5.746059675580174,-2.001760137607694,-0.08640691241722938,-0.15841267276051688,0.14401152069218068,-0.1432300000000002,-0.07782700000000001,-0.8549140000000001,0.037335999999999814,0.03926,-0.9027020000000001,0.180566,0.11708700000000001,0.04778800000000005,0.02212000000000003,0.993126588952597,single,-0.8549140000000001
59,0.491667,step_decsent,0.07835373170146556,-0.03923686105111515,-0.003599712023061736,-0.1738926553921298,0.1348848258686831,0.13089252736685394,0.5368370530357673,-0.4712023038156926,0.35913126949843593,0.0026397888169172683,-0.004679625629949284,0.0021598272138183914,5.5714488661362696,-4.405658776947898,3.9022957565057057,2.8001575490974355,-8.460076310844675,-1.963492956846688,-0.08643455584940836,-0.2879210974682662,0.34555507738954766,-0.13940900000000012,-0.081427,-0.851891,0.03670499999999999,0.039548,-0.9026539999999998,0.1761140000000001,0.120975,0.05076299999999989,0.0,0.9903488292840323,single,-0.851891
60,0.5,step_decsent,0.10536421456857513,-0.060362414496580426,0.03276131045244095,-0.30028066071746395,-0.2842165673754826,0.19301510126649768,0.5694227769110778,-0.5171006840273632,0.3187327493099722,0.001800072002865266,-0.0015600624024959984,0.00360014400576384,3.241387599557138,-2.535167820168646,4.3634972369498115,3.910443282768574,-5.508025946438342,-4.848016343269391,-0.10077004848818007,0.3743625617968671,0.17284492883060748,-0.13554200000000005,-0.085233,-0.8495080000000002,0.03584199999999993,0.040038000000000004,-0.9028970000000001,0.17138399999999998,0.12527100000000002,0.05338899999999991,0.0,0.9928052699113599,single,-0.8495080000000002
61,0.508333,step_decsent,0.08700348013918896,-0.05760230409216443,0.07884315372613764,-0.769197085617919,0.12865315502153735,0.0525810367371627,0.5838233529341292,-0.5294611784471323,0.29977199087963396,0.0007200288011461016,-0.0003600144005763816,0.00588023520940424,-2.2033762665769943,0.3312264975898218,5.530042394539361,1.7281382482960983,-1.483318663118805,-2.275382026921655,-0.12961036862104405,0.14401152069118106,0.2736218893124193,-0.1314019999999998,-0.08916499999999997,-0.847667,0.035123000000000015,0.04051500000000001,-0.903505,0.1665249999999998,0.12967999999999996,0.055838000000000054,0.0,0.9901081939126619,single,-0.847667
62,0.516667,step_decsent,-0.0826733861291029,-0.11051115910726933,0.20218382529397003,-0.11121870182458736,-0.5314711391077374,-0.1825099783187092,0.5835133189344693,-0.5542356611471162,0.2594192464602843,-0.007319414446828302,0.004199664026877078,0.022318214542839037,-20.359595184580375,-6.3485547174352295,14.799696612410978,-0.03720110387087827,-2.9727001079894513,-4.84194197496399,-0.9646560172755518,0.5471176418830677,1.9723997280339445,-0.12585000000000002,-0.09286300000000003,-0.8471899999999999,0.03575100000000009,0.04147099999999998,-0.9050039999999999,0.1616010000000001,0.134334,0.05781400000000003,0.0,0.9602328406651335,single,-0.8471899999999999
63,0.525,step_decsent,0.10320412816513612,-0.10728429137165513,0.12108484339373976,-1.369157073789811,-0.12778590053959524,0.016385162466108896,0.6072242889715641,-0.5877835113404462,0.2599303972158877,0.006360254410159426,-0.0026401056042234675,0.008640345613826497,22.306193963067113,0.38723961785841704,-9.73226711871234,2.845430221660227,-4.0259030593219505,0.06134054429417632,1.6416259278756353,-0.8208051879395797,-1.641409927878613,-0.12165000000000004,-0.09686699999999998,-0.846033,0.034943999999999864,0.04234299999999999,-0.9059409999999999,0.1565939999999999,0.13920999999999997,0.05990799999999985,0.0,0.9815851383923975,single,-0.846033
64,0.533333,step_decsent,0.106444257770295,-0.09984399375975123,0.042121684867393906,-0.14248589505971157,-0.11745481931423792,0.34639060636933855,0.6209048361934548,-0.6222248889955716,0.23028921156846532,0.006600264010577076,-0.003480139205568404,0.006960278411136808,0.38883110586330316,0.8928714282856077,-9.47595806148405,1.641731335880336,-4.133130643840845,-3.557084561073158,0.028802304142284043,-0.10080806448397267,-0.20161612896792327,-0.11736299999999988,-0.10122000000000003,-0.844465,0.03411200000000014,0.04314599999999999,-0.906234,0.15147500000000003,0.14436600000000002,0.06176899999999996,0.0,0.9829934384019325,single,-0.844465
65,0.541667,step_decsent,0.05027597792178618,-0.10643148548116056,0.0335973122150295,-0.2383225195505612,0.27449374680030963,0.07347445312682561,0.6533477321814112,-0.6487880969522383,0.22606191504679415,0.03335733141348672,-0.023638108951284046,-0.007559395248384302,-6.7396544094682485,-0.7904357717073777,-1.022842890852453,3.8928360916673994,-3.1873299684025036,-0.5072350038002326,3.210591241049849,-2.4187628684563824,-1.7422214614256057,-0.11233700000000013,-0.10574000000000003,-0.8428610000000001,0.03397099999999997,0.043835999999999986,-0.906577,0.1463080000000001,0.14957600000000001,0.06371599999999988,0.0,0.9307056157008525,single,-0.8428610000000001
66,0.55,step_decsent,0.1347653906156223,-0.07296291851674006,0.031921276851085846,-0.35509828545478467,-0.44283196090401084,0.04982309459152557,0.6345853834153291,-0.6612264490579547,0.182287291491658,0.007680307212269494,-0.0019200768030707043,0.0063602544101794105,10.139135088663839,4.016388691278095,-0.20113228896479604,-2.2515719148064313,-1.4926619591643309,-5.253164953214444,-3.081366158792406,2.6062681085099304,1.6704247760186794,-0.10817200000000016,-0.11064199999999999,-0.8416080000000001,0.03291199999999983,0.044427999999999995,-0.9067900000000001,0.141084,0.15506999999999999,0.06518199999999996,0.0,0.9830747845929729,single,-0.8416080000000001
67,0.558333,step_decsent,0.017520700828030818,-0.09372374894995933,0.06384255370214591,-0.01414477045250756,0.3042037572152054,-0.07202888932387663,0.6175447017880885,-0.6912276491059757,0.1250450018000783,0.005640225609040045,-0.0010800432017291591,0.006840273610941349,-14.069925571533968,-2.491399307958654,3.8307064503852577,-2.0449635938126427,-3.600288017283242,-6.869349536971107,-0.24481958517094285,0.10080806448356568,0.05760460827576415,-0.10317200000000004,-0.11562100000000003,-0.8410980000000001,0.03281299999999998,0.04519999999999999,-0.9072650000000001,0.13598500000000002,0.16082100000000002,0.06616699999999998,0.0,0.985114512911432,single,-0.8410980000000001
68,0.566667,step_decsent,0.1394288456923298,-0.06647468202543733,0.08099352051835565,-0.5661636961998189,-0.3330384799725229,0.1355583701283735,0.6316294696424161,-0.703023758099347,0.1015118790496702,0.0059995200383829005,-0.0010799136069108537,0.005399568034559264,14.627807159143035,3.2696264608257493,2.0579513818346067,1.6900369395641281,-1.4154198456169027,-2.8237488301425393,0.04311188257053664,1.555013418592209e-05,-0.17287083949868898,-0.09906999999999999,-0.12092600000000003,-0.8409270000000001,0.03170099999999998,0.045744999999999994,-0.9078950000000001,0.13077099999999997,0.166671,0.06696800000000003,0.0,0.986427582192674,single,-0.8409270000000001
69,0.575,step_decsent,-0.03156126245048657,-0.09252370094804137,0.04692187687507906,0.12631298986443626,0.5363253579330396,-0.3973541828970782,0.62702508100325,-0.7232689307572308,0.06540261610464691,0.007680307212296243,-0.002640105604225168,0.0044401776071054345,-20.519633762488652,-3.1260073110049538,-4.088760787624733,-0.5525487386494725,-2.4295178996620557,-4.333284884798226,0.20170252897076177,-0.18723052889887537,-0.11513145655272268,-0.09358200000000005,-0.12618199999999996,-0.8407730000000001,0.032027999999999945,0.04649400000000001,-0.9082490000000001,0.12561,0.17267599999999997,0.06747599999999998,0.0,0.9845734307786,single,-0.8407730000000001
70,0.583333,step_decsent,0.11448457938316277,-0.07920316812672401,0.048721948877943684,-0.6411844853520089,-0.18292515957566652,0.03713864009376696,0.639625585023405,-0.7382695307812337,0.033121324852993794,0.005160206408258139,-0.000840033601343225,0.004200168006721121,17.526202068120572,1.5985278796732632,0.21601728103499548,1.5121209672572842,-1.800144008640691,-3.873909906594622,-0.30242419345230936,0.21601728103707374,-0.028802304138283052,-0.0892059999999999,-0.131674,-0.840903,0.03111700000000006,0.04714700000000001,-0.90862,0.12032299999999996,0.178821,0.06771700000000003,0.0,0.988822791305531,single,-0.840903
71,0.591667,step_decsent,0.19702423806097083,-0.06707463402927762,0.05639548836092715,-0.888235178528561,-0.23499976265293882,0.3065164457065293,0.6612670986321096,-0.7489800815934632,0.02027837772978509,0.0023998080153478313,-0.0059995200383962215,0.00035997120230084253,9.903966723998971,1.4553076670801899,0.9207510778717791,2.59677389113324,-1.2851632844047767,-1.5410303723552443,-0.3312213094444788,-0.6190888453387278,-0.46078675359014265,-0.085337,-0.13735699999999998,-0.841204,0.029494999999999827,0.04765600000000002,-0.909087,0.11483199999999982,0.18501299999999998,0.06788300000000003,0.0,0.989213833645187,single,-0.841204
72,0.6,step_decsent,-0.02736109444379204,-0.09168366734669313,0.05052202088083626,0.07171986788676771,0.5581191710020394,-0.25642374505016746,0.6639865594623858,-0.7760710428417208,-0.008880355214210869,0.010080403216152141,-0.003480139205568404,0.0036001440057638638,-26.92731699325152,-2.9532021261749355,-0.7048442913825687,0.32634835356728825,-3.2510453916066067,-3.4991879207963787,0.9217082924282227,0.3023377934510789,0.3888362898671608,-0.07957599999999987,-0.14306,-0.841699,0.02980700000000014,0.048391,-0.909478,0.10938300000000001,0.19145099999999998,0.06777900000000003,0.0,0.9812407848754137,single,-0.841699
73,0.608333,step_decsent,0.06612264490579214,-0.11208448337933355,0.07596303852155323,-0.21413254258335182,0.23666123253255533,0.156888858195334,0.6660266410656331,-0.7941917676707051,-0.037081483259330666,0.006240249609977291,0.0073202928117114315,0.0037201488059459505,11.218497461848528,-2.4481958517509104,3.05304423865557,0.2448195851730834,-2.1745739624366047,-3.384270736243811,-0.46083686621562875,1.2961036862210238,0.01440115206793307,-0.0745769999999999,-0.14874400000000002,-0.8426410000000001,0.029308000000000112,0.049385999999999985,-0.9100800000000001,0.103885,0.19813,0.06743900000000003,0.0,0.982810944277891,single,-0.8426410000000001
74,0.616667,step_decsent,0.13534917206623762,-0.08351331893448598,-0.03287736981042825,-0.18847266153678174,-0.2486291465128746,-0.03712458741598972,0.6754259659227161,-0.8094552435805151,-0.05207583393328443,0.007559395248371081,0.015838732901368835,-0.010199184065275046,8.306518737754484,3.4282654721439565,-13.05980421550061,1.127828756549436,-1.831470591529892,-1.7991781466227321,0.15828481382214993,1.0221310402756723,-1.6701863296401578,-0.07007600000000003,-0.154794,-0.8428009999999999,0.028243000000000018,0.050213999999999995,-0.909891,0.09831900000000005,0.20500799999999997,0.0670900000000001,0.0,0.9661689954808315,single,-0.8428009999999999
75,0.625,step_decsent,0.08088323532942045,-0.09396375855034234,0.015360614424592281,-0.14439810775095085,0.14616770887953998,0.07152026270234967,0.6781471258850413,-0.8214328573142946,-0.0872434897395932,0.023040921636861774,-0.010080403216128691,-0.03576143045721394,-6.5361738553722475,-1.2541029180194785,5.788789659788831,0.32655225756933115,-1.4373711428992475,-4.220287508257365,1.857857480918112,-3.1104207509297277,-3.067592270723483,-0.06509900000000002,-0.16085600000000003,-0.8436560000000002,0.027760999999999925,0.050913,-0.910317,0.09285999999999994,0.21176900000000004,0.06666099999999986,0.0,0.9271344749399071,single,-0.8436560000000002
76,0.633333,step_decsent,0.01140045601823543,-0.1362054482179278,0.10632425297011144,-0.7808034713762362,0.36022458663408,0.08560229184902846,0.6795871834873335,-0.8252730109204294,-0.09876395055801743,0.007560302412114006,-0.006840273610944588,-0.012840513620547618,-8.338267048024088,-5.069205528331367,10.916073268392989,0.17281382482805102,-0.4608368662108185,-1.382510598634847,-1.857748616914401,0.38883110586632535,2.750620045201755,-0.059531,-0.166598,-0.845365,0.027729000000000115,0.051990999999999996,-0.9113100000000001,0.08726000000000012,0.21858899999999998,0.06594500000000003,0.0,0.9726734609219316,single,-0.845365
77,0.641667,step_decsent,0.08939284857211421,-0.09983201343892538,0.006119510439167692,0.06799299304854048,0.1960604962127629,0.04669573600655346,0.6735061195104538,-0.8378929685625218,-0.11723062155027732,-0.03551715862731889,0.02399808015358687,-0.043436525077990826,9.358338439390357,4.364463016438999,-12.023607215136106,-0.7296693036812719,-1.5142737751490907,-2.2158232532109423,-5.168881814186842,3.700306427229618,-3.6712276766790715,-0.054662999999999906,-0.172749,-0.8463930000000001,0.026688000000000045,0.05302299999999999,-0.9117230000000001,0.08135099999999995,0.225772,0.06533,0.0,0.8982908815561227,single,-0.8463930000000001
78,0.65,step_decsent,0.12456498259931478,-0.09912396495859714,-0.016560662426493566,0.06481024769144064,-0.1087052779838842,0.13366801542373413,0.6571462858514356,-0.8088323532941246,-0.18276731069242652,0.0007200288011461016,0.0004800192007685088,-0.002760110404415595,4.220824916260701,0.08496921640804456,-2.7217296130638617,-1.9632585694249485,3.4874133287407996,-7.864717285749301,4.348636436873256,-2.822280205546414,4.881365015429624,-0.050224999999999964,-0.178663,-0.8477780000000001,0.0256559999999999,0.053852999999999984,-0.9116080000000001,0.07588099999999987,0.23251599999999997,0.06382999999999994,0.0,0.9951790188434795,single,-0.8477780000000001
79,0.658333,step_decsent,0.045001800072004994,-0.12840513620545124,0.008400336013415707,-0.2521760736900302,0.07627353564604498,0.05032709431538643,0.6697467898715813,-0.8217928717148786,-0.18228729149166045,0.004800192007685152,0.000600024000960644,-0.0007200288011527728,-9.547963821830136,-3.513881104866719,2.995439630374355,1.512120967256185,-1.5553244234674286,0.057604608276259815,0.48963917035150456,0.014401152069139122,0.2448195851749479,-0.04501900000000014,-0.184441,-0.8493669999999999,0.025320999999999927,0.054928000000000005,-0.9116839999999999,0.07034000000000007,0.239369,0.06231700000000007,0.0,0.9918486003950817,single,-0.8493669999999999
80,0.666667,step_decsent,0.055915526757841595,-0.14182865370770092,0.028197744180490217,-0.08545780743910888,0.02993477469477703,0.25353503612678624,0.6733861291096868,-0.8399328053755643,-0.1663066954643614,0.004199664026878687,0.0021598272138217073,0.006359491240697064,1.3095424389052697,-1.6106932448103648,2.375498940133712,0.436685773710753,-2.176617909849476,1.9175181218261272,-0.07205759308932806,0.18716141263031574,0.8494744470662087,-0.039872999999999825,-0.190259,-0.8509880000000001,0.02489000000000008,0.05612799999999998,-0.9118660000000001,0.0647629999999999,0.246387,0.06087799999999999,0.0,0.9867980262026292,single,-0.8509880000000001
81,0.675,step_decsent,0.07476299051962529,-0.0992439697587926,-0.006840273610967904,-0.04346713210079518,0.01283287652382062,-0.02839900888196892,0.6689067562702442,-0.8035521420856776,-0.21072842913716885,-0.0009600384015370176,0.0002400096003842544,0.0044401776071053755,2.261786122858948,5.110366488528519,-4.204730324187924,-0.5375462425828074,4.365854228955538,-5.3308212735878175,-0.619189058972241,-0.2303873291056576,-0.23032684910496584,-0.0349219999999999,-0.19612799999999997,-0.852687,0.02425900000000003,0.05695700000000001,-0.9117719999999999,0.05918099999999993,0.253085,0.05908499999999994,0.0,0.9924181401571942,single,-0.852687
82,0.683333,step_decsent,0.16932677307093053,-0.1131645265810642,-0.04836193447737128,-0.13701474823545068,-0.3404128705765786,0.1409051040099001,0.6597863914556646,-0.8666746669866882,-0.217568702748113,-0.0006000240009639748,0.0003600144005763864,-0.005880235209404319,11.348107830469951,-1.6705336400182078,-4.982798615913087,-1.0944875572518475,-7.5750059883608705,-0.8208656679400215,0.04320345620701381,0.014401152069138735,-1.2384990779442924,-0.030834999999999946,-0.20240699999999998,-0.854097,0.022842999999999947,0.05790300000000001,-0.911418,0.05367799999999989,0.26031,0.057320999999999955,0.0,0.9901304613852812,single,-0.854097
83,0.691667,step_decsent,0.10199184065274909,-0.1328293736501066,-0.012479001679851352,-0.025841710546819392,-0.09144229744762769,0.2848484944399064,0.6697864170866251,-0.8677705783537271,-0.34809215262778553,-0.021358291336694278,0.042836573074153284,0.042836573074153284,-8.079545526539587,-2.3595928808546027,4.30560748710339,1.1999070831485958,-0.13149884413713653,-15.661561060675732,-2.4907928168622684,5.09677929848531,5.845549350078861,-0.026102999999999987,-0.208532,-0.856894,0.021814999999999918,0.059367,-0.910957,0.047917999999999905,0.267899,0.05406299999999997,0.0,0.8929418564738241,single,-0.856894
84,0.7,step_decsent,0.0542421696867756,-0.13644545781831388,-0.021240849633996806,0.28005374932139787,0.2144979868515215,0.12212549642295624,0.6536661466458694,-0.8370334813392623,-0.2960518420736853,0.01656066242649379,-0.010080403216128827,-0.008400336013442354,-5.730189723505811,-0.43394745808320007,-1.051463813049986,-1.9345098332840334,3.688599185703239,6.245087069974885,4.550456469841404,-6.35029116648057,-6.1486750375130335,-0.021107999999999905,-0.21437,-0.859184,0.021500999999999992,0.06042,-0.9108499999999999,0.0426089999999999,0.27479,0.05166599999999999,0.0,0.9647849576749918,single,-0.859184
85,0.708333,step_decsent,0.2148085923437145,-0.13596543861754354,0.03756150246009917,-0.6771572693637625,-0.4282853406221268,0.8248533462227315,0.6494659786391396,-0.8150726029041085,-0.3652946117844688,-0.002640105604220137,0.0007200288011527632,0.004560182407294172,19.268741468491324,0.05760460827677199,7.0565645138720425,-0.5040403224204759,2.63541082865158,-8.309464743883744,-2.3041843310589036,1.2961036862212343,1.5553244234653152,-0.017486000000000113,-0.22002899999999997,-0.862541,0.019688999999999846,0.061559,-0.911125,0.03717499999999996,0.28158799999999995,0.04858399999999996,0.01415999999999984,0.9911362375270432,single,-0.862541
86,0.716667,step_decsent,-0.013558915286780522,-0.11807055435564884,-0.05279577633789208,0.5379040520864008,0.4507089858070689,-0.19543584537688424,0.6503479721622197,-0.8096952243820471,-0.3842092632589343,0.008399328053757375,-0.003959683225342572,0.0004799616030722306,-27.401908762958158,2.1472143342806054,-10.842006095271245,0.10583075630911368,0.6452338039430522,-2.2695766108069746,1.3246260688717815,-0.5615205215377129,-0.4895873295202676,-0.011953000000000102,-0.22579300000000002,-0.8653029999999999,0.01987199999999989,0.06250999999999998,-0.9106810000000001,0.03182499999999999,0.288303,0.04537800000000014,0.046219999999999706,0.9845028527589288,single,-0.8653029999999999
87,0.725,step_decsent,0.09444377775109544,-0.15912636505460623,-0.021240849633996806,0.34798436558347384,0.35257705750841006,0.47618732481691955,0.6299051962078612,-0.7895115804632259,-0.4101764070562899,-0.015600624024956758,0.03396135845433914,0.021120844833794682,12.960841598209162,-4.926894359649318,3.7867426741744343,-2.453231243772794,2.422134155624793,-3.1161819029588185,-2.880109453823875,4.55070702984304,2.4770050678894324,-0.007490999999999914,-0.231046,-0.868544,0.018955000000000055,0.06411900000000001,-0.9103279999999999,0.02644599999999997,0.295165,0.04178399999999993,0.08216000000000012,0.9284527462960976,single,-0.868544
88,0.733333,step_decsent,0.2515300612024588,-0.11964478579143091,-0.018840753630140653,-0.4021183882807091,-0.3915058709132685,0.7141826458560903,0.6199447977919096,-0.7896315852634042,-0.4461778471138826,0.028681147245901744,-0.029161166446656932,0.00720028801152097,18.851108058485863,4.737979030742248,0.28802304138439244,-1.1952956217390618,-0.014401152067474303,-4.320345620735936,5.3140251135075385,-7.575005988359031,-1.6705336400184392,-0.004421000000000008,-0.23662899999999998,-0.8721049999999999,0.017098000000000058,0.06487300000000001,-0.9101109999999999,0.021519000000000066,0.301502,0.038005999999999984,0.11994000000000016,0.9307816260881634,single,-0.8721049999999999
89,0.741667,step_decsent,0.02507799376048775,-0.1252699784017273,-0.01871850251980392,0.09411226644662389,-0.09519767295551224,0.06161165289242148,0.6303095752339791,-0.7921766258699345,-0.4739620830333611,0.0005999520038169835,-0.006599472042238263,0.006959443244540776,-27.172074327090513,-0.6749691157063135,0.014668959723630167,1.2436737991444202,-0.30538044234825945,-3.333841603009203,-3.3694738711404995,2.7071867535899683,-0.02889906011281445,0.0006230000000000402,-0.24218699999999999,-0.875899,0.016893999999999965,0.06586199999999999,-0.909897,0.016270999999999924,0.30804899999999996,0.03399799999999997,0.16002000000000027,0.9839837908565908,single,-0.875899
90,0.75,step_decsent,0.1347653906156223,-0.11964478579143091,-0.06048241929675217,0.8001222985839695,-0.12007359926986816,0.4098817366184442,0.637705508220331,-0.7759510380415217,-0.489619584783386,0.002160086403464951,0.002040081603264497,0.004920196807873884,13.163014143181817,0.6750501152401729,-5.011870488053291,0.8875474602606327,1.9471484253465512,-1.8789753690177402,0.18722361690243142,1.036787908976686,-0.24471936117447296,0.004814000000000096,-0.24765600000000002,-0.879475,0.015789000000000053,0.06687599999999999,-0.909352,0.010974999999999957,0.31453200000000003,0.029877000000000042,0.20123000000000013,0.9904204728070418,single,-0.879475
91,0.758333,step_decsent,0.10428417136685528,-0.13176527061082577,-0.04764190567622453,0.43304571062296104,-0.1385476235140997,0.397120613934693,0.634225369014756,-0.7557902316092576,-0.45985839433577175,-0.0012000480019279335,-0.0019200768030723696,0.005280211208446935,-3.6578926255570483,-1.4545163589817363,1.5409232713941654,-0.41763341000539783,2.4193935476135784,3.5714857131422235,-0.403232257937462,-0.4752380182811533,0.04320345620701421,0.009230000000000071,-0.25285599999999997,-0.8829100000000001,0.014909999999999979,0.067958,-0.908911,0.005679999999999907,0.320814,0.02600099999999994,0.23999000000000004,0.9904246496231155,single,-0.8829100000000001
92,0.766667,step_decsent,0.08159347252220037,-0.1209503239740805,-0.03287736981042825,0.26124525228004625,0.10371255280802834,0.3383021466833202,0.6309095272378228,-0.7355411567074706,-0.45272378209743797,-0.00023998080151613608,0.0021598272138234013,0.00623950083993242,-2.7226660480747586,1.2976897812269421,1.771602575689509,-0.3978691836972936,2.4296946126454504,0.8560849818015146,0.11519884814156502,0.4895493180820487,0.11510554733447208,0.013808000000000042,-0.25797800000000004,-0.886409,0.01422800000000013,0.06898399999999999,-0.908585,0.00042000000000008697,0.326962,0.022175999999999974,0.27824000000000026,0.9889881610287703,single,-0.886409
93,0.775,step_decsent,0.08940357614304482,-0.1255250210008418,0.05472218888755671,-0.9540067018780806,0.02444478445061953,0.41926185015306444,0.6150246009840423,-0.7203888155526168,-0.44089763590542896,0.002640105604220137,0.0038401536061447392,0.003960158406336867,0.937249924498311,-0.5489856026354613,10.512367538459689,-1.9062674011496936,1.818353672729352,1.4191943108135068,0.34562419365609753,0.20164723296787843,-0.27353203331279774,0.018188000000000093,-0.262935,-0.890539,0.0135050000000001,0.07006200000000001,-0.909008,0.004682999999999993,0.332997,0.01846900000000007,0.31530999999999987,0.989807438452547,single,-0.890539
94,0.783333,step_decsent,0.24192967718709182,-0.14016560662426653,-0.06768270730829402,0.7066254035196841,-0.6316914321590625,0.6384881175375734,0.6168246729869158,-0.7061082443297797,-0.4264970598823994,-0.003960158406330258,0.004800192007680155,0.0022800912036471162,18.303864279857002,-1.7569405524330788,-14.689175110506643,0.21601728103605924,1.7137370962243168,1.7281382482934968,-0.7920633638006066,0.11520921655291308,-0.20161612896793066,0.021311999999999998,-0.267651,-0.893529,0.011456000000000133,0.07127000000000001,-0.908425,0.009855999999999865,0.338921,0.01489600000000002,0.3510399999999998,0.9889541971507055,single,-0.893529
95,0.791667,step_decsent,0.10103191744660463,-0.14674826013918463,-0.06707463402927429,0.809977221136326,0.0915984867151203,0.5401911742044601,0.5976721862251123,-0.6855051595872306,-0.3959683225341973,-0.005519558435323991,0.00431965442764508,-0.0040796736261072995,-16.906378658565647,-0.7898552333714965,0.07296295644585239,-2.2981145622514196,2.472172395314251,3.6631554293498767,-0.18711303443649166,-0.057659896812463585,-0.7631107307120671,0.025451000000000112,-0.272141,-0.89627,0.010568000000000133,0.07252899999999998,-0.9078999999999999,0.01488299999999998,0.34467000000000003,0.011629999999999918,0.38370000000000026,0.9864836851062231,single,-0.89627
96,0.8,step_decsent,0.0424816992679664,-0.1388455538221546,-0.06144245769831583,0.8007536125288703,0.09608780304904416,0.6017854183606297,0.5909036361454347,-0.6762270490819606,-0.38161526461058476,0.003720148805939289,0.003600144005760485,0.004560182407294172,-7.026307233725907,0.9483626925513008,0.6758881952428218,-0.8122584999013025,1.1134177973442823,1.7224358482674262,1.1088092213204417,-0.08634470441432761,1.0368241969760512,0.030021000000000075,-0.276619,-0.898938,0.01024500000000006,0.073716,-0.9073499999999999,0.019776000000000016,0.350335,0.008411999999999864,0.41588000000000025,0.9885017141871374,single,-0.898938
97,0.808333,step_decsent,0.06384255370214591,-0.1448457938317529,-0.0811232449297858,0.5922720586815974,0.1321923336210087,0.46366499454865984,0.5765030601224138,-0.6582263290531702,-0.37873514940597874,-0.0012000480019279496,0.004200168006721177,0.0022800912036471162,2.563405068304297,-0.7200576034559389,-2.3617889393339917,-1.7281382482924574,2.1601728103672806,0.34562764965871134,-0.5904472348334673,0.07200576034569756,-0.2736218893132217,0.03429300000000013,-0.28089700000000006,-0.901418,0.009703000000000017,0.074958,-0.906655,0.024590000000000112,0.35585500000000003,0.005236999999999936,0.4476300000000001,0.9917874854323545,single,-0.901418
98,0.816667,step_decsent,0.08663306935446435,-0.14578833693304682,-0.07775377969762143,0.49752474048714196,-0.17567253463511123,0.6367425604226077,0.5494360451163731,-0.6360691144708375,-0.357331413486916,0.0019198464122889224,0.0025197984161258805,0.006359491240703725,2.734643106829646,-0.11309612446531418,0.4043034835810352,-3.2477819781666053,2.6586530576353016,2.5682428508594417,0.3743573811155325,-0.20162822061378496,0.4894888453391622,0.038149999999999906,-0.284983,-0.903748,0.008996999999999922,0.07619400000000001,-0.905954,0.029152999999999984,0.361177,0.0022060000000000413,0.47794000000000014,0.9881586502335065,single,-0.903748
99,0.825,step_decsent,0.0819632785311407,-0.16188647545901852,-0.08040321612866634,0.5080196840514539,0.19059089372568813,0.6550550759742078,0.5551422056882349,-0.6329053162126478,-0.36337453498140626,0.00972038881555244,-0.0003600144005763864,0.01260050402015687,-0.5603973146914311,-1.9318538972725119,-0.31794508952897366,0.6847666592897933,0.3796709778218788,-0.7252035874823379,0.9361025324929303,-0.34559136165874155,0.748951491594048,0.042092999999999936,-0.28890799999999994,-0.9061059999999999,0.00839499999999993,0.07754,-0.905179,0.033698000000000006,0.366448,0.0009269999999999001,0.5,0.9641997096250693,single,-0.905179
100,0.833333,step_decsent,0.08964358574343574,-0.15444617784711448,-0.0824432977318948,0.4719823385656969,0.22360838259230945,0.5857168627934828,0.5427817112684551,-0.6183847353894152,-0.34165366614664305,0.013800552022091296,-0.006000240009599698,0.01272050882035216,0.921673732424698,0.8928714282856125,-0.24481958517082011,-1.4833186631200972,1.742539400363919,2.6066085245125543,0.4896391703514748,-0.6768541472486845,0.014401152069517543,0.04586899999999994,-0.292774,-0.908266,0.007762999999999964,0.07877700000000001,-0.904386,0.03810599999999997,0.37155099999999996,0.0038799999999999946,0.5,0.9283590761339222,single,-0.904386
101,0.841667,step_decsent,0.10847132229421755,-0.16906647468202338,-0.07007439404846574,0.11525732217675909,-0.09756754777108696,0.7728788586127058,0.5202783777297652,-0.6061915046796211,-0.3190544756419422,0.014158867290624141,-0.008279337652987651,0.01319894408447302,2.259147654281457,-1.7542952765669289,1.4841497100346719,-2.7001840099219785,1.4630706395241138,2.7116859256900234,0.04299439267252726,-0.2734698396193827,0.05740763908337608,0.04930099999999982,-0.296417,-0.9103410000000001,0.006977000000000011,0.08011700000000001,-0.9036920000000002,0.042323999999999806,0.376534,0.006648999999999905,0.5,0.8984214976147329,single,-0.9036920000000002
102,0.85,step_decsent,0.07860314412574777,-0.16932677307092386,-0.13284531381257667,0.24239223908483304,0.2740064831353847,0.5694326272844299,0.5109804392175847,-0.5917436697467908,-0.31441257650306437,0.012600504020136884,-0.0028801152046077604,0.017160686427457765,-3.584324753206534,-0.03123705615030477,-7.5328116841607455,-1.1157972533517941,1.7338095443214254,0.5570501786724951,-0.1870110729013887,0.6479326111100372,0.4754280982821051,0.05290400000000006,-0.29993699999999995,-0.9118539999999999,0.0064269999999999605,0.08150400000000001,-0.902442,0.0464770000000001,0.381441,0.009411999999999976,0.5,0.870073540161693,single,-0.902442
103,0.858333,step_decsent,0.0982839313572689,-0.1881675267010656,-0.13056522260890116,0.25477549968289825,-0.014973305829117366,0.6167720392325402,0.4875795031801165,-0.5741029641185637,-0.2995319812792497,0.00972038881555231,-0.0008400336013448903,0.016320652826115976,2.361788939340099,-2.2609808748519926,0.2736218893166321,-2.8082246534823154,2.116969354161418,1.7857428565720177,-0.3456276496561337,0.2448195851749504,-0.10080806448359364,0.056147999999999865,-0.303153,-0.9132619999999999,0.005688999999999833,0.08306499999999999,-0.9012179999999999,0.05045900000000003,0.38621799999999995,0.012044000000000055,0.5,0.8478689863838207,single,-0.9012179999999999
104,0.866667,step_decsent,0.07499400047994711,-0.20182385409167583,-0.16954643628508453,-0.10881563739792358,0.43162240718364514,0.7063055102250381,0.47528197744181977,-0.5530357571394422,-0.2876169906407549,0.009599232061444739,-0.002639788816893973,0.014398848092153789,-2.794568139827444,-1.638628196617508,-4.677371451425917,-1.475585041792273,2.5278626084859104,1.429684501859232,-0.014537647481110057,-0.21595334959792334,-0.2305981202258457,0.05948400000000009,-0.30608,-0.9142460000000001,0.005144000000000037,0.08472500000000001,-0.8996850000000001,0.054340000000000055,0.39080500000000007,0.014561000000000046,0.5,0.8252142600994423,single,-0.8996850000000001
105,0.875,step_decsent,0.09300372014880198,-0.2121684867394677,-0.126005040201607,0.13603944555307412,-0.06704675644532462,0.6227240850277953,0.4578183127324956,-0.5533421336853356,-0.27013080523220184,0.014520580823237398,-0.0052802112084486,0.012840513620540955,2.16125281037499,-1.2414055739579772,5.225176537078766,-2.095723594062651,-0.03676665617345276,2.0984261860738025,0.59058547483411,-0.3168633615210148,-0.18700761689821518,0.06252400000000002,-0.30892299999999995,-0.915447,0.004490000000000105,0.086449,-0.898528,0.05803399999999992,0.39537199999999995,0.016919000000000017,0.5,0.7973267252410797,single,-0.898528
106,0.883333,step_decsent,0.09396375855036565,-0.23592943717748557,-0.0925237009480468,0.23742826333785969,-0.26323306721012685,0.7017553803839689,0.4406576263050647,-0.5324612984519388,-0.27469098763950933,0.014040561622455566,-0.004920196807872219,0.013080523220931872,0.11520921655630188,-2.8514281096865206,4.017921427284299,-2.059364745881535,2.505800460026005,-0.5472437786280415,-0.05760460827815073,0.04320345620741391,0.02880230413907547,0.06541299999999994,-0.311394,-0.916965,0.0038239999999998275,0.088374,-0.897648,0.061589000000000116,0.399768,0.01931700000000003,0.5,0.7738129255016138,single,-0.897648
107,0.891667,step_decsent,0.09095272378207568,-0.24886009119270844,-0.12766978641708182,0.2622764059873463,-0.3083476515230527,0.6989436595536749,0.3994480441564596,-0.5157187425006058,-0.26601871850251757,0.010799136069131993,-0.0053995680345576705,0.01103911687064813,-0.36129526857331246,-1.5515543574781543,-4.217192880853759,-4.94475427749044,2.0089459984800935,1.040589049315072,-0.38893995120273483,-0.05751994560660601,-0.2449491661007624,0.06798400000000004,-0.313618,-0.918118,0.0031560000000001587,0.09040300000000001,-0.8964920000000001,0.06482799999999989,0.404021,0.021625999999999923,0.5,0.7564738846794095,single,-0.8964920000000001
108,0.9,step_decsent,0.11772470898837352,-0.23028921156845894,-0.18708748349934975,-0.41140903423173714,-0.17774787514204415,0.4902852336511181,0.38137525501021385,-0.5010200408016214,-0.26053042121685166,-0.00012000480020878121,-0.00864034561382483,0.016800672026884483,3.212766735425144,2.2285946986978784,-7.130408866226771,-2.1688214504074996,1.7639147604685335,0.658622019160673,-1.3103493182936192,-0.3889088658666922,0.6914142753193723,0.07018100000000005,-0.315874,-0.9187299999999999,0.0021739999999998982,0.09224999999999998,-0.894793,0.06800700000000015,0.40812399999999993,0.023936999999999986,0.5,0.729142235443599,single,-0.894793
109,0.908333,step_decsent,0.07128285131405122,-0.2542901716068678,-0.1522860914436549,0.04181871219071218,-0.17486356644816659,0.6130461005719523,0.350414016560643,-0.4860194407776353,-0.2689307572302908,0.0014400576023188686,-0.0014400576023038802,0.009240369614783925,-5.573245850752756,-2.880230413825641,4.176334100047423,-3.715497233837887,1.8001440086386966,-1.0080806448385005,0.18721497690239577,0.8640691241474878,-0.9072725803552895,0.07250699999999988,-0.31780499999999995,-0.919702,0.0015920000000000378,0.094357,-0.8934469999999999,0.07091499999999984,0.4121619999999999,0.02625500000000014,0.5,0.7216797782008679,single,-0.8934469999999999
110,0.916667,step_decsent,0.11171106311495177,-0.2752579793616478,-0.18538516918645256,-0.06246054136691548,-0.25604185360830384,0.48355346880308187,0.3374130069594451,-0.4654427645788394,-0.2620590352771715,0.008999280057600994,0.016558675305975303,0.02639788816894604,4.8509973363211225,-2.5159356557211257,-3.9715716034074164,-1.5599963524355451,2.4690036235656088,0.8245406711206205,0.9070341319032958,2.1596751749794874,2.0587375274972386,0.0743879999999999,-0.31939000000000006,-0.9203410000000001,0.0007360000000000699,0.09678899999999999,-0.8916820000000001,0.07365199999999983,0.416179,0.02865899999999999,0.5,0.6593517683001822,single,-0.8916820000000001
111,0.925,step_decsent,0.07980319212767466,-0.2640105604224167,-0.20928837153485666,0.23292295889247636,-0.11359865873405843,0.37916754048331713,0.2947317892715713,-0.45229809192367776,-0.2582503300132046,-0.002880115204611053,-0.02820112804512158,-0.016680667226689025,-3.8290976823805325,1.3497442624782243,-2.8684990217693502,-5.1219510005848585,1.5774238155720102,0.45706291419259704,-1.4255844548436334,-5.371391257781915,-5.169633432813499,0.076179,-0.32095900000000005,-0.920749,4.700000000013027e-05,0.098754,-0.890077,0.07613199999999987,0.41971300000000006,0.030672000000000033,0.5,0.6384610214905072,single,-0.890077
112,0.933333,step_decsent,0.13920556822273616,-0.2776911076443096,-0.26161046441858765,-0.38471603449500713,-0.26574785272706,0.2376604974571751,0.2832113284531575,-0.4410176407056303,-0.27649105964238496,-0.0004800192007818384,-0.008640345613824946,-0.0036001440057638638,7.128570274218415,-1.6417313358805958,-6.278902302139862,-1.382510598633613,1.3537082944974848,-2.1889751145062464,0.2880230413811636,2.347387787267108,1.569725575534055,0.07737900000000009,-0.32232000000000005,-0.920873,-0.0011170000000000346,0.100996,-0.887927,0.07849600000000012,0.423316,0.03294600000000003,0.5,0.654918875803215,single,-0.887927
113,0.941667,step_decsent,0.09575233981282341,-0.26061915046795814,-0.17950563954882776,0.2788763646830639,-0.29725785666281707,0.28565244159685466,0.2570194384449064,-0.41600671946243956,-0.2846172306215463,-0.0023998080153478313,0.00011999040076805765,-0.0005999520038369578,-5.213970291566166,2.048470983483481,9.851790841103824,-3.142775378959793,3.001070463545785,-0.9750625124983548,-0.23035622924957744,1.0511562292528123,0.3599942406919706,0.07872299999999988,-0.32361500000000004,-0.921749,-0.00193500000000002,0.10316899999999998,-0.886436,0.0806579999999999,0.42678400000000005,0.03531300000000004,0.5,0.6427423767217711,single,-0.886436
114,0.95,step_decsent,0.11796471858873936,-0.29329173166926964,-0.2605304212168685,0.01925292080203888,-0.18194505894203247,0.1851135911004239,0.23232929317172152,-0.39025561022440314,-0.2938917556702336,0.0012000480019013031,0.0001200048001921288,-0.001800072002878601,2.66559207679301,-3.920866578820569,-9.723362734674362,-2.9629359502202193,3.090256718833152,-1.112987525343501,0.4320000020699829,1.7280000085379219e-06,-0.14402016069142615,0.07967599999999986,-0.32442299999999996,-0.9220269999999999,-0.0029080000000001327,0.10561399999999999,-0.88428,0.08258399999999999,0.43003699999999995,0.037746999999999975,0.5,0.6189187615334268,single,-0.88428
115,0.958333,step_decsent,0.12024480979238487,-0.275651026041043,-0.24204968198727075,0.22590702896819828,-0.24292586775777963,0.16148438773170437,0.2090483619344924,-0.36709468378735405,-0.31669266770670723,0.000480019200781832,-0.0016800672026881154,-0.006720268810752461,0.27362188931303316,2.1169693541613515,2.217777418648464,-2.79382350140754,2.779422349339853,-2.736218893132547,-0.08640691241083259,-0.21601728103686987,-0.5904472348342542,0.08041600000000004,-0.32518499999999995,-0.922649,-0.003905999999999965,0.107897,-0.882319,0.08432200000000001,0.43308199999999997,0.04033000000000009,0.5,0.5851271561730533,single,-0.882319
116,0.966667,step_decsent,0.12287017038635782,-0.2823374130069566,-0.24658027357810203,0.07802948228140605,-0.15443994476642908,0.05429530553470684,0.18742500599952622,-0.3322534197264219,-0.3640508759299206,0.0009599232061444612,-0.0015598752099830842,-0.005399568034559264,0.3150180698311648,-0.8023022517294827,-0.5436275006996927,-2.594595144584354,4.180617237932789,-5.68253038435481,0.05758387393360038,0.014421885373773733,0.1584714154299481,0.08095400000000019,-0.32560100000000003,-0.9236280000000001,-0.004921999999999871,0.110237,-0.880309,0.08587600000000006,0.435838,0.04331900000000011,0.5,0.5573070767374442,single,-0.880309
117,0.975,step_decsent,0.1383655346214079,-0.29125165006600345,-0.2816512660506565,0.3923452285626007,-0.09690176153928522,-0.006874991862880831,0.15936637465498715,-0.3182527301092058,-0.3590543621744896,0.0010800432017191667,-0.0022800912036471162,-0.0064802592103682935,1.8595180889295848,-1.0697512371351197,-4.208687444204342,-3.367170448162645,1.6801499600643526,0.5996056348771177,0.01441497606800751,-0.08642937641474123,-0.12968812862222961,0.081129,-0.325826,-0.9242729999999999,-0.006066000000000127,0.112645,-0.8780159999999999,0.08719500000000013,0.438471,0.04625699999999999,0.5,0.5258398858398764,single,-0.8780159999999999
118,0.983333,step_decsent,0.149885995439797,-0.2911316452658108,-0.2935317412696433,0.365848351106613,-0.4395275195630851,-0.046793082068323756,0.1422056882275275,-0.30325213008520896,-0.35701428057122203,0.0,-0.0004800192007685088,-0.007320292811716428,1.38251059863063,0.014401152069199659,-1.4257140548406073,-2.0593647458849857,1.8001440086399583,0.24481958517551486,-0.1296103686210443,0.21601728103667348,-0.10080806448435514,0.08106500000000016,-0.3259270000000001,-0.924802,-0.00731499999999996,0.115067,-0.875631,0.08838000000000013,0.44099400000000005,0.049170999999999965,0.5,0.4960633095599138,flight,-0.875631
119,0.991667,step_decsent,0.1618670506359554,-0.29829613630909557,-0.3318934485241255,0.07382717068102645,-0.4284319889460201,0.017465982755282397,0.1339092872570076,-0.2782577393808463,-0.42308615310775727,0.002879769618433422,0.006719462443004657,0.0,1.437611614609849,-0.8596701515820495,-4.603036627607679,-0.9954884773842024,2.9990869575669303,-7.927990465147062,0.3455447106351618,0.8638686877577642,0.878364868216519,0.08083200000000001,-0.32576000000000005,-0.925562,-0.008639999999999981,0.11760899999999999,-0.872865,0.089472,0.443369,0.052696999999999994,0.5,0.487815737771594,flight,-0.872865
120,1.0,step_decsent,0.1543261730469357,-0.3129725189007546,-0.3229329173166912,0.49206369908177794,-0.02222690168721581,-0.07689451748549013,0.12888515540621803,-0.25429017160686107,-0.4401776071042829,-0.002880115204611053,0.00252010080403134,-0.0031201248049886453,-0.9049415083426967,-1.761236360453496,1.0753067571623962,-0.602919938892301,2.876223181805488,-2.0510565218439396,-0.6912138273184267,-0.5039435544189728,-0.37442995379678773,0.08061999999999991,-0.325271,-0.926539,-0.009950000000000125,0.12023799999999998,-0.8702,0.09057000000000004,0.445509,0.05633900000000003,0.5,0.4917704545736082,flight,-0.8702
121,1.008333,step_decsent,0.16116644665785243,-0.31921276851074615,-0.3782551302052169,0.1341825741581585,-0.3004104064498854,-0.16059092495073687,0.11208448337933505,-0.22740909636385423,-0.4620184807392295,-0.007800312012478379,0.008640345613824946,0.0014400576023055455,0.820865667936734,-0.7488599075952946,-6.6389311038672965,-2.0161612896775636,3.2258580634833898,-2.6210096765806834,-0.5904472348334778,0.7344587555254605,0.547243778626453,0.08021100000000003,-0.32450599999999996,-0.9272369999999999,-0.01135799999999998,0.12297000000000001,-0.8670359999999999,0.09156900000000001,0.447476,0.06020099999999995,0.5,0.48045132814142577,flight,-0.8670359999999999
122,1.016667,step_decsent,0.14806815454762995,-0.32169426445883953,-0.35805135589151105,0.653952269727214,-0.5516316038981219,-0.01637272144317703,0.10259179265659271,-0.2037437005039554,-0.47204223662106587,-0.015478761699069445,0.006359491240700395,0.0034797216222703414,-1.5716693196811113,-0.2977556933157383,2.424258976926529,-1.1390317641879366,2.8396203335611525,-1.2027544854615158,-0.9213402551705073,-0.27368063032451817,0.24474010318751865,0.07983200000000013,-0.32352299999999995,-0.9281870000000001,-0.012720999999999982,0.12570399999999998,-0.864023,0.09255300000000011,0.44922699999999993,0.06416400000000011,0.5,0.47151298272577,flight,-0.864023
123,1.025,step_decsent,0.14760590423617853,-0.3271330853234167,-0.3234129365174773,0.6406371019028986,-0.2013785928526448,0.021325394476566152,0.08256330253210467,-0.1854074162966558,-0.4813392535701523,-0.00444017760708545,0.00924036961478559,0.02028081123244645,-0.0554722562644212,-0.6526846111337085,4.156776595947923,-2.4035149555368083,2.200442122560875,-1.115686661356834,1.324683078361226,0.3457192336595731,2.016211401677219,0.07929000000000008,-0.32234199999999996,-0.929503,-0.01398799999999989,0.128507,-0.861159,0.09327799999999997,0.45084899999999994,0.06834399999999996,0.5,0.46212553953275953,flight,-0.861159
124,1.033333,step_decsent,0.07980319212770023,-0.3118924756990247,-0.3633745349813966,0.6920272822514137,-0.653054403485712,0.06248802089210581,0.09996399855992404,-0.17040681627264515,-0.5321012840513519,0.006120244809795074,0.006000240009599618,0.031201248049919347,-8.136650919054015,1.828946312779519,-4.79558363901579,2.0881670500202882,1.800144008641593,-6.091687325236861,1.2673013820809238,-0.3888311058665445,1.3105048382902562,0.0794579999999998,-0.3211629999999999,-0.930909,-0.014602000000000004,0.13115600000000002,-0.8578709999999999,0.09405999999999981,0.4523189999999999,0.07303800000000005,0.5,0.44607159693483456,flight,-0.8578709999999999
125,1.041667,step_decsent,0.07931365490758498,-0.30021598272138184,-0.3112550995920368,0.28311600495586536,-1.1239818147606557,0.18676479558060927,0.0813534917206853,-0.1564674826014048,-0.5338372930165665,0.01631869450442963,-0.011879049676026368,0.023758099352056066,-0.05873976723245343,1.4010670719514111,6.253831940168083,-2.2330821741347595,1.6725862336501804,-0.2083044114728298,1.2237160660708843,-2.145343134824373,-0.8931063952319922,0.07947500000000018,-0.31996500000000005,-0.9327639999999999,-0.01512699999999989,0.13355899999999998,-0.8550789999999999,0.09460200000000007,0.45352400000000004,0.077685,0.5,0.44804224749438326,flight,-0.8550789999999999
126,1.05,step_decsent,0.13896555862234156,-0.33313332533300755,-0.38977559102362425,0.3722528546837271,-0.49210961941811787,0.07217129883569368,0.08520340813632257,-0.12336493459737188,-0.5324612984519317,0.018360734429385225,-0.033241329653185485,0.0168006720268776,7.158514786362119,-3.9502391229599345,-9.422835885225739,0.46200845021447284,3.972464659070244,0.16512595279428186,0.2450545931783941,-2.563576140304661,-0.8349246760084417,0.07902700000000018,-0.31821699999999997,-0.933953,-0.016131999999999813,0.13605799999999996,-0.851691,0.095159,0.45427499999999993,0.08226200000000006,0.5,0.43079087354552653,flight,-0.851691
127,1.058333,step_decsent,0.11184447377897078,-0.3444137765510699,-0.3528141125644989,0.7909849081383267,-0.013966234778307628,0.23538468270638555,0.06624264970597515,-0.12780511220450058,-0.5594623784951449,0.008400336013442354,-0.04848193927757174,0.015480619224774622,-3.2546603676192283,-1.3537082944992769,4.435554837288573,-2.275382026922788,-0.5328426265605111,-3.2402592155542385,-1.195295621738025,-1.8289463127788783,-0.1584126727592692,0.07864699999999991,-0.316412,-0.935675,-0.016993999999999954,0.138524,-0.848622,0.09564099999999987,0.454936,0.08705300000000005,0.5,0.4140298234393114,flight,-0.848622
128,1.066667,step_decsent,0.09251259899206254,-0.32625389968801904,-0.3580513558915377,0.6876925569265322,-0.4564006196668194,0.13712691831420495,0.045476361891063875,-0.11867050635947914,-0.5717542596592186,0.008279337652972665,-0.04391648668106414,0.0125989920806294,-2.319639403276708,2.1790109026938724,-0.6284189257305912,-2.4917551973735446,1.096065016201269,-1.474907747069061,-0.014518641765021422,0.5478104867419682,-0.34576759588975275,0.07825500000000019,-0.31468199999999996,-0.937456,-0.017695999999999934,0.14087699999999997,-0.845533,0.09595100000000012,0.45555899999999994,0.09192299999999998,0.5,0.4226131680052202,flight,-0.845533
129,1.075,step_decsent,0.114844593783764,-0.3649345973839006,-0.41965678627143804,0.5746805875340273,0.6171124689252123,0.3257487177543838,0.049201968078699525,-0.10188407536302742,-0.6017040681627343,-0.0025201008040380353,-0.03972158886355466,0.010080403216132157,2.679946572867115,-4.641869398281761,-7.392947363482649,0.44709062614132766,2.014452297666131,-3.5941207852533266,-1.2959844542194645,0.5034078744161188,-0.30224275344980994,0.07770799999999989,-0.31249000000000005,-0.9389730000000001,-0.01867400000000008,0.14358700000000002,-0.841952,0.09638199999999997,0.45607700000000007,0.09702100000000002,0.5,0.4315697829312471,flight,-0.841952
130,1.083333,step_decsent,0.10788431537261099,-0.38653546141844686,-0.38593543741750286,0.4285714321499281,-1.2283021910021616,0.15811026086211197,0.038881555262208725,-0.09072362894515369,-0.5831033241329554,-0.015720628825138475,-0.031561262450499054,0.01512060482418784,-0.8352668200111476,-2.5922073724404027,4.046723731421408,-1.238499077941992,1.339307142430521,2.2321785707162514,-1.5841267276011293,0.9792783407002836,0.6048483869021475,0.0771329999999999,-0.31002500000000005,-0.940616,-0.019703999999999944,0.14654499999999998,-0.8386100000000001,0.09683699999999984,0.45657000000000003,0.10200599999999993,0.5,0.43605809606507573,flight,-0.8386100000000001
131,1.091667,step_decsent,0.11411087113030265,-0.3676505879529721,-0.34425245980322355,0.02666934642402157,-0.2563286007885337,0.3353452381887219,0.020398368130550362,-0.07235421166307075,-0.6303095752339942,-0.031677465802741424,-0.027477801775857624,0.01991840652747812,0.7471269207693512,2.266003535574166,5.001557189138481,-2.217805031396534,2.2041537415506705,-5.664296988365697,-1.9146672639312756,0.4899760828703513,0.5756901491829098,0.07635199999999998,-0.30756400000000006,-0.9430000000000001,-0.02091899999999991,0.14937999999999999,-0.835575,0.09727099999999989,0.456944,0.1074250000000001,0.5,0.42262583066841397,flight,-0.835575
132,1.1,step_decsent,0.11124444977800384,-0.36877475099003226,-0.380655226209036,0.14424666623029805,-0.42895280725914453,0.30074954745115773,-0.009240369614770354,-0.053042121684859556,-0.6452658106324098,-0.03468138725548766,-0.029281171246848668,0.032401296051847266,-0.343984321648717,-0.13490496064564075,-4.3685067089657785,-3.5567908010704667,2.317543499125268,-1.7948200406114672,-0.36048499372929116,-0.21641299303864303,1.498006663190799,0.07534799999999997,-0.304933,-0.9452050000000001,-0.022135000000000016,0.15220899999999998,-0.832133,0.09748299999999999,0.457142,0.11307200000000006,0.5,0.4070539344357912,flight,-0.832133
133,1.108333,step_decsent,0.10416416656664788,-0.38533541341654254,-0.4124564982599503,0.14867300836372452,-0.3253453546311083,0.3687513074443131,-0.014520580823237591,-0.056042241689667524,-0.626065042601713,-0.03588143525741653,-0.020640825633026168,0.05664226569062484,-0.8496679720816054,-1.9873589855406728,-3.8163052983216796,-0.633650691043716,-0.3600288017290287,2.304184331056881,-0.14401152069229328,1.0368829489766687,2.909032717962054,0.07435900000000006,-0.302189,-0.946985,-0.023301999999999934,0.155248,-0.8282239999999998,0.097661,0.457437,0.11876100000000012,0.5,0.38307329763298886,flight,-0.8282239999999998
134,1.116667,step_decsent,0.08399328053757375,-0.45140388768897993,-0.489560835133169,0.6548851068789341,0.07488660864031478,0.46335932340541064,-0.037796976241908184,-0.030837532997367502,-0.6957043436525022,-0.03935685145186962,-0.02219822414206902,0.0835133189344882,-2.4203126984729995,-7.927582706075941,-9.251780282363587,-2.7929440147192723,3.0243230972282014,-8.356047642283256,-0.41701658200780756,-0.18687287125544028,3.2242684477877557,0.07334399999999985,-0.29868400000000006,-0.9487030000000001,-0.024329999999999963,0.158825,-0.823448,0.09767399999999982,0.45750900000000005,0.12525500000000012,0.5,0.34174390172606994,flight,-0.823448
135,1.125,step_decsent,0.11916476659066731,-0.36157446297852763,-0.26125045001801456,-0.5725952540078363,-0.848659189504094,0.5964000621468298,-0.030001200047985566,-0.021600864034556536,-0.7007080283211372,-0.040921636865492605,-0.026281051242047895,0.11856474258970334,4.220747156257516,10.779962163740924,27.398342147504685,0.9355305644933025,1.108444613321859,-0.6004661788833595,-0.1877817609051958,-0.48995885035148373,4.206339092189543,0.07210099999999997,-0.295851,-0.9523649999999999,-0.02566400000000013,0.16161900000000004,-0.8202829999999999,0.0977650000000001,0.45747000000000004,0.13208200000000003,0.5,0.28641374235646744,flight,-0.8202829999999999
136,1.133333,step_decsent,0.06348253930157284,-0.4707788311532449,-0.38869554782191545,-0.7246494365414838,-0.9731693996919111,0.42405322323122796,-0.07644305772230943,-0.05088203528140932,-0.7319092763710641,-0.033721348853951554,-0.02460098403936309,0.15696627865114457,-6.6821345600738,-13.105048382901511,-15.294023497408144,-5.5732458507529445,-3.513881104866561,-3.744299537972776,0.8640691241499001,0.20161612896733735,4.608368662119474,0.07093499999999997,-0.292352,-0.955225,-0.02647400000000011,0.16533699999999998,-0.815736,0.09740900000000008,0.457689,0.13948899999999997,0.5,0.2292974653392909,flight,-0.815736
137,1.141667,step_decsent,0.01823854091671812,-0.46040316774658097,-0.41804655627549986,-0.053653810203212554,-0.13399183702601464,0.37583271239340954,-0.03971682265419711,-0.045836333093351396,-0.684785217182619,-0.01883849292056174,-0.039356851451882946,0.19618430525557776,-5.428845498542642,1.2449800103988338,-3.5218392672887187,4.406795664520283,0.60543582770073,5.654434747833541,1.7857998480189226,-1.7705624445068089,4.705786729593579,0.07045199999999996,-0.28889699999999996,-0.9574479999999999,-0.026783,0.16884600000000002,-0.8106169999999999,0.09723499999999996,0.457743,0.14683099999999993,0.5,0.16503676735623757,flight,-0.8106169999999999
138,1.15,step_decsent,0.02496099843993614,-0.44593783751350424,-0.4482179287171314,-0.24692315781089536,-0.2076894455665169,0.4699778689925403,-0.0739229569182714,0.004440177607098773,-0.7407896315852716,0.027121084843401123,-0.054242169686788924,0.22500900036001834,0.806727171873045,1.7359090643317958,-3.6207095213766727,-4.104900307701261,6.0334226209589135,-6.720798560260781,5.515369946473453,-1.7863096405743566,3.459101776603965,0.06962800000000002,-0.285144,-0.9598860000000001,-0.026764999999999928,0.17211,-0.805007,0.09639299999999995,0.45725400000000005,0.1548790000000001,0.5,0.11160295065477382,flight,-0.805007
139,1.158333,step_decsent,-0.0057602304092220285,-0.48865954638184245,-0.4507380295211841,0.36240831033942544,0.38388951563597923,0.45663577380727294,-0.0919236769470816,0.014160566422664158,-0.747629905196193,0.042601704068147964,-0.09744389775590939,0.2337693507740275,-3.686694929696104,-5.126810136605959,-0.3024241934540548,-2.1601728103696014,1.1664933176005299,-0.820865667937275,1.857748616914265,-5.184414744884161,1.0512841010451226,0.06891000000000003,-0.280954,-0.96236,-0.026361999999999997,0.17536999999999997,-0.799303,0.09527200000000002,0.45632399999999995,0.163057,0.5,0.07196077619800723,flight,-0.799303
140,1.166667,step_decsent,-0.008639308855273737,-0.5470362371010465,-0.5705543556515665,0.6531663333038901,0.2434942755420511,0.3442671172513,-0.12059035277177127,0.04331653467722001,-0.7787377009839356,0.07175425965924044,-0.11051115910727413,0.25593952483801735,-0.3454617765840849,-7.004642514903432,-14.376808990926895,-3.4397259208891544,3.4984363156415177,-3.732636883578495,3.498026828784861,-1.5679459264896793,2.660208071033151,0.06797699999999995,-0.276034,-0.9640949999999999,-0.025692000000000048,0.179008,-0.7924149999999999,0.093669,0.455042,0.17168000000000005,0.5,0.020224501456992006,flight,-0.7924149999999999
141,1.175,step_decsent,0.016320652826102434,-0.4429377175086926,-0.46357854314171154,-0.09302991872606843,-0.6181700510673007,0.7713289839206777,-0.12060482419298296,0.043681747269893746,-0.7617904716188538,0.08676347053882354,-0.11484459378374762,0.2863314532581252,2.9953152143736634,12.492322043964013,12.8376110056226,-0.001736640011003514,0.043827264211415674,2.033748873764725,1.8011773526440458,-0.520032962495309,3.6471772975047783,0.0668359999999999,-0.27197899999999997,-0.96658,-0.025104999999999933,0.18174200000000001,-0.7861659999999999,0.09194099999999983,0.453721,0.18041400000000007,0.5,0.0,flight,-0.7861659999999999
142,1.183333,step_decsent,-0.006720268810759212,-0.5043801752070144,-0.5654626185047513,0.21931019010626038,-0.4610025723837755,0.5445156933268294,-0.16320652826110862,0.0954038161526458,-0.7555502220088868,0.09780391215648837,-0.09984399375975123,0.32053282131285293,-2.7650211972713135,-7.3733898593930585,-12.226578106689153,-5.1124089845345075,6.206896541791975,0.7488599075923569,1.3249059903594065,1.800144008639929,4.104328339700953,0.06553200000000015,-0.26698099999999997,-0.9681639999999999,-0.024233999999999867,0.18511300000000003,-0.778783,0.08976600000000001,0.452094,0.1893809999999999,0.5,0.0,flight,-0.778783
143,1.191667,step_decsent,0.01523878089752667,-0.47996160307174435,-0.5683945284377195,0.04647985619471548,-0.752473357267405,0.6855379416428937,-0.1451883849292232,0.06191504679625114,-0.8258939284857149,0.14170866330691956,-0.09803215742740652,0.34569234461243104,2.6348751749802872,2.9299942566918475,-0.3518010478723531,2.162004239487075,-4.0183308562988245,-8.440569531656774,5.26814868615681,0.21740296764395137,3.0189012838466414,0.064195,-0.26246500000000006,-0.97031,-0.02317999999999998,0.18829599999999996,-0.7711649999999999,0.08737499999999998,0.450761,0.19914500000000013,0.5,0.0,flight,-0.7711649999999999
144,1.2,step_decsent,0.010800432017298254,-0.5150606024241038,-0.6077043081723273,0.22393671356828707,-0.011487977074618868,0.4368260495353897,-0.1377655106204173,0.09024360974440092,-0.8996759870394903,0.14184567382695634,-0.12216488659546387,0.3486139445577844,-0.532623170554237,-4.21204840421934,-4.717362262643486,0.8907805482786465,3.399563536319457,-8.85420119450091,0.016441920081217525,-2.896043341900585,0.3506060176831123,0.06295699999999993,-0.25742099999999996,-0.972743,-0.022088000000000108,0.19157,-0.763196,0.08504500000000004,0.4489909999999999,0.20954700000000004,0.5,0.0,flight,-0.763196
145,1.208333,step_decsent,0.03732149285970776,-0.5175807032281214,-0.6450258010320189,-0.06867492182197683,-0.601383464249478,0.5122041079009007,-0.15732629305172677,0.061322452898106235,-0.9068762750509838,0.16164646585862996,-0.13596543861754173,0.3278531141245607,3.1826546072733763,-0.30242419344985133,-4.478758293494647,-2.347387787268585,-3.4706776486612476,-0.8640691241441739,2.376190091404449,-1.6561324879488324,-2.4913993079591172,0.06133499999999992,-0.252597,-0.974925,-0.02105200000000007,0.19475,-0.7550890000000001,0.08238699999999999,0.44734700000000005,0.21983599999999992,0.5,0.0,flight,-0.7550890000000001
146,1.216667,step_decsent,0.05279577633789349,-0.5316774658027481,-0.7853371730261756,1.0835481961702036,-0.7932189012423136,0.5994631251370102,-0.16090712742981306,0.0385169186465109,-0.9149268058555481,0.20494360451164811,-0.13522918166547135,0.294576433885293,1.856765476144231,-1.6914761908599631,-16.83601775787849,-0.4296657521101941,-2.7364451945759263,-0.9659864176343241,5.1952410190807505,0.08834376674710816,-3.9928821981363516,0.059553999999999885,-0.24784499999999998,-0.976005,-0.019784000000000024,0.198054,-0.746089,0.07933799999999991,0.445899,0.229916,0.5,0.0,flight,-0.746089
147,1.225,step_decsent,0.02640105604222766,-0.4054962198487827,-0.6098643945757761,-0.746274642140697,-1.397438741076154,0.3088908118965906,-0.17016680667225423,-0.006840273610941167,-0.8988359534381247,0.21180847233889183,-0.12924516980678938,0.25585023400935863,-3.1674931352052518,15.14235520868393,21.057575717076247,-1.1112059573312143,-5.443080794125917,1.9309795292719405,0.8238170919529094,0.7181101474477217,-4.647329878307172,0.05791600000000008,-0.244523,-0.978413,-0.018238999999999894,0.20035599999999998,-0.738875,0.07615499999999997,0.44487899999999997,0.23953800000000003,0.5,0.0,flight,-0.738875
148,1.233333,step_decsent,0.0972038881555244,-0.7939517580703314,-1.3951758070322837,1.7541930936619305,5.71132093302386,-0.3768205504917983,-0.15852634105363225,-0.09000360014400999,-0.8059522380895309,0.17232689307572374,-0.08472338893555632,0.27685107404296466,8.496679720784519,-46.616529247756176,-94.24113914034739,1.396911750704678,-9.979998383903705,11.146491701499425,-4.737979030741443,5.342827417644721,2.5202016120972304,0.055785000000000196,-0.238657,-0.9735030000000001,-0.01761299999999988,0.206266,-0.7249420000000001,0.07339800000000007,0.444923,0.24856100000000003,0.5,0.0,flight,-0.7249420000000001
149,1.241667,step_decsent,0.015118790496768604,-0.5592752579793605,-1.1273098152147794,1.7393486245031726,3.1279596461685424,0.7628236195798104,-0.1319894408447435,-0.1409887209023312,-0.889248860091186,0.1899448044156321,-0.07451403887689054,0.2399808015358755,-9.849423765149409,28.15892729673255,32.141347710283455,3.1841732912033285,-6.117725072992659,-9.99479505659401,2.1139802423695984,1.2250240051194754,-4.424078774548701,0.054559000000000024,-0.23517100000000002,-0.971519,-0.01615600000000006,0.21030600000000002,-0.713547,0.07071500000000008,0.445477,0.257972,0.5,0.0,flight,-0.713547
150,1.25,step_decsent,0.025321012840509197,-0.4579383175327038,-0.84723388935559,0.033879767697401995,-0.2905200295697103,-0.15468884680593553,-0.20520820832834705,0.10644425777032164,-1.0415216608664433,0.21168846753871534,-0.04956198247929923,0.2024480979239181,1.2243156538750375,12.16091929037053,33.610455521323885,-8.786603562174992,29.693145166525273,-18.27346703171231,2.609343948527953,2.994366542372679,-4.504104597618834,0.05263799999999996,-0.23046799999999995,-0.9731380000000001,-0.014602999999999922,0.213709,-0.7048,0.06724099999999988,0.44417699999999993,0.2683380000000001,0.5,0.004874792072246392,flight,-0.7048
151,1.258333,step_decsent,0.1088443537741509,-0.5426617064682602,-0.9932797311892674,0.3214743254536437,-0.34636900294212536,-0.03447557927889307,-0.21648865954637384,0.12912516500659735,-1.0528021120844917,0.21288851554061664,0.0038401536061447904,0.06060242409696175,10.023201840110701,-10.16721336080129,-17.526202068124174,-1.3537082944950067,2.721817741062752,-1.3537082944976047,0.14401152068898412,6.408512670760172,-17.022161745704746,0.049927000000000055,-0.22487000000000001,-0.9736339999999999,-0.01373599999999997,0.21826299999999998,-0.6960179999999999,0.06366300000000003,0.443133,0.277616,0.5,0.1310340250735466,flight,-0.6960179999999999
152,1.266667,step_decsent,0.0878329733621516,-0.5140388768898461,-0.9406047516198548,0.41087107485481184,-0.17637689475385787,-0.14426038057168297,-0.20014398848092033,0.23626109911206905,-1.1215502759779141,0.17926565874731162,-0.035637149028076485,0.16474682025437998,-2.5211639563233916,3.4344647922262888,6.320491908976743,1.961203631563881,12.85528366996291,-8.249119737631617,-4.034420061591644,-4.736897364317372,12.496327832663477,0.047526999999999875,-0.218617,-0.975142,-0.012974000000000041,0.22225,-0.686806,0.060500999999999916,0.440867,0.2883359999999999,0.5,0.08989263742796061,flight,-0.686806
153,1.275,step_decsent,0.19740789631584202,-0.5223808952358137,-1.092883715348621,0.6439441252584459,-0.6210517419767139,0.19067269962588262,-0.18960758430336364,0.32041281651265746,-1.1467658706348354,0.18024720988838427,-0.04512180487219713,0.17628705148206067,13.149516735112375,-1.0010822448059127,-18.274206615716746,1.2644190780699374,10.098610032472001,-3.0259923985265185,0.11779084856266167,-1.138204229463666,1.3848831426474015,0.044302000000000064,-0.21159400000000006,-0.975591,-0.013117000000000045,0.22622699999999998,-0.67623,0.05741900000000011,0.437821,0.299361,0.5,0.07311802806178058,flight,-0.67623
154,1.283333,step_decsent,0.11592463698548008,-0.5040201608064279,-1.0214808592343605,0.3290835984878653,-0.44262206777459273,-0.2092149490349314,-0.5527421096843909,0.18480739229570023,-0.9020760830433071,0.176647065882649,-0.06564262570502609,0.18600744029760816,-9.778382254933458,2.2033762665769197,8.568685481130363,-43.57788616116895,-16.273301838108107,29.363949068945637,-0.432034562070708,-2.462597003819585,1.166493317598382,0.03872999999999993,-0.20585399999999993,-0.9745959999999999,-0.012610999999999928,0.22988000000000003,-0.6661679999999999,0.05134099999999986,0.43573399999999995,0.30842800000000004,0.5,0.058689111722349085,flight,-0.6661679999999999
155,1.291667,step_decsent,0.17938564914807445,-0.5865130789536953,-1.1292296616270716,0.6332821269242063,-0.5829205983074126,-0.00630072732976212,-0.5883129349651995,0.2967362610991114,-1.0758339332853561,0.18850491960643376,-0.08927285817134735,0.18322534197264576,7.614712282528866,-9.89835830900756,-12.92882198136707,-4.268157581090636,13.430389825223576,-20.849274087119312,1.4228286205645526,-2.8354010638734954,-0.3338250929880554,0.03233200000000003,-0.19849299999999998,-0.9741510000000001,-0.012534999999999963,0.23402400000000004,-0.6552300000000001,0.04486699999999999,0.43251700000000004,0.318921,0.5,0.03729276755975913,flight,-0.6552300000000001
156,1.3,step_decsent,0.05076203048122583,-0.5390615624624886,-1.1358454338173396,-0.5226290870799308,-0.6107888638434777,-0.5683669192595697,-0.49621984879394304,0.5529821192847685,-1.1006840273610752,0.20460818432735098,-0.11136445457818264,0.17340693627744494,-15.435451658087889,5.694409755334919,-0.793924419808937,11.051612405046788,30.750733011598776,-2.982130574309204,1.9324690652726435,-2.6510976127246977,-1.1782558136566235,0.027773999999999965,-0.18939299999999992,-0.973858,-0.01125300000000018,0.23758800000000002,-0.64432,0.039027000000000145,0.42698099999999994,0.329538,0.5,0.01598749905273572,flight,-0.64432
157,1.308333,step_decsent,0.03948157926314709,-0.46141845673827225,-0.941077643105748,1.6669984970769451,-2.3309256787084167,0.22936710335771637,-0.15576623064922995,0.621624864994601,-1.2128885155406333,0.33373334933399373,-0.11220448817952718,0.09804392175687263,-1.353708294501241,9.317545388721594,23.37306980818353,40.85606842010275,8.237458983539321,-13.465077184634477,15.495639626382328,-0.10080806448392432,-9.043923499408736,0.026147000000000142,-0.18036799999999997,-0.9761229999999999,-0.008800999999999837,0.24049800000000002,-0.6356609999999999,0.03494799999999998,0.42086599999999996,0.34046199999999993,0.5,0.0,flight,-0.6356609999999999
158,1.316667,step_decsent,0.10187185025199103,-0.49556035517157854,-1.204823614110858,-0.09658873052144071,0.10640344076950363,-0.20978697807748428,-0.3528917686585145,0.7866570674346,-1.2140628749699933,0.20530357571394348,-0.0920326373890103,0.18922486201103708,7.4862336199716175,-4.096700075990643,-31.646984761831998,-23.65317230732938,19.802280110390893,-0.14091185857452032,-15.410340007205336,2.42042846058516,10.940837563494572,0.02235699999999996,-0.169682,-0.9762,-0.007938999999999918,0.24386099999999997,-0.6240429999999999,0.03029599999999988,0.413543,0.35215700000000005,0.5,0.010029442639650943,flight,-0.6240429999999999
159,1.325,step_decsent,0.12528501140046255,-0.4508580343213782,-1.2313692547701844,-0.37759753881076574,-0.3711315553206249,-0.1360147531443678,-0.45337813512541625,0.7909516380655315,-1.062642505700238,0.23472938917555078,-0.06960278411136475,0.18792751710068717,2.8096917254856284,5.364493081747357,-3.1856043032913433,-12.058846329881513,0.5153690904754069,18.171171159217174,3.5312388649475066,2.691690060919927,-0.1556876167466608,0.017534999999999856,-0.15933399999999998,-0.974794,-0.0070270000000001165,0.24703799999999998,-0.6122160000000001,0.024561999999999973,0.40637199999999996,0.36257799999999996,0.5,0.0,flight,-0.6122160000000001
160,1.333333,step_decsent,0.07488299531980644,-0.4660986439457495,-1.1646465858634232,0.018160288848040558,-1.3913168178065476,-0.04613356490456137,-0.2517700708028197,0.8969158766350473,-1.3228129125164774,0.24072962918518412,-0.19968798751949715,0.1822872914916556,-6.048483869033389,-1.8289463127770342,8.007040550433228,24.193935476130207,12.716217277032763,-31.221697685855613,0.7200576034601266,-15.610848842929332,-0.676854147249667,0.014812999999999965,-0.147976,-0.976112,-0.0056449999999999,0.24925799999999998,-0.600992,0.020457999999999865,0.397234,0.37512,0.5,0.0,flight,-0.600992
161,1.341667,step_decsent,0.041516678665702425,-0.507919366450692,-1.3341732661387464,-0.6240332917495754,-0.5997631096450864,-0.49003659046071774,-0.2859371250300059,0.9712023038157054,-1.0697144228461926,0.23350131989441328,-0.14614830813535157,0.18430525557956162,-4.00363770747596,-5.018085253772894,-20.34157430709461,-4.099718529780038,8.913658169025611,30.36938920929801,-0.8673277286742234,6.424247586290689,0.24213631964315638,0.012083999999999984,-0.13564900000000008,-0.9739079999999999,-0.004044999999999854,0.25227299999999997,-0.5883369999999999,0.016128999999999838,0.38792200000000004,0.385571,0.5,0.0,flight,-0.5883369999999999
162,1.35,step_decsent,-0.01932077283089558,-0.5090603624144905,-1.3429737189487285,0.3765192296083358,-0.028478817085476064,-0.3026340891493017,-0.2618504740189449,0.3775351014040607,-0.0632425297011869,0.20136805472216693,-0.15396615864634391,0.19608784351373337,-7.300786211040075,-0.13692499265551944,-1.0560965810610754,2.8905137418769447,-71.24291400595637,120.78145843573598,-3.856146066512155,-0.9381795885026053,1.4139671107850167,0.010062999999999933,-0.12826099999999996,-0.963244,-0.0022060000000001523,0.255232,-0.575512,0.012269000000000085,0.383493,0.38773199999999997,0.5,0.0,flight,-0.575512
163,1.358333,step_decsent,-0.0429617184687488,-0.462138485539425,-1.2646105844233808,-0.23395091303487375,0.19470209024648524,-0.11856955675751206,-0.17520700828033484,-0.031921276851086276,-0.3099723988959589,0.2906516260650628,-0.08388335533421143,0.21780871234849725,-2.8370269576207168,5.630850459026272,9.403952301133856,10.39763179390506,-49.13673085985248,-29.608768654119075,10.714457139433177,8.41027280836831,2.6066085245126693,0.008960999999999997,-0.12467600000000006,-0.955289,0.0005740000000000745,0.258384,-0.563159,0.008386999999999922,0.38306000000000007,0.3921300000000001,0.5,0.0,flight,-0.563159
164,1.366667,step_decsent,0.012718982481394128,-0.3780897528197733,-1.172906167506588,-0.5033444821630437,-0.13020714604358222,0.12743782887896266,-0.06131509479240752,0.0746340292776586,-0.5825533957283371,0.21106311495078361,-0.1293496520278396,0.23482121430285235,6.681149622047337,10.08504112306828,11.003649738036017,13.665936343643683,12.785613886338378,-32.707103051641,-9.549857345125817,-5.455519161702403,2.041336927568392,0.008344000000000129,-0.12090300000000004,-0.950369,0.002226999999999979,0.260457,-0.5514270000000001,0.00611700000000015,0.38136000000000003,0.3989419999999999,0.5,0.0,flight,-0.5514270000000001
165,1.375,step_decsent,0.05352214088562949,-0.3558142325693055,-1.2983319332773458,-0.29421966478360057,2.3067061619993465,0.1369312702823576,-0.1549261970479017,0.07020280811233205,-0.33421336853474437,0.18816752670107142,-0.12780511220448726,0.21828873154926579,4.896574871503148,2.673169356830434,-15.051693960249485,-11.233781621924281,-0.5317678105516122,29.80199534304512,-2.7475804931852155,0.18535219288999835,-1.9839772895219874,0.0066070000000000295,-0.11735299999999999,-0.942335,0.0033490000000000464,0.262357,-0.538789,0.003257999999999983,0.37971,0.40354600000000007,0.5,0.0,flight,-0.538789
166,1.383333,step_decsent,0.02844113764551121,-0.2696507860314436,-1.1548061922477062,-0.7307162195839929,2.3982374987376507,0.1674404110931973,0.10608424336974859,-0.04992199687987228,-0.14916596663866705,0.14796591863675157,-0.12024480979239315,0.19860794431777665,-3.009840782445519,10.340027185630948,17.223777874671892,31.322505750348338,-14.4155532211935,22.206576490589107,-4.824385943156153,0.9072725803545161,-2.3617889393362916,0.007254000000000094,-0.11552199999999996,-0.933955,0.004345000000000043,0.263602,-0.527511,0.0029090000000000504,0.37912399999999996,0.406444,0.6837873514940462,0.04114319921328252,single,-0.527511
167,1.391667,step_decsent,0.038396928245751805,-0.2013438924886009,-1.0104391648668043,-0.9974942533723254,1.8612452498711272,-0.11443225214513121,-0.046556275497966405,-0.13186945044397214,0.06791456683465277,0.16774658027357808,-0.11279097672186096,0.18154547636188806,1.1945993040845357,8.196171531418548,17.322657473110247,-18.31539703236307,-9.832907795068301,26.047580210381348,2.373489517257783,0.894388417390464,-2.0473323681171656,0.006545999999999941,-0.11494300000000002,-0.924968,0.005422999999999956,0.26434,-0.517577,0.0011229999999999851,0.37928300000000004,0.40739100000000006,0.7408913401626416,0.04717099250374307,single,-0.517577
168,1.4,step_decsent,-0.0074402976119053235,-0.34405376215049016,-0.533181327253092,0.4366470766622459,-1.367622201476104,-1.3286323218260796,0.07284291371655223,0.009480379215174844,-0.1320052802112097,0.18168726749070313,-0.1078843153726172,0.15984639385575566,-5.500687130404122,-17.125869394202635,57.27323144290372,14.32847584477616,16.96265806542041,-23.991341299155682,1.6729493840303822,0.5888229148258503,-2.603994060498331,0.0072149999999999714,-0.11199699999999996,-0.921625,0.0069989999999999775,0.266308,-0.511802,0.00021599999999999397,0.378305,0.40982300000000005,0.7482209871488901,0.05841145879542642,single,-0.511802
169,1.408333,step_decsent,-0.04956198247929791,-0.31297251890075045,-0.5021000840033472,-0.2311201600331601,-1.7652108835157034,-1.6803326951139934,0.03468138725548766,0.03372134885395065,-0.07236289451577929,0.18120724828991647,-0.10620424816992456,0.14700588023520397,-5.054804376262073,3.729898385904136,3.729898385904749,-4.579566357981988,2.9090327179617645,7.157372578354657,-0.057604608278729735,0.20161612896827127,-1.5409232713970318,0.007916999999999952,-0.10910799999999998,-0.918044,0.008921999999999874,0.268031,-0.5063930000000001,0.0010049999999999226,0.377139,0.4116509999999999,0.8549299355752085,0.07271484285514412,single,-0.5063930000000001
170,1.416667,step_decsent,0.007199424046070329,-0.2606191504679684,-0.5410367170626436,0.16680730712482456,0.26631586755488695,-1.1396244005633638,-0.008519318454515668,0.0526757859371221,-0.026757859371250924,0.16102711783059778,-0.09827213822894192,0.1270698344132532,6.810823917130948,6.28190165980118,-4.672022205339229,-5.183669991601169,2.2743505019404617,5.472166444027986,-2.421421941362979,0.9517770507538753,-2.3921341279039057,0.007786000000000071,-0.10649700000000001,-0.9137580000000001,0.010204000000000102,0.26938400000000007,-0.5008250000000001,0.0024180000000000312,0.375881,0.412933,0.9005110244918982,0.12091525190148561,single,-0.5008250000000001
171,1.425,step_decsent,0.04812192487700573,-0.2222488899555901,-0.5623424936997476,-0.576183806747708,-0.20230391277483378,-1.2072794774374473,0.035161406456242834,0.10020400816032828,-0.02616104644185715,0.17760710428415935,-0.11340453618144544,0.13884555382214608,4.910896535573585,4.604615446103159,-2.556795468271177,5.241896665157535,5.703614811377097,0.0716204163439056,1.989677961545815,-1.8159603927161,1.4131428547813123,0.007677999999999852,-0.10381000000000001,-0.9092899999999999,0.011282999999999932,0.270291,-0.494982,0.0036050000000000804,0.374101,0.41430799999999995,0.8177184099447197,0.07940861696194335,single,-0.494982
172,1.433333,step_decsent,0.014040561622455754,-0.2894515780631282,-0.2938917556702203,0.5032622878104602,-1.1719955931931074,-1.309773552842494,0.01380055202209148,0.03792151686067273,0.019680787231489555,0.19404776191047574,-0.12840513620545124,0.16776671066842952,-4.08992718763354,-8.064645158710993,32.215377178630725,-2.5634050683009177,-7.474197923875689,5.501240090405271,1.9729578334713231,-1.800144008641058,3.4706776486599904,0.007676000000000016,-0.101082,-0.9066770000000001,0.012782999999999989,0.271633,-0.49113500000000004,0.005106999999999973,0.372715,0.415542,0.9251700063258221,0.021901677607263248,single,-0.49113500000000004
173,1.441667,step_decsent,0.037317014638822636,-0.2621790256779429,-0.33129349652027745,0.5350226836938434,-0.40070149641462827,-1.0396801439816372,0.028917686585065258,0.02279817614591097,0.005999520038396638,0.14338852891769235,-0.0961123110151176,0.09911207103431571,2.7929509258899334,3.272444490662962,-4.487849874016903,1.8139110346740657,-1.8146557133143322,-1.6416207335124566,-6.078621669400407,3.8748290365170868,-8.237897724275651,0.007606000000000002,-0.09870699999999999,-0.9038660000000001,0.013667000000000096,0.273017,-0.48754800000000004,0.006061000000000094,0.371724,0.416318,0.937817837639383,0.1682493859230424,single,-0.48754800000000004
174,1.45,step_decsent,0.01572062882516554,-0.2767310692427692,-0.35929437177488055,1.0183657119624283,1.0235840854861586,-0.8840396441432636,0.033841353654160335,0.013080523220932045,-0.003480139205568404,0.11796471858873936,-0.08832353294132018,0.10764430577223627,-2.5916699644374526,-1.7463150803823886,-3.3602394401300075,0.5908636828387281,-1.1661649975973856,-1.137604613460354,-3.050979278645533,0.934690756485957,1.0239091249154728,0.007757000000000014,-0.09629199999999999,-0.900901,0.014518999999999949,0.27458699999999997,-0.48365699999999995,0.006761999999999935,0.37087899999999996,0.417244,0.9392535169337757,0.1958435258870141,single,-0.48365699999999995
175,1.458333,step_decsent,-0.01032041281651614,-0.27397095883835293,-0.24492979719187852,0.0900107250528252,-0.46410748189251777,-1.0921329610207013,0.014520580823210559,0.010440417616698273,0.004440177607104484,0.11292451698068694,-0.09060362414496156,0.10596423856953699,-3.125049999001707,0.33122649758984907,13.724297921876879,-2.3185854831332575,-0.31682534552186803,0.9504760365621924,-0.6048483869017561,-0.27362188931253323,-0.201616128969069,0.00796399999999986,-0.093922,-0.898823,0.01554600000000006,0.276115,-0.480733,0.0075820000000002,0.37003700000000006,0.41809,0.9692878614009828,0.2009766680454857,single,-0.480733
176,1.466667,step_decsent,-0.014878809695226224,-0.2805375569954465,-0.2258219342452707,-0.10800486891396766,-0.293039629564461,-0.9939492222347798,-0.0009599232061444868,0.005279577633794677,0.0027597792176624852,0.1723062155027622,-0.07775377969762683,0.10091192704584259,-0.5469638683357535,-0.7879287445516823,2.2927601327823597,-1.857511882572035,-0.6192512578478154,-0.20163167619894776,7.125233803944852,1.5418579850413945,-0.6062288845325766,0.008079999999999865,-0.09153999999999995,-0.896918,0.017106000000000066,0.277805,-0.47800999999999993,0.0090260000000002,0.369345,0.41890800000000006,0.9899429717937043,0.14285740795767082,single,-0.47800999999999993
177,1.475,step_decsent,0.05808232329292217,-0.16224648985958726,-0.4213368534741233,-1.1281388070778902,1.7119116367259832,-0.25723189850991146,-0.005280211208440203,-0.0012000480019279175,-0.004080163206528107,0.14460578423135478,-0.09024360974438851,0.1720868834753349,8.755686186025095,14.19549587613791,-23.462728816614568,-0.5184552984874164,-0.7775861797338871,-0.8208259239398144,-3.3241847199576307,-1.4988395591937438,8.541336424995928,0.007552000000000003,-0.09019800000000006,-0.893441,0.017827000000000037,0.278405,-0.473065,0.010275000000000034,0.368603,0.420376,0.9886999904861674,0.09630650585597555,single,-0.473065
178,1.483333,step_decsent,0.03348133925358728,-0.2871714868594811,-0.19248769950798805,-0.12786257844012716,1.0053377154173684,-0.617665103424935,-0.0021600864034383334,-0.004680187207476369,-0.012480499219968903,0.15408616344654683,-0.10092403696148039,0.2078483139325539,-2.9522361741671803,-14.991599303959553,27.462996995816315,0.37442995379837973,-0.4176334100022181,-1.0080806448386983,1.137691013463594,-1.2817025341524033,4.2915433165989825,0.0072550000000000114,-0.08784399999999992,-0.891941,0.01883199999999996,0.279957,-0.469729,0.011576999999999948,0.36780099999999993,0.422212,0.9774948779689928,0.03713114226212427,single,-0.469729
179,1.491667,step_decsent,0.07535397168224696,-0.2439404847612114,-0.14818814494840132,-0.3801488200038497,1.606234388539242,-0.21255155086696448,0.002759779217648674,0.0,-0.018358531317494504,0.15418766498679756,-0.10439164866810359,0.23218142548596177,5.024313946323417,5.18730526737093,5.315521305445931,0.5903366475986285,0.5615775386940645,-0.7053074271088979,0.012179210493248872,-0.41608011838531,2.9197398072243437,0.006650000000000045,-0.08581099999999997,-0.890859,0.01948900000000009,0.28112,-0.466559,0.012839000000000045,0.36693099999999995,0.42429999999999995,0.9690586552460595,0.0039610603143167,single,-0.466559
