frame_id,timestamp,gait_type,root_linear_velocity_x,root_linear_velocity_y,root_linear_velocity_z,root_angular_velocity_x,root_angular_velocity_y,root_angular_velocity_z,left_linear_velocity_x,left_linear_velocity_y,left_linear_velocity_z,right_linear_velocity_x,right_linear_velocity_y,right_linear_velocity_z,root_acceleration_x,root_acceleration_y,root_acceleration_z,left_acceleration_x,left_acceleration_y,left_acceleration_z,right_acceleration_x,right_acceleration_y,right_acceleration_z,left_pos_rel_x,left_pos_rel_y,left_pos_rel_z,right_pos_rel_x,right_pos_rel_y,right_pos_rel_z,step_length,step_width,step_height,left_contact_prob,right_contact_prob,support_type,max_foot_height
1,0.008333,stand,-0.05520220808833877,0.0440417616704609,-0.014760590423628376,0.05572404177523306,-0.07034223272849247,-0.04656475342794435,0.006360254410186099,0.0037201488059526275,0.009600384015356893,-0.020760830433214774,-0.01860074402976314,-0.022320892835715766,0.0,0.0,0.0,0.0,0.0,0.0,0.0,0.0,0.0,0.1625700000000001,0.013404000000000027,-0.906987,-0.04833500000000002,0.007500000000000007,-0.910174,0.21090500000000012,0.00590400000000002,0.003187000000000051,0.9479599096196152,0.9404829152511424,double,-0.906987
2,0.016667,stand,-0.05603551715862672,0.004559635229186225,-0.06287497000239607,-0.44325777775084213,-0.549123171626459,0.17115052286854965,0.01055915526756251,0.0022798176145897822,0.008519318454528827,0.030837532997381057,0.017038636909050994,0.04019678425726298,-0.0999890893074098,-4.737476174858972,-5.773263688357055,0.5038277966614363,-0.1728259168901902,-0.12971748990017581,6.191308307006938,4.276383601969538,7.501521129467091,0.16312499999999996,0.01338499999999998,-0.906392,-0.04761099999999985,0.007604,-0.909315,0.2107359999999998,0.005780999999999981,0.002923000000000009,0.9478406328980858,0.910914366202014,double,-0.906392
3,0.025,stand,-0.057602304092168,0.03912156486259366,0.004800192007685108,0.03248997765687933,-0.013509333375324558,-0.06512309074194798,0.009600384015370216,0.0014400576023055323,0.012480499219967956,-0.03264130565223208,-0.07860314412576704,-0.018360734429378883,-0.18802195290306967,4.1475974599072885,8.12134429498154,-0.11505715254917721,-0.10077523248340933,0.4753607062809467,-7.617765348567519,-11.477472823091087,-7.027183329730213,0.16368500000000008,0.013071,-0.906328,-0.04740299999999986,0.00662299999999999,-0.909508,0.21108799999999994,0.006448000000000009,0.0031799999999999606,0.9418474753518041,0.8548848573074478,double,-0.906328
4,0.033333,stand,-0.055202208088312124,0.03252130085202996,0.010920436817480289,-0.06794376921692614,0.11495813716201922,-0.06418223750379937,0.008280331213260142,0.0013200528021100738,0.010200408016320862,0.008400336013442276,-0.01332053282130952,0.010680427217089372,0.28802304138436075,-0.7920633638021958,0.7344587555256428,-0.1584126727601192,-0.014401152069537796,-0.2736218893132238,4.925194007641228,7.834226725603926,3.48507880072822,0.16421400000000008,0.012811000000000017,-0.9063340000000001,-0.04687299999999994,0.006241000000000052,-0.90951,0.21108700000000002,0.006569999999999965,0.0031759999999999566,0.9462327569939984,0.9682862733311364,double,-0.9063340000000001
5,0.041667,stand,-0.06227501799855245,0.04391648668106946,0.02747780177583545,0.022593052989113273,0.3223651976114034,-0.0659841911396635,0.0056395488360821,-0.0009599232061444684,0.0089992800575944,0.004679625629937631,-0.00983921286297414,0.031557475401969425,-0.8486692956851843,1.3673129144515836,1.9867248570140583,-0.31686853577850277,-0.2735752349717473,-0.1441238251411642,-0.4464495300581527,0.4177249770020854,2.5050453785553213,0.16477999999999993,0.012436999999999976,-0.906488,-0.046315000000000106,0.005792999999999993,-0.909476,0.21109500000000003,0.006643999999999983,0.0029879999999999907,0.9523472833009519,0.9443577084417999,double,-0.906488
6,0.05,stand,-0.052082083283336786,0.03756150246009933,-0.029761190447594375,-0.25342065864196184,-0.05675260835586173,-0.1245974449648205,0.003960158406330221,-0.002160086403451637,0.005280211208446957,0.007800312012478308,-0.010200408016320862,0.05184207368294587,1.2232010938696345,-0.7626286116608822,-6.868953824964578,-0.20153491296674408,-0.14402534469064784,-0.44630611414225885,0.3744973457987131,-0.04334515220769499,2.4342491636837207,0.16524699999999992,0.012106000000000006,-0.9061960000000001,-0.04581600000000008,0.005394999999999983,-0.9087960000000002,0.211063,0.0067110000000000225,0.0026000000000000467,0.9624254279801449,0.9109854288622827,double,-0.9061960000000001
7,0.058333,stand,-0.04572182887315069,0.0289211568462728,-0.021240849633996608,1.0807404689904545,0.10144966567213042,0.0352824070969459,0.0031201248050019815,-0.0034801392055683724,0.00516020640825816,0.0038401536061480864,-0.009000360014399585,0.06528261130445084,0.7632610596647181,-1.036882948977143,1.0224817969036082,-0.10080806448196805,-0.1584126727609187,-0.014401152068738298,-0.4752380182803578,0.14401152069138098,1.6129290317418665,0.16565399999999997,0.011836000000000013,-0.905976,-0.04540300000000008,0.005079,-0.908075,0.21105700000000005,0.006757000000000013,0.002098999999999962,0.967406088080025,0.8899801457458747,double,-0.905976
8,0.066667,stand,-0.052315814734833564,0.017878569714424072,0.0015598752099880916,-0.11455333744151194,0.12404937898422333,-0.019240119544373487,0.0007199424046016905,-0.002159827213825054,0.005639548836088761,0.007199424046070191,-0.0038396928245778734,0.045356371490279504,-0.7912150062014487,-1.3250044554654097,2.7358681118292174,-0.28799884814018367,0.15842476502799593,0.05751649002047043,0.4030802063741426,0.6192305243366584,-2.3909575011004724,0.16609600000000002,0.011668999999999985,-0.905942,-0.04490700000000003,0.004897999999999958,-0.90771,0.21100300000000005,0.006771000000000027,0.0017679999999999918,0.9721837501820128,0.9231926041186556,double,-0.905942
9,0.075,stand,-0.061442457698289495,0.029281171246845875,-0.014520580823237471,0.13597396093421743,0.08990785005608823,-0.1166936898103274,-0.0020400816032561803,-0.0008400336013415638,0.00276011040442227,-0.006000240009586405,0.008520340813637742,0.02796111844474246,-1.0952409652533226,1.3683669185673601,-1.9297319132635995,-0.3312161295881283,0.1583815687607694,-0.3455464336573255,-1.584023047600697,1.48326336712056,-2.0875138660190875,0.16659099999999993,0.01141800000000004,-0.905798,-0.04444500000000007,0.004725000000000035,-0.907356,0.211036,0.0066930000000000045,0.0015580000000000593,0.9785307916859339,0.9502667327850614,double,-0.905798
10,0.083333,stand,-0.05196207848315461,0.035281411256452205,-0.017520700828030644,-0.009194594125433565,0.014017472586695614,-0.08119142229259509,-0.0046801872075029685,0.0009600384015303592,0.0024000960038358904,0.0013200528021100728,0.01428057122284653,0.01764070562821944,1.1376910134567237,0.7200576034568973,-0.36002880172724955,-0.3168253455234353,0.216017281035872,-0.04320345620861387,0.8784702762146253,0.6912552993170267,-1.2384990779458793,0.16698499999999994,0.011131999999999975,-0.905632,-0.04400099999999996,0.0045499999999999985,-0.9070630000000001,0.2109859999999999,0.006581999999999977,0.001431000000000071,0.9767789757950369,0.9621086440188441,double,-0.905632
11,0.091667,stand,-0.059995200383962714,0.03515718742500455,-0.018838492920561896,-0.18795908980766632,-0.049520719017480765,-0.028141816858471815,-0.007199424046070197,-0.0004799616030655738,0.002279817614589784,0.0028797696184334077,0.0191984641228694,0.04367650587953338,-0.9638975162956698,-0.014905667320332801,-0.15812240131164537,-0.3022842378890366,-0.17278617765729948,-0.01443225212936243,0.18715104587513032,0.5900999400075443,3.1240461064691574,0.16742499999999993,0.010835000000000039,-0.905456,-0.04347699999999999,0.004417000000000004,-0.9065420000000001,0.21090199999999992,0.006418000000000035,0.0010860000000000314,0.976528316914316,0.9203390646486751,double,-0.905456
12,0.1,stand,-0.04824192967718866,0.03888155526220937,-0.010200408016334176,-0.18561079523455645,-0.0005280561744326142,-0.07639972735559554,-0.010560422416880582,-0.0018000720028852448,0.0009600384015370207,0.0010800432017191559,0.03144125765030412,-0.006120244809795177,1.410448902768996,0.44694201814530365,1.0366116529734444,-0.4033359379347632,-0.15841958476175086,-0.15837984075996187,-0.21597580903807156,1.4691939910518075,-5.975849116684089,0.16773900000000008,0.010496000000000005,-0.9053629999999999,-0.04306600000000005,0.004354999999999998,-0.906508,0.21080500000000013,0.0061410000000000076,0.0011450000000000626,0.9706238819834987,0.9465840074800156,double,-0.9053629999999999
13,0.108333,step_decsent,-0.049441977679116685,0.033361334453378216,-0.0192007680307138,-0.06230933279581897,-0.015437824006177487,-0.03378198020416338,-0.012240489619590374,-0.0016800672026831276,0.001080043201732481,0.0004800192007818344,0.027841113644547003,-0.019560782431293514,-0.1440115206921905,-0.6624529951795463,-1.080086405181763,-0.201616128970334,0.014401152070336888,0.014401152069538015,-0.07200576034289234,-0.4320345620733377,-1.6129290317410716,0.16804900000000011,0.010204000000000046,-0.905194,-0.042649999999999855,0.004309000000000007,-0.9065110000000001,0.21069899999999997,0.005895000000000039,0.0013170000000000126,0.9661593884645077,0.9432847699093165,double,-0.905194
14,0.116667,step_decsent,-0.057955363570915616,0.061915046796258214,-0.031077513798897165,-0.10131248762604649,-0.17855828742285684,-0.07120767571647338,-0.014398848092167014,-0.002879769618433403,0.000479961603065573,-0.0009599232061444676,0.018118550515960175,-0.049436045116393455,-1.0215245850490668,3.4261713874346014,-1.425095484543239,-0.2589822981253465,-0.14395277366813944,-0.07200403151750748,-0.17277926648983688,-1.166614246290715,-3.584744742632579,0.168412,0.009664000000000006,-0.904931,-0.04217499999999985,0.003944000000000003,-0.906664,0.21058699999999986,0.005720000000000003,0.0017329999999999846,0.9581835943284074,0.9122325376331932,double,-0.904931
15,0.125,step_decsent,-0.03672146885874447,0.028801152046084025,-0.006720268810759157,0.25182281510065707,0.16286532836930814,-0.0402463426580907,-0.01296051842073648,-0.003720148805952631,0.0013200528021167365,-0.006000240009613051,0.027841113644547003,-0.033961358454335525,2.5481692922322288,-3.9738263230738293,2.9229863180292845,0.17260646483025752,-0.1008495364837668,0.1008149764851991,-0.6048622109046667,1.1667542456002444,1.8570366809141898,0.16860999999999993,0.009392999999999985,-0.9048639999999999,-0.04191900000000004,0.003935999999999995,-0.9068909999999999,0.21052899999999997,0.00545699999999999,0.002027000000000001,0.9571494599345503,0.926128784037402,double,-0.9048639999999999
16,0.133333,step_decsent,-0.049801992079689654,0.04236169446777774,-0.003960158406330218,-0.10576504181236186,0.022677965700153492,-0.0428934788550264,-0.01428057122284653,-0.00444017760710539,-0.002040081603262838,-0.0008400336013282392,0.012840513620540998,-0.033721348853957875,-1.569725575536442,1.6273301838105967,0.331226497591376,-0.15841267276011634,-0.08640691241482763,-0.40323225793586603,0.619249538975736,-1.8001440086410647,0.028802304137483442,0.168906,0.009002999999999983,-0.904848,-0.041510999999999854,0.003689999999999971,-0.907139,0.21041699999999985,0.005313000000000012,0.002291000000000043,0.9519342725440656,0.9398447883706706,double,-0.904848
17,0.141667,step_decsent,-0.014038876889839572,0.08375329973601849,0.0896328293736567,0.3399070045994478,0.5488131681097196,-0.16671703744870964,-0.01115910727140616,-0.005039596832251811,-0.0021598272138250592,-0.008879289656843016,0.006479481641468517,-0.015958723302135176,4.291230524340072,4.966595304564536,11.230260112789434,0.3745457105160041,-0.07192455305332641,-0.014368323801562442,-0.9646335559772973,-0.7632627764665822,2.1313445586540367,0.16893000000000002,0.00826300000000002,-0.905613,-0.04146800000000006,0.003045999999999993,-0.9080190000000001,0.21039800000000008,0.005217000000000027,0.0024060000000001303,0.9552177585323312,0.967703357734452,double,-0.905613
18,0.15,step_decsent,0.009240369614770509,0.06360254410176767,-0.02616104644186383,-0.25961474681940977,0.34215725075792713,-0.008708132248822706,-0.008160326413051353,-0.00444017760710539,-0.004320172806909932,0.0018000720028919063,0.005400216008642411,0.0007200288011527656,2.793621325406223,-2.4181874036062396,-13.89582093069968,0.3598680977264856,0.07193318434494425,-0.25925184124383427,1.281574662154676,-0.12951705662139748,2.0015303136070957,0.16878500000000018,0.007695999999999981,-0.905431,-0.041529999999999845,0.00256099999999998,-0.907795,0.21031500000000003,0.005135000000000001,0.0023640000000000327,0.9592841888567685,0.9904371910173255,double,-0.905431
19,0.158333,step_decsent,-0.028201128045120007,0.026521060842430222,-0.013200528021127374,0.16159329130185987,0.025717341291595475,0.028379239298122617,-0.003960158406356865,-0.003000120004799859,-0.005160206408258156,0.005040201608049374,0.0021600864034582966,0.002040081603262838,-4.493159445564681,-4.449955989360065,1.555324423465312,0.5040403224162348,0.1728138248296568,-0.1008080644843662,0.38883110586313036,-0.388831105866328,0.15841267276011897,0.168987,0.007450000000000012,-0.905364,-0.041252999999999984,0.0023580000000000267,-0.9076679999999999,0.21023999999999998,0.005091999999999985,0.0023039999999999727,0.9650213483891756,0.9902487125539239,double,-0.905364
20,0.166667,step_decsent,-0.021958243340511403,0.030477561795060202,-0.0011999040076872453,-0.05229845904550349,0.0035394938577431537,0.00489904008345842,-0.0004799616030589122,-0.0015598752099814294,-0.004079673626113988,-0.0002399808015427777,-0.00035997120230750576,0.005879529637631534,0.7490862376540195,0.47474213494480155,1.439959684838027,0.41759020917901957,0.17281555013420066,0.1296535615723743,-0.6335712034547811,-0.30238272207413003,0.46069690837157334,0.16916599999999993,0.007182999999999995,-0.9053879999999999,-0.04107200000000022,0.002100999999999964,-0.9076089999999999,0.21023800000000015,0.005082000000000031,0.0022210000000000285,0.9704666524983573,0.9901742912594635,double,-0.9053879999999999
21,0.175,step_decsent,-0.01188047521901734,0.04464178567142498,-0.0006000240009373243,-0.12344164600076118,0.045639204316065766,-0.0024478773900608367,0.001800072002865266,-0.002160086403458304,-0.003720148805952637,-0.0007200288011461063,-0.00408016320652569,0.005040201608062714,1.2093805498012826,1.6997748561580241,0.07198848034920466,0.27361497730999446,-0.07202822434619897,0.04314470420753049,-0.05760806427497058,-0.44644089814210897,-0.100723392483958,0.16927999999999988,0.0067929999999999935,-0.9054140000000002,-0.0409790000000001,0.001695000000000002,-0.9075620000000001,0.21025899999999997,0.005097999999999991,0.0021479999999999277,0.9707479454267345,0.9891257432544815,double,-0.9054140000000002
22,0.183333,step_decsent,-0.019680787231495602,0.038161526461056604,0.0,-0.1862613252932199,0.027468245277207665,0.05916620433147334,0.0021600864034649584,0.0006000240009639688,-0.0013200528021100728,-0.009000360014406239,-0.009960398415936598,-0.00024000960038425518,-0.9360748844927703,-0.7776622117326739,0.07200576034289258,0.04320345621021146,0.33122649759057604,0.2880230413827628,-0.9936794927709258,-0.7056564513873639,-0.6336506910412775,0.169462,0.006480000000000041,-0.9054250000000001,-0.04089000000000009,0.0012940000000000174,-0.907564,0.2103520000000001,0.005186000000000024,0.002138999999999891,0.9742739298794474,0.9776223312205256,double,-0.9054250000000001
23,0.191667,step_decsent,0.0034797216222770253,0.04043676505879906,-0.010079193664503588,0.003476889822289992,0.14106165211755098,0.11189347254121466,0.001799856011530868,-0.0004799616030722338,-0.0010799136069091957,-0.006239500839925718,-0.013438924886009224,0.0,2.7790387393535645,0.2730067911857999,-1.2094064872214516,-0.04322418909696305,-0.12958790545190804,0.028814398272243438,0.33127659880975746,-0.41738978522589665,0.028798848138259534,0.16944800000000004,0.0061390000000000056,-0.9053500000000001,-0.04097100000000009,0.0008449999999999847,-0.9074800000000001,0.21041900000000013,0.005294000000000021,0.0021299999999999653,0.975111415397768,0.9753054171019436,double,-0.9053500000000001
24,0.2,step_decsent,0.007800312012478302,0.06396255850234073,0.005760230409195478,-0.0897228539959826,0.022527764413559737,-0.015184815814208042,0.00180007200286526,0.0007200288011527656,0.0015600624024943279,-0.0024000960038292286,-0.011520460818430925,0.00396015840633688,0.5184915864876123,2.8232081415506594,1.900806921120731,2.5919996926915467e-05,0.14400460869134746,0.31680979352016336,0.4607470102119868,0.23022489710527988,0.47523801828115647,0.16939799999999994,0.005612000000000006,-0.9053849999999999,-0.04105599999999998,0.00021599999999999397,-0.9074949999999999,0.21045399999999992,0.005396000000000012,0.0021100000000000563,0.9747525458311871,0.9793061782636647,double,-0.9053849999999999
25,0.208333,step_decsent,0.006720268810759168,0.02652106084243031,0.0190807632305317,-0.15206618375262837,0.060793984452074165,0.04615972208242737,0.001320052802110077,0.002640105604220154,0.003840153606148096,0.00048001920075518877,-0.0010800432017324826,0.012720508820352245,-0.12961036862104122,-4.493159445567085,1.5985278796755376,-0.057604608274953076,0.2304184331054114,0.2736218893140254,0.3456276496561172,1.2529002300130168,1.051284101045888,0.16935299999999986,0.005413000000000001,-0.9055119999999999,-0.041108000000000144,-1.4000000000014001e-05,-0.907548,0.210461,0.005427000000000015,0.002036000000000149,0.9715675026718618,0.9787078355309752,double,-0.9055119999999999
26,0.216667,step_decsent,0.011759059275249745,0.0221982241420675,0.01679865610751486,-0.09105707101129283,-0.07600757861295891,-0.044281804472235425,0.00035997120230084497,0.002519798416125897,0.003119750419962859,0.0019198464122889352,-0.0008399328053730787,0.011999040076792523,0.6046064872198911,-0.5186989081308861,-0.27383094828615745,-0.11520057593103326,-0.014435707714693678,-0.08644146702486637,0.17276544414851755,0.028810942687713427,-0.08656932368127204,0.1692579999999999,0.005249000000000004,-0.905626,-0.04119000000000006,-0.00020599999999998397,-0.9075880000000001,0.21044799999999997,0.005454999999999988,0.0019620000000000193,0.9736693521576081,0.979698914907983,double,-0.905626
27,0.225,step_decsent,0.03420136805473305,0.020640825633025963,0.007320292811723114,0.14626059414258147,0.0930381502649813,0.04322197136246931,0.0008400336013548856,0.004320172806916593,0.006240249609983973,0.0014400576023188543,-0.0006000240009573072,0.005880235209410921,2.693184780929231,-0.18689529689686005,-1.137449093458747,0.057609792278175954,0.21605356903764486,0.37447488179780525,-0.05757696027482065,0.02879020813821809,-0.7342859555240125,0.1689799999999999,0.005113000000000034,-0.9056350000000001,-0.04146300000000003,-0.0003829999999999667,-0.9076000000000001,0.21044299999999994,0.005496000000000001,0.0019649999999999945,0.9676231403096605,0.9898605609379187,double,-0.9056350000000001
28,0.233333,step_decsent,0.0062402496099773115,0.060842433697352066,0.02196087843511605,-0.20319661414352497,-0.17504610584698949,-0.043917234935045193,0.0012000480019279376,0.0009600384015303592,0.004200168006721135,0.0006000240009639688,0.0007200288011527656,0.0049201968078739005,-3.35546843210797,4.824385943156854,1.7569405524292478,0.04320345620701449,-0.40323225793666523,-0.24481958517494737,-0.10080806448516558,0.158412672760119,-0.11520921655310448,0.16893800000000003,0.0046139999999999515,-0.9057829999999999,-0.041509999999999936,-0.0008839999999999959,-0.9077419999999998,0.21044799999999997,0.005497999999999947,0.001958999999999933,0.9729558437723145,0.9916522113865682,double,-0.9057829999999999
29,0.241667,step_decsent,0.026157907367416848,0.04055675545956393,0.018118550515960233,0.0757673183713145,-0.08412639728697795,0.007693706623697276,0.0019198464122889415,0.004199664026878729,0.006359491240703789,-0.00035997120232748934,0.0021598272138183983,0.0008399328053730815,2.3899277366738163,-2.434086661601654,-0.46104246690134704,0.08636889973134217,0.3887239771236354,0.25909806023310045,-0.115190209178241,0.17276198856079147,-0.4895925128990675,0.168736,0.004310999999999954,-0.9058809999999999,-0.041731000000000185,-0.0012040000000000384,-0.907886,0.21046700000000018,0.005514999999999992,0.0020050000000000345,0.9668514295705781,0.9960913486349732,double,-0.9058809999999999
30,0.25,step_decsent,0.0037201488059393014,0.014160566422651072,-0.06960278411134074,-0.5681246038995763,-0.6371737124882199,0.04414342985394082,0.0026401056042201455,0.0031201248049953175,0.0054002160086357495,-0.0028801152045844157,0.0003600144005797136,-0.0038401536061414216,-2.6926387329266204,-3.1676693912051883,-10.526981234525488,0.08643456041416098,-0.12954988862155412,-0.11511763255346674,-0.3024293774459288,-0.21598617703572343,-0.5616328346951277,0.16872700000000007,0.004219000000000028,-0.9052560000000001,-0.04178599999999988,-0.001318999999999959,-0.9073380000000001,0.21051299999999995,0.005537999999999987,0.0020820000000000283,0.9678923876478945,0.9919772106403999,double,-0.9052560000000001
31,0.258333,step_decsent,0.02508100324011811,0.05028201128045167,0.010080403216125428,-0.07775872866580481,-0.1488793143973853,-0.13124193888325492,0.003360134405366261,0.003840153606141434,0.005040201608062714,0.0010800432017191595,0.002640105604220154,-0.001800072002878589,2.5634050683041956,4.334746772806994,9.562364973894919,0.08640691241403062,0.08640691241403077,-0.043203456207012624,0.4752380182771613,0.27362188931242604,0.2448195851749475,0.16854600000000008,0.003832000000000002,-0.9052980000000002,-0.04198599999999986,-0.0017159999999999953,-0.907437,0.21053199999999994,0.005547999999999997,0.002138999999999891,0.9666562796132101,0.9943783874064855,double,-0.9052980000000002
32,0.266667,step_decsent,0.024358051355912534,0.04811615070794814,0.013798896088296748,-0.10879810144430771,-0.12177799408635018,-0.06687398662151386,0.00527957763378125,0.00227981761458978,0.005279577633794572,0.00011999040075806724,0.004319654427650105,-0.0004799616030722338,-0.08674728632176333,-0.2598824781021751,0.44618344998455917,0.23031476222882022,-0.1872253409589216,0.028722825261801983,-0.1151971203457033,0.20152973643267924,0.15840057593068804,0.16838699999999984,0.003449999999999953,-0.9053689999999999,-0.042188000000000114,-0.0020809999999999995,-0.9075559999999999,0.21057499999999996,0.005530999999999953,0.00218700000000005,0.9651187390291909,0.9927535113462882,double,-0.9053689999999999
33,0.275,step_decsent,0.021840873634933842,0.04164166566662483,0.002280091203647086,0.1911680026427251,-0.11691599808513736,-0.09569041820666625,0.007440297611905225,0.0044401776071053755,0.00504020160806268,0.0013200528021100684,0.003960158406336867,0.0003600144005730508,-0.30207340945382,-0.776969283730143,-1.382311878633099,0.25929676924564565,0.25925356924464016,-0.028726272138712445,0.1440132486921872,-0.04314124820751663,0.10080115248353307,0.16826699999999994,0.003139999999999976,-0.905346,-0.042359000000000036,-0.0023949999999999805,-0.9075719999999999,0.21062599999999998,0.005534999999999957,0.0022259999999999502,0.961033644091554,0.9930168845753451,double,-0.905346
34,0.283333,step_decsent,0.030361214448585066,0.04488179527180924,0.012600504020163448,0.04908340141171975,-0.122708030470528,-0.05263832526111519,0.007440297611905274,0.00360014400576384,0.002640105604226816,0.0004800192007818352,0.003240129605184125,0.001320052802110077,1.0224817969100257,0.3888311058663641,1.2384990779450844,5.932991607504995e-15,-0.10080806448356387,-0.2880230413819597,-0.10080806448196751,-0.08640691241482584,0.11520921655310558,0.1680759999999999,0.0027960000000000207,-0.9054289999999999,-0.04260799999999998,-0.0027419999999999667,-0.907666,0.21068399999999987,0.005537999999999987,0.0022370000000000445,0.9631684395515565,0.9941141889797326,double,-0.9054289999999999
35,0.291667,step_decsent,0.045476361891037535,0.048836093112549835,0.00455963522917956,-0.11119770343970306,-0.19682991561138666,-0.05479724113973355,0.009839212862987454,0.00611951043916099,0.003119750419962859,0.0027597792176486924,0.0038396928245712095,0.0014398848092167015,1.8136725992863516,0.47447778266625795,-0.9648270687525653,0.28784680238567045,0.3022997880246157,0.05755277366643178,0.27354931807857635,0.07194183097997167,0.014378690557550306,0.16777900000000012,0.0024399999999999977,-0.9054409999999999,-0.042964,-0.003116999999999981,-0.9076919999999999,0.21074300000000012,0.005556999999999979,0.002251000000000003,0.9574905999769828,0.9917617270922301,double,-0.9054409999999999
36,0.3,step_decsent,0.06288251530060845,0.038761550462020705,0.01944077763110475,-0.2539335987200922,0.053659980415403936,-0.07027170344239156,0.007440297611905274,0.0061202448097951966,0.00240009600384256,0.0016800672026831304,0.0,-0.00120004800192128,2.0888219620269965,-1.2089934778026106,1.7858085205718501,-0.28788134538367766,8.812800122488725e-05,-0.08636198441381264,-0.1295706246208526,-0.46078157021135474,-0.3168046095209394,0.16731700000000016,0.0021680000000000033,-0.9055829999999999,-0.04347400000000001,-0.0034399999999999986,-0.907864,0.21079100000000017,0.005608000000000002,0.0022810000000000885,0.9606424350638989,0.9965589322504785,double,-0.9055829999999999
37,0.308333,step_decsent,0.04596183847354141,0.045841833673345954,0.013440537621518246,0.0381903425017595,0.050188752047052504,-0.028241967885238778,0.006120244809795156,0.006240249609983953,0.0006000240009573052,0.0036001440057838005,0.0013200528021100684,0.001200048001921272,-2.0305624417457064,0.8496679720779095,-0.7200576034545159,-0.15841267276012394,0.01440115206873345,-0.21601728103747117,0.23041843310940383,0.15841267276011795,0.28802304138276036,0.16698500000000016,0.0018380000000000063,-0.9056900000000001,-0.04382699999999984,-0.003811000000000009,-0.907966,0.210812,0.005649000000000015,0.0022759999999999447,0.9626380461230873,0.9933034645214329,double,-0.9056900000000001
38,0.316667,step_decsent,0.06947444204464968,0.0785937125030022,0.08855291576672782,0.5680249368214475,0.5261570475950527,-0.1507396093592025,0.0070794336452855225,0.005159587233023217,-0.0007199424046083555,0.0014398848092033894,-0.0013198944084453212,-0.002879769618426761,2.821286725594961,3.9299110666734385,9.012764356276698,0.11509345278262205,-0.1296691117063525,-0.15838329800403986,-0.25921036676031,-0.3167683238007445,-0.48953895132566067,0.16646499999999986,0.0012260000000000049,-0.906434,-0.044394000000000045,-0.004477000000000009,-0.908728,0.2108589999999999,0.005703000000000014,0.0022940000000000182,0.9624105746966034,0.9942004639628976,double,-0.906434
39,0.325,step_decsent,0.04668186727468752,0.0482419296771885,0.00984039361576109,-0.043284241144710654,-0.0626210141553196,-0.05899398611520884,0.005400216008649055,0.00588023520940424,-0.0006000240009573052,0.0015600624025009842,-0.005160206408258139,-0.0085203408136377,-2.735218381130694,-3.6423596334829687,-9.4458804933357,-0.20151417696345383,0.08648121641437892,0.014390784069488755,0.014421888071234167,-0.4608558742125047,-0.6768956192500799,0.16612099999999996,0.0008729999999999571,-0.9065210000000001,-0.044769999999999976,-0.0049220000000000375,-0.908881,0.21089099999999994,0.005794999999999995,0.0023599999999999177,0.963056303208827,0.9831957567812253,double,-0.9065210000000001
40,0.333333,step_decsent,0.041881675267002705,0.03348133925356707,0.005640225609013362,-0.029245055602831766,-0.22561541914823824,0.04776160899412759,0.005640225609040008,0.0056402256090266846,-0.003840153606148096,0.005160206408258173,0.0010800432017324826,0.000240009600384256,-0.5760460827654896,-1.7713417045027566,-0.5040403224226256,0.028802304139080033,-0.028802304137472194,-0.38883110586713054,0.4320345620733466,0.7488599075951802,1.0512841010466791,0.16581900000000016,0.0006410000000000027,-0.9066000000000001,-0.045075999999999894,-0.005191999999999974,-0.908926,0.21089500000000005,0.005832999999999977,0.0023259999999999392,0.9619854273038639,0.9912041947968689,double,-0.9066000000000001
41,0.341667,step_decsent,0.058195344372458394,0.030237580993517425,0.00983921286296081,-0.03342684418061707,0.09246676087698956,-0.00011996351747727879,0.003959683225335938,0.004679625629950949,-0.00611951043916099,0.005039596832238472,0.0005999520038369618,0.0010799136069158564,1.957483693959164,-0.38921985361766753,0.5038381634206197,-0.201648954128158,-0.11526277646697082,-0.27350093988635604,-0.014471991363055003,-0.05760633524064319,0.10078041835032392,0.16536700000000004,0.00042800000000003946,-0.9067329999999999,-0.04551900000000009,-0.005438999999999972,-0.9089989999999999,0.21088600000000013,0.005867000000000011,0.0022659999999999902,0.9629037036051005,0.991351992516446,double,-0.9067329999999999
42,0.35,step_decsent,0.051722068882763865,0.04320172806912611,-0.0030001200047932073,0.1108262041078615,-0.07539662483852838,0.08876005580127314,0.003720148805939314,0.008520340813631094,-0.00648025921036825,0.0070802832113322205,0.002040081603262845,0.00012000480018879719,-0.7768241317286145,1.5557598794682248,-1.5407815753935017,-0.028745280138800476,0.4609042582119471,-0.0432915842082397,0.24489216117769752,0.1728224648296996,-0.11519366455382954,0.16496699999999986,0.00013900000000000023,-0.906762,-0.045891000000000126,-0.005782000000000009,-0.908973,0.210858,0.00592100000000001,0.002211000000000074,0.9590022118999599,0.9877178150183201,double,-0.906762
43,0.358333,step_decsent,0.019800792031677672,-0.018360734429378807,-0.10752430097203938,-0.18860273889535498,-0.7395770511072892,0.2515172040882737,0.0033601344053928845,0.0037201488059526123,-0.006600264010563665,0.004560182407294172,0.0008400336013482211,-0.0020400816032628316,-3.830706450388343,-7.387791011461018,-12.543403452207578,-0.043203456203819504,-0.576046082764726,-0.014401152069532531,-0.3024241934523027,-0.14401152069058187,-0.2592207372436841,0.16483000000000003,0.0003230000000000177,-0.905921,-0.046018000000000114,-0.00562199999999996,-0.908094,0.21084800000000015,0.005944999999999978,0.0021729999999999805,0.9644564101365243,0.9915569139088771,double,-0.905921
44,0.366667,step_decsent,0.02735781137507736,0.027957763378934308,0.007799376049913808,-0.03488121972333151,-0.08454082326407115,0.10275460174197047,0.0038396928245512272,0.007199424046076847,-0.008039356851449925,0.005519558435324028,0.0010799136069091957,-0.0016798656107528183,0.9067697796255917,5.5577751149883685,13.837734223896458,0.05754240690644856,0.41747963044447217,-0.17267732672021344,0.11511591409045535,0.02878329800347664,0.04322246130429721,0.16463399999999995,0.00014999999999998348,-0.906053,-0.04620000000000002,-0.005846000000000018,-0.9081729999999999,0.21083399999999997,0.005996000000000001,0.0021199999999998997,0.9597091204027293,0.990217122783271,double,-0.906053
45,0.375,step_decsent,0.05148205928237295,0.0282011280451201,0.0236409456378259,-0.22147978719790185,0.05851999842772143,0.06509050968216282,0.003240129605184125,0.001800072002878589,-0.010200408016320887,0.0031201248050019893,0.002520100804031357,0.0008400336013482268,2.8950255498974737,0.02920492813942086,1.901064393125181,-0.07195046434262614,-0.6479481631103169,-0.2593365132450458,-0.28794355338078054,0.17282937682973298,0.30240000145218426,0.16423199999999993,-7.00000000000145e-05,-0.9063349999999999,-0.04660299999999995,-0.00606000000000001,-0.9083629999999999,0.21083499999999988,0.005989999999999995,0.0020280000000000298,0.9616317116793645,0.9931703783835368,double,-0.9063349999999999
46,0.383333,step_decsent,0.03192127685108606,0.03360134405376253,0.011400456018235505,0.09213309475937563,0.0052882924955311855,0.15681232518772467,0.004320172806929931,0.004320172806909947,-0.009480379215168118,0.00924036961477054,0.00120004800192128,-0.0013200528021167386,-2.347387787265923,0.6480518431108172,-1.468917511051293,0.12961036862424197,0.30242419345150173,0.08640691241482902,0.7344587555224489,-0.15841267276012005,-0.25922073724528627,0.16400199999999998,-0.00031400000000003647,-0.9065089999999999,-0.04679200000000017,-0.006330000000000002,-0.908469,0.21079400000000015,0.006015999999999966,0.001960000000000073,0.9616024398578864,0.9843149854580818,double,-0.9065089999999999
47,0.391667,step_decsent,0.05099592032636156,0.05843532517398119,0.09395248380131983,0.36038871865008426,0.5660565118860417,-0.12367679033984107,0.005639548836082095,0.0029997600191981307,-0.011279097672184173,0.0032397408207342476,0.0014398848092167015,-0.0002399808015361169,2.2887741151038496,2.979839347278454,9.905450897898278,0.1583124585015795,-0.15843685957665163,-0.21582894852604428,-0.7200178538560459,0.028778114626280448,0.12959827220789785,0.163624,-0.0007759999999999989,-0.907386,-0.047190000000000065,-0.00680499999999995,-0.9092540000000001,0.21081400000000006,0.006028999999999951,0.0018680000000000918,0.9597161734648433,0.9940776366310844,double,-0.907386
48,0.4,step_decsent,0.04236169446778426,0.014520580823237398,-0.0013200528021367149,0.17552646531115404,0.0818258963212597,0.13346642705491046,0.005400216008649055,0.0,-0.0118804752190106,-0.03672146885874429,-0.033001320052805004,-0.07032281291251326,-1.0361485489712308,-5.269980121294084,-11.433161718883493,-0.02872108813549017,-0.3599856017278433,-0.07216819234686474,-4.795536983016725,-4.133109907838901,-8.410276264367797,0.16331600000000002,-0.0008970000000000367,-0.9074739999999999,-0.04784900000000003,-0.007201000000000013,-0.9098289999999999,0.21116500000000005,0.006303999999999976,0.002354999999999996,0.9546996472334104,0.8567941321005574,double,-0.9074739999999999
49,0.408333,step_decsent,0.0320412816512682,0.03132125285011543,0.002520100804038019,-0.050424766793426265,-0.05156652290478817,0.07439278781801127,0.007200288011514356,-0.0008400336013415652,-0.013200528021120756,0.005160206408258173,0.00036001440057305316,-0.0106804272170894,-1.2384990779450487,2.0161612896769556,0.46083686621561776,0.2160172810350781,-0.10080806448356741,-0.15841267276012957,5.026002072123193,4.003520275216386,7.157372578354015,0.16310899999999995,-0.0011650000000000271,-0.907605,-0.04807300000000003,-0.007459000000000049,-0.9099389999999999,0.21118199999999998,0.006294000000000022,0.0023339999999999472,0.9515599920353855,0.980221443564361,double,-0.907605
50,0.416667,step_decsent,0.04703623710102563,0.0004799616030722338,0.0009599232061444676,0.15637270847207307,0.05745329633747591,0.16094583441585683,0.008279337652999364,0.0010799136069091957,-0.010319174466046365,0.006359491240710428,-0.002519798416125897,-0.013798896088310069,1.7992507139137768,-3.700658896933425,-0.18720633524040675,0.1294755989302864,0.23037523497129336,0.34573476782750034,0.14390266768085608,-0.3455498940123527,-0.3741863296401088,0.1627860000000001,-0.0011600000000000499,-0.907699,-0.0484119999999999,-0.007484000000000046,-0.9100619999999999,0.211198,0.006323999999999996,0.002362999999999893,0.9542466709964688,0.9743310582093543,double,-0.907699
51,0.425,step_decsent,0.03396135845434225,0.03792151686067247,0.0030001200047932073,0.058363314194639575,-0.004124340960958338,0.12262300963384067,0.0069602784111234385,-0.0008400336013415652,-0.011400456018235505,0.004200168006721149,-0.005400216008635768,-0.01764070562822616,-1.5690481995299905,4.493166357566342,0.24483340917421634,-0.15829344076274196,-0.23040288110533608,-0.12975897662176197,-0.259129153244844,-0.3456639376586917,-0.4610355862133808,0.16256099999999996,-0.001483000000000012,-0.9078189999999999,-0.048659999999999926,-0.007844999999999991,-0.9102339999999999,0.21122099999999988,0.006361999999999979,0.002414999999999945,0.9535439514035458,0.9684652643332282,double,-0.9078189999999999
52,0.433333,step_decsent,0.02640105604225466,0.008160326413057988,0.00012000480020878121,0.07473612727004543,0.0025751652662928844,0.07664234504506492,0.007560302412114006,-0.0001200048001887964,-0.010800432017284785,0.005640225609013324,-0.0037201488059526123,-0.010680427217089328,-0.9072725803537208,-3.5714857131422493,-0.3456276496561159,0.07200576034928173,0.0864069124148285,0.07200576034449985,0.1728138248280534,0.2016161289671365,0.8352668200092168,0.162404,-0.0015519999999999978,-0.90791,-0.048833000000000126,-0.007944000000000007,-0.910324,0.21123700000000012,0.006392000000000009,0.0024140000000000272,0.9538864107092507,0.9789363941043019,double,-0.90791
53,0.441667,step_decsent,0.023758099352042428,0.013318934485237924,0.006239500839925759,-0.07558400391749141,-0.05201144883988402,0.06906195808151985,-0.012239020878335383,-0.011879049676027875,-0.051955843532513035,0.003959683225335964,-0.0047996160307223696,-0.010799136069118672,-0.3171294324708721,0.618983449985597,0.7342807823034573,-2.3757287365550157,-1.4109725073001134,-4.9382543214817,-0.20164895412495434,-0.12952570491597834,-0.014243922729702896,0.16210400000000003,-0.0017619999999999858,-0.908395,-0.0489980000000001,-0.008095000000000019,-0.910466,0.21110200000000012,0.006333000000000033,0.002071000000000045,0.8881503767953185,0.9792276395495043,double,-0.908395
54,0.45,step_decsent,0.0286811472458751,0.013320532821316126,-0.0004800192007551856,0.016290929550334676,-0.005071347658415089,0.051995336965669936,0.007080283211332174,-0.0002400096003842544,-0.014280571222853145,0.00528021120846692,-0.0020400816032628316,-0.0051602064082514765,0.5907893788350714,0.00019180800170430146,-0.8063746598681047,2.3184092271291825,1.396740678704377,4.521213525700196,0.1584696967635846,0.33115737759024677,0.6766986272491505,0.16192400000000018,-0.0018750000000000155,-0.9085100000000002,-0.04919299999999982,-0.008223000000000036,-0.9105050000000001,0.211117,0.00634800000000002,0.001994999999999969,0.9534812877506516,0.9872339106386239,double,-0.9085100000000002
55,0.458333,step_decsent,0.026641065642645755,0.008280331213246839,0.002280091203647101,0.07309250715253927,0.004731200516446172,0.05539364485011381,0.003720148805939314,-0.001680067202689792,-0.016200648025920625,0.008760350414015352,-0.001320052802110077,0.000480019200768512,-0.24481958517092875,-0.6048483869037921,0.33122649758817874,-0.40323225793746165,-0.17281382482965812,-0.23041843310542243,0.41763341000221293,0.08640691241482736,0.6768541472482902,0.1617329999999999,-0.0019580000000000153,-0.9086640000000001,-0.049342,-0.008303000000000005,-0.91052,0.2110749999999999,0.0063449999999999895,0.0018559999999998578,0.9535950358929799,0.985212928205711,double,-0.9086640000000001
56,0.466667,step_decsent,0.040796736261099906,0.002759779217662014,-0.0031197504199761807,-0.03583248124213695,0.019914633271523843,0.06153293040504284,0.00227981761458978,-0.005399568034559299,-0.015718742500599004,0.0074394048476129635,0.0007199424046083507,0.0016798656107461574,1.6985445906472447,-0.6624132464104655,-0.647929160501953,-0.1728259168885928,-0.4463043954727026,0.057824037115625185,-0.158500787905254,0.2447798424188176,0.14397005159318985,0.1614119999999999,-0.0020260000000000278,-0.9087689999999999,-0.04962,-0.008319999999999994,-0.91048,0.2110319999999999,0.006293999999999966,0.001711000000000018,0.9549301195601543,0.9872323096556181,double,-0.9087689999999999
57,0.475,step_decsent,0.021000840033579098,0.040921636865472344,0.007320292811723138,-0.11571109300962515,-0.061604772784342725,0.021952423312872463,0.0016800672026831304,-0.004680187207482999,-0.014880595223810548,0.006360254410159468,0.002040081603262845,0.004200168006721149,-2.3756025714053592,4.57960610198133,1.252855302016002,-0.07197292834593197,0.08632915241525285,0.10058169648247425,-0.1295032326237247,0.15842304076017014,0.30244838545241776,0.16125100000000003,-0.0024059999999999637,-0.908954,-0.04974199999999995,-0.008643999999999985,-0.910506,0.21099299999999999,0.006238000000000021,0.0015519999999999978,0.9583309139570428,0.986849569040162,double,-0.908954
58,0.483333,step_decsent,0.020880835233423472,0.01224048961958365,0.0010800432017191524,-0.05479983652056162,-0.04194957405586015,-0.01258449472989924,0.0020400816032828165,-0.0044401776071053755,-0.012480499219967906,0.00900036001440621,0.002400096003842544,0.00720028801152097,-0.014401152064757618,-3.44187534452041,-0.7488599075967791,0.04320345621021056,0.028802304137480226,0.2880230413827712,0.31682534552342856,0.04320345620781199,0.3600288017280462,0.16109400000000007,-0.002544999999999964,-0.9090670000000001,-0.049841000000000024,-0.008725999999999956,-0.910455,0.2109350000000001,0.006180999999999992,0.0013879999999999448,0.9637816939049687,0.9803777982415726,double,-0.9090670000000001
59,0.491667,step_decsent,0.0207583393328508,0.005879529637631534,0.004919606431480405,-0.12280203225124159,-0.09523387313765493,-0.031092775343437042,0.0021598272138050696,-0.005879529637631534,-0.009479241660666627,0.01067914566834721,0.004439644828414832,0.009239260859130509,-0.014698332202144481,-0.763254137503253,0.46071073071289287,0.014368323796766613,-0.17270842698897973,0.36012209734836526,0.2014381634198463,0.24472628084620662,0.24465716913961327,0.16093899999999994,-0.0026430000000000065,-0.909187,-0.049925,-0.008737999999999968,-0.910419,0.21086399999999994,0.0060949999999999616,0.0012320000000000109,0.9687437220002187,0.9753289114531407,double,-0.909187
60,0.5,step_decsent,0.01944077763110475,0.001560062402494333,0.0021600864034649653,-0.008428593974626378,-0.03333191212595239,-0.016019285471049697,0.004080163206539014,-0.00588023520940428,-0.009000360014399607,-0.012720508820345583,0.026161046441857256,-0.07644305772230893,-0.15811372875867655,-0.518356802488565,-0.3311556495878371,0.23044953710955823,-8.467199960945893e-05,0.05746809627589352,-2.808070861477601,2.606672460511518,-10.282289521353611,0.16081100000000004,-0.0027049999999999574,-0.9092800000000001,-0.05019299999999993,-0.008532999999999957,-0.911074,0.21100399999999997,0.005828,0.0017939999999999623,0.9628946827794814,0.8636818185934327,double,-0.9092800000000001
61,0.508333,step_decsent,0.02004080163206859,0.0,-0.002160086403464951,-0.013152478392814856,-0.024830684234201716,-0.043164793986185127,0.00552022080883119,-0.0037201488059526123,-0.006840273610947919,0.002520100804038002,0.0009600384015303559,-0.022800912036477522,0.07200576034607407,-0.1872149768983951,-0.5184414744905673,0.17281382482805352,0.25922073724368877,0.25922073724369127,1.8289463127785337,-3.024241934516596,6.437314974898738,0.16069,-0.0027359999999999607,-0.909319,-0.05033899999999991,-0.008525000000000005,-0.911246,0.2110289999999999,0.005789000000000044,0.001927000000000012,0.9648221326251836,0.9617336029520926,double,-0.909319
62,0.516667,step_decsent,0.023998080153585205,0.005879529637631573,-0.0032397408207342692,-0.07920696332290225,0.011004515664589834,-0.029860666964620995,0.009839212862960876,0.0032397408207342692,0.001919846412288948,0.009239260859117249,-0.00623950083993242,0.027597792176620322,0.4748354357471369,0.705487117546389,-0.1295481662190214,0.5182375874885663,0.835119945606782,1.051130312363441,0.8062347078328875,-0.8638755989276238,6.047360716714439,0.16057199999999994,-0.0027579999999999827,-0.909276,-0.05046200000000001,-0.008626000000000023,-0.910989,0.21103399999999994,0.00586800000000004,0.0017130000000000756,0.9653112224708167,0.9503922764476063,double,-0.909276
63,0.525,step_decsent,0.016200648025920517,-0.0021600864034582896,-0.001440057602292203,-0.02462085156797373,-0.022160955539340457,-0.04735995295128909,0.008880355214224074,-0.0085203408136377,-0.0034801392055683576,0.007080283211332174,-0.004920196807867223,0.0019200768030740352,-0.9357292844911382,-0.9647925166314448,0.21597062503804856,-0.1150675205492378,-1.4112662467745014,-0.6480241951106784,-0.2590876812414576,0.15832281676049342,-3.0814491027896533,0.16051100000000007,-0.002811000000000008,-0.9092930000000001,-0.05053799999999997,-0.008648999999999962,-0.9109610000000001,0.21104900000000004,0.005837999999999954,0.0016680000000000028,0.9620043637725293,0.9852779981442625,double,-0.9092930000000001
64,0.533333,step_decsent,0.017760710428421738,-0.001920076803067399,-0.002400096003855899,-0.06273966645227134,-0.02502356260667443,-0.06465275438568872,0.008400336013442354,-0.006720268810752551,-0.0033601344053729447,0.0016800672026831415,-0.006600264010563753,0.0009600384015370304,0.18721497689922417,0.028802304139072706,-0.11520921655630682,-0.05760460827813797,0.2160172810374614,0.014401152069532462,-0.6480518431116142,-0.2016161289687442,-0.11520921655310375,0.16043300000000005,-0.002851000000000048,-0.9093009999999999,-0.05067200000000005,-0.008688000000000029,-0.910933,0.2111050000000001,0.005836999999999981,0.0016320000000000778,0.9648962776401064,0.9885365575575731,double,-0.9093009999999999
65,0.541667,step_decsent,0.01319894408447968,-0.004199664026878687,0.00011999040078470967,-0.036677049549631836,-0.015316879067783978,-0.04227754674468274,0.008759299256058218,-0.004319654427643415,-0.0027597792176619956,0.006959443244554005,-0.004919606431487034,0.0,-0.5473681718192972,-0.2735285845705869,0.30238617766265774,0.0430721433424359,0.28805068191854066,0.07203685957654722,0.6334744470687332,0.20166277646708738,-0.11519539255303853,0.16039599999999998,-0.002852000000000021,-0.909325,-0.05072399999999999,-0.008694000000000035,-0.9109340000000001,0.21111999999999997,0.005842000000000014,0.0016090000000000826,0.9669950888298647,0.9857955036740222,double,-0.909325
66,0.55,step_decsent,0.010800432017271462,-0.007320292811716428,-0.0008400336013548828,-0.03608118275745675,-0.010324698077310374,-0.038588941243108535,0.0067202688107324765,0.003120124804995307,0.004440177607098714,0.003720148805939289,-0.004080163206525663,0.0019200768030740352,-0.28783296138344033,-0.3744904337978793,-0.11520748855629286,-0.24469344117673503,0.8928092202854543,0.8640293801464874,-0.388730881869039,0.10073721648402338,0.2304184331062075,0.1603619999999999,-0.002764999999999962,-0.909281,-0.05078300000000002,-0.00866699999999998,-0.910911,0.21114499999999992,0.005902000000000018,0.0016300000000000203,0.9693035914133432,0.9902569207097892,double,-0.909281
67,0.558333,step_decsent,0.013200528021127506,-0.037321492859715415,0.0030001200047932272,-0.11570635203145245,0.047546308023901786,-0.015874250606758768,0.006840273610967995,-0.004560182407300894,-0.001800072002878601,0.003720148805965985,-0.0045601824072942325,0.0003600144005730556,0.28802304138438317,-3.600288017280602,0.46083686621242587,0.014401152074345315,-0.9216737324248495,-0.7488599075935883,3.203607292908596e-12,-0.057604608276559895,-0.18721497689919525,0.16030900000000003,-0.0024919999999999942,-0.9093209999999999,-0.05086199999999996,-0.008393999999999957,-0.910933,0.211171,0.005901999999999963,0.0016120000000000578,0.9698537482360645,0.990173112127243,double,-0.9093209999999999
68,0.566667,step_decsent,0.00911927045835906,-0.010079193664503522,-0.00035997120230084253,-0.07349033805491403,0.004815948204365604,-0.030594339404174824,0.006839452843769295,-0.0037197024238064566,-0.0027597792176619956,0.003479721622250359,-0.002279817614596426,0.0017998560115175344,-0.4897117305937623,3.2688143982735403,-0.40317869055604083,-9.84841851091748e-05,0.10084953005692715,-0.11515565332174073,-0.0288489541295445,0.2736218853729049,0.172767171939581,0.16029000000000004,-0.0024390000000000245,-0.909341,-0.05090900000000009,-0.00832900000000003,-0.9109149999999999,0.21119900000000014,0.005890000000000006,0.0015739999999999643,0.9704930223346209,0.9924454736551197,double,-0.909341
69,0.575,step_decsent,0.005280211208440344,-0.013440537621505102,-0.0032401296051841467,-0.031184631474983408,0.018787431007026675,-0.021753802679262663,0.005640225609013399,-0.010200408016320954,-0.007800312012478379,0.002400096003855899,-0.001320052802110086,0.001200048001921288,-0.46070553821177856,-0.4033774099365907,-0.34563283365934605,-0.1439130246916965,-0.7777157797329362,-0.6048881309032076,-0.1295602566176011,0.11517638455374397,-0.07197984034516403,0.16029300000000002,-0.0024120000000000252,-0.9093789999999999,-0.050932999999999895,-0.008228000000000013,-0.910878,0.2112259999999999,0.005815999999999988,0.001499000000000028,0.9616347200782052,0.9950158263152813,double,-0.9093789999999999
70,0.583333,step_decsent,0.0010800432017457988,-0.011640465618626345,-0.001200048001901287,-0.0534412981503378,-0.0017480891032258584,0.0002403598576045836,0.0038401536061480703,0.0036001440057638156,0.00252010080403134,0.0030001200047931873,-0.001080043201725814,-0.0001200048001887964,-0.50404032241624,0.2160172810366913,0.2448195851773492,-0.21601728103507997,1.6561324879496835,1.2384990779442788,0.072005760342888,0.028802304138278056,-0.1584126727601199,0.1603159999999999,-0.0022849999999999815,-0.909348,-0.0509170000000001,-0.00813999999999998,-0.9108690000000002,0.211233,0.005854999999999999,0.0015210000000001056,0.9750633578016745,0.9946818929556074,double,-0.909348
71,0.591667,step_decsent,-0.0034797216222770024,-0.014398848092153596,-0.004319654427663397,-0.0015955021327784466,0.01065641080716886,0.014622962657475792,0.004199664026878687,-0.009119270458365721,-0.005879529637631494,0.0028797696184333834,0.0005999520038369578,0.0032397408207342263,-0.5471280086420406,-0.33097941846978995,-0.3743228252654291,0.04313779946371661,-1.526207639084406,-1.0078750229976927,-0.014440891091889011,0.2015832980036908,0.403137223532877,0.16037999999999997,-0.002240999999999993,-0.909361,-0.05086400000000002,-0.008014999999999994,-0.910806,0.211244,0.005774000000000001,0.0014450000000000296,0.9661587691360198,0.9927067504484376,double,-0.909361
72,0.6,step_decsent,-0.01188047521901742,0.00492019680787395,-0.00048001920075519197,-0.1652074267665829,-0.005210479097798592,-0.04465962067114048,0.00216008640346498,-0.00492019680787395,-0.0045601824072942325,0.0030001200047932272,0.0001200048001954596,0.0020400816032628585,-1.008130756839133,2.3183781231282516,0.46077465821531743,-0.24475910517385407,0.5039089944187939,0.15832800076050327,0.014442624068144116,-0.05759596827571135,-0.1439648646911531,0.1604970000000001,-0.0023230000000000195,-0.9093950000000001,-0.05074000000000001,-0.008054999999999979,-0.9107850000000001,0.21123700000000012,0.005731999999999959,0.0013900000000000023,0.9743538926676817,0.9939499646136934,double,-0.9093950000000001
73,0.608333,step_decsent,-0.02208088323532476,-0.006960278411136715,0.0030001200047931873,-0.2867341342203859,-0.13526506287811296,-0.012129489129061127,-0.002400096003855867,0.007080283211332174,0.005280211208446935,0.002160086403464951,-0.0006000240009639668,0.003120124804995307,-1.2240979258739104,-1.4257140548434677,0.41763341000220383,-0.5472437786296445,1.4401152069130054,1.180894469667722,-0.100808064481972,-0.08640691241562744,0.1296103686226382,0.16066099999999994,-0.0022059999999999858,-0.909376,-0.05053799999999997,-0.008002000000000009,-0.910784,0.21119899999999991,0.005796000000000023,0.0014080000000000759,0.9706655378489693,0.9935966196273387,double,-0.909376
74,0.616667,step_decsent,-0.0067194624430113176,-0.04091672666186491,-0.022318214542839037,0.3841602645821728,0.05957692329292498,0.10639047344763801,-0.0022798176145897952,-0.003479721622270388,-0.001439884809216711,0.0027597792176487107,0.0,0.0021598272138184057,1.8432230372346448,-4.074447834260666,-3.0379571091471527,0.014432252131758154,-1.267099212095347,-0.8063470143584934,0.07195738111156265,0.07199712034604874,-0.11522649282180308,0.160698,-0.0018940000000000068,-0.9092020000000001,-0.05045900000000003,-0.007661000000000029,-0.91058,0.21115700000000004,0.005767000000000022,0.0013779999999998793,0.978883012427868,0.9941592345146575,double,-0.9092020000000001
75,0.625,step_decsent,-0.057722308892349895,-0.0019200768030740352,-0.022320892835715672,-0.02429312603959058,-0.033066778241764155,0.1577275295824878,-0.0027601104044022713,-0.009000360014399546,-0.004440177607098714,0.002640105604220137,-0.0008400336013415596,0.0019200768030740352,-6.120586397376499,4.6797851744618635,-0.0003214080015162776,-0.05763744027510789,-0.6625031071797834,-0.360049537727348,-0.014361408067751508,-0.10080806448356606,-0.02877120013732984,0.16115600000000008,-0.0019529999999999825,-0.9090529999999999,-0.04995600000000011,-0.007651999999999992,-0.9103779999999999,0.2111120000000002,0.00569900000000001,0.0013250000000000206,0.9694022602324078,0.9943819465157899,double,-0.9090529999999999
76,0.633333,step_decsent,-0.01008040321612536,-0.023400936037441488,-0.0134405376214916,0.17440185063647456,0.12821183549090132,-0.021740540077375605,-0.005040201608076004,0.006000240009599698,0.0038401536061414086,0.0020400816032828165,-0.0019200768030740352,0.0006000240009573052,5.717257371441778,-2.5778062203728984,1.065685253117009,-0.2736218893164194,1.8001440086402474,0.9936794927685212,-0.07200576034289186,-0.12961036862264141,-0.15841267276091736,0.16119799999999995,-0.0017079999999999873,-0.9089090000000001,-0.04985499999999998,-0.007473000000000007,-0.9102610000000001,0.21105299999999994,0.00576500000000002,0.0013520000000000199,0.9719356910574755,0.995224874440429,double,-0.9089090000000001
77,0.641667,step_decsent,-0.016558675305972194,-0.008759299256058334,-0.008759299256058334,0.01614828933015314,0.021693699059025642,0.008193145527322782,-0.005159587233023217,-0.0029997600191981506,0.0008399328053730844,0.00035997120230084735,-0.0022798176145897952,0.0007199424046083555,-0.7773304643444768,1.7568558652967647,0.5617036675585905,-0.014325128983347021,-1.0799136103669187,-0.3599976962764988,-0.2015971203482096,-0.04316544414635975,0.014389057313541035,0.1612929999999999,-0.0016599999999999948,-0.9088290000000001,-0.049714000000000036,-0.007419000000000009,-0.910182,0.21100699999999994,0.005759000000000014,0.0013529999999999376,0.976424908923385,0.9959704340293577,double,-0.9088290000000001
78,0.65,step_decsent,-0.01116044641787116,-0.000120004800195458,-0.017760710428421502,0.021515041270177823,0.191386475445258,0.014232529561946747,-0.005640225609013324,-0.00972038881555231,-0.0036001440057571543,0.0007200288011461016,-0.003000120004799849,0.0015600624024943227,0.6478133791072855,1.0367568049757399,-1.080212549185543,-0.05767891227530355,-0.8065077158711306,-0.5328305305568487,0.04320864020703861,-0.0864397444149827,0.10081843248361498,0.16133900000000012,-0.0017399999999999638,-0.908711,-0.049614999999999965,-0.007442999999999977,-0.9100210000000001,0.21095400000000009,0.005703000000000014,0.0013100000000000334,0.9672319816489732,0.9942378253966646,double,-0.908711
79,0.658333,step_decsent,-0.0349213968558795,-0.01632065282610953,-0.015240609624383703,-0.00853880185110509,-0.056471277900612,-0.030108466907442687,-0.0012000480019279496,-0.0031201248049953488,0.0004800192007685152,-0.0006000240009639748,-0.0044401776071054345,-0.0022800912036471162,-2.8514281096854144,-1.9441555293308794,0.3024241934522767,0.532842626555312,0.7920633638013946,0.4896391703498988,-0.158412672760121,-0.172813824829665,-0.46083686621162534,0.1616200000000001,-0.0016300000000000203,-0.90858,-0.049328999999999956,-0.007344000000000017,-0.9099130000000001,0.21094900000000005,0.005713999999999997,0.0013330000000000286,0.9810412759392395,0.9916211208185697,double,-0.90858
80,0.666667,step_decsent,-0.02879769618428055,-0.017158627309815593,0.0005999520038436186,0.21951579394362974,0.1864391971382078,0.05153231244966343,-0.004079673626120621,-0.0027597792176619956,0.0020398368130536497,0.0,-0.0032397408207342263,-0.002159827213818377,0.7347852977680469,-0.10054889413319615,1.900715338160211,-0.3455274327085013,0.04323801143908692,0.18716314042298088,0.07199712034604874,0.14404089109325643,0.01443052433750159,0.1618259999999998,-0.0015100000000000113,-0.908568,-0.04908900000000016,-0.007228000000000012,-0.9099360000000001,0.21091499999999996,0.005718000000000001,0.0013680000000000359,0.9774347668620297,0.9935105268620201,double,-0.908568
81,0.675,step_decsent,-0.043921756870285246,0.0063602544101794105,-0.02016080643227737,0.02487374362327378,-0.09680639527712659,-0.01703936227587301,-0.008040321612842545,-0.0118804752190106,-0.001080043201725814,0.00012000480020878121,-0.00252010080403134,-0.0022800912036537477,-1.8149598807157845,2.8223787015474504,-2.4913906679612263,-0.47529677027744,-1.0945273012538779,-0.37440057779664593,0.01440115207113653,0.08636025641460256,-0.014432256070487228,0.16212500000000007,-0.0016620000000000523,-0.9084089999999999,-0.04872199999999993,-0.007302000000000031,-0.9097869999999999,0.210847,0.005639999999999978,0.0013779999999999903,0.962243219774988,0.9943323223667666,double,-0.9084089999999999
82,0.683333,step_decsent,-0.03108124324973138,-0.01860074402976331,-0.016440657626285007,0.027932720156137247,0.016601254365851446,0.05285495715923074,-0.0025201008040380353,-0.0012000480019146262,0.004200168006721177,-0.0010800432017458131,-0.002520100804031374,-0.003960158406330258,1.540923271397334,-2.995439630378369,0.4464357141476535,0.6624529951763544,1.2817025341528945,0.6336506910412865,-0.14401152069538045,-4.0594153103981815e-15,-0.2016161289663417,0.16236300000000004,-0.0015169999999999906,-0.9082370000000001,-0.04847200000000007,-0.007168000000000008,-0.909683,0.2108350000000001,0.005651000000000017,0.0014459999999999473,0.9771349032403454,0.9919722259928863,double,-0.9082370000000001
83,0.691667,step_decsent,-0.04067674586034157,0.0026397888168906074,-0.017038636909057527,0.012021599667835814,0.11982640090078507,-0.009950676245450332,-0.0023998080153744745,-0.0010799136069158492,0.006959443244534022,-0.0019198464122889224,-0.0007199424046083459,-0.0029997600191981107,-1.1513682038169086,2.548660048794547,-0.07175177379079849,0.014433979921233488,0.014414974201916977,0.33108654161420975,-0.10076832379926841,0.21600172779253832,0.11523858736886725,0.162682,-0.0015479999999999938,-0.908037,-0.048149,-0.00719599999999998,-0.909566,0.210831,0.005647999999999986,0.0015290000000000026,0.9723093792513189,0.9939440829014758,double,-0.908037
84,0.7,step_decsent,-0.03600144005759867,-0.004920196807867288,-0.02820112804512029,0.02556351690527037,0.1416854398200339,0.006893653324854353,-0.001320052802110086,0.0019200768030740608,0.00684027361094801,-0.00048001920075519197,-0.003000120004799889,-0.00492019680787395,0.5610591386947006,-0.9072345643535298,-1.3395525184282808,0.12957580862407278,0.3600132497287817,-0.01430092806744431,0.1727861768311225,-0.2736322573132802,-0.23046163310642706,0.16297099999999998,-0.00149100000000002,-0.907745,-0.04785299999999992,-0.00718000000000002,-0.9093720000000001,0.2108239999999999,0.005689,0.001627000000000045,0.9716862628766496,0.9903621874449722,double,-0.907745
85,0.708333,step_decsent,-0.039121564862600156,0.0032401296051841034,-0.022320892835715672,0.03858095398923648,0.13785923923170262,0.06936679228317011,-0.0019200768030740352,0.0037201488059526123,0.007920316812673734,-0.0033601344053662383,-0.002880115204611053,-0.004080163206532325,-0.37442995379832844,0.9792783406997908,0.7056564513866065,-0.07200576034608744,0.21601728103666676,0.1296103686218312,-0.3456276496593105,0.014401152068743027,0.10080806448357396,0.163281,-0.001487000000000016,-0.907493,-0.04755499999999979,-0.007231000000000043,-0.90922,0.2108359999999998,0.005744000000000027,0.001727000000000034,0.9677988970712086,0.9899676497428045,double,-0.907493
86,0.716667,step_decsent,-0.03335733141348672,0.0011999040076739157,-0.03215742740579949,0.19477097891101988,0.24393919194777125,0.04397351071426717,-0.00011999040075806644,0.0029997600191981107,0.009959203263738794,-0.00311975041997616,-0.0032397408207342263,-0.00455963522917953,0.6916526816790726,-0.24480748710225247,-1.1802897252320301,0.21599308883080814,-0.08643973923140102,0.2446468023836147,0.028843770745149575,-0.04315162180503608,-0.057532040154451826,0.1635580000000001,-0.0014719999999999733,-0.9071420000000001,-0.04730299999999987,-0.007267999999999997,-0.9089900000000001,0.21086099999999997,0.005796000000000023,0.0018479999999999608,0.9641835669824819,0.9893256490320061,double,-0.9071420000000001
87,0.725,step_decsent,-0.03684147365892691,0.004080163206532379,-0.0393615744629916,0.08759397199435245,0.16605729260715038,-0.020127112019247804,-0.0019200768030740608,0.006120244809795237,0.010200408016320954,-0.0032401296051841467,-0.001920076803067399,-0.004320172806909975,-0.418113794004587,0.3456449296602052,-0.8645322281521876,-0.21601900903828283,0.37447315379781054,0.028945728138985008,-0.01444608006816128,0.15836601676069115,0.02873664013795233,0.1638489999999999,-0.001454999999999984,-0.9067289999999999,-0.04702300000000004,-0.007317999999999991,-0.908698,0.21087199999999995,0.005863000000000007,0.0019690000000001096,0.960227364108863,0.9904476547571882,double,-0.9067289999999999
88,0.733333,step_decsent,-0.06240249609985285,-0.011640465618626345,-0.023880955238216657,0.0387831751812558,0.06441680669802108,0.0027581180029276463,-0.01140045601823543,0.007920316812667071,0.014160566422657686,-0.0018000720028919003,-0.002760110404415595,-0.004200168006721121,-3.067445390726729,-1.8865509210558815,1.857748616917662,-1.137691013459898,0.21601728103586057,0.47523801828113704,0.17281382482806198,-0.10080806448436246,0.014401152068745213,0.16427400000000003,-0.0012920000000000154,-0.9064119999999999,-0.04651800000000006,-0.007243999999999973,-0.908534,0.2107920000000001,0.005951999999999957,0.0021220000000000683,0.9457302287263234,0.9911024535303199,double,-0.9064119999999999
89,0.741667,step_decsent,-0.03119750419965544,0.0032397408207342692,-0.03431725461963164,0.06414751022500419,0.14004524793276743,0.05053740397353751,-0.005999520038409623,0.015358771298298263,0.029157667386608424,-0.0045596352291795905,-0.002879769618433422,-0.0035997120230417774,3.7442994840649853,1.7854819341685504,-1.2522557453101806,0.6480604727412812,0.8925431348249622,1.7995081550216971,-0.3311210974667274,-0.014357957045575694,0.0720489541251916,0.16448399999999985,-0.0011909999999999976,-0.9058829999999999,-0.046296000000000115,-0.007294999999999996,-0.9082779999999999,0.21077999999999997,0.006103999999999998,0.002395000000000036,0.9202215011069911,0.9891934596543396,double,-0.9058829999999999
90,0.75,step_decsent,-0.0457218288731505,-0.011280451218046633,-0.03564142565702514,0.0023613193653934605,0.1435702459764899,-0.009318036408931347,-0.010560422416880547,0.01440057602304194,0.05040201608064013,-0.0036001440057571543,-0.0032401296051841034,-0.004560182407294172,-1.742988680366615,-1.7424927443634757,-0.15890688076244947,-0.5473301786236535,-0.11498803255206039,2.549423820236603,0.11514355255279397,-0.04324492820720987,-0.11526105655254895,0.16477699999999995,-0.0009770000000000056,-0.9051659999999999,-0.045945000000000125,-0.007228000000000012,-0.9080189999999999,0.21072200000000008,0.0062510000000000066,0.0028529999999999944,0.8823498822996696,0.9889126272638677,double,-0.9051659999999999
91,0.758333,step_decsent,-0.05712228489141258,0.0006000240009573052,-0.04440177607104043,0.30300170372298957,0.16387635705208167,0.05487699117847559,-0.0297611904476209,0.01008040321612536,0.02880115204608388,-0.003960158406330205,-0.0003600144005730508,-0.0038401536061414086,-1.3681094465693062,1.4257140548426603,-1.051284101045872,-2.304184331062075,-0.5184414744889669,-2.5922073724416363,-0.043203456207014164,0.3456276496593112,0.08640691241482781,0.16500500000000007,-0.0008980000000000099,-0.9045559999999999,-0.04550199999999993,-0.007235999999999965,-0.907681,0.210507,0.006337999999999955,0.0031250000000000444,0.8977091403752415,0.9907865972188747,double,-0.9045559999999999
92,0.766667,step_decsent,-0.06647468202543155,-0.00035997120230084735,-0.021718262538995413,0.15534970210453375,0.14572543786882608,0.1134847200901777,-0.038876889848811234,0.010439164866811164,0.031077513798897373,-0.009599232061444739,-0.0020398368130603375,-0.008399328053757487,-1.1221978802518633,-0.11519020917424502,2.7218038795350545,-1.0937964244288922,0.04304795424595692,0.2731415590128997,-0.676634707837121,-0.2015625644933161,-0.5470571691404014,0.16523500000000002,-0.0008080000000000309,-0.9041159999999999,-0.04502800000000007,-0.007250000000000034,-0.90757,0.2102630000000001,0.006442000000000003,0.003454000000000068,0.8807021653678072,0.9784712787351394,double,-0.9041159999999999
93,0.775,step_decsent,-0.049441977679116435,-0.00720028801152097,-0.0286811472458751,-0.05980387230515808,0.08276213475046677,0.02138685396977041,-0.03840153606145406,-0.0032401296051841034,0.0364814592583667,-0.006960278411123393,0.001200048001921272,-0.002760110404415595,2.044006281809078,-0.8208708519404888,-0.8355795880090792,0.05704473627231193,-1.6415809998794204,0.6484993951121206,0.3166871055227812,0.3888017298669862,0.6767331872485143,0.165327,-0.0007750000000000257,-0.9035730000000001,-0.04467399999999988,-0.00718000000000002,-0.907354,0.21000099999999988,0.006404999999999994,0.0037809999999999233,0.8737455214750613,0.9873614566359018,double,-0.9035730000000001
94,0.783333,step_decsent,-0.06744269770790311,-0.007680307212289581,-0.043561742469712776,0.1828918641134502,0.024640389359719305,-0.006259432275520894,-0.04956198247929923,-0.0074402976119053235,0.007920316812673838,-0.0074402976119053235,0.0008400336013482324,-0.006600264010563753,-2.160172810366835,-0.05760460827656489,-1.7857428565748006,-1.3393071424271301,-0.5040403224194477,-3.4274741924508723,-0.05760460827816337,-0.04320345620701342,-0.46083686621243164,0.16547599999999996,-0.0007730000000000237,-0.903144,-0.044173999999999936,-0.0071089999999999764,-0.907046,0.2096499999999999,0.006335999999999953,0.003902000000000072,0.8764144508968007,0.9833644315117125,double,-0.903144
95,0.791667,step_decsent,-0.041876649868002165,-0.005039596832251761,-0.031197504199655026,0.38555637957427097,0.25766439444521894,0.026232106059274604,-0.04235661147108771,0.018238540916731442,0.06815454763619014,-0.010079193664503522,0.0011999040076739157,-0.0044396448284148024,3.0676803263619807,0.3168598968127909,1.4835899052145016,0.8645753549569789,3.0812141263062838,7.227529496462184,-0.3166421949361865,0.0431809942795393,0.2592535615729462,0.16547199999999984,-0.0005789999999999962,-0.902316,-0.043908999999999976,-0.0070570000000000355,-0.906823,0.20938099999999982,0.006478000000000039,0.004507000000000039,0.817778732399651,0.9815352918640368,double,-0.902316
96,0.8,step_decsent,-0.07068282731308631,0.002760110404415595,-0.030001200048011815,0.2161729781503964,0.03202946525340362,0.07597737293250958,-0.06396255850232718,0.01224048961958365,0.08052322092883407,-0.007200288011540955,-0.0009600384015303559,-0.008760350414015293,-3.456879568592827,0.9360023084924184,0.14356224068681214,-2.5928173564429833,-0.7197949474556302,1.4843001671239509,0.34548249765541283,-0.25920345724280125,-0.5185054104884762,0.1655279999999999,-0.0005000000000000004,-0.901395,-0.043380000000000196,-0.007087999999999983,-0.906646,0.2089080000000001,0.006587999999999983,0.005251000000000006,0.7748871515536591,0.9810329554403572,double,-0.901395
97,0.808333,step_decsent,-0.04572182887317775,-0.0074402976119053235,-0.032281291251632684,0.21981540567857716,0.18050242794984722,-0.004667948224368612,-0.07200288011519734,0.046681867274688135,0.08484339373575178,-0.00540021600862248,-0.001200048001921288,-0.004200168006721177,2.9954396303742694,-1.2240979258755564,-0.2736218893100791,-0.9648771886319734,4.13313064383833,0.5184414744891096,0.21601728104146065,-0.028802304139077677,0.5472437786264439,0.16530900000000015,-4.900000000002125e-05,-0.9004190000000001,-0.04304399999999986,-0.007035999999999987,-0.9064120000000001,0.208353,0.0069869999999999655,0.005993000000000026,0.7389480570446065,0.9884237000452334,double,-0.9004190000000001
98,0.816667,step_decsent,-0.06899448044156321,0.004799616030715645,-0.03335733141348672,0.17638681960690286,0.05817142272164025,-0.028501309673321176,-0.06683465322775815,0.036237101031920106,0.09107271418286583,-0.00455963522917953,0.0020398368130536497,0.00011999040077138805,-2.792494788623144,1.4686721433430376,-0.12911449026326244,0.6201376154834594,-1.253271687397162,0.7474586569611235,0.10086162460318497,0.3887550773907983,0.5183775386960082,0.165327,0.00021300000000001873,-0.8993820000000001,-0.04250699999999985,-0.007058999999999982,-0.9061330000000001,0.20783399999999985,0.007272000000000001,0.0067509999999999515,0.7347651797748372,0.9916724010824546,double,-0.8993820000000001
99,0.825,step_decsent,-0.05844233769349678,-0.0066002640105570914,-0.022800912036497808,0.34799306166972055,0.11665660144131082,0.07823839922630647,-0.06732269290769433,0.0404416176647041,0.10296411856473991,-0.0006000240009639748,0.0075603024120941215,0.008880355214210869,1.266307782079267,-1.3680403265658034,1.2668209980786043,-0.058567104276512294,0.5045621784212211,1.427025606849177,0.4751723542800421,0.6624823711797099,1.051285829045909,0.1652530000000001,0.0006049999999999667,-0.898334,-0.04202499999999998,-0.0069410000000000305,-0.9058689999999999,0.20727800000000007,0.007545999999999997,0.007534999999999958,0.7088216272674591,0.9805364364563329,double,-0.898334
100,0.833333,step_decsent,-0.049441977679116435,0.008160326413057988,-0.030721228849157914,0.17495658812514114,0.11331266737952873,0.022416811257439512,-0.07020280811233112,0.042121684867400006,0.1078843153726191,-0.0033601344053928845,0.0033601344053795614,0.0,1.080086405181844,1.7713417045019821,-0.9504760365606711,-0.3456276496624006,0.20161612896866615,0.5904472348348928,-0.33122649759137146,-0.5040403224186418,-1.0656852531154244,0.16508000000000012,0.0008879999999999999,-0.897179,-0.04164100000000004,-0.006981000000000015,-0.9056129999999999,0.20672100000000015,0.007869000000000015,0.008433999999999942,0.6899408030960686,0.9920800872541773,double,-0.897179
101,0.841667,step_decsent,-0.06131509479240752,0.005759539236860106,-0.04523638108949446,0.35402270477913816,0.04584255170229001,-0.05904711748173936,-0.07079433645309406,0.051475881929440116,0.09935205183585183,0.0004799616030855522,0.00455963522917953,-0.000839932805379734,-1.4246600807884566,-0.2880714154305091,-1.74167893452561,-0.07097772267373831,1.122413854336458,-1.0237897212343656,0.4607746590446853,0.14392858456922958,-0.10078387393565245,0.16500099999999995,0.0012689999999999646,-0.895974,-0.041125999999999996,-0.006991000000000025,-0.905243,0.20612699999999995,0.00825999999999999,0.009268999999999972,0.6866264992684887,0.9922314516440462,double,-0.895974
102,0.85,step_decsent,-0.08688347533900799,0.010200408016320954,-0.015600624024956758,0.04790778730096735,-0.08666585386430847,-0.011741674374551793,-0.12996519860793893,0.029521180847237035,0.07416296651866232,-0.002760110404428955,0.0019200768030740608,-0.001200048001921288,-3.0683283987280334,0.532925570558129,3.556433105068759,-7.100787490081052,-2.6346695166450598,-3.0228111505087893,-0.3888241938694992,-0.31675968151991996,-0.04321555220707516,0.16464199999999996,0.0014299999999999868,-0.8952260000000001,-0.040425000000000155,-0.007060000000000011,-0.9051230000000001,0.2050670000000001,0.008489999999999998,0.009897000000000045,0.6468286440575952,0.9940499720866072,double,-0.8952260000000001
103,0.858333,step_decsent,-0.03984159366374626,-0.006480259210368207,-0.03288131525262287,0.42201083095635317,0.18013316524993453,-0.10501451077050447,-0.05616224648984891,0.042121684867393344,0.13332533301331675,0.030121204848193948,0.09456378255130296,0.08376335053402484,5.645251611095828,-2.001760137608195,-2.0737658979558424,8.856708522511665,1.5121209672574412,7.0997679700773055,3.9459156669414095,11.117689397363316,10.196015664940091,0.16450600000000004,0.0018349999999999755,-0.893841,-0.039842000000000155,-0.006218000000000001,-0.9041509999999999,0.2043480000000002,0.008052999999999977,0.01030999999999993,0.6457687887778454,0.783552066534063,double,-0.893841
104,0.866667,step_decsent,-0.041756659467244654,0.008399328053750826,-0.029037676985850355,0.239848786027919,0.0610091512823254,0.008849624746449122,-0.05351571874252112,0.06755459563234742,0.1565874730021608,-0.00011999040075806804,-0.0020398368130603375,-0.001919846412288948,-0.2297895132587478,1.7854076390831672,0.4611996960370213,0.3175579250453333,3.0517051553820758,2.791233499981303,-3.6286531376232527,-11.591507003163407,-10.281161140666459,0.1644079999999999,0.0023279999999999967,-0.8922939999999999,-0.03949500000000006,-0.006305000000000005,-0.9039249999999999,0.20390299999999995,0.008633000000000002,0.011630999999999947,0.5857937081802673,0.9953270452581522,double,-0.8922939999999999
105,0.875,step_decsent,-0.07008280331214899,0.014520580823237398,-0.032641305652205306,0.3262010259587605,-0.04414676151212444,-0.03899998368211925,0.03852154086163619,0.0932437297491929,0.2475699027961086,0.0038401536061480703,0.006840273610947919,0.0015600624024943227,-3.3992732323177983,0.7345797155270067,-0.43245273807211526,11.044912949016792,3.0828194067977166,10.918328308406027,0.47523629028034586,1.065655877116071,0.4176057620044709,0.16531300000000004,0.0029839999999999867,-0.8899590000000002,-0.038878999999999886,-0.0063690000000000135,-0.9036400000000001,0.20419199999999993,0.009353,0.013680999999999943,0.4176280607393691,0.9866698006296564,single,-0.8899590000000002
106,0.883333,step_decsent,-0.05112204488177291,0.04272170886835065,-0.027481099243973812,0.18317400584311916,-0.056181250690149225,-0.12623295529178272,-0.06780271210847526,0.0668426737069449,0.16032641305652207,0.005640225609013324,0.006240249609983953,0.012960518420736413,2.275382026926197,3.384270736243026,0.6192495389693355,-12.75942073324265,-3.1682534552079553,-10.469637554252511,0.2160172810350709,-0.07200576034608948,1.368109446566908,0.16517399999999993,0.0031849999999999934,-0.8883940000000001,-0.03840600000000016,-0.0066729999999999845,-0.9033030000000001,0.2035800000000001,0.009857999999999978,0.01490899999999995,0.5401327060295766,0.9742486301416301,double,-0.8883940000000001
107,0.891667,step_decsent,-0.046316294696424246,-0.005159587233016557,-0.03155747540198293,0.4857638603975628,-0.02710174149730952,-0.028053352483172884,-0.06851451883850522,0.06935445164387163,0.17698584113271087,0.007079433645312165,0.006359491240703809,0.028077753779699222,0.5766438907305845,-5.745295908491419,-0.48912600888038626,-0.08540997480561152,0.30138924129190686,1.9989714514265544,0.17269114906393684,0.0143078510582982,1.8139231292252094,0.16498899999999983,0.003805999999999976,-0.8866559999999999,-0.037961000000000134,-0.0065769999999999995,-0.902806,0.20294999999999996,0.010382999999999976,0.01615000000000011,0.5017332359367523,0.9505889753953752,double,-0.8866559999999999
108,0.9,step_decsent,-0.04440177607106708,-0.0003600144005797124,-0.015360614424565634,0.23526360080666847,-0.005451066702568171,-0.05869533429028288,-0.06816272650904831,0.08352334093363392,0.16452658106324317,0.004920196807867223,-0.004200168006721121,0.030241209648389406,0.22975142509986293,0.5759717787635695,1.9437010653326803,0.04221676820555722,1.7003347281605938,-1.495171015176726,-0.2591187852448018,-1.2672097980829096,0.2596250892463908,0.16479100000000013,0.004504999999999981,-0.885157,-0.03754999999999997,-0.006608999999999976,-0.902426,0.2023410000000001,0.011113999999999957,0.01726899999999998,0.4994749227201815,0.9484576627930799,single,-0.885157
109,0.908333,step_decsent,-0.05280211208448338,0.020880835233410427,-0.02376095043800819,0.4642256077345426,-0.120752292485892,-0.062132816839691477,-0.07656306252249157,0.13776551062043063,0.2047281891275652,-0.007920316812660515,0.023040921636862083,-0.06492259690387839,-1.0080806448357582,2.5490039162354896,-1.0080806448389097,-1.0080806448389934,6.509320735245074,4.8243859431564164,-1.5409232713941985,3.269061519690802,-11.420113590815872,0.1645930000000002,0.005479000000000012,-0.8832530000000001,-0.037175999999999876,-0.0065910000000000135,-0.9027690000000002,0.2017690000000001,0.012070000000000025,0.01951600000000009,0.3742239365294861,0.8844270423182298,single,-0.8832530000000001
110,0.916667,step_decsent,-0.055915526757841595,0.021478281737459005,-0.025317974562056835,0.3791284717920127,-0.18938984024670322,-0.11797288928977845,-0.041156707463427124,0.023158147348211814,0.18490520758339365,0.0014398848092033701,0.0029997600191981107,-0.00455963522917953,-0.3735798744130303,0.07168784545819223,-0.1868279486499438,4.248422733269039,-13.751783449990155,-2.378567499900577,1.1231343438761476,-2.4047470143585095,7.242975962886777,0.16471599999999986,0.005493000000000026,-0.8815009999999999,-0.03669800000000012,-0.006745000000000001,-0.902596,0.20141399999999998,0.012238000000000027,0.021095000000000086,0.47098244013745266,0.9905922458312705,single,-0.8815009999999999
111,0.925,step_decsent,-0.030121204848193948,0.022920916836672977,-0.005160206408258139,0.2845696096594487,-0.09518097109082758,-0.11387016510831283,-0.05496219848792098,0.10404416176647102,0.20928837153486332,0.034921396855879035,0.10116404656186663,0.07380295211808162,3.095442446855579,0.1731231368311491,2.4190289396134177,-1.6567251919469335,9.706709998591009,2.9260967180450694,4.017942163287594,11.780185592543875,9.403886637136784,0.16450900000000002,0.0061690000000000356,-0.8797139999999999,-0.03615600000000008,-0.0060929999999999596,-0.9019379999999999,0.2006650000000001,0.012261999999999995,0.02222400000000002,0.37759457129155716,0.7833298460762614,single,-0.8797139999999999
112,0.933333,step_decsent,-0.031921276851086276,0.010560422416900672,-0.004320172806903313,0.40334972497948646,-0.028083939386261934,-0.10336006371553082,-0.06204248169928062,0.1159246369854765,0.2288491539661598,0.0022800912036471162,0.001920076803067399,-0.002400096003842576,-0.21601728103832293,-1.483318663119215,0.10080806448515942,-0.8496679720820485,1.4257140548428646,2.3473877872670883,-3.917113362802378,-11.909752761166464,-9.144731563893542,0.16425800000000002,0.00704699999999997,-0.877771,-0.035870999999999986,-0.0061650000000000316,-0.901922,0.200129,0.013212000000000002,0.024151000000000034,0.31860451532293566,0.9936216573786568,single,-0.877771
113,0.941667,step_decsent,-0.03851691864650987,0.006239500839932337,0.005519558435323991,0.2786784695575944,-0.10620337296887501,-0.06026741730546136,-0.09479241660665232,0.19042476601871766,0.2807775377969752,-0.004199664026878687,-0.006119510439160949,-0.006959443244540683,-0.7914137023546369,-0.5184691117072597,1.1806732952036514,-3.9296778146594002,8.939300339961674,6.230907587090831,-0.7775084269889314,-0.9646732952037781,-0.5470779026515565,0.16378900000000018,0.008581999999999979,-0.875477,-0.03558499999999998,-0.006267999999999996,-0.902026,0.19937400000000016,0.014849999999999974,0.026549000000000045,0.23450999999999955,0.9830425830527988,single,-0.875477
114,0.95,step_decsent,-0.04524180967236927,0.022680907236289027,-0.006240249609977374,0.49054436129845425,-0.07260330906401148,-0.0859731574003253,-0.07536301452059027,0.14052562102484625,0.28993159726389006,-0.009480379215161521,-0.01764070562822628,-0.013320532821309641,-0.8070192038712904,1.9730476894703997,-1.4112334147727676,2.331621515188074,-5.988136924741613,1.0985310772728876,-0.6337111710407874,-1.3825987266369177,-0.7633612836636285,0.16353799999999996,0.009564000000000017,-0.873009,-0.03528700000000007,-0.006603999999999999,-0.902085,0.19882500000000003,0.016168000000000016,0.02907599999999999,0.2092400000000001,0.959912987702839,single,-0.873009
115,0.958333,step_decsent,-0.025081003240144593,0.006960278411136715,-0.0014400576023188495,0.3165564502647527,-0.10358059289727843,-0.10680340819826674,-0.05376215048601969,0.15552622104883695,0.29869194767790813,0.002160086403464951,-0.0003600144005797124,-0.002640105604226798,2.419393547608856,-1.8865509210551117,0.576046082762331,2.5922073724433563,1.8001440086392222,1.051284101046206,1.3969117507051991,2.073765897953497,1.281702534151302,0.16329900000000008,0.010801999999999978,-0.8705079999999998,-0.03505999999999987,-0.006665000000000032,-0.9020949999999999,0.19835899999999995,0.01746700000000001,0.03158700000000003,0.18412999999999968,0.9942831289539623,single,-0.8705079999999998
116,0.966667,step_decsent,-0.04811615070792784,0.01211903047755717,0.008759299256058218,0.34410024101428177,-0.18004116609775475,-0.1758577973661391,-0.07511399088073083,0.16978641708663172,0.3174946004319608,0.00035997120230084253,-0.006359491240697064,-0.002159827213818377,-2.763996576407856,0.6190007279122169,1.2238249170118778,-2.562015886094429,1.711086637604351,2.2561378394591483,-0.21599654441613808,-0.7198796304436412,0.057628796545286465,0.16307399999999994,0.012116000000000016,-0.8679349999999999,-0.03465600000000002,-0.006818999999999964,-0.9021859999999999,0.19772999999999996,0.01893499999999998,0.03425100000000003,0.15749000000000024,0.9887901876192058,single,-0.8679349999999999
117,0.975,step_decsent,-0.04560182407296897,0.006000240009606439,0.014040561622482399,0.4217176447553914,-0.08002269122689784,-0.012272116422197908,-0.08496339853593392,0.19092763710548705,0.3428537141485689,0.004080163206512394,-0.0001200048001954596,0.0003600144005730556,0.3017312654456847,-0.7342842275231953,0.6337768350443093,-1.1819761976722887,2.537047884178029,3.0432153746079837,0.44644089814131593,0.7487683235931432,0.3023930894505527,0.16274600000000006,0.013656999999999975,-0.865195,-0.034242000000000106,-0.006870000000000043,-0.9023000000000001,0.19698800000000016,0.020527000000000017,0.037105000000000055,0.12895,0.9931703783835764,single,-0.865195
118,0.983333,step_decsent,-0.03648145925838002,0.008640345613819834,0.012480499219954581,0.3137767501026944,-0.08363357958975791,-0.10355295110473012,-0.0900036001440088,0.17616704668186953,0.32089283571342836,0.000720028801172748,-0.0020400816032628316,-0.0016800672026897807,1.0944875572529595,0.3168253455194268,-0.18721497690241343,-0.6048483869044589,-1.771341704502275,-2.6354108286500013,-0.4032322579310731,-0.2304184331054079,-0.24481958517494634,0.1623000000000001,0.015053000000000039,-0.862625,-0.03393199999999985,-0.006958999999999993,-0.9024179999999999,0.19623199999999996,0.02201200000000003,0.03979299999999997,0.10206999999999977,0.9954347325050856,single,-0.862625
119,0.991667,step_decsent,-0.0675545956323341,0.013078953683708467,-0.0022798176145897952,0.4151956831060851,-0.029891556415680243,-0.1412558492433308,-0.1364290856731668,0.33777297816174373,0.4492440604751609,0.007919366450671927,0.00011999040077138965,0.0015598752099881005,-3.72847808662758,0.5325903611577464,-1.7710963324387403,-5.570612614489834,19.391160484746234,15.400914898216136,0.8638514098271203,0.25918790545167186,0.388761988562263,0.16172599999999981,0.01775899999999997,-0.858862,-0.03330300000000008,-0.00706699999999999,-0.9023859999999999,0.1950289999999999,0.02482599999999996,0.043523999999999896,0.06476000000000048,0.986545965769513,single,-0.858862
120,1.0,step_decsent,-0.07140285611425906,0.0118804752190106,0.01944077763110462,0.1959347317212657,-0.07604141263646265,-0.026057842474098723,-0.126005040201607,0.25729029161166755,0.37909516380655345,-0.00012000480018213478,-0.006480259210368207,-0.002640105604226798,-0.4618097302202026,-0.1438231686904912,2.6065756925110195,1.2509354940069324,-9.658308718357835,-8.418204328405997,-0.9647631406281084,-0.7920616358021804,-0.5040178584201225,0.16127099999999994,0.01980399999999999,-0.8558649999999999,-0.03270899999999988,-0.007220000000000004,-0.9025699999999999,0.19397999999999982,0.027023999999999992,0.046704999999999997,0.032950000000000035,0.9883359147871318,single,-0.8558649999999999
121,1.008333,step_decsent,-0.016680667226675924,0.011520460818431041,0.011280451218053445,0.17905520135891004,-0.02005448185576037,-0.1736174220888569,-0.09948397935917151,0.33133325333013786,0.47125885035402015,0.0034801392055484196,-0.0009600384015370304,0.003000120004799889,6.566925343523778,-0.04320345620779565,-0.9792783406997778,3.182654607276578,8.885510826649583,11.06008478908767,0.4320345620701533,0.6624529951795545,0.6768541472490986,0.16058099999999986,0.022469000000000017,-0.8520319999999999,-0.03254100000000015,-0.007323999999999997,-0.902639,0.19312200000000002,0.029793000000000014,0.05060700000000007,0.0,0.9921766441795485,single,-0.8520319999999999
122,1.016667,step_decsent,-0.022678185745139582,-0.022558195344374855,0.007439404847612913,0.2801051313700754,0.09615616085388799,-0.14359811614154064,-0.10643148548114391,0.3244540436765015,0.40088792896567765,0.009119270458385703,0.0005999520038369578,0.011399088072955485,-0.719644650643582,-4.089111610607827,-0.46088869335739174,-0.8336340439131682,-0.8254391233064929,-8.443835059796251,0.676641619010948,0.18718387393496236,1.007795544535101,0.159883,0.025361000000000022,-0.848753,-0.03227599999999997,-0.0071309999999999985,-0.902606,0.19215899999999997,0.03249200000000002,0.05385300000000004,0.0,0.9756495354256565,single,-0.848753
123,1.025,step_decsent,-0.05580223208930325,-0.019920796831873394,-0.0038401536061481215,0.24554937351285752,0.04494478589586777,-0.13926598929675757,-0.10512420496821157,0.3748949957998373,0.4083763350534046,0.013200528021100858,0.011520460818431041,0.029281171246846118,-3.9750445630822004,0.31650048151943894,-1.3536011584976764,0.1568799367493526,6.053156381055596,0.8986446763142936,0.4897704983457569,1.3105134782904337,2.1459358182996273,0.15947200000000006,0.028651000000000038,-0.845318,-0.03170099999999998,-0.006869000000000014,-0.90233,0.19117300000000004,0.03552000000000005,0.05701199999999995,0.0,0.9431287529420866,single,-0.845318
124,1.033333,step_decsent,-0.05112204488177222,-0.007320292811709669,-0.004440177607085332,0.07354661239746343,0.0850356572541921,-0.0698969167558741,-0.08496339853593166,0.435377415096592,0.3654146165846594,0.004200168006721065,0.017400696027841556,0.012960518420736242,0.5616449307009418,1.512120967258311,-0.07200576034287767,2.4193935476154516,7.258180642836149,-5.155612440746963,-1.0800864051817636,0.7056564513873048,-1.958556681400407,0.15918999999999994,0.03233999999999998,-0.8422360000000001,-0.031240000000000157,-0.00666300000000003,-0.9021850000000001,0.1904300000000001,0.03900300000000001,0.05994900000000003,0.0,0.9631670184303271,single,-0.8422360000000001
125,1.041667,step_decsent,-0.04211663066954606,-0.005399568034559408,0.004679625629937721,0.1562383600666495,-0.051693403716473574,0.08069332033600118,-0.13018958483321613,0.404247660187194,0.39296856251500295,-0.01631869450442963,-0.05003599712023142,0.13558915286777554,1.0805632604063276,0.2304685357751737,1.0942888453351605,-5.426708219016719,-3.7352717673864415,3.306209014920095,-2.462066536015249,-8.091755837301926,14.714258992925561,0.15845599999999993,0.03575400000000001,-0.839,-0.03102500000000008,-0.0070350000000000135,-0.9010940000000001,0.189481,0.04278900000000002,0.062094000000000094,0.0,0.7575912590183811,single,-0.839
126,1.05,step_decsent,-0.03780151206048959,0.00756030241209392,0.004080163206538932,0.20903827179307805,-0.012648353886350529,0.024506056949588018,-0.1207248289931651,0.4686187447497808,0.3652946117844706,0.017160686427457307,0.021240849633989575,0.027481099243973444,0.5178349464846269,1.5552466634649107,-0.07193836834258707,1.1358161334514423,7.724839141075928,-3.321006927940943,4.017686419283134,8.553563753056492,-12.973485374270995,0.15776499999999993,0.03959600000000002,-0.83599,-0.03056700000000001,-0.006920999999999955,-0.9008990000000001,0.18833199999999994,0.046516999999999975,0.0649090000000001,0.0,0.9354314819682827,single,-0.83599
127,1.058333,step_decsent,-0.03888155526220976,-0.010080403216125496,0.012720508820345667,0.16002976518158107,0.06421743646875713,0.09304223702306075,-0.12276491059642451,0.5130205208208409,0.3414136565462633,-0.002040081603256197,0.0022800912036471162,0.009840393615741239,-0.12961036862116657,-2.1169693541605157,1.0368829489747766,-0.24481958517453886,5.3284262655778845,-2.8658292617553687,-2.304184331058884,-2.2753820269221925,-2.1169693541620505,0.15706599999999993,0.04395500000000002,-0.833251,-0.030259999999999954,-0.006817999999999991,-0.900923,0.18732599999999988,0.05077300000000001,0.06767200000000007,0.0,0.9828249134437234,single,-0.833251
128,1.066667,step_decsent,-0.058195344372458005,0.03923686105111822,0.004439644828421464,0.476465713579111,0.001532293362224526,0.06918446802076984,-0.12251019918405698,0.5836333093352463,0.3063354931605414,-0.0037197024238197784,-0.0014398848092166917,-0.0013198944084453037,-2.317469295686117,5.917598304204864,-0.993624189095769,0.0305629244501478,8.472856793185121,-4.209042882855967,-0.2015383753975964,-0.4463614126306431,-1.3391274327077582,0.15653000000000006,0.04849199999999998,-0.8307350000000001,-0.029806,-0.0071570000000000245,-0.9009710000000001,0.18633600000000006,0.055649000000000004,0.07023599999999997,0.0,0.9929977036236854,single,-0.8307350000000001
129,1.075,step_decsent,-0.030721228849158323,0.022200888035520512,0.00540021600862248,0.3555769759249346,-0.05386968965602075,0.08319679670861531,-0.11904476179048518,0.6726269050762057,0.28177127085083864,-0.001560062402501005,-0.0003600144005730556,-0.001200048001921288,3.297025743825745,-2.044398537813256,0.11527315255022497,0.4158691219934998,10.67965867526224,-2.9478245901479676,0.2591671692450249,0.12958963262254242,0.01438214406864476,0.155794,0.05391199999999996,-0.828432,-0.029563000000000006,-0.00734499999999999,-0.9010259999999999,0.185357,0.06125699999999995,0.07259399999999994,0.0,0.9966652002078951,single,-0.828432
130,1.083333,step_decsent,-0.04224168966757492,0.03792151686067172,0.010920436817480098,0.30445521487465205,-0.019951991346187973,0.04923070380558993,-0.1760470418816584,0.7121084843393671,0.2600504020160797,0.0004800192007818256,0.0028801152046043525,-0.0009600384015370048,-1.3825105986339126,1.8865509210549538,0.66245299518271,-6.84054723282998,4.737979030740518,-2.6066085245120068,0.2448195851773425,0.3888311058655168,0.02880230413827901,0.154679,0.05953000000000003,-0.826356,-0.029206999999999983,-0.007637000000000005,-0.901125,0.183886,0.06716700000000003,0.07476899999999997,0.0,0.9948772957018837,single,-0.826356
131,1.091667,step_decsent,-0.050275977921760875,0.05495560355171858,-0.015598752099827928,0.20372030008117917,0.015292174294417173,0.07513046345699984,-0.24298056155507344,0.730981521478294,0.17710583153347798,0.00011999040075806964,0.001679865610752852,0.002759779217662069,-0.9640374675049328,2.0439268887745605,-3.1820481062285255,-8.031379850421924,2.2645832900080647,-9.9525522537321,-0.04320000000285131,-0.14401842978779977,0.4463424069113444,0.15307300000000001,0.065164,-0.8247500000000001,-0.028787000000000118,-0.008081000000000005,-0.9009720000000001,0.18186000000000013,0.073245,0.07622200000000001,0.0,0.9946115536415856,single,-0.8247500000000001
132,1.1,step_decsent,-0.046561862474504764,0.05748229929197154,-0.002520100804037968,0.16589860339808468,-0.09269077325551807,0.14057806193048952,-0.09540381615265658,0.835473418936739,0.22512900516020112,0.004080163206538932,-0.0014400576023055071,-0.0022800912036470555,0.44571168213801104,0.30321561745504794,1.569500935532189,17.709917845003513,12.53952927618423,5.763011355660903,0.47523974628354654,-0.3744057617974685,-0.6048086429028006,0.15266599999999997,0.07164699999999996,-0.8228530000000001,-0.028364999999999974,-0.008572000000000024,-0.90097,0.18103099999999994,0.08021899999999998,0.07811699999999999,0.0,0.9918486003950752,single,-0.8228530000000001
133,1.108333,step_decsent,-0.057482299291986394,0.06888275531020865,-0.025561022440900118,0.23165550916951325,-0.046108726055610845,0.07587913707675158,-0.2322092883715394,0.7765510620424894,0.09648385935437828,0.0024000960038292525,0.0001200048001954596,-0.011160446417857985,-1.3105048382913391,1.368109446566329,-2.765021197271374,-16.41731335880044,-7.070965665936657,-15.438035018099606,-0.20161612897032222,0.18721497689919367,-1.065685253115446,0.15121000000000007,0.077544,-0.821836,-0.027865999999999946,-0.009144999999999959,-0.9008499999999999,0.179076,0.08668899999999996,0.07901399999999992,0.0,0.9809729413272144,single,-0.821836
134,1.116667,step_decsent,-0.042956563474904695,0.07331413486921329,-0.01931845452364729,0.2583483446329713,0.007261325285324826,0.04717363439182824,-0.18478521718260896,0.9206863450923904,-0.01667866570674336,0.00035997120230084253,-0.0052795776337945365,-0.010079193664503522,1.7429488621408193,0.5317230092398127,0.7490482262122365,5.690433308006969,17.29485037795776,-13.578416733995775,-0.24479539255200317,-0.6478980602339759,0.1297399512064381,0.15002800000000005,0.08460600000000001,-0.8218139999999998,-0.027505000000000113,-0.009800000000000031,-0.9007729999999998,0.17753300000000016,0.09440600000000005,0.078959,0.0,0.9810267978318895,single,-0.8218139999999998
135,1.125,step_decsent,-0.03564142565702561,0.07140285611424668,-0.010560422416880688,0.33514247871521163,-0.05583250829158476,0.027471026292063216,-0.21096843873756924,1.0296411856474326,-0.027961118444742694,0.002400096003855899,0.0002400096003842576,0.005040201608062748,0.8778516522115865,-0.2293626251009988,1.051005893047724,-3.1421122710861056,13.075103870760005,-1.3539484864993925,0.24482476917737614,0.6623769631799885,1.8144000087083172,0.1485669999999999,0.09259099999999998,-0.8219590000000001,-0.02718799999999999,-0.010393000000000041,-0.9006430000000001,0.17575499999999988,0.10298400000000002,0.07868399999999998,0.0,0.9906872701093372,single,-0.8219590000000001
136,1.133333,step_decsent,-0.061802472098889706,0.09564382575303006,-0.03600144005759867,0.15889557040893248,0.025106984026840622,0.12082810345872691,-0.15732629305173096,1.091563662546511,-0.009960398415936697,-0.001680067202709788,-0.005160206408251546,-0.004680187207489692,-3.1394511510697627,2.90903271796275,-3.053044238655732,6.437314974899648,7.430994467668192,2.160172810369154,-0.48963917035470106,-0.6480518431100267,-1.1664933175990073,0.14777099999999987,0.10088999999999998,-0.8217420000000001,-0.026687000000000127,-0.011232999999999993,-0.900382,0.174458,0.11212299999999997,0.07863999999999993,0.0,0.988056323351463,single,-0.8217420000000001
137,1.141667,step_decsent,-0.04163666906648603,0.0772738180945492,-0.011159107271432692,0.12365799399104213,-0.06641493581995343,0.01728732110261446,-0.14038876889847426,1.1241900647948098,-0.04679625629949586,0.005039596832265082,0.014158867290617482,0.02627789776818131,2.419702787665409,-2.2042245810512022,2.9808414670225334,2.0323403111658944,3.914855081389305,-4.41994935007906,0.8062951805825316,2.318103395592618,3.7146730232386327,0.14694800000000008,0.10961500000000002,-0.822039,-0.026297999999999933,-0.011758999999999964,-0.9000699999999999,0.173246,0.12137399999999998,0.07803099999999996,0.0,0.949546529403043,single,-0.822039
138,1.15,step_decsent,-0.03600144005759867,0.07464298571943083,-0.015360614424565839,0.20588432741071316,0.021378987578256927,-0.03646100449366867,-0.2625705028201247,1.0579623184927482,-0.17832713308532352,0.00012000480018213638,0.0038401536061414597,-0.0006000240009639748,0.6762545312477395,-0.31571251351474744,-0.5042010264170389,-14.662394566380838,-7.947647462145941,-15.784336587762976,-0.5903746588363122,-1.2382951739440917,-3.2254796314827234,0.14505999999999997,0.117809,-0.823397,-0.025997000000000048,-0.012348999999999999,-0.899947,0.17105700000000001,0.130158,0.07655,0.0,0.9935190000615987,single,-0.823397
139,1.158333,step_decsent,-0.036961478459134715,0.07476299051961764,-0.013920556822273247,0.11074021277103657,-0.028308651884951807,-0.019233856730486276,-0.17676707068280448,1.0835233409336196,-0.17220688827553035,0.0031201248050019273,0.0025201008040313068,0.005880235209410823,-0.11520921655298537,0.014401152068499998,0.17281382482810118,10.29682372942742,3.0674453907201347,0.734458755525389,0.36002880173043783,-0.158412672760126,0.7776622117334314,0.1438950000000001,0.12621500000000002,-0.824716,-0.02566299999999999,-0.01295099999999999,-0.8997820000000001,0.1695580000000001,0.139166,0.07506600000000008,0.0,0.9881369793780956,single,-0.824716
140,1.166667,step_decsent,-0.05663546916247143,0.09023278137749517,-0.04295656347493248,-0.061649361815744465,0.060048357635153295,0.11066137819691861,-0.14098872090234826,1.2049436045116615,-0.14446844252459873,0.0011999040076872693,0.006719462443004746,-0.005519558435324138,-2.360690029198115,1.8562264048329522,-3.484042074953178,4.29305852897251,14.569266088078262,3.328347222334071,-0.2304080630327207,0.5038830860299399,-1.367865808103573,0.14319199999999999,0.135505,-0.8255619999999999,-0.025180999999999898,-0.01364700000000002,-0.89947,0.16837299999999988,0.149152,0.07390800000000008,0.0,0.9853696974976618,single,-0.8255619999999999
141,1.175,step_decsent,-0.038881555262208725,0.0790831633265275,-0.006720268810759033,0.12773783693688268,-0.015476734054384563,-0.01962506143833269,-0.0860434417376508,1.39649585983437,-0.08184327373094971,-0.0028801152046110143,-0.0002400096003842512,0.0022800912036470555,2.1305548902270965,-1.3380076864235544,4.348529300872772,6.593697247653487,22.98719012632967,7.5153208680724735,-0.4896218903513995,-0.8351700520087455,0.9359953964923865,0.14279900000000012,0.14648300000000003,-0.8261879999999999,-0.02488099999999993,-0.014307999999999987,-0.899395,0.16768000000000005,0.16079100000000002,0.07320700000000002,0.0,0.9938646099243231,single,-0.8261879999999999
142,1.183333,step_decsent,-0.03012120484819435,0.07284291371655223,-0.02100084003357924,-0.0025248677048023945,-0.06420537600844524,0.01138668805656114,-0.09612384495380523,1.213488539541594,-0.2024480979239181,-0.0022800912036471162,0.0032401296051841467,0.0032401296051841467,1.0512841010457765,-0.7488599075933428,-1.7137370962222893,-1.209696773809495,-21.961756905409537,-14.473157829469518,0.07200576034608226,0.41763341000461174,0.11520921655311413,0.14224900000000007,0.15598800000000002,-0.8277000000000001,-0.02464899999999992,-0.014888000000000012,-0.8991930000000001,0.166898,0.17087600000000003,0.07149300000000003,0.0,0.9914697115436082,single,-0.8277000000000001
143,1.191667,step_decsent,-0.0593952483801186,0.10127189824814074,-0.029397648188150813,0.0959818199605458,0.037293527326829425,0.014413128140067955,-0.10403167746579609,1.236741060715128,-0.23614110871129768,-0.0008399328053863948,0.0028797696184333834,0.002879769618426723,-3.512604215493644,3.411205247370806,-1.00753637563853,-0.9488639923195099,2.790079334477293,-4.042837867456122,0.17280518337661513,-0.04323973923095279,-0.043239739231751985,0.14187700000000003,0.16545099999999996,-0.829423,-0.0241610000000001,-0.015708,-0.8989240000000001,0.16603800000000013,0.18115899999999996,0.06950100000000003,0.0,0.9930694650623271,single,-0.829423
144,1.2,step_decsent,-0.0349213968558795,0.07620304812192517,-0.016920676827066845,-0.006969804336809594,-0.09133360020349421,0.0017766526237442285,-0.09996399855995336,1.2508100324013094,-0.2517700708028331,-0.0045601824072942325,0.004200168006721177,-0.0028801152046044293,2.9369796620952027,-3.0083823504399136,1.4972964551882975,0.48814099434090513,1.688344136107238,-1.8755504730031871,-0.44644781014135027,0.15845414476032713,-0.6912138273168372,0.141335,0.17523899999999998,-0.83138,-0.02390800000000004,-0.01630799999999999,-0.8988070000000001,0.16524300000000003,0.19154699999999997,0.06742700000000013,0.0,0.9886065639676618,single,-0.83138
145,1.208333,step_decsent,-0.03552142085684253,0.09180367214687948,-0.04188167526702852,0.007484397388074853,-0.04263836635555694,0.009675157016096116,-0.10368414736588993,1.2582503300131744,-0.2680907236289421,-0.009000360014406088,-0.06432257290291936,-0.03780151206048293,-0.07200576034597651,1.8721497689852438,-2.9954396303805635,-0.4464357141409467,0.8928714282809208,-1.9585566814003024,-0.5328426265584757,-8.22305783146998,-4.190735252115432,0.1407670000000001,0.18495899999999998,-0.8332649999999999,-0.023687000000000014,-0.017608999999999986,-0.8987729999999999,0.1644540000000001,0.20256799999999997,0.06550800000000001,0.0,0.8747518665109233,single,-0.8332649999999999
146,1.216667,step_decsent,-0.0374370050395817,0.10295176385889629,-0.042716582673389694,-0.11529837328517786,0.02548015353231252,0.060862890398767834,-0.0896328293736582,1.1643868490521034,-0.3776097912167112,-0.0010799136069025565,0.0017998560115175823,0.0005999520038369739,-0.22985171379160133,1.3376639923226563,-0.10018087429339963,1.6860232772056638,-11.262716697992895,-13.141236811587612,0.9503775386973461,7.934056745192968,4.607807063153423,0.1403319999999999,0.193805,-0.8360559999999999,-0.02338400000000007,-0.018452000000000024,-0.898412,0.16371599999999997,0.21225700000000003,0.06235600000000008,0.0,0.9963616099914793,single,-0.8360559999999999
147,1.225,step_decsent,-0.029041161646474408,0.0926437057482277,-0.03216128645144969,0.0980552492319546,-0.07467951688214741,0.0155511538063658,-0.08964358574343455,1.282251290051573,-0.2986919476779042,0.0,-0.000360014400573046,0.00084003360134821,1.007541508833211,-1.2370164539383672,1.266686214081342,-0.0012908160058020997,14.144298691883778,9.47052004545849,0.12959481662096936,-0.25919481724356064,0.02881094413911339,0.13982699999999992,0.20371799999999995,-0.8382769999999999,-0.023141999999999996,-0.019226999999999994,-0.898137,0.16296899999999992,0.22294499999999995,0.059860000000000024,0.0,0.9984767844502008,single,-0.8382769999999999
148,1.233333,step_decsent,-0.026521060842437147,0.10224408976359381,-0.03468138725548858,0.10690953157039781,-0.009156401035514438,-0.0152700032358679,-0.0876035041401541,1.2764910596423982,-0.30733229329173206,-0.0010800432017191667,0.0019200768030740608,0.006000240009599778,0.3024241934522122,1.1520921655305656,-0.3024241934524083,0.24481958517706362,-0.6912552993129594,-1.036882948977313,-0.12961036862104602,0.27362188931322784,0.6192495389717527,0.13931800000000005,0.21350299999999994,-0.840549,-0.022929999999999895,-0.020062999999999998,-0.897798,0.16224799999999995,0.23356599999999994,0.057248999999999994,0.0,0.9893468746865213,single,-0.840549
149,1.241667,step_decsent,-0.03695704343652179,0.11843052555794968,-0.03983681305495518,-0.13623175215196692,0.0003502242797701527,0.06604881176486736,-0.09191264698824557,1.2742980561555066,-0.3107751379889563,0.012479001679851352,0.011519078473720213,0.02435805135589239,-1.2522177338714382,1.9422169179692523,-0.6186016078073622,-0.5170557773087883,-0.26313936727760223,-0.41310831500170353,1.6269552293701002,1.1517880574329349,2.202761140663844,0.13885999999999998,0.22313600000000006,-0.842807,-0.022518000000000038,-0.020953999999999973,-0.8972629999999999,0.16137800000000002,0.24409000000000003,0.05445599999999995,0.0,0.9505101211900142,single,-0.842807
150,1.25,step_decsent,-0.02628105124204623,0.10716428657146776,-0.05628225129005844,-0.04904482092901313,-0.020011480616683834,0.010035044051725435,-0.08544341773671577,1.260170406816282,-0.329293171726875,-0.02508100324011828,0.006000240009599778,-0.008400336013442354,1.2811703101494853,-1.3520027584881824,-1.9735315294735885,0.7763385637261326,-1.6953857361364144,-2.222252938667813,-4.5073808856318225,-0.6622871071787454,-3.93116373086944,0.1383669999999999,0.232744,-0.8450819999999999,-0.022507999999999972,-0.02179700000000001,-0.8968639999999999,0.16087499999999988,0.254541,0.051781999999999995,0.0,0.9547959795039582,single,-0.8450819999999999
151,1.258333,step_decsent,-0.02448097923918095,0.12732509300371875,-0.04188167526700299,-0.016713324561133946,0.022815436272297474,0.04819060245448396,-0.088443537741509,1.2410896435857504,-0.34009360374415326,-0.03012120484819435,0.007320292811709864,-0.02004080163206219,0.21601728103507706,2.4193935476120454,1.728138248296602,-0.36002880172726004,-2.2897831789909784,-1.296103686220852,-0.6048483869046101,0.1584126727601222,-1.3969117507044213,0.137834,0.242025,-0.847567,-0.02255499999999988,-0.02279700000000001,-0.896682,0.1603889999999999,0.264822,0.04911500000000002,0.008850000000000358,0.9384797368880309,single,-0.847567
152,1.266667,step_decsent,-0.017638588912874502,0.1238300935925156,-0.06551475881928621,-0.054728098762505305,0.035952244547428965,0.060805265884753934,-0.09551235901128063,1.2258219342452514,-0.3674106071514262,-0.017638588912901144,-0.0040796736261072995,-0.03707703383729318,0.8210211574641703,-0.4193663800339725,-2.83574316682062,-0.8481906971168208,-1.831978562574851,-3.2777781866177986,1.4977940887080767,-1.3678865416147201,-2.044184329881313,0.1371849999999999,0.25120899999999996,-0.8500830000000001,-0.022555000000000103,-0.023863000000000023,-0.896445,0.15974,0.275072,0.0463619999999999,0.03638000000000041,0.9312316692335447,single,-0.8500830000000001
153,1.275,step_decsent,-0.02340093603743514,0.13908556342253406,-0.06252250090003582,0.07950250794265362,0.07460108694958617,0.11819857654893588,-0.08364334573382384,1.2001680067202842,-0.3824552982119314,-0.007200288011514404,-0.0004800192007685152,-0.011280451218053445,-0.6915093153198956,1.8307296087865839,0.3590853137225997,1.4243385668375015,-3.0785944467739634,-1.8054351446664285,1.252646214014981,0.431975810073061,3.0957137428585106,0.1366829999999999,0.26005100000000003,-0.8527490000000001,-0.022420000000000107,-0.025025999999999993,-0.8960180000000001,0.159103,0.285077,0.043269,0.06730999999999998,0.9776814012807487,single,-0.8527490000000001
154,1.283333,step_decsent,0.003960158406330152,0.08724348973959203,-0.027841113644546493,0.03512302054070928,0.03728240603453952,0.10048855450814287,-0.09108364334572673,1.1827673106924042,-0.4044161766470569,-0.000720028801146092,-0.0002400096003842512,-0.002760110404415558,3.283462671758648,-6.221297693860689,4.161932947976565,-0.8928714282854624,-2.0881670500275744,-2.6354108286481606,0.7776622117326532,0.028802304138276707,1.022481796908405,0.13589099999999998,0.26918,-0.8558870000000001,-0.022459000000000007,-0.025755000000000028,-0.8958090000000001,0.15835,0.294935,0.03992200000000001,0.10077999999999987,0.9952290649858523,single,-0.8558870000000001
155,1.291667,step_decsent,-0.010919126469890206,0.13654907607391337,-0.052675785937135414,-0.1481527215564083,0.06729973505322977,0.14561934527584508,-0.10655147588193147,1.1040316774658254,-0.4247660187185091,0.002639788816890678,0.0005999520038436347,0.0009599232061444868,-1.785371355438042,5.916197064353524,-2.979922281328221,-1.8559914250306009,-9.447520185574781,-2.441785705717851,0.40314586249542045,0.10078732952098654,0.44636832380130975,0.13509400000000005,0.277243,-0.858988,-0.022345999999999977,-0.026887999999999967,-0.895362,0.15744000000000002,0.304131,0.03637400000000002,0.13625999999999983,0.9952128992866269,single,-0.858988
156,1.3,step_decsent,-0.008040321612869085,0.14184567382695257,-0.0750030001200152,0.05900564101191152,0.048790519757031026,0.1957967375327156,-0.10128405136206074,1.1052442097683643,-0.4483379335173349,0.0019200768030740096,-0.0002400096003842512,0.008520340813630924,0.34547040165859483,0.635617155050895,-2.6793728768606027,0.632116227033557,0.14550969669253636,-2.828742925576071,-0.08636889641385526,-0.10079942448432391,0.9072864043545308,0.13431700000000002,0.28527099999999994,-0.862099,-0.022262999999999922,-0.028071999999999986,-0.894666,0.15657999999999994,0.3133429999999999,0.03256700000000001,0.17432999999999987,0.9854378241935557,single,-0.862099
157,1.308333,step_decsent,-0.02604104164165531,0.14448577943117652,-0.08376335053400598,-0.140338202531786,0.24939264579679418,0.1128949868230862,-0.09936397455898938,1.096363854554196,-0.45097803912156703,0.005280211208440344,0.0006000240009573131,0.007920316812673838,-2.1601728103667814,0.316825345520698,-1.051284101042944,0.23041843310589027,-1.0656852531103302,-0.31682534552167724,0.40323225793428114,0.10080806448356798,-0.07200576034526482,0.13370599999999988,0.293203,-0.865159,-0.022002000000000077,-0.02927099999999999,-0.893902,0.15570799999999996,0.322474,0.028742999999999963,0.21256999999999981,0.9841034527141035,single,-0.865159
158,1.316667,step_decsent,-0.033717302615787564,0.15322774178065976,-0.067194624430059,0.04924186414014836,-0.011480709514238121,0.22122291031643276,-0.10139188864890547,1.0592752579793605,-0.44888408927285406,0.00767938564915569,0.002279817614589765,0.01727861771058698,-0.9210776306854087,1.0489515658127158,1.9880880854267886,-0.24333022437197968,-4.450275566934876,0.251253881535032,0.287877902653627,0.20155910890718012,1.1229062752475487,0.13314199999999987,0.300754,-0.8683399999999999,-0.021657000000000037,-0.03052900000000003,-0.8931979999999999,0.1547989999999999,0.33128300000000005,0.024858000000000047,0.2514200000000001,0.9682579335243144,single,-0.8683399999999999
159,1.325,step_decsent,-0.019920796831886717,0.1662066482659285,-0.09156366254648435,0.018301044218398597,0.14999150311042125,0.19498731448935863,-0.10788431537261386,1.014040561622469,-0.43837753510141014,0.006120244809795237,-0.0024000960038359142,0.01344053762149844,1.6556469199449146,1.5575310794754438,-2.9244015500330702,-0.7791223717398841,-5.42838069805495,1.2608369340506436,-0.18710438489865194,-0.5616120986950345,-0.4605880342119976,0.132409,0.307819,-0.8712300000000001,-0.021439999999999904,-0.03193399999999996,-0.8923230000000001,0.1538489999999999,0.33975299999999997,0.02109300000000003,0.2890699999999997,0.9750630846537837,single,-0.8712300000000001
160,1.333333,step_decsent,-0.01152046081841741,0.151806072242889,-0.06480259210368121,-0.11432555763255542,0.11950766747074193,0.09140046656773103,-0.11064442577701322,0.9601584063362409,-0.4285371414856508,0.0043201728069031985,0.0006000240009572972,0.006120244809795074,1.008080644842093,-1.728138248294643,3.211456911412777,-0.3312264975878206,-6.466117279038419,1.1808944696698864,-0.2160172810382824,0.3600288017272481,-0.8784702762154372,0.131583,0.31455500000000003,-0.8742610000000001,-0.021308000000000105,-0.033194,-0.8917320000000001,0.1528910000000001,0.34774900000000003,0.017471000000000014,0.32528999999999986,0.9874743243234974,single,-0.8742610000000001
161,1.341667,step_decsent,-0.02759779217662069,0.16798656107511867,-0.08627309815216581,-0.14631841827926306,0.08153146505282939,0.22023882741872497,-0.10847132229422043,0.9200863930885714,-0.3956083513319003,0.005399568034566068,-0.002399808015361217,-0.002039836813053704,-1.9291254329497942,1.9415033396004289,-2.5762546254481657,0.2607515578105146,-4.8082569291661,3.951138727351947,0.1295170659542705,-0.3599510458745586,-0.9791314642247342,0.13090899999999994,0.320823,-0.8768389999999999,-0.02103300000000008,-0.034614000000000034,-0.89103,0.15194200000000002,0.35543700000000006,0.014191000000000065,0.3580899999999999,0.9895816204482457,single,-0.8768389999999999
162,1.35,step_decsent,-0.01572062882516512,0.17928717148685577,-0.09456378255130171,-0.10678900281434596,0.2247818275865238,0.15329631348079395,-0.1054842193687818,0.8858754350173852,-0.3805352214088539,0.0024000960038291887,-0.004920196807867157,-0.008760350414015176,1.4253166148392369,1.3561274945082091,-0.9949219247732812,0.3584666897202186,-4.105479187709785,1.8088479446833279,-0.35995104173008846,-0.30245875345084555,-0.8064938918710374,0.13016099999999997,0.32671100000000003,-0.879222,-0.020882000000000067,-0.03614899999999999,-0.890315,0.15104300000000004,0.36286,0.01109300000000002,0.38907000000000036,0.9827830399482824,single,-0.879222
163,1.358333,step_decsent,-0.02844113764551121,0.17760710428417076,-0.09672386895474255,-0.22042680306522985,0.10240469854540923,0.18552461524763092,-0.10692427697107684,0.8606744269770817,-0.3784951398055945,0.0022800912036471162,-0.0032401296051841467,-0.0032401296051841467,-1.5265221193263177,-0.20161612896736233,-0.2592207372423931,-0.17281382482839971,-3.0242419345138223,0.2448195851745322,-0.014401152067931544,0.20161612896712175,0.6624529951795367,0.12950700000000004,0.332403,-0.8815700000000001,-0.020626000000000033,-0.03765599999999997,-0.8895360000000001,0.15013300000000007,0.37005899999999997,0.007966000000000029,0.42034000000000027,0.9914697115436082,single,-0.8815700000000001
164,1.366667,step_decsent,-0.03383729301654563,0.18574514038876674,-0.09143268538518666,-0.1307490977030222,0.16726513474042679,0.21158116699338642,-0.10823134149267477,0.8314134869210356,-0.33285337173025886,-0.0031197504199495167,-0.005999520038402883,-0.009239260859130448,-0.6474868455764795,0.9764862136544185,0.6348912370477385,-0.1568351957760881,-3.511031924171581,5.476574043116788,-0.6479291604987512,-0.3311003639571292,-0.719838163420477,0.12888699999999997,0.337784,-0.8835819999999999,-0.02037,-0.03925400000000001,-0.8888509999999998,0.14925699999999997,0.377038,0.005268999999999968,0.4473100000000003,0.9809175018671098,single,-0.8835819999999999
165,1.375,step_decsent,-0.004920196807893935,0.19896795871834969,-0.11208448337933505,-0.06429205732460416,0.13782164411886172,0.23129705994432986,-0.1016440657626365,0.7887915516620798,-0.32737309492380096,-0.005640225609040045,-0.0055202208088312625,-0.003360134405379606,3.470190352652341,1.5868016716168323,-2.478314891893505,0.7905047077929113,-5.1148368245477185,0.657659523155881,-0.30246912145572447,0.05751820827692603,0.705523395385923,0.1280810000000001,0.34269900000000003,-0.8853759999999999,-0.02037599999999995,-0.040957999999999994,-0.887945,0.14845700000000006,0.383657,0.0025690000000000435,0.4743100000000001,0.9857039743361484,single,-0.8853759999999999
166,1.383333,step_decsent,-0.03660146405856264,0.2005280211208507,-0.10140405616224557,-0.15699239962244338,0.0478725655465264,0.21916555732613113,-0.09180367214687528,0.7613104524181057,-0.2647305892235697,-0.006720268810732566,-0.009960398415936697,-0.003480139205568404,-3.8019041462461294,0.18721497689919836,1.281702534152115,1.1808944696701442,-3.2978638238298785,7.517401380083025,-0.12961036861784836,-0.5328426265577193,-0.014401152068738638,0.1276210000000002,0.347372,-0.8867369999999999,-0.020126999999999784,-0.04271200000000003,-0.887129,0.147748,0.39008400000000004,0.00039200000000005897,0.49607999999999997,0.9791511445569392,single,-0.8867369999999999
167,1.391667,step_decsent,-0.024118070554342952,0.204343652507799,-0.10703143748498753,-0.03932228502636777,0.14724259396221445,0.22579035958821014,-0.08963282937365581,0.7171826253899646,-0.24874010079193373,-0.00767938564915569,-0.009959203263738794,-0.0019198464122889224,1.49788738951519,0.45783913930265074,-0.6752317401898147,0.260480294362785,-5.294915650124882,1.918705115387068,-0.11508481382566792,0.00014340679120500974,0.18722015758092989,0.12707500000000005,0.351646,-0.887918,-0.019989999999999952,-0.04449800000000004,-0.8862530000000001,0.147065,0.39614400000000005,0.0016649999999999165,0.5,0.9621469797851228,single,-0.8862530000000001
168,1.4,step_decsent,-0.12456498259931643,0.3357734309372366,-0.07452298091923537,0.6420811972595614,0.009837258531827127,0.4130439645666583,-0.07596303852155424,0.688707548301931,-0.21444857794311764,-0.003960158406330258,-0.0037201488059526618,0.0007200288011527728,-12.054111609861323,15.772204299704644,3.9011708347236835,1.6404405198729983,-3.417145936401512,4.115147347751878,0.44632512214394165,0.7487164835936865,0.31679769752090714,0.12748000000000004,0.354587,-0.889084,-0.018984999999999808,-0.04732700000000001,-0.885626,0.14646499999999985,0.401914,0.003457999999999961,0.5,0.9562850848060638,single,-0.885626
169,1.408333,step_decsent,-0.007080283211305433,0.22680907236289088,-0.1197647905916281,-0.1492122538332264,0.06634256885112279,0.19676473933865982,-0.0727229089163415,0.6464658586343377,-0.19848793951758253,-0.007320292811722992,0.0018000720028852146,0.0022800912036470555,14.098727875676099,-13.076246078764408,-5.429234330060235,0.3888311058697562,-5.069205528332246,1.915353225193187,-0.4032322579374385,0.6624529951803407,0.1872149768983866,0.12693299999999996,0.358084,-0.88974,-0.018987000000000087,-0.04920199999999997,-0.884609,0.14592000000000005,0.407286,0.005130999999999997,0.5,0.9355639273494525,single,-0.884609
170,1.416667,step_decsent,0.005279577633781356,0.23122150227982347,-0.12970962323015722,-0.17303140513684634,0.06781082903935738,0.2865399008158994,-0.07127429805615487,0.6147108231341596,-0.2005039596832265,-0.005399568034566068,0.002759779217662069,0.005399568034559408,1.483064656237944,0.5294492340931923,-1.1932844538672076,0.17381939767058566,-3.8102994360665603,-0.24190306763187142,0.23046853577597312,0.11515565332095902,0.3743072751274792,0.12629500000000005,0.36128,-0.8903299999999998,-0.019076000000000093,-0.051105999999999985,-0.8834829999999999,0.14537100000000014,0.412386,0.0068469999999999365,0.5,0.9179974208697448,single,-0.8834829999999999
171,1.425,step_decsent,0.0033601344053661936,0.18540741629665086,-0.11904476179045535,-0.34310180430718634,0.06390043600693786,0.3532476624807135,-0.059762390495631916,0.576383055322203,-0.1846873874954981,-0.005400216008622337,0.0009600384015303431,0.006720268810752372,-0.2303424011058597,-5.497910234389992,1.2798345661468478,1.3814841666293958,-4.599516118079431,1.8980645851107814,-7.77599971520755e-05,-0.2159775370372848,0.15849043276046335,0.12576900000000002,0.364538,-0.890877,-0.01914899999999986,-0.05264300000000005,-0.8824350000000001,0.14491799999999988,0.417181,0.00844199999999995,0.5,0.9011225894087951,single,-0.8824350000000001
172,1.433333,step_decsent,-0.01704068162724898,0.22140885635425445,-0.1654866194647824,-0.3157817032685591,-0.02797865739966863,0.3003032824984211,-0.04644185767429722,0.5435017400696084,-0.16668666746669702,-0.004680187207503015,0.0004800192007685152,0.006240249609984035,-2.448195851747913,4.320345620737299,-5.573245850753327,1.5985278796753652,-3.9459156669380695,2.160172810368563,0.08640691241081577,-0.05760460827575091,-0.057604608276532,0.12552399999999997,0.367222,-0.890887,-0.01904600000000012,-0.05448400000000003,-0.881004,0.1445700000000001,0.421706,0.009882999999999975,0.5,0.8881448868713289,single,-0.881004
173,1.441667,step_decsent,-0.005999520038409543,0.23506119510438847,-0.14758819294457104,0.020460673065189616,0.16337176407217585,0.23297093484045367,-0.045476361891063875,0.5052795776337812,-0.18910487161027237,-0.0026397888168906074,-0.0009599232061378004,0.004319654427650075,1.324833403988403,1.6381495980482266,2.1476393712756456,0.11585022596992268,-4.586292588892119,-2.6899692996850457,0.24482822061583784,-0.17277926648743755,-0.23045298564122216,0.12519499999999995,0.36947399999999997,-0.8912329999999999,-0.01901799999999998,-0.05645099999999997,-0.8797379999999999,0.14421299999999992,0.42592499999999994,0.011495000000000033,0.5,0.8764623227927419,single,-0.8797379999999999
174,1.45,step_decsent,0.00012000480018213638,0.2187687507500343,-0.1168846753870202,-0.11817087814925425,0.0436844236820061,0.3557703026494721,-0.033961358454315825,0.46969878795153247,-0.1526461058442346,-0.005400216008649127,-0.003000120004799889,0.0064802592103682935,0.7343723555252293,-1.9551715293836942,3.684569489685722,1.3818556866372442,-4.269865556492143,4.3752269010006115,-0.331264513591569,-0.2448334091758199,0.2592829452439983,0.12491100000000022,0.37156500000000003,-0.8915309999999999,-0.01906399999999997,-0.05829899999999999,-0.8787099999999999,0.1439750000000002,0.429864,0.012820999999999971,0.5,0.8568682771682024,single,-0.8787099999999999
175,1.458333,step_decsent,-0.009120364814588222,0.23964958598343167,-0.15732629305170012,-0.1874010978498531,0.0013661809109831683,0.218457487418152,-0.024480979239180297,0.4242169686787343,-0.16728669146765654,-0.0032401296051840604,-0.0013200528021167124,0.0056402256090199105,-1.1088887093207964,2.505800460026042,-4.853188247291397,1.1376910134567817,-5.458036634201051,-1.7569405524326989,0.2592207372452932,0.20161612896713635,-0.10080806448438356,0.12478300000000009,0.373103,-0.8916140000000001,-0.019015000000000004,-0.060307,-0.8773520000000001,0.1437980000000001,0.43341,0.014261999999999997,0.5,0.8463179120692679,single,-0.8773520000000001
176,1.466667,step_decsent,-0.010079193664503789,0.23506119510439474,-0.16102711783057114,-0.1737291193751694,0.052932165220712576,0.26291509782364475,-0.01859851211901946,0.390448764098877,-0.19750419966402832,-0.004799616030695791,-0.003719702423806556,0.0045596352291863125,-0.11505025796923267,-0.550562860455605,-0.44406344838865913,0.7058395872523339,-4.0518604007508925,-3.6258109186911875,-0.18712340118931609,-0.28793491980920194,-0.12966047274221484,0.12471200000000016,0.374398,-0.8919180000000001,-0.01897099999999985,-0.06229699999999999,-0.8759720000000001,0.143683,0.436695,0.015946000000000016,0.5,0.8278839986142912,single,-0.8759720000000001
