frame_id,timestamp,gait_type,root_linear_velocity_x,root_linear_velocity_y,root_linear_velocity_z,root_angular_velocity_x,root_angular_velocity_y,root_angular_velocity_z,left_linear_velocity_x,left_linear_velocity_y,left_linear_velocity_z,right_linear_velocity_x,right_linear_velocity_y,right_linear_velocity_z,root_acceleration_x,root_acceleration_y,root_acceleration_z,left_acceleration_x,left_acceleration_y,left_acceleration_z,right_acceleration_x,right_acceleration_y,right_acceleration_z,left_pos_rel_x,left_pos_rel_y,left_pos_rel_z,right_pos_rel_x,right_pos_rel_y,right_pos_rel_z,step_length,step_width,step_height,left_contact_prob,right_contact_prob,support_type,max_foot_height
1,0.008333,step_acsent,-0.006840273610954609,0.006960278411150068,0.003000120004801527,-0.02372666943976275,-0.05546079574993761,0.05492098630594607,0.004800192007671784,-0.003960158406330221,0.06012240489619602,0.0025201008040380123,0.0067202688107591505,-0.0001200048001921277,0.0,0.0,0.0,0.0,0.0,0.0,0.0,0.0,0.0,-0.01008500000000001,-0.08711000000000002,-0.06362100000000001,0.05295400000000006,0.186774,-0.06284300000000001,0.06303900000000007,0.273884,0.0007780000000000009,0.8992606737330908,0.9802562443067679,double,-0.06284300000000001
2,0.016667,step_acsent,-0.006239500839925723,0.0045596352291795645,0.004439644828413171,-0.008841507489394005,-0.06514049068989691,0.04077087427324738,0.002039836813060326,0.008279337652972727,-0.052795776337893306,0.0010799136069158573,0.006959443244527413,0.0,0.07208696556622102,-0.28805413750546,0.1727291605005572,-0.3312161260632899,1.4686220373533654,-13.549097820265096,-0.1728086389635415,0.028698636161298606,0.014399424069129791,-0.010016000000000025,-0.08707900000000013,-0.064098,0.053015000000000034,0.1867939999999999,-0.06288,0.06303100000000006,0.27387300000000003,0.0012179999999999969,0.9108667918643876,0.9760821145581924,double,-0.06288
3,0.025,step_acsent,-0.0028801152046110646,0.0008400336013548863,0.003120124804991989,0.023529248980267755,-0.02465557940691807,0.04043369824522659,0.006480259210368234,0.00516020640825816,0.006000240009600556,0.0003600144005730523,0.008040321612869225,-0.0018000720028794174,0.4031424019338364,-0.446370050140967,-0.15834873676001224,0.5328720025570512,-0.3743107217946198,7.055804193867018,-0.08639136041555322,0.12971059262472245,-0.21601728103677156,-0.009938000000000002,-0.0870430000000002,-0.06407399999999999,0.053042000000000034,0.18685399999999985,-0.062921,0.06298000000000004,0.27389700000000006,0.0011529999999999874,0.9829523242230793,0.9747246329802707,double,-0.062921
4,0.033333,step_acsent,-0.004920196807867243,0.007680307212269526,0.0034801392055683724,-0.03138414895683577,-0.0388850852932501,0.07487475891125618,0.012120484819394905,-0.004080163206512357,0.06984279371174837,-0.0003600144005730523,0.006840273610941286,-0.0016800672026881223,-0.24481958517414834,0.8208656679364742,0.043203456207414295,0.6768541472490905,-1.1088887093208348,7.661412900773768,-0.0864069124140291,-0.14401152069218037,0.014401152069038175,-0.009796000000000027,-0.08714099999999991,-0.063521,0.053080000000000016,0.18684699999999999,-0.06296399999999999,0.06287600000000004,0.2739879999999999,0.0005570000000000019,0.8816599800303427,0.9826753816113376,double,-0.06296399999999999
5,0.041667,step_acsent,0.005159587233023187,0.00011999040078471056,0.00035997120230417564,0.02627367366025269,0.05681587411953007,0.01845389920910005,0.005159587233023187,0.0031197504199495397,0.004559635229181229,-0.0014398848092167025,0.008759299256058282,-0.004199664026877886,1.2094773267207137,-0.9071654441426463,-0.37439020917496957,-0.8352408910933186,0.8639205215337048,-7.833352349720077,-0.12957408311058918,0.23026465624154013,-0.30232743270815493,-0.009796000000000027,-0.0871160000000002,-0.06348600000000001,0.05302499999999999,0.18691899999999984,-0.063002,0.06282100000000002,0.27403500000000003,0.0004840000000000122,0.9874010079193765,0.9787930473837225,double,-0.063002
6,0.05,step_acsent,-0.008880355214210787,0.005520220808831212,0.006480259210368234,-0.02154657823494002,-0.09508958096174594,0.04252714925519024,-0.004800192007685108,0.0016800672027097725,0.009120364814593378,0.0002400096003775938,0.007200288011540985,-0.0036001440057605,-1.6848604880876006,0.6480535711084245,0.7344639395252679,-1.195221317737705,-0.17276889682464505,0.547309442627163,0.20159539296703424,-0.18708883289539144,0.0719452803453001,-0.009762000000000048,-0.087148,-0.06346399999999999,0.053100999999999954,0.18693300000000002,-0.063086,0.062863,0.274081,0.00037799999999998946,0.9825958558999797,0.9827970936952675,double,-0.063086
7,0.058333,step_acsent,-0.00012000480019545849,0.0022800912036470954,0.002400096003839223,-0.003840126701878197,0.01848637992389978,0.04403982690603129,-0.0037201488059526275,-0.012720508820372197,0.064802592103684,-0.0002400096003775938,0.007680307212269526,-0.0025201008040321837,1.0512841010458813,-0.3888311058663287,-0.48963917035029525,0.12961036862264252,-1.7281382482997685,6.682134560073277,-0.057604608274953506,0.05760460827175573,0.12961036862214287,-0.009792000000000023,-0.08727300000000016,-0.062944,0.053100000000000036,0.18697799999999987,-0.06312699999999999,0.06289200000000006,0.274251,0.00018299999999998873,0.887930024452409,0.9865220724118616,double,-0.062944
8,0.066667,step_acsent,-0.011159107271419454,0.004799616030695699,0.0074394048476129696,-0.016819680313579177,-0.11811770351966652,0.04209882951792507,-0.03359731221501643,-0.029157667386608254,0.061915046796255764,0.0007199424046016905,0.00815934725221466,-0.004919606431485405,-1.324586329640508,0.302318793742333,0.6046686877578289,-3.5849728112627552,-1.9723012438488188,-0.3464777186738941,0.11518502579545047,0.05748020637690592,-0.2879176418830358,-0.00997899999999996,-0.08755599999999997,-0.062490000000000004,0.053198999999999996,0.187006,-0.06323000000000001,0.06317799999999996,0.274562,0.0007400000000000045,0.8655345971634653,0.9840751947431339,double,-0.062490000000000004
9,0.075,step_acsent,-0.005280211208453623,0.0030001200048198487,0.0033601344053762476,-0.00619349286183168,-0.021648408512684382,0.048090851302225054,0.016680667226689108,-0.005760230409195487,0.08100324012960548,0.0004800192007685112,0.007320292811723126,-0.0034801392055683754,0.7054957473857958,-0.2159481610315435,-0.4895320343497811,6.033598876959748,2.8078047494795135,2.290674826995048,-0.028791936137427036,-0.10069056048140336,0.17274297682911682,-0.009795999999999916,-0.08762899999999996,-0.061843,0.053247000000000044,0.18704199999999993,-0.06328700000000001,0.06304299999999996,0.2746709999999999,0.0014440000000000078,0.8473879069723689,0.9864672748317473,double,-0.061843
10,0.083333,step_acsent,-0.006720268810745822,0.006000240009586395,0.0034801392055683693,-0.010218140937349154,-0.0626528139245552,0.05543649546722832,-0.06588263530541476,0.08976359054361818,-0.43813752550101986,0.0006000240009639688,0.007440297611905249,-0.0038401536061439196,-0.1728138248280568,0.36002880172405416,0.014401152069137358,-9.907992623557398,11.463317047019512,-62.299383851029035,0.014401152069537685,0.014401152067937437,-0.043203456207313556,-0.010288999999999993,-0.08693099999999987,-0.065523,0.05330800000000002,0.18705400000000005,-0.063348,0.06359700000000001,0.2739849999999999,0.0021749999999999964,0.5,0.9642594439517385,single,-0.063348
11,0.091667,step_acsent,-0.0008399328053730801,0.00107991360692918,0.0026397888168939597,0.010676372871538206,0.0012397528408311406,0.026124859095056126,0.0020398368130603276,0.002519798416105919,-0.0014398848092150385,0.0010799136069025367,0.005879529637624882,-0.0016798656107511558,0.7055838739348148,-0.5903919369639091,-0.10083397992253543,8.150044650644965,-10.468417581894927,52.39952492102294,0.057582146140936916,-0.18727717473966496,0.25921382234134455,-0.010264999999999969,-0.08691900000000019,-0.065557,0.05332399999999993,0.18709399999999987,-0.063384,0.0635889999999999,0.27401300000000006,0.0021730000000000083,0.9940877747783996,0.9679209486977647,double,-0.063384
12,0.1,step_acsent,-0.007800312012478302,0.00840033601344227,0.005880235209409256,-0.05462082565177936,-0.08103270356224289,0.04267603298665757,0.007680307212282843,0.009000360014406239,-0.012840513620545162,-0.0014400576022922079,0.00660026401057701,-0.004440177607104558,-0.8352789160092662,0.8784858282146986,0.38886912186670985,0.6768835232476312,0.7776984997360272,-1.3681301825669163,-0.30240864144902707,0.08649158441763201,-0.33125068958999154,-0.010136000000000034,-0.08691400000000016,-0.06571300000000001,0.05337700000000001,0.187079,-0.06347,0.06351300000000004,0.27399300000000015,0.002243000000000009,0.9708990077821232,0.9640965252265103,double,-0.06347
13,0.108333,step_acsent,-0.005160206408258164,0.002520100804011368,0.0031201248049919916,-0.008986299258642593,-0.03726679129341383,0.028143091881668022,0.001320052802110075,0.00324012960518412,-0.016320652826112725,-0.0001200048001954586,0.006000240009586405,-0.0025201008040321854,0.3168253455202376,-0.7056564513897644,-0.3312264975899756,-0.7632610596631193,-0.6912552993186276,-0.4176334100045081,0.15841267275852036,-0.07200576034928667,0.2304184331060091,-0.010082000000000035,-0.08690799999999999,-0.065875,0.053418999999999994,0.18710800000000005,-0.063517,0.06350100000000003,0.27401600000000004,0.002357999999999999,0.9721809074390522,0.9655715247631553,double,-0.063517
14,0.116667,step_acsent,-0.0004799616030722338,0.004799616030722338,0.0007199424046066855,-0.02286330722395,0.024691467083897224,0.052665526788366945,0.0029997600192047916,0.006119510439167651,-0.01667866570674347,0.00011999040077138885,0.006359491240710428,-0.0021598272138225543,0.5615844498663217,0.2735199456096674,-0.2879988481383854,0.20154874215199364,0.34549806023320473,-0.04295810902696741,0.028797120346393954,0.04310669919894683,0.04322937247535766,-0.010052999999999979,-0.086897,-0.06602,0.05342400000000003,0.1871210000000001,-0.06354099999999999,0.063477,0.2740180000000001,0.002479000000000009,0.9699710853257323,0.9640144676407507,double,-0.06354099999999999
15,0.125,step_acsent,-0.004800192007685112,0.003960158406330225,0.004080163206529014,-0.0014216373115520816,-0.06160521217833066,0.054149242960095004,0.007320292811709803,0.008640345613833202,-0.018240729629185104,-0.001080043201732481,0.00648025921036824,-0.002640105604224313,-0.5184483864890054,-0.1007389444848331,0.4032426259357172,0.5184846744875813,0.3025123214527245,-0.18745516889975203,-0.14400979269217218,0.014492736068380118,-0.05763571227670218,-0.009951999999999961,-0.08685799999999988,-0.066206,0.05345500000000003,0.18714200000000014,-0.063597,0.06340699999999999,0.274,0.002609,0.9642164502187618,0.9621095279811183,double,-0.063597
16,0.133333,step_acsent,-0.011400456018235467,0.008280331213260135,0.00468018720748798,-0.06789658884978597,-0.08359865387171822,0.02854400858221794,-0.0009600384015370207,0.00252010080403801,-0.020040801632065324,-0.0016800672026831248,0.004920196807867239,-0.0021600864034566312,-0.792063363800594,0.5184414744905684,0.07200576034548965,-0.9936794927693287,-0.7344587555256433,-0.2160172810368677,-0.07200576034449098,-0.18721497689919586,0.05760460827645284,-0.009865000000000013,-0.08690599999999993,-0.066412,0.05353600000000003,0.187114,-0.063654,0.06340100000000004,0.27401999999999993,0.0027579999999999966,0.9662976133448679,0.963036661381873,double,-0.063654
17,0.141667,step_acsent,-0.0005999520038436247,0.00035997120230084616,0.002039836813055335,0.014170942491530107,-0.004891693952013279,0.01387650014462009,-0.0011999040076872494,0.002519798416105923,-0.012359011279097573,-0.0022798176146031092,0.006479481641468517,-0.0022798176145906205,1.2959568051826096,-0.9503671719413616,-0.31681670199575845,-0.028781570212410516,-3.6283649158538926e-05,0.9217411030678869,-0.07196429228701534,0.18709921209518615,-0.014366596008398076,-0.009870000000000045,-0.08688800000000008,-0.06653200000000001,0.05352199999999996,0.18716500000000003,-0.06369,0.063392,0.2740530000000001,0.002842000000000011,0.9788829772798806,0.959517797896162,double,-0.06369
18,0.15,step_acsent,-0.006120244809795177,-0.0024000960038292286,0.004080163206527342,0.015415956687926148,-0.04358038374010663,0.01983217533500805,-0.0026401056042201455,-0.0006000240009373224,-0.0038401536061447522,-0.006120244809781853,0.007200288011514332,0.0021600864034566312,-0.6624616351795928,-0.3312213135881522,0.2448489611750876,-0.1728311048281405,-0.3743936657918208,1.0223038129068538,-0.46086969820937723,0.08650022441447433,0.532809794557452,-0.009840999999999989,-0.08687299999999998,-0.06659799999999999,0.05352200000000007,0.18724499999999988,-0.06370599999999998,0.06336300000000006,0.27411799999999986,0.0028920000000000057,0.9921689779789463,0.9549238593329883,double,-0.06370599999999998
19,0.158333,step_acsent,-0.006000240009599718,0.0012000480019012912,0.003360134405376242,-0.0007803216572898264,-0.05555918761092461,0.00024353343519814807,-0.004560182407294187,-0.003000120004819844,0.0030001200048006917,-0.0020400816032695,0.005760230409222125,-0.00048001920076851036,0.014401152069537784,0.4320345620701448,-0.08640691241462846,-0.23041843310620908,-0.28802304138755785,0.8208656679401702,0.48963917034829596,-0.17281382482805785,-0.3168253455208375,-0.009828999999999977,-0.08690799999999999,-0.066601,0.05355500000000002,0.1872830000000001,-0.06373799999999999,0.063384,0.2741910000000001,0.0028630000000000044,0.989618833335431,0.9611539171253753,double,-0.06373799999999999
20,0.166667,step_acsent,-0.013558915286780614,-0.0004799616030589122,0.005999520038397927,-0.012949733305333003,-0.11327827884747416,0.013824037261708074,-0.007679385649142419,-0.006239500839925718,0.013918886489080627,-0.0038396928245778704,0.004679625629937628,-0.00011999040076805845,-0.9069684757836439,-0.20158502579316076,0.3167009398874109,-0.37427444706602214,-0.3886946046443329,1.3101471663402837,-0.21593607167127055,-0.12966220053809646,0.04320000000005419,-0.0097799999999999,-0.08695600000000003,-0.06653500000000001,0.05363600000000002,0.18732599999999988,-0.06378900000000001,0.06341599999999992,0.2742819999999999,0.0027459999999999984,0.9715375619955977,0.9624492266126481,double,-0.06378900000000001
21,0.175,step_acsent,0.008400336013442297,-0.006960278411150086,-0.003360134405376253,0.0515122072888713,0.12248316763448393,-0.014465586691096712,-0.009960398415943292,-0.007440297611905274,0.012840513620545205,-0.004680187207489661,0.00540021600864909,-0.0006000240009598073,2.635215564649342,-0.7776691237358923,-1.12320346139136,-0.2737324813153581,-0.14410137669261483,-0.12940992062107576,-0.10086336048383443,0.08647430441755241,-0.05760633627646107,-0.00993299999999997,-0.08695999999999993,-0.0664,0.05352699999999999,0.18742900000000007,-0.063766,0.06345999999999996,0.274389,0.0026339999999999975,0.9702115628698047,0.961707952983444,double,-0.063766
22,0.183333,step_acsent,-0.015360614424565686,0.0006000240009639688,0.006720268810752484,-0.027597236154087258,-0.14229156653104014,0.004142299330116219,-0.017520700828030644,-0.017880715228603697,0.023880955238209243,-0.003480139205561708,0.003720148805965948,0.0006000240009598053,-2.851428109685343,0.9072725803569001,1.2096967738063995,-0.9072725803536956,-1.25290023001301,1.3249059903592977,0.14401152069218187,-0.2016161289671356,0.14401152069118103,-0.009951000000000043,-0.08711399999999991,-0.06625700000000001,0.05362599999999995,0.18745500000000015,-0.06381700000000001,0.063577,0.27456900000000006,0.0024399999999999977,0.9423373084780229,0.9670509739296831,double,-0.06381700000000001
23,0.191667,step_acsent,0.00011999040075806724,-0.005639548836082095,0.0017998560115192117,0.019855941615564515,0.021775090165924382,-0.02102516277436968,-0.018478521718261018,-0.016438684905214017,0.025917926565874813,-0.0033597312215056367,0.004079673626094005,0.0002399808015361169,1.857523977120679,-0.7486888453378999,-0.5904023037236942,-0.11492931248264611,0.17302979642304758,0.24441700595939145,0.014447802262547542,0.04313952725318649,-0.04320172779261915,-0.010105999999999948,-0.08720400000000006,-0.066056,0.053597000000000006,0.18753599999999992,-0.06383,0.06370299999999995,0.27474,0.0022260000000000058,0.9402917964928317,0.9689225423226115,double,-0.06383
24,0.2,step_acsent,-0.011880475219003978,-0.003960158406330218,0.005280211208448618,0.005340208516926091,-0.10130199392640976,0.00017613252571582443,-0.00996039841594326,-0.008880355214197458,0.011280451218048337,-0.003240129605184114,0.0018000720028919063,0.0004800192007676777,-1.4401134789106007,0.2015349129667438,0.41765933000472855,1.0222156849055264,0.9070358443557606,-1.756567304431353,0.014352768069305456,-0.27356313730974396,0.028805760138192797,-0.010090000000000043,-0.08724500000000002,-0.06600600000000001,0.05366899999999997,0.18758399999999997,-0.06387000000000001,0.06375900000000001,0.274829,0.002135999999999999,0.9708777087565108,0.9724107862304809,double,-0.06387000000000001
25,0.208333,step_acsent,-0.003240129605184125,-0.003600144005783825,0.0008400336013432305,0.011117069163804113,-0.01329130697219794,-0.023534110367926814,-0.011400456018235505,-0.009960398415943292,0.015600624024961651,-0.0020400816032561833,0.002880115204611072,0.0010800432017283193,1.036882948976344,0.043203456203815424,-0.5328426265577101,-0.17281382482806298,-0.12961036862424544,0.5184414744885786,0.14401152069217976,0.12961036862104502,0.072005760345691,-0.010158,-0.08729799999999988,-0.065883,0.05367900000000003,0.1876380000000002,-0.06386800000000001,0.06383700000000003,0.27493600000000007,0.002014999999999989,0.9637692808365509,0.973698331333565,double,-0.06386800000000001
26,0.216667,step_acsent,-0.002879769618433403,-0.005639548836082095,0.0017998560115192117,0.02346854937183612,-0.0269648102186689,-0.03344755420645795,-0.0063594912406971064,-0.003959683225335938,0.009359251259898569,-0.002879769618433403,0.0020398368130470023,-0.0002399808015361169,0.043239739230948135,-0.24470900291555897,0.11516947566306458,0.6048673839138942,0.7200282206152326,-0.7489048194220155,-0.10075450146114937,-0.10082534096041143,-0.1583902091749982,-0.010186999999999946,-0.08728399999999992,-0.06582,0.05367900000000003,0.18770200000000004,-0.063885,0.06386599999999998,0.27498599999999995,0.0019350000000000062,0.9800196065387825,0.9747547104339755,double,-0.063885
27,0.225,step_acsent,0.003960158406343541,-0.007200288011514332,-0.0021600864034566312,0.04119366115807515,0.054462252731721825,-0.02066528619986526,-0.008040321612869218,-0.007680307212296166,0.010680427217089363,-0.0021600864034649584,0.0014400576022922079,0.00012000480019212759,0.8208241959410704,-0.1872961928995842,-0.475212098281032,-0.20170771296917203,-0.44649273814475277,0.15854745676116563,0.08636544041382983,-0.07197638434594911,0.0432000002073976,-0.010287000000000046,-0.08728800000000003,-0.065713,0.0536279999999999,0.18777399999999989,-0.063866,0.06391499999999994,0.2750619999999999,0.0018469999999999875,0.9743038364270091,0.9771985451762644,double,-0.063866
28,0.233333,step_acsent,-0.004320172806916593,0.00048001920075518715,0.0003600144005763828,-0.03618882423750504,-0.026146599899024174,-0.027655305949356317,0.02280091203648426,0.02124084963399659,-0.048001920076803574,-0.002520100804024687,0.002760110404428927,-0.0018000720028802486,-0.993679492770926,0.9216737324216383,0.3024241934516995,3.7010960817656846,3.470677648661074,-7.042163361801618,-0.04320345620541562,0.1584126727633167,-0.23041843310600918,-0.010060999999999987,-0.08711499999999983,-0.06611600000000001,0.053642999999999996,0.1877930000000001,-0.063884,0.06370399999999998,0.27490799999999993,0.0022320000000000118,0.90461715135062,0.9707659690317771,double,-0.063884
29,0.241667,step_acsent,0.002639788816890634,-0.005519558435324046,-0.0022798176145914528,0.014720106678492636,0.03523977681664724,-0.04218339138591921,0.001679865610746163,0.0028797696184067693,-0.0004799616030714028,-0.002039836813060331,0.001679865610746163,-0.0004799616030714028,0.8351285845701036,-0.7198917249915104,-0.3167545014600242,-2.5343228252625565,-2.203153349602816,5.70217884254047,0.05762706875022284,-0.12961900572147428,0.1584005759309874,-0.010068999999999995,-0.08704500000000004,-0.066101,0.053603999999999985,0.18785300000000005,-0.063869,0.06367299999999998,0.2748980000000001,0.002231999999999998,0.9943861815664654,0.9732037522426992,double,-0.063869
30,0.25,step_acsent,0.008280331213246811,-0.00252010080403801,-0.003720148805950959,-0.014273554404389651,0.09175515510445054,-0.01075639493473398,-0.0008400336013415624,0.0014400576023188543,0.0006000240009598053,-0.002040081603256177,0.002040081603256177,-0.0007200288011519328,0.6768921632492707,0.35994931372687305,-0.1728466568294138,-0.3024000014505848,-0.17277235282466263,0.12960345662200976,-2.9375998541433003e-05,0.0432276482071299,-0.02880921613830911,-0.01014499999999996,-0.08701199999999987,-0.06606500000000001,0.053518000000000066,0.18789100000000003,-0.06384400000000001,0.06366300000000003,0.2749029999999999,0.0022210000000000008,0.997046917264626,0.9728339970825559,double,-0.06384400000000001
31,0.258333,step_acsent,-0.007920316812673786,0.003480139205575043,0.0012000480019196146,-0.0743773063952703,-0.06611130380546541,0.02620707785183822,-0.008520340813637757,-0.0002400096003909176,-0.008040321612864249,-0.002280091203647101,0.0008400336013548883,-0.0015600624024959984,-1.9441555293316497,0.7200576034577064,0.5904472348338637,-0.9216737324248427,-0.20161612897033193,-1.036882948976848,-0.028802304139076546,-0.14401152068898254,-0.10080806448386748,-0.010149999999999992,-0.08704299999999998,-0.066142,0.053565000000000085,0.18786900000000006,-0.06386700000000001,0.06371500000000008,0.27491200000000005,0.0022749999999999992,0.9804707780331404,0.972437323726739,double,-0.06386700000000001
32,0.266667,step_acsent,-0.00011999040075806724,-0.00443964482839485,-0.0010799136069108608,-0.048789290546647976,0.028508151186359857,-0.040239038233081746,0.0011999040076872453,0.0035997120230350926,-0.004079673626109824,-0.0031197504199761807,0.001799856011530868,-0.0015598752099830946,0.9359642922865025,-0.9502980602315676,-0.27357350717908246,1.1663360716732654,0.4607297364322062,0.4752397392313919,-0.10075104587581939,0.11516947566306439,2.2461304644091143e-05,-0.010139000000000009,-0.08697600000000016,-0.066167,0.05353999999999992,0.187921,-0.06387100000000001,0.06367899999999993,0.27489700000000017,0.0022959999999999925,0.9907141934515293,0.9704983524382647,double,-0.06387100000000001
33,0.275,step_acsent,-0.0006000240009639668,-0.0033601344053928845,-0.0024000960038408786,-0.03679491761495934,0.019628364301452556,-0.01053360873137765,0.007200288011514309,0.007680307212296141,-0.005760230409216276,-0.002160086403451628,0.0006000240009373203,-0.0022800912036487512,-0.05760633627815883,0.12954643261753998,-0.1584282247605919,0.7200748834545827,0.4896910103517378,-0.2016748809680121,0.11516428855448804,-0.14398560069525293,-0.08642937641493503,-0.010074000000000027,-0.08688399999999996,-0.066195,0.05352699999999999,0.18795399999999995,-0.06387000000000001,0.06360100000000002,0.2748379999999999,0.0023249999999999937,0.9799991999679968,0.9714206217870933,double,-0.06387000000000001
34,0.283333,step_acsent,-0.009720388815552376,-0.0010800432017191595,0.002520100804031357,-0.09829471521822697,-0.06409952084172044,0.005843131021012748,0.018600744029763184,0.024000960038398952,-0.03300132005280272,-0.004200168006721149,-0.000840033601328242,-0.0007200288011519352,-1.094487557252902,0.27362188931642034,0.5904472348340631,1.368109446567731,1.9585566813995983,-3.269061519691169,-0.24481958517575012,-0.1728138248248609,0.18721497689869432,-0.009838000000000013,-0.08667500000000006,-0.066491,0.05357299999999998,0.187956,-0.063897,0.063411,0.27463100000000007,0.002593999999999999,0.9252574625342824,0.9668209260087026,double,-0.063897
35,0.291667,step_acsent,0.00011999040077138885,-0.004439644828421493,-0.0032397408207342476,-0.05260420340394734,0.04468713043187983,-0.010107712056387467,0.008279337652986041,0.015598752099827615,-0.02747780177585791,-0.0011999040076739237,-0.001079913606929178,0.0020398368130553285,1.1807510458751806,-0.40311994560863096,-0.6911257049154786,-1.2384696876382448,-1.0081842978847286,0.6627691716996409,0.3600028796552942,-0.02878329800827163,0.3311573811143822,-0.009770000000000056,-0.08650800000000003,-0.066693,0.053562,0.18798399999999993,-0.063853,0.06333200000000005,0.27449199999999996,0.002840000000000009,0.9455609900521345,0.9672644501662424,double,-0.063853
36,0.3,step_acsent,0.0,-0.005640225609013362,-0.0038401536061430995,-0.039438276800089746,0.037046049622439355,-0.030735703690307,-0.004320172806903284,0.006960278411150086,-0.021120844833792878,0.004920196807867256,-0.0010800432017191595,0.008160326413056376,-0.014399424069529479,-0.14407545668929217,-0.07205241634571624,-1.512001735256133,-1.036658308973665,0.762865347661712,0.7344414755239643,-1.55519968776625e-05,0.7344881315253886,-0.009805999999999981,-0.08640300000000001,-0.06683700000000001,0.053602999999999956,0.1880219999999999,-0.063753,0.06340899999999994,0.2744249999999999,0.0030840000000000034,0.9622434900706814,0.9531768702556108,double,-0.063753
37,0.308333,step_acsent,0.004680187207489629,-0.014040561622482213,-0.0034801392055683576,-0.025624423867629007,0.08854269788679306,-0.11087343977992004,-0.03456138245530599,-0.010920436817480244,-0.03084123364934588,0.0038401536061480703,-0.0012000480019279335,0.009120364814592507,0.561644930695981,-1.0080806448420518,0.043203456207217134,-3.6290903214211663,-2.1457716583019626,-1.166493317599059,-0.12961036862104655,-0.014401152071135662,0.1152092165529973,-0.010133000000000059,-0.08637699999999993,-0.067065,0.05359599999999998,0.188129,-0.06364800000000001,0.06372900000000004,0.2745059999999999,0.0034169999999999895,0.9206812550086667,0.9492160877176687,double,-0.06364800000000001
38,0.316667,step_acsent,0.0021598272138184057,-0.00947924166066003,-0.004679625629949315,-0.016059896881306192,0.03913384613197235,-0.06867581353689062,0.0011999040076872533,0.0022798176145897952,0.0005999520038394636,0.0011999040076739317,0.0023998080153745066,0.01295896328293791,-0.30241900572009095,0.5473146102498452,-0.14392685677717348,4.29101109467164,1.5839038195428503,3.772640467144891,-0.3168046074483026,0.4319481662229974,0.46059496860396265,-0.010140999999999956,-0.086279,-0.067021,0.05358799999999997,0.18822800000000006,-0.063501,0.06372899999999992,0.27450700000000006,0.0035199999999999954,0.995591271161293,0.942743659420902,double,-0.063501
39,0.325,step_acsent,0.0019200768030740352,-0.010800432017271462,-0.006240249609985618,-0.048391883330789864,0.0846260937783396,-0.07064045620843028,-0.019560782431300078,-0.0134405376214916,0.009480379215168056,0.0034801392055750194,0.0010800432017191524,0.009480379215168056,-0.02877120013732984,-0.1585491847607617,-0.1872823688991116,-2.4913820279595873,-1.8865180890533217,1.0656938931151512,0.27363916931490195,-0.15837811276315236,-0.41744678600382085,-0.010319999999999996,-0.08630099999999996,-0.06689,0.05360100000000001,0.1883269999999999,-0.06337,0.063921,0.27462799999999987,0.0035200000000000092,0.9574053390492692,0.947872421231156,double,-0.06337
40,0.333333,step_acsent,0.000480019200768512,-0.00960038401537024,-0.0037201488059509717,-0.04364054283129369,0.017546610840425365,-0.09073582147050473,-0.01836073442938559,-0.012240489619590393,0.0091203648145934,0.008040321612855922,0.00012000480020878201,0.019320772830913456,-0.1728138248296564,0.14401152068897463,0.3024241934518964,0.14401152069056655,0.14401152068897277,-0.043203456207207065,0.5472437786248547,-0.11520921654990673,1.1808944696682377,-0.01047700000000007,-0.08632299999999993,-0.06678300000000001,0.053663999999999934,0.18840800000000013,-0.06317800000000001,0.064141,0.27473100000000006,0.003604999999999997,0.9602044387851764,0.9290711049338016,double,-0.06317800000000001
41,0.341667,step_acsent,0.015598752099827615,-0.017758579313659328,-0.012479001679866422,0.018167801984831092,0.20917868828433706,-0.13598027632742343,-0.013078953683695058,-0.008519318454542141,0.012598992080632816,0.008759299256058275,-0.0019198464122889352,0.025317974562035356,1.8141028196615179,-0.9789051233848188,-1.0509782666085243,0.6337629884437876,0.4465048194202361,0.41740187977434756,0.08627041555103823,-0.2447625644945663,0.719606639203491,-0.010715999999999948,-0.08624600000000004,-0.066574,0.05360699999999996,0.18854000000000015,-0.062863,0.06432299999999991,0.2747860000000002,0.003710999999999992,0.9665679620624006,0.9181248421193746,double,-0.062863
42,0.35,step_acsent,0.010200408016320887,-0.01152046081841764,-0.011880475219009014,-0.0066836088665758525,0.14470817910290013,-0.09790804315529164,0.09000360014399607,0.05580223208930288,-0.1623664946597868,0.015720628825152114,-0.010920436817480316,0.021120844833792878,-0.6478272031089334,0.7486041635955482,0.07182604834482294,12.37040127537398,7.718894821054263,-20.996698276781476,0.8353929640098231,-1.080114053185096,-0.5036757144176752,-0.010051000000000032,-0.08568500000000001,-0.067828,0.05365299999999995,0.18854499999999996,-0.062588,0.06370399999999998,0.27423,0.005239999999999995,0.6769184153037806,0.9000931526153002,double,-0.062588
43,0.358333,step_acsent,0.019560782431300078,-0.02124084963399652,-0.013200528021120669,0.03814263046959655,0.2316360866742654,-0.16838665617572574,-0.006240249609977291,-0.004920196807867223,0.012360494419777443,0.026041041641668285,-0.03312132485298713,0.04056162246489819,1.123289861391954,-1.1664933176021648,-0.15841267276030838,-11.549723959435132,-7.28698294697826,20.968077412644128,1.2384990779450533,-2.6642131327861183,2.3329866351980355,-0.010265999999999997,-0.08554899999999988,-0.067615,0.05370699999999995,0.1884460000000001,-0.06214,0.06397299999999995,0.273995,0.005474999999999994,0.9755090224025528,0.8477763108608115,double,-0.06214
44,0.366667,step_acsent,0.007679385649142419,-0.011879049676034457,-0.010199184065274976,-0.016691154170606282,0.10094865770143595,-0.12704648977108646,-0.011039116870648055,-0.0029997600192181134,0.01103911687064972,0.037437005039594275,-0.03911687065035375,0.06635469162467054,-1.4256535615739918,1.1233261288651375,0.3601324641043544,-0.575818005840024,0.23043397991949935,-0.15855262168559173,1.367406215253897,-0.7194079430485493,3.0949207055162384,-0.010421999999999931,-0.08547499999999997,-0.067438,0.053954999999999975,0.18821900000000014,-0.061501999999999994,0.0643769999999999,0.2736940000000001,0.005936000000000004,0.9735045725779067,0.797902828788011,double,-0.061501999999999994
45,0.375,step_acsent,0.02244089763591128,-0.020640825633006045,-0.015120604824193138,0.044280053828084934,0.2602430379910043,-0.1467975529085995,-0.01608064322573849,-0.0069602784111234385,0.002640105604224318,0.04440177607105405,-0.05388215528622883,0.0913236529461178,1.771452296504128,-1.0514551730435149,-0.5905941148347743,-0.6050073629053697,-0.47528121827737135,-1.0079216688378043,0.8358059560134155,-1.7719050325063148,2.9963952143822534,-0.010743000000000058,-0.08536100000000002,-0.06728999999999999,0.05413800000000002,0.18794199999999983,-0.060614999999999995,0.06488100000000008,0.27330299999999985,0.0066749999999999934,0.9704664635204834,0.7416571594067233,double,-0.060614999999999995
46,0.383333,step_acsent,0.023400936037434983,-0.021240849633996663,-0.017160686427455985,0.05661694240329216,0.28168237865413204,-0.16658123205212808,-0.007080283211318898,-0.0015600624025009946,0.006000240009600571,0.044401776071040726,-0.06768270730826692,0.09204368174727058,0.1152092165515067,-0.07200576034928836,-0.24481958517494923,1.080086405186561,0.6480518431084192,0.40323225793546874,-1.598785106864504e-12,-1.6561324879440924,0.08640691241483048,-0.010996999999999924,-0.08519699999999997,-0.067097,0.054313000000000056,0.18755500000000014,-0.059705,0.06530999999999998,0.2727520000000001,0.007392000000000003,0.9843149854580706,0.7217891810376401,double,-0.059705
47,0.391667,step_acsent,0.014398848092153693,-0.018358531317502952,-0.013678905687545342,0.01552989292776999,0.2025742762541852,-0.16322685170110615,-0.010439164866817756,-0.0016798656107461574,0.0008399328053755765,0.050395968322531265,-0.10019198464124554,0.12850971922246154,-1.0801641403025295,0.3458505299368501,0.4177802663679674,-0.4030335559753845,-0.014375234970621872,-0.619187329520637,0.719245530536421,-3.9008012158601617,4.375574451066826,-0.011203999999999992,-0.08505799999999986,-0.06697600000000001,0.05461300000000002,0.18687300000000007,-0.05852,0.06581700000000001,0.2719309999999999,0.008456000000000005,0.9823220477316834,0.6311624783959976,double,-0.05852
48,0.4,step_acsent,-0.05388215528620183,0.015360614424592281,0.012360494419775778,-0.1337209917714341,-0.6481966569934404,0.02150295319272358,-0.008160326413051327,-0.002160086403464951,0.008760350414016125,0.044281771270844976,-0.12408496339853295,0.15624624984999305,-8.19404816732932,4.046459347425308,3.1248530069988014,0.2734715533141029,-0.05762880027826612,0.9504881325621644,-0.7337329955221725,-2.8672721417601474,3.328516815976406,-0.010823000000000027,-0.08520400000000006,-0.067006,0.0554309999999999,0.18571099999999996,-0.057321,0.06625399999999992,0.270915,0.009685,0.9797240810720417,0.5625180546042028,double,-0.057321
49,0.408333,step_acsent,0.008760350414015352,-0.012120484819408257,-0.01152046081843263,-0.011323293714675917,0.10685798901289974,-0.12727659064154173,-0.01728069122765311,-0.005520220808831226,0.0012000480019204473,0.04332173286932157,-0.1348853954158053,0.18108724348974045,7.517401380081283,-3.297863823833026,-2.8658292617554864,-1.0944875572545067,-0.40323225793427137,-0.9072725803546978,-0.11520921655147132,-1.2961036862201338,2.9810384783088275,-0.01104000000000005,-0.08514899999999992,-0.06689999999999999,0.05571899999999996,0.18468800000000019,-0.055715999999999995,0.06675900000000001,0.2698370000000001,0.011183999999999993,0.9696989529750641,0.5049591816365459,double,-0.055715999999999995
50,0.416667,step_acsent,0.010319174466033044,-0.00299976001919147,-0.012479001679864756,-0.04466958589740681,0.09640139388360282,-0.08052414736589836,-0.009239260859130509,-0.0013198944084453126,0.008279337652987707,0.05783537317014423,-0.1498680105591618,0.2161027117830568,0.18704392272830467,1.0943994240720876,-0.11501570211568576,0.9648944526664978,0.5039988481384581,0.8494468023838797,1.7414975162974138,-1.7977699956031297,4.201520073592069,-0.011202999999999963,-0.08513499999999996,-0.06672700000000001,0.056115000000000026,0.18346400000000007,-0.053811000000000005,0.06731799999999999,0.26859900000000003,0.012916000000000004,0.9792064717303218,0.42205852317549614,single,-0.053811000000000005
51,0.425,step_acsent,0.008280331213246839,-0.003480139205575043,-0.011160446417856245,-0.0458481994890249,0.06487918234064967,-0.090472985284722,-0.005280211208453632,0.003480139205575043,0.006600264010560378,0.06948277931117217,-0.16200648025920625,0.26257050282011374,-0.2446709771734322,-0.05764780827835999,0.15823296075945212,0.4751049622797176,0.5760270747654348,-0.20149689696715867,1.3977446467092245,-1.4566746309905774,5.576357978765999,-0.011315999999999993,-0.08507699999999985,-0.066579,0.056625000000000036,0.18214300000000017,-0.051530000000000006,0.06794100000000003,0.26722,0.015048999999999993,0.9847652184946968,0.34951,single,-0.051530000000000006
52,0.433333,step_acsent,0.002160086403464951,-0.001560062402474338,-0.009720388815553975,-0.07170370963326266,0.020507279679230873,-0.07577562494201552,-0.009000360014392885,-0.0008400336013548828,-0.0027601104044164275,-0.03264130565221863,-0.1380055202208064,0.38305532221288696,-0.7344587555240444,0.230418433109408,0.17281382482926488,-0.4464357141412742,-0.5184414744905685,-1.1232898613916678,-12.255380410823276,2.8802304138245236,14.458756677399823,-0.011409000000000002,-0.08507100000000012,-0.066521,0.056335000000000024,0.181006,-0.048256999999999994,0.06774400000000003,0.2660770000000001,0.018264000000000002,0.9842475446107374,0.31736,single,-0.048256999999999994
53,0.441667,step_acsent,0.00947924166066003,0.0015598752099614574,-0.012119030477560662,-0.05998372472248472,0.06305588184163637,-0.06397109893242667,-0.006959443244540776,0.0026397888168906425,-0.0033597312215023285,-0.036117110631149196,-0.1943844492440828,0.306575473962085,0.878228372593607,0.3743625644871386,-0.28781397432285827,0.24489042114856263,0.4175452865665401,-0.07194874215093645,-0.4170632324130774,-6.764930288370137,-9.176847642284903,-0.011545999999999945,-0.08506199999999997,-0.06644800000000001,0.05595500000000009,0.179373,-0.045601,0.06750100000000003,0.264435,0.020847000000000004,0.9863893292319242,0.29152999999999996,single,-0.045601
54,0.45,step_acsent,0.006600264010563665,0.004320172806929902,-0.012360494419777443,-0.08872207073888291,0.060830664325849174,-0.04725360516025479,-0.0036001440057571543,0.0038401536061480703,0.0014400576023046935,-0.031681267250694936,-0.15552622104883695,0.39145565822632755,-0.34549113765706857,0.3312489615946757,-0.02897683213929918,0.4031320339353903,0.14404953669235843,0.5759976987647908,0.5323224985544511,4.663173910385897,10.186029552891178,-0.011630999999999947,-0.08506600000000009,-0.066333,0.05563600000000002,0.1780409999999999,-0.042235999999999996,0.06726699999999997,0.263107,0.024097000000000007,0.9909045825825803,0.25903,single,-0.042235999999999996
55,0.458333,step_acsent,0.007920316812673786,0.0015600624025009946,-0.01152046081843263,-0.06292674415838158,0.05637418175807303,-0.053257648830252455,-0.002520100804038019,0.005040201608076038,0.002640105604224318,0.23088923556942775,-0.258250330013193,0.5508220328813163,0.1584126727601253,-0.3312264975913734,0.10080806448395715,0.12961036862104142,0.14401152069218412,0.14401152069118292,31.509720727243888,-12.3273861711696,19.124729947796606,-0.011718000000000006,-0.08503700000000003,-0.066215,0.057494000000000045,0.17587599999999992,-0.03755,0.06921200000000005,0.26091299999999995,0.028664999999999996,0.9896284714088651,0.21335000000000004,single,-0.03755
56,0.466667,step_acsent,0.007679385649142419,0.007799376049913808,-0.011159107271417779,-0.09531398334890726,0.04508294564489085,-0.019006386431186646,-0.003479721622263704,0.005399568034539317,0.009839212862970802,0.29757619390447854,-0.29121670266378147,0.6204703623710092,-0.02890942686961445,0.7486577450699313,0.04335895692522816,-0.11514528656415697,0.04312052153387078,0.8638237651483653,8.001794856617558,-3.9556482662093186,8.357130968285677,-0.011810999999999905,-0.08505700000000016,-0.06604,0.05991000000000002,0.17338399999999998,-0.03228600000000001,0.07172099999999992,0.25844100000000014,0.03375399999999999,0.9804158576556525,0.1624600000000001,single,-0.03228600000000001
57,0.475,step_acsent,-0.007320292811709816,0.02448097923915414,-0.0025201008040330224,-0.28515580832685405,-0.09651505956378581,0.08681804787168682,-0.003000120004806531,0.004080163206539014,0.0045601824072958675,0.3709348373935046,-0.2964118564742564,0.6993879755190224,-1.800033416638938,2.0018724576071496,1.0367222449759725,0.05755449627471191,-0.15833491275654707,-0.6335089950407954,8.803389354257318,-0.6234433949927913,9.470492397457514,-0.01177499999999998,-0.08522699999999994,-0.065981,0.06306200000000006,0.17071000000000014,-0.026437000000000002,0.07483700000000004,0.2559370000000001,0.039543999999999996,0.9886417289775437,0.10456000000000004,single,-0.026437000000000002
58,0.483333,step_acsent,0.010920436817480244,0.02424096963878971,-0.012000480019201062,-0.1680059334130028,0.0340551673952678,0.06890087179202424,0.002040081603269493,0.00804032161286919,0.010080403216128691,0.5173406936277374,-0.26773070922837927,0.84411376455058,2.1889751145073784,-0.02880230413589705,-1.1376910134606986,0.6048483869045965,0.47523801828035045,0.6624529951797433,17.569405524328836,3.44187534451902,17.367789395362646,-0.011848999999999998,-0.08536199999999994,-0.065797,0.06728199999999995,0.168277,-0.019302999999999987,0.07913099999999995,0.25363899999999995,0.04649400000000001,0.9782422916861053,0.035059999999999925,single,-0.019302999999999987
59,0.491667,step_acsent,0.0011999040076739237,0.004079673626120648,-0.006719462443004612,-0.09753798794263559,-0.014986586853496443,-0.049559785123981015,-0.0019198464122889352,0.004079673626094005,0.004199664026877882,0.3438924886009158,-0.3446124310055175,0.7782577393808477,-1.166370627526555,-2.4191619885612003,0.6336714154303389,-0.47515334959904304,-0.4752397392338832,-0.705632252129926,-20.812119633647875,-9.22506860776796,-7.90209085309961,-0.011874999999999969,-0.08536200000000016,-0.06570599999999999,0.07013800000000003,0.16537099999999993,-0.012760999999999995,0.082013,0.2507330000000001,0.05294499999999999,0.9897304759007702,0.0,single,-0.012760999999999995
60,0.5,step_acsent,0.01116044641785791,-0.004080163206539014,-0.012720508820352245,-0.029625745865709582,0.11010547647036698,-0.09264189304274494,-0.001800072002878589,0.003000120004819854,0.0019200768030723824,0.4792991719668729,-0.38521540861633785,0.9167166686667497,1.195312901738151,-0.97921958870271,-0.720154371456576,0.014373504069404347,-0.1295516166175631,-0.2735614093130332,16.24945198199417,-4.872552215387066,16.615736143754027,-0.011982999999999966,-0.0853029999999999,-0.065584,0.07403899999999997,0.1621950000000001,-0.005015999999999993,0.08602199999999993,0.247498,0.06056800000000001,0.9933484182773811,0.0,single,-0.005015999999999993
61,0.508333,step_acsent,0.00900036001440621,0.0019200768030740352,-0.010920436817471917,-0.03856098204990417,0.05203538049410804,-0.03650387898530966,-0.0007200288011594248,0.0038401536061480703,-0.0016800672026881154,0.4258970358814364,-0.4068162726509048,0.8876755070202772,-0.2592207372436928,0.7200576034577011,0.2160172810368799,0.12961036862104403,0.10080806448196483,-0.43203456207374086,-6.4085126707591815,-2.592207372442922,-3.4850788007287177,-0.012064000000000075,-0.08528699999999989,-0.06550700000000001,0.07751299999999994,0.15878900000000007,0.002472000000000002,0.08957700000000002,0.24407599999999996,0.06797900000000001,0.9929116984092607,0.0,single,0.002472000000000002
62,0.516667,step_acsent,0.009239260859130571,0.003719702423819828,-0.009959203263738926,-0.05726418657078316,0.04391946769535463,-0.055413176408139794,0.0010799136069158635,0.00599952003838298,0.0032397408207342692,0.5772738180945569,-0.5452363810895283,1.1318694504439706,0.028665808102275404,0.2159377994655391,0.115338799344012,0.21597581090416348,0.25910324360870196,0.590329736431775,18.163760764713388,-16.609084285892045,29.30092913651245,-0.012132000000000032,-0.08526800000000012,-0.06539700000000001,0.08224699999999996,0.15421399999999985,0.011987999999999999,0.09437899999999999,0.23948199999999997,0.07738500000000001,0.9884944005570605,0.0,single,0.011987999999999999
63,0.525,step_acsent,0.017040681627262078,0.002880115204584406,-0.011880475219008934,-0.0299344673836558,0.10378544024612282,-0.05591206812969017,0.0019200768030740352,-0.002400096003829221,0.016080643225729222,0.7194287771510798,-0.5274210968438627,1.177487099483973,0.9362079404933966,-0.1007544964881097,-0.23056185710668423,0.10082361648363952,-1.0079942448352532,1.5409699273964836,17.059277457880988,2.137919626264912,5.4743368582746,-0.012257999999999991,-0.08531199999999983,-0.065164,0.08809999999999996,0.14979500000000012,0.021898999999999988,0.10035799999999995,0.23510699999999995,0.08706299999999999,0.972713747747747,0.0,single,0.021898999999999988
64,0.533333,step_acsent,-0.0007200288011594343,0.009120364814615112,-0.006240249609984035,-0.12515722842500085,-0.028910025398846746,-0.02350265105806275,0.002640105604220172,0.004920196807867288,0.0043201728069116405,0.581663266530672,-0.5192607704308183,1.2256090243609856,-2.13137050623085,0.7488599075999957,0.6768541472488839,0.08640691241403377,0.8784702762146377,-1.4113129027742337,-16.532522575352097,0.9792783406989682,5.774861979720755,-0.012229999999999963,-0.08534700000000006,-0.06507600000000001,0.09295300000000006,0.14539199999999997,0.032163999999999984,0.10518300000000003,0.23073900000000003,0.09724,0.9882334764750018,0.0,single,0.032163999999999984
65,0.541667,step_acsent,0.010679145668347139,0.0029997600191914503,-0.009959203263738794,-0.04655265558258042,0.06686960741338328,-0.032512398473980096,-0.002159827213818377,0.0016798656107461464,0.000839932805375571,0.5986321094312435,-0.6775857931365388,1.4055675545956219,1.367791513019737,-0.7344138223450463,-0.4462387393514196,-0.5759458624956219,-0.38880863896341694,-0.41759539255292094,2.03609826020774,-18.997482926052225,21.59329616446303,-0.012336999999999931,-0.08535800000000004,-0.06498600000000002,0.09785300000000008,0.13972000000000007,0.043960999999999986,0.11019000000000001,0.2250780000000001,0.108947,0.9952296374522638,0.0,single,0.043960999999999986
66,0.55,step_acsent,0.009960398415943227,-0.0012000480019279335,-0.009240369614785467,-0.0254390712196224,0.06440836845142703,-0.06690300175281531,0.0002400096003775928,0.002160086403464951,0.007440297611904392,0.6851074042961647,-0.6895475819032767,1.550822032881311,-0.08625312041328567,-0.5039971224192207,0.08626348841393545,0.2879919373810104,0.057628800278267445,0.7920754598018473,10.377450481809776,-1.4354720708913806,17.43123464366836,-0.01241800000000004,-0.0853299999999999,-0.064847,0.10347899999999999,0.1339840000000001,0.05696100000000001,0.11589700000000003,0.219314,0.12180800000000001,0.9870812790415939,0.0,single,0.05696100000000001
67,0.558333,step_acsent,0.014160566422651212,-0.006600264010550429,-0.00960038401536031,0.008617372727734145,0.10482280509683592,-0.0838221490533175,0.1753270130805303,-0.02916116644665732,0.3973358934357412,0.6177847113884661,-0.6228249129965289,1.4260170406816375,0.5040403224178596,-0.6480518431084298,-0.04320345620722983,21.011280868853273,-3.758700690042309,46.78934307258375,-8.07904631077633,8.00704055043183,-14.977198151887027,-0.011074999999999946,-0.08551799999999998,-0.061456000000000004,0.10850900000000008,0.128849,0.06892399999999999,0.11958400000000002,0.21436699999999997,0.13038,0.5,0.0,flight,0.06892399999999999
68,0.566667,step_acsent,0.006959443244540683,-0.0028797696184333834,-0.006839452843772625,-0.0237226647703751,0.04701179814826032,-0.046772859062054466,0.30045596352291,0.104511639068855,0.23086153107751228,0.4013678905687432,-0.5585553155747588,1.5356371490280665,-0.8640656561207672,0.4464236131649889,0.331285237771498,15.014272911252547,16.03945350558091,-19.975325456950763,-25.967941063081504,7.7117347518322035,13.15336073271276,-0.008628999999999998,-0.08462300000000011,-0.059475,0.111796,0.12421799999999994,0.08177899999999999,0.120425,0.20884100000000005,0.141254,0.5,0.0,flight,0.08177899999999999
69,0.575,step_acsent,0.003480139205575066,-0.0009600384015370304,-0.004800192007680155,-0.03610043576043564,0.000634767099067215,-0.05480166459635872,-0.28837153486138906,-0.10344413776550178,-0.18900756030241384,0.48781951278051394,-0.6353054122164836,1.51146045841835,-0.417533186003318,0.2303769611060087,0.2447210891746656,-70.66212629116818,-24.955691447780953,-50.38630641784831,10.374609649798574,-9.210380012207553,-2.9013189259230434,-0.011060999999999988,-0.08547700000000003,-0.06101,0.11583199999999994,0.11893200000000004,0.09441399999999998,0.12689299999999992,0.20440900000000006,0.15542399999999998,0.5,0.0,flight,0.09441399999999998
70,0.583333,step_acsent,0.4030961238449522,-0.15636625465019185,-0.10692427697107874,0.5910573705774367,3.9864329343992178,-0.11743457484158414,-0.18108724348975005,-0.0667226689067561,-0.15864634585383394,0.5269410776431076,-0.7026281051242219,1.5834633385335362,47.955836390180664,-18.649491929515683,-12.255380410824213,12.874629949794619,4.406752533150789,3.6434914734885115,4.6947755745342015,-8.079046310780992,8.640691241471965,-0.015929000000000082,-0.08472999999999997,-0.061441,0.11686399999999997,0.11437999999999993,0.1085,0.13279300000000005,0.1991099999999999,0.169941,0.58362287609024,0.0,single,0.1085
71,0.591667,step_acsent,0.031677465802727255,-0.0016798656107461464,-0.01739860811135171,-0.042844665753873426,0.27874705271742095,-0.11919263814650341,-0.04559635229180862,-0.017878569714417276,0.06167506599472002,0.4380849532037355,-0.6322294216462596,1.5827933765298665,-44.56667363117616,18.560881814188207,10.742220885496323,16.25760633524603,5.860823037237636,26.43645450546584,-10.661881982165994,8.447166244055888,-0.08038900931961111,-0.01657299999999995,-0.08486499999999997,-0.060781999999999996,0.120251,0.10912499999999992,0.12183600000000001,0.13682399999999995,0.19398999999999988,0.182618,0.868740245200541,0.0,single,0.12183600000000001
72,0.6,step_acsent,0.047521900876043036,-0.024360974438972168,-0.024480979239169292,0.06959977866525258,0.46619557076581036,-0.26421009024449355,-0.029881195247816753,-0.01284051362055445,0.04296171846873964,0.6738269530781337,-0.8273130925237032,1.732149285971455,1.9014082651285162,-2.72184193306447,-0.8499185320794009,1.8858942810502832,0.6045909149001407,-2.2456915307788976,28.290171591791708,-23.41097694437122,17.92342607003357,-0.017218000000000067,-0.0847690000000001,-0.060219999999999996,0.12546999999999997,0.10243399999999991,0.136474,0.14268800000000004,0.187203,0.196694,0.9101935124642212,0.0,single,0.136474
73,0.608333,step_acsent,0.07080283211328177,-0.03792151686067222,-0.035881435257409396,0.18836705123271236,0.6932744842361355,-0.3599571467929048,-0.02328093123723937,-0.011520460818417564,0.035041401656066166,0.6475459018360655,-0.7349093963758542,1.6698667946717811,2.7938235014086925,-1.6273301838113523,-1.3681094465666694,0.7920633638038349,0.1584126727633361,-0.9504760365622754,-3.1538523031402894,11.088887093225567,-7.474197923877778,-0.018001999999999962,-0.08454899999999999,-0.059629,0.13027599999999995,0.09662599999999988,0.15068800000000002,0.1482779999999999,0.18117499999999986,0.21031700000000003,0.9273015626263856,0.0,single,0.15068800000000002
74,0.616667,step_acsent,0.0820734341252726,-0.04295656347493191,-0.04067674586033212,0.224489894779284,0.7954579525482917,-0.4216594601895335,-0.012119030477563993,-0.009479241660686671,0.013918886489080719,0.6330693544516545,-0.7631389488840842,1.6723062155027666,1.352364052314722,-0.6041572611302753,-0.5753912410514459,1.3393209454854138,0.24492670479132525,-2.534499060113459,-1.7370467223915464,-3.3872753189621028,0.29270708315160626,-0.018786999999999998,-0.08427000000000007,-0.059174,0.134868,0.09062400000000004,0.164964,0.15365499999999999,0.1748940000000001,0.224138,0.9654206900624032,0.0,single,0.164964
75,0.625,step_acsent,0.08424336973478669,-0.04788191527661545,-0.040561622464897355,0.18839954435469186,0.8409745151088928,-0.44772759848545884,-0.007920316812673734,-0.00972038881555231,0.00864034561382483,0.6525861034441282,-0.7965918636745343,1.6515060602424023,0.26040268924925963,-0.5910658588363759,0.013815360066574169,0.5038657944186057,-0.028938816136521932,-0.6334502430404256,2.342103563239362,-4.0145103552682055,-2.4961184759827417,-0.01955499999999999,-0.08395200000000003,-0.058764000000000004,0.13960399999999995,0.08438500000000015,0.179064,0.15915899999999994,0.16833700000000018,0.237828,0.9746210416625976,0.0,single,0.179064
76,0.633333,step_acsent,0.0934837393495705,-0.0514820592823726,-0.04644185767430826,0.2669350793384927,0.9289064659863412,-0.47641676777342157,-0.0015600624025009842,-0.007080283211332174,-0.0022800912036487512,0.5923436937477536,-0.7907116284651566,1.608064322572899,1.108888709322425,-0.4320345620733393,-0.7056564513873609,0.7632610596631133,0.3168253455202358,-1.310504838290356,-7.229378338698459,0.705656451383369,-5.2132170490223375,-0.020347000000000004,-0.08358200000000005,-0.058395999999999997,0.14376100000000003,0.07822499999999999,0.19285100000000002,0.16410800000000003,0.16180700000000003,0.251247,0.9873330020932207,0.0,single,0.19285100000000002
77,0.641667,step_acsent,0.10559155267578557,-0.053275737940951695,-0.05255579553635666,0.2989098446985804,1.0253042927857356,-0.5257368524219961,0.11891048716103682,-0.03191744660425713,0.03551715862731057,0.6291096712263052,-0.8156947444204342,1.5928725701943913,1.4528213734359428,-0.21522422109180517,-0.7336138543374657,14.45530952286279,-2.9802211894558557,4.535307155142733,4.411564372276434,-2.997734095905654,-1.8228644562644298,-0.02023599999999992,-0.08340400000000003,-0.057662,0.14812400000000003,0.07187100000000002,0.206564,0.16835999999999995,0.15527500000000005,0.264226,0.7864330971883086,0.0,single,0.206564
78,0.65,step_acsent,0.10752430097203938,-0.06288251530060804,-0.05112204488179456,0.3362053232061745,1.0538259422359635,-0.550213946278888,-0.0006000240009639668,-0.0033601344053662383,-0.006960278411136715,0.6893075723028858,-0.8279131165246562,1.600864034561378,0.2319390731133809,-1.1528593975346577,0.17205696082588473,-14.341835012840548,3.427014544448671,-5.097496344467432,7.224037090673259,-1.4662633030387484,0.9590140846017867,-0.02113699999999996,-0.08290799999999998,-0.057294000000000005,0.152972,0.065496,0.22033000000000003,0.17410899999999996,0.14840399999999998,0.27762400000000004,0.9870797308696337,0.0,single,0.22033000000000003
79,0.658333,step_acsent,0.10740429617184535,-0.07824312972520135,-0.05400216008640466,0.3957906883470952,1.1250866647747793,-0.6013891073382941,0.05076203048121385,0.03912156486257403,-0.09540381615264663,0.6715468618744865,-0.825273010920447,1.546861874474988,-0.014401152069366392,-1.8433474648498085,-0.3456276496592018,6.163693085584819,5.098007832466178,-10.613649074944286,-2.131370506228175,0.31682534551891933,-6.480518431104107,-0.02160899999999999,-0.08193000000000006,-0.057638999999999996,0.15767300000000006,0.059271000000000074,0.23367,0.17928200000000005,0.14120100000000013,0.291309,0.8084480871614386,0.0,single,0.23367
80,0.666667,step_acsent,0.11267098632109623,-0.09167266618670279,-0.054475641948643225,0.48515300691884017,1.1322478809286964,-0.7692402246828357,0.028317734581234964,0.009959203263745454,-0.03047756179505667,0.6205903527717681,-0.817254619630438,1.4572834173266047,0.6319522617291624,-1.611415462143189,-0.05681327840635463,-2.6931000599926467,-3.4992034555829554,7.790527280728278,-6.114291948970247,0.9621299844023241,-10.748554973408043,-0.022312,-0.08108300000000002,-0.057439000000000004,0.161906,0.05322399999999994,0.246269,0.184218,0.13430699999999995,0.303708,0.9287032493643378,0.0,single,0.246269
81,0.675,step_acsent,0.1225249009960453,-0.08484339373575066,-0.0655226209048365,0.5100410659261926,1.2801954495955217,-0.6512253726952434,0.024360974438985165,0.006840273610941258,-0.037081483259329834,0.687387495499825,-0.856354254170167,1.4359774390975617,1.1825170616763494,0.81954547593329,-1.3256905023632821,-0.474830210278385,-0.3742865297976939,-0.7925022758038085,8.015977766477457,-4.692143830520679,-2.5568196602715614,-0.023129999999999984,-0.08031900000000003,-0.057201999999999996,0.166613,0.04679499999999992,0.25878100000000004,0.189743,0.12711399999999995,0.315983,0.9251801641830824,0.0,single,0.25878100000000004
82,0.683333,step_acsent,0.1090843633745285,-0.06864274570983106,-0.05904236169446741,0.39873222942902425,1.1624523271355887,-0.5351530886555484,0.031921276851072954,0.01380055202209148,-0.047041881675267856,0.7045481819272786,-0.8385935437417567,1.391695667826722,-1.6129290317433003,1.9441555293315427,0.7776622117327675,0.9072725803537571,0.8352668200108347,-1.195295621737443,2.059364745884287,2.131370506229507,-5.314025113505347,-0.023772999999999933,-0.07963199999999993,-0.05710200000000001,0.17157500000000003,0.04037899999999994,0.27087,0.19534799999999997,0.12001099999999987,0.327972,0.9024984076559203,0.0,single,0.27087
83,0.691667,step_acsent,0.10247180225582132,-0.06347492200623922,-0.05963522918166637,0.3498062111777638,1.1515797290580947,-0.48485196586157236,0.029877609791209722,0.009239260859117126,-0.02903767698584081,0.7224622030237591,-0.8431725461962852,1.314014878809684,-0.7934438587361557,0.6200892372920327,-0.07113840739128319,-0.24522042954922196,-0.5473111546645453,2.1603317361923335,2.1495105707319775,-0.5494363396362545,-9.320949006124014,-0.02437800000000001,-0.07902600000000004,-0.056846999999999995,0.17674200000000007,0.03388100000000005,0.28231799999999996,0.20112000000000008,0.11290700000000009,0.33916499999999994,0.928873700113565,0.0,single,0.28231799999999996
84,0.7,step_acsent,0.100564022560904,-0.07740309612384647,-0.057122284891395016,0.4196688955808515,1.1586464832077612,-0.5160374019688032,0.029041161646475182,0.005640225609040045,0.006000240009600611,0.7053882155286203,-0.7788311532461498,1.2421696867874827,-0.22894272109892402,-1.6714477520229656,0.3015653774476629,-0.10037779247984496,-0.43190150606949634,4.204718228182136,-2.048960457834985,7.721276005056522,-8.621767913380756,-0.02497399999999994,-0.0783339999999999,-0.056321,0.181782,0.02803599999999995,0.293145,0.20675599999999994,0.10636999999999985,0.349466,0.9496897377690091,0.0,single,0.293145
85,0.708333,step_acsent,0.10080403216129358,-0.08316332653306753,-0.06000240009600364,0.482625046464648,1.1755008612914604,-0.5610989348707046,0.03300132005279168,0.0073202928116964435,0.012720508820352992,0.7457098283931389,-0.8041521660866217,1.1653666146645847,0.028802304138913926,-0.6912552993184976,-0.3456276496590198,0.4752380182787091,0.2016161289639255,0.8064645158709173,4.838787095226024,-3.0386430865800707,-9.216737324240697,-0.02553900000000009,-0.07757999999999998,-0.055715,0.187156,0.02202800000000016,0.303356,0.21269500000000008,0.09960800000000014,0.35907100000000003,0.9398039047795447,0.0,single,0.303356
86,0.716667,step_acsent,0.10415166786656747,-0.08639308855289493,-0.0686345092392607,0.5597932197471169,1.2536830812863833,-0.547885714381027,0.027237820974332434,0.006959443244554005,-0.01895848332133479,0.8076553875689801,-0.8272138228941834,1.1306695464362782,0.4016841499008724,-0.3875404391441536,-1.0357702355719942,-0.6915645642499645,-0.043298484178358056,-3.8011749630054643,7.432872471303185,-2.7671774427119757,-4.163315122186978,-0.02617999999999998,-0.07680200000000004,-0.055301,0.19301899999999994,0.015853999999999813,0.31335100000000005,0.21919899999999992,0.09265599999999985,0.36865200000000004,0.9434865593285475,0.0,single,0.31335100000000005
87,0.725,step_acsent,0.100564022560904,-0.08316332653306864,-0.06168246729869258,0.5567241484745389,1.1483261808641498,-0.5593122563024252,0.017760710428408415,0.001560062402501005,-0.022080883235329214,0.8877955118204828,-0.8750750030001105,1.0636025441017682,-0.43053465806594265,0.38758694585699266,0.8342784040043425,-1.137298757461191,-0.6479516191111303,-0.37470297779844614,9.61719959816433,-5.7435713555655274,-8.048362214629847,-0.02687000000000006,-0.07609599999999994,-0.054971,0.19957899999999995,0.009255000000000013,0.32272799999999996,0.226449,0.08535099999999995,0.37769899999999995,0.9526994822064483,0.0,single,0.32272799999999996
88,0.733333,step_acsent,0.09300372014880198,-0.07656306252249055,-0.0570022800912038,0.5246843529450497,1.0650743087205952,-0.5256277866311129,0.017280691227652994,0.004560182407294172,-0.011280451218049131,0.8855154206168239,-0.8259930397215821,0.9638785551422063,-0.9072725803554533,0.7920633638039195,0.5616449306958797,-0.05760460827498127,0.3600288017272476,1.2961036862210533,-0.2736218893146403,5.890071196271237,-11.967357369442157,-0.027500999999999998,-0.07542000000000004,-0.05459,0.206183,0.003009999999999957,0.331235,0.233684,0.07843,0.385825,0.9647758710944367,0.0,single,0.331235
89,0.741667,step_acsent,0.08939284857211421,-0.0746340292776729,-0.05639548836093123,0.5230924638963235,1.0500882794471718,-0.4729274623555799,-0.046436285097195634,0.050755939524819126,-0.06851451883849273,0.9314854811615081,-0.7898968082553447,0.9095272378209766,-0.43326992760832606,0.23146547214034796,0.07280918289807661,-7.645425524939884,5.543047410310201,-6.867538711356363,5.515965988083091,4.331201279846127,-6.521636347639799,-0.02863300000000002,-0.07437500000000008,-0.054691,0.21320099999999997,-0.002950999999999926,0.339285,0.241834,0.07142400000000015,0.393976,0.8381810574339907,0.0,single,0.339285
90,0.75,step_acsent,0.08568342733709222,-0.0787231489259555,-0.05256210248409842,0.5664305651535586,1.0051221724448622,-0.46833798018577466,0.04944197767910311,0.10140405616227087,-0.00720028801152097,0.936517460698428,-0.7883115324613008,0.8262330493219731,-0.4451483541368027,-0.49071398635336366,0.46002470620818353,11.50585176722649,6.078017117178871,7.358002019317353,0.6038616988983435,0.19024070491346173,-9.995702447978298,-0.028935000000000044,-0.07287399999999988,-0.05431300000000001,0.22029100000000001,-0.008863999999999983,0.346608,0.24922600000000006,0.0640099999999999,0.400921,0.8115919328924672,0.0,single,0.346608
91,0.758333,step_acsent,0.07788311532461394,-0.06468258730349993,-0.049081963278531725,0.5056423495830116,0.9053275419991336,-0.4247016685909882,0.029881195247816357,0.02904116164644815,-0.015120604824192205,0.9883595343813737,-0.7755910236409553,0.7705508220328793,-0.9360748844927701,1.6849347920863444,0.4176334100044019,-2.3473877872658915,-8.683894697686597,-0.9504760365620069,6.221297693861211,1.526522119326224,-6.682134560073628,-0.029335,-0.07209299999999996,-0.054029999999999995,0.22787800000000002,-0.014788000000000023,0.35343800000000003,0.257213,0.05730499999999994,0.40746800000000005,0.9261212030593606,0.0,single,0.35343800000000003
92,0.766667,step_acsent,0.0669546436285038,-0.05255579553635,-0.04439644828413696,0.4391621938805443,0.8029751273720639,-0.35863474577933663,0.016438684905200805,0.014518838492925177,-0.019078473722102272,1.011039116870648,-0.7246220302375738,0.6891048716102749,-1.311311698597336,1.4550986041696665,0.5622168219816162,-1.6129722033376084,-1.742539375272745,-0.474906275247191,2.7213321921375693,6.1157899452102065,-9.772732232134011,-0.029756000000000005,-0.07153399999999999,-0.053819,0.235746,-0.02038899999999999,0.359551,0.265502,0.051144999999999996,0.41337,0.9515514249676047,0.0,single,0.359551
93,0.775,step_acsent,0.0639625585023405,-0.051002040081590774,-0.038761550462018776,0.4424012576693587,0.742433693287904,-0.32245919263775435,0.0006000240009639668,-0.0015600624025009842,-0.023280931237250193,1.044881795271809,-0.7226689067562638,0.6248649945997767,-0.3590645777227026,0.1864581128956223,0.6762147872456693,-1.9007153371218977,-1.9295452892627016,-0.5043150744207252,4.0612838594936775,0.2343841931249165,-7.709093605003947,-0.030283999999999978,-0.07112200000000013,-0.05369,0.24392000000000003,-0.025986000000000065,0.365081,0.274204,0.045136000000000065,0.418771,0.9610985724778139,0.0,single,0.365081
94,0.783333,step_acsent,0.05160206408256875,-0.03840153606145457,-0.030961238449537586,0.363764100737839,0.6120121868680533,-0.2651685418518481,0.007560302412100783,0.0001200048002087828,-0.007560302412095787,1.1460458418336907,-0.8154326173047124,0.4641785671426945,-1.4833186631191493,1.5121209672550484,0.936074884493131,0.8352668200092259,0.2016161289703327,1.8865509210553884,12.140171194273687,-11.132090549435906,-19.283142620554866,-0.030650999999999984,-0.07080099999999989,-0.053495,0.25304000000000004,-0.03246100000000007,0.369207,0.283691,0.03833999999999982,0.422702,0.9821790739206815,0.0,single,0.369207
95,0.791667,step_acsent,0.04607631389489417,-0.03395728341733034,-0.027717782577394674,0.35200212933847586,0.5616156217284392,-0.2074751530514311,-0.0002399808015427761,-0.010319174466046297,-0.006479481641469285,1.1059515238780717,-0.6929445644348236,0.5597552195824261,-0.6630369795625787,0.5332676558824329,0.38918356997154885,-0.9359591089085073,-1.2526013038462924,0.12968811742578512,-4.810933280011844,14.697390553142297,11.468280830301284,-0.031037000000000092,-0.07060399999999989,-0.053318,0.2618729999999999,-0.037952999999999903,0.374103,0.29291,0.032650999999999986,0.427421,0.979688082672429,0.0,single,0.374103
96,0.8,step_acsent,0.03756150246008585,-0.02700108004319198,-0.02196087843513596,0.30236745862297265,0.4755634500882065,-0.171689490177627,-0.004080163206525663,-0.009120364814588344,-0.005280211208447768,1.2008880355214144,-0.7077883115324534,0.3555742229689165,-1.021818244906791,0.83477779600844,0.6908561313162952,-0.460840322210833,0.14386291269146154,0.14391820869092914,11.392837110685505,-1.781320904551752,-24.502699701609117,-0.03138399999999997,-0.07045499999999993,-0.053179000000000004,0.271567,-0.04362599999999994,0.377249,0.30295099999999997,0.026828999999999992,0.43042800000000003,0.9811652348222109,0.0,single,0.377249
97,0.808333,step_acsent,0.035641425657038935,-0.02724108964358326,-0.019560782431298673,0.3494394108317499,0.4395770160222189,-0.13705573347176592,0.0025201008040380353,-0.008280331213260217,0.01044041761670438,1.2002880115204797,-0.6661466458658508,0.39877595103804764,-0.23041843310295584,-0.028802304139119154,0.2880230413821326,0.7920633638022032,0.1008080644819554,1.8865509210551172,-0.07200576034258185,4.99719976798307,5.184414744885579,-0.03166000000000002,-0.07029700000000005,-0.052929,0.28127199999999997,-0.04895000000000005,0.38073500000000005,0.312932,0.021347000000000005,0.43366400000000005,0.9773973260508239,0.0,single,0.38073500000000005
98,0.816667,step_acsent,0.029757619390438333,-0.019438444924405357,-0.0157187425005989,0.30403311330805427,0.37757177030299865,-0.11063053012429833,-0.014158867290624141,-0.010199184065288231,0.0,1.249340052795764,-0.6930645548356082,0.35613150947923544,-0.7060002719703091,0.9362424669039888,0.46100791105108513,-2.00131606607416,-0.2302439227295416,-1.252749894012995,5.885774091106795,-3.229890685116058,-5.116923633166771,-0.032026,-0.07022000000000017,-0.052798000000000005,0.29143600000000003,-0.05456400000000006,0.383834,0.323462,0.015656000000000114,0.436632,0.9709169351229613,0.0,single,0.383834
99,0.825,step_acsent,0.0214808592343744,-0.014280571222846672,-0.00780031201248171,0.2685413890334264,0.27340503821943196,-0.08070787211560496,-0.018120724828994794,-0.00444017760708545,0.024600984039362256,1.2439697587903613,-0.6577463098524085,0.31261250450018574,-0.9932509487656318,0.6189696029711667,0.9502496685608138,-0.47544192228137394,0.691108419321113,2.9522361741704644,-0.644461059090704,4.238358932341308,-5.222489497065895,-0.03235600000000005,-0.07013800000000003,-0.05252799999999999,0.301623,-0.059926000000000146,0.386504,0.333979,0.010211999999999888,0.439032,0.9485411636673553,0.0,single,0.386504
100,0.833333,step_acsent,0.018000720028799093,-0.01116044641787116,-0.00444017760710371,0.25488903325936757,0.2430981925022171,-0.03997867126678052,-0.017040681627262078,-0.007560302412114006,0.026161046441857082,1.2175687027481035,-0.6439457578303084,0.23952958118324605,-0.4176334100054353,0.37442995379521166,0.40323225793567574,0.12961036862267036,-0.37442995380157723,0.18721497689845434,-3.168253455209136,1.656132487951519,-8.77030161009713,-0.03264800000000001,-0.07010800000000006,-0.052273,0.311619,-0.06519900000000001,0.388537,0.344267,0.004909000000000052,0.44081000000000004,0.9464602081050062,0.0,single,0.388537
101,0.841667,step_acsent,0.016558675305971972,-0.009599232061417969,-0.0017998560115191995,0.26494138987243976,0.21237146983043512,-0.01756952421255065,-0.021118310535151504,-0.019558435325163423,0.025317974562035186,1.3978881689464795,-0.8003359731221386,0.11471082313414988,-0.17303152421731582,0.18733073631547634,0.316813246410426,-0.4892763268405802,-1.4396607767037828,-0.10116053273600795,21.636605015403724,-18.765324609050754,-14.977052801667293,-0.032961999999999936,-0.07019100000000011,-0.052046999999999996,0.32313100000000006,-0.0717890000000001,0.389508,0.356093,0.0015979999999999883,0.44155500000000003,0.9361095714838558,0.0,single,0.389508
102,0.85,step_acsent,0.007920316812673838,-0.004560182407320879,0.006240249609984035,0.24205402361621212,0.10417893351931859,0.004914654079302793,-0.008520340813637813,-0.019560782431287015,0.03228129125165017,1.2974918996759908,-0.5929437177487255,0.1461658466338663,-1.0366444849751846,0.6047101468975322,0.9648512686311422,1.511816839255227,-0.00028166400139113644,0.8356314280109262,-12.04803423382811,24.888066167456497,3.7747538101184115,-0.03309899999999999,-0.07031599999999982,-0.051829999999999994,0.333877,-0.07669199999999998,0.390674,0.36697599999999997,0.006376000000000159,0.442504,0.9355083514929052,0.0,single,0.390674
103,0.858333,step_acsent,0.008280331213246783,0.00012000480020878121,0.005520220808832855,0.20247644064599157,0.11764480563602513,0.024037150723576,0.09468378735149842,0.13584543381734143,-0.16380655226208957,1.3562942517700693,-0.5646225849033889,0.1702868114724586,0.043203456207001514,0.5616449307007849,-0.08640691241463785,12.384990779447474,18.649491929512514,-23.531482480947908,7.056564513869955,3.3986718883159046,2.8946315658937,-0.032378999999999936,-0.06918500000000005,-0.053241,0.34511000000000003,-0.08139800000000008,0.39204700000000003,0.37748899999999996,0.01221300000000003,0.445288,0.6118004950192129,0.0,single,0.39204700000000003
104,0.866667,step_acsent,0.0032397408207342692,0.005039596832238506,0.009839212862970867,0.1908262818589207,0.05768950723880132,0.06907658952689452,0.008279337652986097,0.004679625629937659,0.0033597312215023285,1.4263258939284915,-0.7038636909047229,-0.09239260859131238,-0.6048224613046007,0.5903038195380073,0.5182375874895652,-10.367704547457741,-15.738637891457227,20.058349350083134,8.403124809025986,-16.707596112471176,-31.51900888694174,-0.03233699999999995,-0.06918800000000003,-0.053294999999999995,0.35697,-0.08730599999999988,0.391195,0.38930699999999996,0.018117999999999856,0.44449,0.9831894442975337,0.0,single,0.391195
105,0.875,step_acsent,0.0013200528021233915,0.00912036481461499,0.011760470418816808,0.15927558349766913,0.032484294572280796,0.08584857429801065,-0.006120244809795156,0.007080283211332174,-0.013560542421697049,1.408496339853588,-0.6045841833673439,0.10668426737069116,-0.23037177710438853,0.48971174635503034,0.23056012910667625,-1.7280190162943947,0.28809043338467594,-2.0305140577462266,-2.139632074271395,11.91401746518404,23.89018072266923,-0.03239900000000007,-0.06920500000000018,-0.053506,0.3686959999999999,-0.09242000000000017,0.391986,0.401095,0.023214999999999986,0.445492,0.9725391127816336,0.0,single,0.391986
106,0.883333,step_acsent,0.0016800672026831191,0.01104044161766238,0.013440537621504923,0.16083557599542658,0.011392959144033219,0.08288884569097597,-0.21360854434177323,-0.05448217928716579,-0.12084483379335134,1.383175327013079,-0.6032641305652072,-0.019680787231488875,0.04320345620541535,0.2304184331030098,0.20161612896773165,-24.89959192751437,-7.387791011460183,-12.874629949796454,-3.038643086584507,0.15841267276330798,-15.164413128786691,-0.03419300000000003,-0.06975100000000012,-0.054625,0.380208,-0.09753900000000004,0.39171,0.414401,0.027787999999999924,0.446335,0.5810051978238311,0.0,single,0.39171
107,0.891667,step_acsent,-0.003839692824577896,0.022318214542839037,0.018598512119030866,0.06714243462539558,-0.04147392118752744,0.2039764341892912,0.01871850251980392,0.013918886489081551,-0.025197984161267464,1.3654907607391489,-0.5461963042956728,-0.05123590112791134,-0.6623182178139004,1.3532244930617616,0.618907427108948,27.877015462152446,8.207471295446092,11.476703819544568,-2.12197819461607,6.847591345036569,-3.7863107627097006,-0.03400499999999995,-0.06982100000000013,-0.054990000000000004,0.39162,-0.10227700000000017,0.391128,0.425625,0.03245600000000004,0.44611799999999996,0.9427710217277381,0.0,single,0.391128
108,0.9,step_acsent,-0.018360734429372146,0.03144125765030402,0.033121324852993794,-0.05240452155670993,-0.18486092441450774,0.3313413379723213,0.02496099843993581,0.014520580823237398,-0.031921276851073356,1.348973958958353,-0.5366614664586599,-0.06552262090483484,-1.7425946963631571,1.0948089652544035,1.7428072403651587,0.7491294755948477,0.07220620834703521,-0.8068273958725385,-1.9820954975154068,1.1442263094939256,-1.7144749522289013,-0.03364400000000001,-0.06996200000000008,-0.055532,0.403014,-0.10701100000000019,0.390306,0.436658,0.03704900000000011,0.44583799999999996,0.9282584378487322,0.0,single,0.390306
109,0.908333,step_acsent,-0.022800912036484485,0.029281171246839457,0.03240129605184313,-0.017218703427966792,-0.21925190110072365,0.28378767419587514,0.024720988839558547,0.01188047521901742,-0.032881315252610815,1.343333733349344,-0.46357854314172386,-0.0872434897395877,-0.532842626558548,-0.25922073724523964,-0.08640691241457708,-0.028802304137437517,-0.31682534552022107,-0.11520921655315831,-0.6768541472469638,8.770301610096803,-2.6066085245113486,-0.033247999999999944,-0.07010699999999992,-0.05607600000000001,0.414398,-0.11111800000000005,0.389309,0.44764599999999993,0.04101100000000013,0.44538500000000003,0.9286352508163394,0.0,single,0.389309
110,0.916667,step_acsent,-0.012958963282936905,0.019078473722104514,0.022678185745139582,0.12121428792135507,-0.14270603455815203,0.17314262555137752,0.026637868970475494,0.009959203263718812,-0.031437485001199465,1.356011519078464,-0.5543556515478535,-0.13330933525318217,1.1809393752756785,-1.2242257649069912,-1.1666799024122239,0.2300072151328212,-0.23053419190047916,0.17324577050772008,1.521212590487154,-10.892381618206015,-5.527459264890102,-0.032918,-0.0701830000000001,-0.056527,0.425807,-0.11589699999999992,0.388009,0.458725,0.04571399999999981,0.444536,0.9293467533155975,0.0,single,0.388009
111,0.925,step_acsent,-0.006600264010563665,0.014400576023028617,0.014640585623424528,0.16331256194992605,-0.07194784726279473,0.08516607467353801,0.0244809792391673,0.010560422416907193,-0.02520100804032173,1.3126125045001749,-0.5157806312252631,-0.16272650906035793,0.7630744356622121,-0.561370178696253,-0.9645505966296676,-0.2588371212418318,0.07214918434997936,0.748407171592189,-5.208090072997603,4.629187606215079,-3.5302020649436745,-0.032658999999999994,-0.07021499999999992,-0.056859,0.4368,-0.12031499999999995,0.386531,0.469459,0.05010000000000003,0.44339,0.9388550975964014,0.0,single,0.386531
112,0.933333,step_acsent,-0.007200288011514404,0.011160446417871308,0.017760710428416742,0.17300197468738956,-0.08930128536213097,0.08886433443340967,0.08316332653306864,-0.04152166086642993,0.002760110404416464,1.4194167766710803,-0.40309612384494425,-0.017040681627268964,-0.0720057603445031,-0.3888311058631152,0.37442995379722094,7.0421633618026975,-6.250099998000431,3.3554684321058983,12.817025341522436,13.522681792910099,17.482998611915313,-0.03190599999999999,-0.070654,-0.05698399999999999,0.448688,-0.12376699999999996,0.386241,0.48059399999999997,0.053112999999999966,0.443225,0.8450107045757569,0.0,single,0.386241
113,0.941667,step_acsent,0.006719462442997906,-0.005999520038409543,0.004799616030718976,0.31116041770479413,0.044728621964305014,-0.11944819284319345,0.016918646508272815,0.0071994240460701376,-0.023038156947443756,1.288336933045346,-0.48644108471321945,-0.20722342212622574,1.6702364356266144,-2.059031252253506,-1.5552069111708264,-7.948725704919045,5.846062504499604,-3.0955444386681097,-15.72832296925046,-10.00059525657242,-22.820103251614512,-0.03182099999999999,-0.07054399999999994,-0.057216,0.459369,-0.12777099999999986,0.384474,0.49119,0.05722699999999992,0.44168999999999997,0.9508734914904479,0.0,single,0.384474
114,0.95,step_acsent,-0.009480379215161521,0.01596063842555646,0.01848073922956785,0.08543163932738161,-0.066559979291363,0.17307863252449826,0.012960518420736587,0.00972038881555244,-0.02136085443417811,1.2442097683907456,-0.4576983079323196,-0.21684867394696022,-1.9440587613296025,2.635324428653091,1.6418004558801151,-0.4749943702791629,0.3025278734528171,0.20128435296599817,-5.295471577415196,3.449271184555398,-1.1550764215450102,-0.03163400000000005,-0.0705960000000001,-0.057547999999999995,0.46981599999999996,-0.131718,0.382513,0.50145,0.0611219999999999,0.440061,0.9553175681236674,0.0,single,0.382513
115,0.958333,step_acsent,-0.007560302412100682,0.0134405376214916,0.015840633625345803,0.11155674943285689,-0.04099023141673429,0.15071953068954924,0.007200288011527631,0.006000240009613022,-0.015720628825152842,1.2391695667826663,-0.418336733469349,-0.2268090723628939,0.2304184331046239,-0.30242419345552024,-0.3168253455204652,-0.6912552993170444,-0.44643571414129396,0.6768541472489191,-0.6048483869049868,4.723577878671595,-1.1952956217369068,-0.031510999999999956,-0.07065799999999989,-0.057811,0.480205,-0.135316,0.380491,0.511716,0.0646580000000001,0.438302,0.9694956652315274,0.0,single,0.380491
116,0.966667,step_acsent,-0.008399328053757375,0.01367890568753859,0.015958723302135016,0.09301977727950915,-0.05527781212824428,0.10551523390689888,0.005519558435323991,0.005399568034539282,-0.010319174466042134,1.200863930885522,-0.3866090712742888,-0.22042236621070543,-0.10067502299696256,0.028601879775256564,0.014169627644493922,-0.20167141543120076,-0.07207487101916674,0.6481226732794176,-4.596308602969044,3.807014902215022,0.7663434307881483,-0.03139499999999995,-0.07072699999999998,-0.05802999999999999,0.490283,-0.1386519999999999,0.378521,0.521678,0.0679249999999999,0.43655099999999997,0.9785196328695512,0.0,single,0.378521
117,0.975,step_acsent,0.0008400336013415707,0.005880235209404319,0.009000360014401333,0.14749512289759323,0.05554819171488681,0.07592166453812416,0.0014400576023055455,0.002400096003855899,-0.005520220808832928,1.1576863074523107,-0.4092163686547528,-0.27901116044641633,1.1087677493218564,-0.9358778924918209,-0.8350369960078898,-0.4895596823495119,-0.35995104172367814,0.5758974747641006,-5.181522072868318,-2.712984205023908,-7.030936545747202,-0.03138999999999992,-0.07075599999999982,-0.058151,0.49992300000000006,-0.14211099999999988,0.37612100000000004,0.5313129999999999,0.07135500000000006,0.43427200000000005,0.989684549815399,0.0,single,0.37612100000000004
118,0.983333,step_acsent,-0.002160086403451628,0.004200168006721121,0.009360374414975928,0.1558908959001687,0.040487108160408285,0.07868186652525021,0.002640105604220137,0.005160206408258139,-0.006120244809791825,1.1044041761670373,-0.37753510140405244,-0.2816512660506394,-0.36002880172725144,-0.2016161289671416,0.04320345620719949,0.144011520690578,0.3312264975881709,-0.07200576034548119,-6.394111518693525,3.8019041462498775,-0.3168253455205872,-0.03134999999999999,-0.07074799999999981,-0.05827999999999999,0.509144,-0.14529199999999987,0.37369600000000003,0.540494,0.07454400000000005,0.431976,0.9859509505749552,0.0,single,0.37369600000000003
119,0.991667,step_acsent,-0.0016798656107461687,0.000959923206144474,0.009839212862970867,0.1616490544930281,0.04593180532927504,0.06524045864913998,-0.17614590832733779,-0.15646748260141605,0.3402927765778755,1.0749940004799672,-0.35649148068155434,-0.22414206863451486,0.057621885373825524,-0.38879827220742325,0.05745601727801071,-21.452605463350007,-19.393771179466658,41.56623726753892,-3.528938767347052,2.5250324841010587,6.900551645803319,-0.032804000000000055,-0.07206000000000001,-0.05552599999999999,0.5181169999999999,-0.14827099999999993,0.371746,0.550921,0.07621099999999992,0.427272,0.5,0.0,flight,0.371746
120,1.0,step_acsent,0.004080163206525663,-0.0025201008040113553,0.005040201608064346,0.19055272551853789,0.08923272152982706,-0.027926727481030936,-0.025561022440899778,0.1467658706348483,-0.28525141005640153,0.977079083163327,-0.2961718468738768,-0.41485659426376736,0.6912311073169096,-0.41761958600213783,-0.5759043867642507,18.070909142738195,36.389457966670236,-75.06830512831806,-11.750260088400305,7.238645602745382,-22.88665854185188,-0.03305100000000005,-0.07081599999999999,-0.057944999999999997,0.5262249999999999,-0.15071800000000013,0.368247,0.5592760000000001,0.07990200000000014,0.426192,0.5,0.0,flight,0.368247
121,1.008333,step_acsent,-0.0009600384015370304,0.004080163206512394,0.009120364814593461,0.15239576554820833,0.06660371705360411,0.14187260218213443,-0.019680787231482477,-0.002400096003855899,0.03072122884915416,0.9359174366974765,-0.3298931957278323,-0.27709108364334895,-0.6048483869030048,0.7920633637974092,0.48963917035031235,0.705656451388138,-17.900632021925546,37.918233398002954,-4.939595159708496,-4.046723731423954,16.532522575353376,-0.033206999999999987,-0.07086999999999999,-0.057765000000000004,0.5340320000000001,-0.153501,0.365862,0.567239,0.08263100000000001,0.42362700000000003,0.9390608739788286,0.0,single,0.365862
122,1.016667,step_acsent,0.00155987520998808,-0.0032397408207342263,0.008639308855291825,0.180564464735793,0.07959958675440884,0.07150890967945865,-0.03287736981041449,-0.017518598512116436,0.043916486681065806,0.8951283897288108,-0.2518598512118966,-0.44372450203983094,0.3023654441474791,-0.8783182178121628,-0.057722097348407976,-1.5834632324132363,-1.8140751749772523,1.5833042754873463,-4.894294092712429,9.363252281729679,-19.994410654725307,-0.033494000000000024,-0.07098899999999997,-0.057471,0.5414789999999999,-0.15557299999999996,0.362092,0.574973,0.08458399999999999,0.419563,0.9040185124636626,0.0,single,0.362092
123,1.025,step_acsent,0.020760830433214965,-0.0746429857194175,0.007080283211328938,0.9237774897595158,0.267461013510614,-0.24267763714352067,-0.019320772830922744,-0.007200288011514404,0.04740189607584341,0.8537141485659515,-0.26305052202087986,-0.4875795031801363,2.3042067950590495,-8.568732137127558,-0.18709056089798415,1.6268567118074966,1.238246789943853,0.41826585800763627,-4.969907735852596,-1.3429342144465841,-5.262810649262665,-0.03382800000000008,-0.07042700000000002,-0.057135000000000005,0.5484199999999999,-0.15714300000000003,0.35796999999999995,0.5822480000000001,0.08671600000000002,0.41510499999999995,0.9138464522911122,0.0,single,0.35796999999999995
124,1.033333,step_acsent,-0.018240729629189767,0.004800192007685024,0.026761070442815695,0.15358583116117025,-0.13505897853259274,0.13533042243908885,-0.014760590423614795,-0.007440297611905125,0.013080523220928366,0.7920316812672362,-0.19392775711028842,-0.26341053642145257,-4.680374422465385,9.533562669758927,2.361788939335943,0.5472437786280894,-0.028802304139051563,-4.118729491769404,-7.402192163532247,8.2950635918145,26.901352065124183,-0.03379900000000002,-0.07052900000000006,-0.057248999999999994,0.555172,-0.15879900000000013,0.355552,0.588971,0.08827000000000007,0.412801,0.9648679812888001,0.0,single,0.355552
125,1.041667,step_acsent,-0.020158387329007578,0.00875929925605845,0.029757619390450782,0.123568982230894,-0.1520879028893976,0.15101008351324635,-0.00011999040075806964,0.008039356851456746,-0.0003599712023041825,0.728461723062168,-0.1991840652747812,-0.2709383249340083,-0.23010051593686676,0.475054865415587,0.35955710914748545,1.7567314642257024,1.8574099428080353,-1.6127303123629475,-7.627784761827379,-0.6307065232172867,-0.9032623605178663,-0.033631999999999995,-0.07053500000000001,-0.05750000000000001,0.5614109999999999,-0.16053200000000012,0.35304599999999997,0.595043,0.0899970000000001,0.41054599999999997,0.9865861560373219,0.0,single,0.35304599999999997
126,1.05,step_acsent,-0.026761070442827353,0.011760470418808323,0.035161406456256164,0.13766016445282014,-0.2236153488313704,0.2251905805607318,0.008520340813624263,0.014040561622455379,-0.012600504020159864,0.6953078123124828,-0.17244689787590128,-0.273370934837389,-0.7923536678050713,0.3601549457278076,0.648480387112119,1.0368812209747007,0.7201733794550015,-1.468922695050458,-3.9786284350995595,3.208588431402789,-0.2919248654002923,-0.03333799999999998,-0.07051600000000002,-0.05789799999999999,0.567428,-0.16206699999999996,0.350475,0.600766,0.09155099999999994,0.408373,0.9654993446190936,0.0,single,0.350475
127,1.058333,step_acsent,-0.02700108004319234,0.010560422416907333,0.03636145445818005,0.1330199071664744,-0.2160717970943279,0.2388370242655513,-0.15852634105364558,-0.2277691107644273,0.21912876515060734,0.6765870634825426,-0.16656666266651488,-0.2029281171246866,-0.028802304135964053,-0.1440115206889477,0.1440115206916954,-20.046403680219772,-29.018321419282955,27.808624645478137,-2.2465797227817603,0.7056564513844309,8.453476264574947,-0.034434000000000076,-0.07250200000000007,-0.05637500000000001,0.573291,-0.1635430000000001,0.348481,0.6077250000000001,0.09104100000000004,0.404856,0.5,0.0,flight,0.348481
128,1.066667,step_acsent,-0.012359011279106607,0.0038396928245512016,0.018718502519797012,0.1773243491262185,-0.049567054417487336,0.04325680481077366,-0.007919366450685144,-0.007079433645312071,0.017158627309815593,0.6157907367410591,-0.1210703143748536,-0.24718022558195232,1.7569076990743484,-0.8064230372397504,-2.116984873816043,18.07139124105583,26.480642802869394,-24.234477782672208,-7.2949756109290895,5.459125064994112,-5.309828228613555,-0.03439700000000001,-0.07259299999999991,-0.056387999999999994,0.5785260000000001,-0.16458399999999995,0.346265,0.6129230000000001,0.09199100000000004,0.402653,0.9663658062186475,0.0,single,0.346265
129,1.075,step_acsent,-0.01848073922956785,0.008760350414015409,0.022200888035522177,0.1125243717230166,-0.10250360856122273,0.150164243059678,0.020280811232459773,-0.16224648985959825,0.4534981399256009,0.5726629065162657,-0.1090843633745285,-0.23820952838113252,-0.7346367395249369,0.5905025308369437,0.41790297800614384,3.3841566882449508,-18.620791577377606,52.36283602733581,-5.175546648841207,1.4383716549052226,1.0765267251673931,-0.03407399999999994,-0.07401799999999992,-0.052794,0.5834520000000001,-0.16556599999999988,0.34409500000000004,0.617526,0.09154799999999996,0.39688900000000005,0.5,0.0,flight,0.34409500000000004
130,1.083333,step_acsent,-0.011520460818430734,0.003600144005783753,0.0188407536301454,0.15620806338200202,-0.05636623337004703,0.14724256376333958,-0.042721708868356745,-0.022200888035506596,0.013440537621504744,0.5438617544701669,-0.08988359534381214,-0.2064082563302495,0.8352668200092397,-0.6192495389693466,-0.40323225793552375,-7.560604836291301,16.80614446466929,-52.809024637476114,-3.456276496591658,2.3041843310591643,3.816305298317827,-0.034333999999999976,-0.074233,-0.052839000000000004,0.5880799999999999,-0.16634500000000008,0.342218,0.622414,0.09211200000000008,0.39505700000000005,0.9166888047780289,0.0,single,0.342218
131,1.091667,step_acsent,-0.011759059275263302,0.008159347252214816,0.019198464122869754,0.0941483450127971,-0.085646805180441,0.13326513479818375,0.17626589872809822,0.1949844012479024,-0.38072954163667655,0.49208063354932796,-0.09323254139669336,-0.22150227981762052,-0.028629524457952055,0.5470606247217602,0.04292182538089295,26.2764107987112,26.060149902017415,-47.29662578092018,-6.213237451504675,-0.40184137903543105,-1.8111379274503605,-0.03276699999999999,-0.07267599999999996,-0.056172,0.592279,-0.16719000000000006,0.340212,0.625046,0.0945140000000001,0.396384,0.5,0.0,flight,0.340212
132,1.1,step_acsent,-0.0070802832113187565,0.005520220808831116,0.01656066242649668,0.10873960792909386,-0.06840348514964414,0.106425190115796,0.04908196327852941,0.015240609624383297,0.03660146405856167,0.4429377175086926,-0.08676347053882354,-0.24708988359534345,0.5614755866968035,-0.3167078415196992,-0.3165488655193843,-15.262682761258443,-21.570117799533897,50.08172395238581,-5.897385820308953,0.7763195557265944,-3.0706352787378473,-0.03229900000000008,-0.07259499999999997,-0.056005,0.5960289999999999,-0.16795900000000008,0.33801499999999995,0.628328,0.09536400000000012,0.3940199999999999,0.8948416211370791,0.0,single,0.33801499999999995
133,1.108333,step_acsent,-0.00216008640346498,0.003480139205575066,0.01068042721708947,0.07912325669714154,-0.020089124394812957,0.061746775695523656,-0.08028321132844424,0.08964358574341029,-0.15720628825153135,0.4226569062762579,-0.08880355214208205,-0.2605304212168485,0.5904472348318519,-0.2448195851741352,-0.7056564513869269,-15.524441930514199,8.928714282854635,-23.25786059163504,-2.4337946996801727,-0.24481958517443062,-1.6129290317418898,-0.032949999999999924,-0.07187700000000019,-0.057404000000000004,0.599569,-0.1687280000000001,0.335755,0.632519,0.09685099999999991,0.39315900000000004,0.6700371083491721,0.0,single,0.335755
134,1.116667,step_acsent,0.0004799616030722306,0.002759779217648674,0.009239260859130448,0.0742122877795135,-0.02451746388661465,0.07648785339018442,0.0007199424046016851,-0.0023998080153478313,-0.01319894408447302,0.38840892728581294,-0.08867290616751135,-0.23578113750899682,0.3167804183509948,-0.0864362836484745,-0.17292612886477218,9.719600879895046,-11.04432370515448,17.279498940131656,-4.109428724555399,0.015676262847456154,2.9696764708245125,-0.03294799999999998,-0.07191999999999998,-0.057590999999999996,0.6028020000000001,-0.16949000000000003,0.33371300000000004,0.63575,0.09757000000000005,0.39130400000000004,0.9776089352815363,0.0,single,0.33371300000000004
135,1.125,step_acsent,-0.003600144005757202,0.003360134405366283,0.013920556822273616,0.04205093568208744,-0.09358731035835792,0.11543381183576142,0.04980199207969015,0.10332413296531964,-0.10824432977319191,0.3450138005520205,-0.10128405136205011,-0.2474498979959231,-0.4896322583498704,0.0720455043462876,0.5617779866966531,5.89008156427324,12.68738041289673,-11.405902518747121,-5.207623512995658,-1.513397959263036,-1.400307270721995,-0.03250299999999995,-0.0710869999999999,-0.058609,0.605707,-0.1703619999999999,0.331535,0.6382099999999999,0.099275,0.39014400000000005,0.7371473279351461,0.0,single,0.331535
136,1.133333,step_acsent,0.006360254410172833,-0.0024000960038292525,0.0010800432017274938,0.05586921796323158,0.041471238319489234,-0.0007454024902387594,-0.006960278411136808,-0.09348373934958507,0.03660146405856264,0.3063722548902017,-0.09624384975398736,-0.24720988839553884,1.1952956217364847,-0.6912552993154432,-1.5409232713964047,-6.811744928696444,-23.617889393364514,17.382190547432604,-4.637170966256951,0.6048483869030113,0.02880230413827646,-0.03261399999999992,-0.07184600000000008,-0.058313,0.608207,-0.17114399999999996,0.329466,0.640821,0.09929799999999989,0.387779,0.8322756712011248,0.0,single,0.329466
137,1.141667,step_acsent,0.011879049676034377,-0.006239500839925676,-0.00431965442764508,0.053505604761974745,0.08449792030732374,-0.04616281259823295,0.10019198464121823,0.13246940244780242,-0.13378929685625024,0.2538996880249569,-0.07571394288457443,-0.256899448044155,0.6622024557069236,-0.46069172499356786,-0.6479118825740979,12.85724298684356,27.112208039043168,-20.44525568932224,-6.296204327483132,2.4633917529892937,-1.1626541455022885,-0.03187800000000007,-0.07069000000000014,-0.059392,0.610224,-0.17172300000000007,0.327361,0.6421020000000001,0.10103299999999993,0.386753,0.6445419530751211,0.0,single,0.327361
138,1.15,step_acsent,0.0076803072122829195,-0.004080163206539041,0.0009600384015353649,0.011563158538904498,0.015612864761562036,0.028422835731794355,0.26233049321973373,0.09936397455898938,-0.05268210728429208,0.23376935077403374,-0.06528261130445144,-0.23652946117844936,-0.5038692504201963,0.2591308812416483,0.6335884830409808,19.457399325395055,-3.9728102590679644,9.733252078718216,-2.4157370995947827,1.251809862009251,2.4444962037328466,-0.029756000000000005,-0.069828,-0.059838999999999996,0.6121080000000001,-0.17223299999999997,0.325382,0.641864,0.10240499999999997,0.385221,0.5242961602326568,0.0,single,0.325382
139,1.158333,step_acsent,0.013680547221895656,-0.010920436817480098,-0.009120364814591553,0.039335022463466554,0.11853611343700976,-0.06571677378225464,0.03504140165607403,0.022920916836679336,-0.04824192967718619,0.1888875555022125,-0.08472338893555408,-0.2509300372014848,0.720057603457654,-0.8208656679396301,-1.2096967738061613,-27.275782018919443,-9.173533868031765,0.5328426265577598,-5.386030873853408,-2.3329866351976833,-1.7281382482941567,-0.029577999999999993,-0.06954599999999989,-0.060165,0.6135679999999999,-0.1728479999999999,0.32336699999999996,0.643146,0.103302,0.383532,0.8935346686887795,0.0,single,0.32336699999999996
140,1.166667,step_acsent,0.016198704103671562,-0.012119030477550833,-0.0077993760499172945,0.019146045421289788,0.11412831532061045,-0.044356807981030075,0.05735541156707314,0.032037437005042274,-0.015358771298296802,0.14854811615071278,-0.0761939044876487,-0.2518598512119033,0.30215465344083925,-0.1438197336298006,0.15850597128321137,2.6774669919605874,1.0938949086108845,3.9456633523986095,-4.840345494540496,1.0234562572480839,-0.11156875574975886,-0.02923500000000001,-0.06917799999999996,-0.060228,0.614671,-0.17338200000000004,0.32133300000000004,0.643906,0.10420400000000007,0.38156100000000004,0.8875533155758573,0.0,single,0.32133300000000004
141,1.175,step_acsent,0.02112084483378746,-0.013680547221882333,-0.0084003360134388,0.012432956675037882,0.13142481414617993,-0.08183484225117389,0.0016800672026830968,-0.00012000480020877961,-0.04152166086643382,0.13440537621504745,-0.08496339853593166,-0.220568822752907,0.5906805148344907,-0.1873895048999727,-0.07211808034579323,-6.681308576069731,-3.8590473785252,-3.13967233506979,-1.6971966801470169,-1.0523813810491776,3.7550736180242095,-0.029397000000000006,-0.06906500000000015,-0.06050400000000001,0.615615,-0.17397600000000002,0.319565,0.645012,0.10491099999999987,0.380069,0.9307403166003172,0.046819297088508405,single,0.319565
142,1.183333,step_acsent,0.02040081603264191,-0.012960518420736587,-0.006960278411136808,0.009671285489701628,0.10425905504010782,-0.07251225835475297,-0.006720268810745889,-0.013200528021100858,-0.029761190447617963,0.12840513620545124,-0.08304332173287318,-0.2077283091323651,-0.08640691241396338,0.0864069124139869,0.17281382482923377,-1.0080806448372812,-1.569725575530085,1.411312902774027,-0.7200576034556891,0.23041843310434312,1.5409232713959005,-0.029622999999999955,-0.06906699999999999,-0.060694000000000005,0.616515,-0.17456000000000005,0.317892,0.646138,0.10549300000000006,0.37858600000000003,0.9445938127757092,0.07009328304024492,single,0.317892
143,1.191667,step_acsent,0.026037916966645196,-0.01535877129831138,-0.009599232061436286,0.0073183787716142295,0.15782775591282616,-0.1026536136314829,0.007919366450685144,-0.016078713702913066,-0.026997840172785496,0.10007199424046016,-0.09899208063354432,-0.2213822894168499,0.67639800024037,-0.28776732392305904,-0.31664910610744634,1.7566157021155415,-0.3453546534451867,0.33157550693933835,-3.3997050593941522,-1.913697972242743,-1.6383465664128514,-0.029773999999999967,-0.06907299999999994,-0.06083899999999999,0.617132,-0.17525699999999989,0.316127,0.646906,0.10618399999999995,0.37696599999999997,0.9459906187851552,0.06276133479253282,single,0.316127
144,1.2,step_acsent,0.02640105604224169,-0.013320532821309641,-0.005760230409215521,-0.024384086338012607,0.1166327888041296,-0.09721284847475127,0.021000840033592563,-0.009960398415943358,-0.016320652826113696,0.06324252970118859,-0.09396375855035358,-0.2548901956078218,0.04357843220886789,0.24459840117625783,0.4606986262115445,1.5698396235338459,0.7342272035245127,1.2813137341499938,-4.419712533213958,0.603422786894371,-4.021109587300154,-0.02981900000000004,-0.06904500000000002,-0.060927,0.6174390000000001,-0.175929,0.314051,0.6472580000000001,0.10688399999999998,0.37497800000000003,0.9526652427622799,0.035128998475836115,single,0.314051
145,1.208333,step_acsent,0.03552142085682921,-0.01992079683185954,-0.004320172806911525,0.026467759737128695,0.13981390854092365,-0.16237252175193426,0.01248049921996774,-0.009360374414979136,-0.0034801392055683117,0.04440177607103984,-0.09180367214687282,-0.27385095403815746,1.0944875572527735,-0.7920633638005261,0.1728138248294696,-1.0224817969068372,0.07200576034611933,1.5409232713962748,-2.2609808748528044,0.25922073724717587,-2.2753820269213185,-0.03001100000000001,-0.06895700000000016,-0.06092000000000001,0.617513,-0.17652800000000002,0.311805,0.647524,0.10757099999999986,0.37272500000000003,0.9733598653418096,0.01296310610453777,single,0.311805
146,1.216667,step_acsent,0.0434365250779914,-0.025197984161272797,-0.003719702423806556,0.016956540158334716,0.15838390691259951,-0.24355210250566214,0.00875929925605845,-0.004919606431480503,0.015838732901368214,0.033717302615788466,-0.08855291576674232,-0.27273818094553254,0.9497365276172717,-0.633211822583796,0.07205068191804424,-0.4465082750071226,0.5328495300574414,2.3180792064959075,-1.2820342518900376,0.39005956085079985,0.133522089347845,-0.030299999999999994,-0.06878800000000007,-0.060757000000000005,0.617432,-0.177056,0.309563,0.647732,0.10826799999999992,0.37032,0.968739743424547,0.018784551797469407,single,0.309563
147,1.225,step_acsent,0.050282011280457325,-0.03156126245051238,-0.002280091203648721,0.041433189305374436,0.16614562699452448,-0.3195772379089498,-0.056642265690616665,0.024240969638789387,0.03072122884915334,0.02196087843514233,-0.0999639985599507,-0.27457098283931025,0.8214912039440543,-0.7636239396663229,0.17276025682921034,-7.848501733670224,3.4994091047965177,1.7859709525722869,-1.4108273347709024,-1.3693847105734043,-0.21994502505432395,-0.03119099999999997,-0.06832299999999991,-0.060482,0.6171960000000001,-0.17762599999999995,0.30729399999999996,0.648387,0.10930300000000004,0.36777599999999994,0.8852567506996941,0.01162313673227,single,0.30729399999999996
148,1.233333,step_acsent,0.04848193927756674,-0.027601104044156315,-0.0046801872074880265,0.03449739390783883,0.18609960993074234,-0.26666035232456187,0.050162006480249884,-0.021960878435142914,0.03636145445817922,-0.00036001440057971716,-0.056042241689667524,-0.37597503900156315,-0.21601728103811352,0.47523801828346307,-0.2880230413823746,12.817025341517764,-5.544443546613792,0.6768541472490014,-2.6786142848580647,5.270821657300321,-12.168973498410395,-0.03117700000000001,-0.068276,-0.06014,0.616789,-0.177863,0.30419999999999997,0.647966,0.10958699999999999,0.36434,0.8904470898241149,0.0,single,0.30419999999999997
149,1.241667,step_acsent,0.05711543076554215,-0.03287736981040117,-0.007919366450683479,0.05699124445032522,0.237268028533737,-0.35069923306208967,-0.012838972882165517,-0.014518838492924985,0.027357811375089667,0.022078233741302626,-0.20194384449243788,0.02987760979121638,1.0359361036687478,-0.6331012438498701,-0.3886704155502073,-7.559512762468793,0.8929733551977289,-1.080350741911385,2.692374387074895,-17.50679179298887,48.698421981374665,-0.03176000000000001,-0.06812300000000016,-0.059846,0.6164970000000001,-0.1792720000000001,0.304515,0.6482570000000001,0.11114899999999994,0.364361,0.9441210201743584,0.15777916364673672,single,0.304515
150,1.25,step_acsent,0.05832233289331464,-0.03204128165126841,-0.01068042721708947,0.043664554176730395,0.25394067305616075,-0.36859681651048704,-0.06456258250330534,0.011760470418835283,0.043081723268930935,-0.013800552022084819,-0.13104524180967142,-0.11808472338893482,0.1448340486946479,0.10033459247963145,-0.33134054559054565,-6.207081437794346,3.153643215139866,1.8869449050571718,-4.3056265166672,8.508172648838006,-17.756190229227474,-0.032784000000000035,-0.06775799999999998,-0.059398,0.615896,-0.18009700000000006,0.30362,0.64868,0.11233900000000008,0.363018,0.8691622017344763,0.2051021243863923,single,0.30362
151,1.258333,step_acsent,0.06576263050521997,-0.03564142565702561,-0.015360614424577496,0.04965830721414567,0.3226465427098665,-0.39871872000309355,0.051122044881800235,0.0759630385215276,-0.028441137645506213,-0.015240609624383703,-0.0961238449537919,-0.11664466578662928,0.8928714282857784,-0.4320345620733509,-0.561644930695796,13.882710594636581,7.704616356977427,-8.583086633197864,-0.17281382482886085,4.1907352521156644,0.17281382482965876,-0.03290599999999999,-0.06682800000000011,-0.059507,0.615221,-0.180601,0.30277600000000005,0.648127,0.1137729999999999,0.362283,0.8402019937816415,0.24680898840501025,single,0.30277600000000005
152,1.266667,step_acsent,0.06983441324693629,-0.040916726661884346,-0.017278617710581985,0.07864452406935722,0.3327391914602623,-0.470201848315475,0.006239500839938998,-0.00155987520998808,0.02027837772978176,0.0004799616030722306,-0.04367650587953302,-0.1367890568754525,0.48857484301851356,-0.6329854817445038,-0.23014198296189997,-5.385474447067542,-9.302005487342823,5.845874175100504,1.8863176418833472,6.29317723473224,-2.4171335599739705,-0.03343599999999991,-0.0665,-0.059194000000000004,0.614643,-0.1806239999999999,0.30178,0.648079,0.11412399999999989,0.360974,0.9645435641027047,0.26067738179823563,single,0.30178
153,1.275,step_acsent,0.08760350414016742,-0.04776191047640731,-0.023640945637826056,0.08014432563454653,0.44688465585232867,-0.5725770734118519,0.015360614424579162,0.001680067202709788,0.01572062882515305,0.03624144965798959,-0.03648145925836718,-0.12300492019680877,2.1323762022358443,-0.8214549159394003,-0.7635098916649621,1.0945774132533597,0.3888086418694225,-0.5469517466253151,4.291550228599266,0.8634401321451942,1.6541625679399816,-0.0340379999999999,-0.06608799999999992,-0.058866,0.6142150000000001,-0.18052999999999997,0.300952,0.648253,0.11444200000000004,0.35981799999999997,0.9632610836077191,0.27779795270747765,single,0.300952
154,1.283333,step_acsent,0.08076323052922392,-0.04908196327854273,-0.022800912036480547,0.0757791371052588,0.4040064630983794,-0.5685741748233637,0.01248049921996774,0.001440057602292184,0.021000840033601163,0.021840873634940212,-0.025801032041290348,-0.1412456498259886,-0.820865667939923,-0.15841267276315849,0.10080806448403862,-0.345627649659351,-0.028802304142277652,0.6336506910414041,-1.7281382482958267,1.2817025341505637,-2.1889751145061234,-0.03460699999999994,-0.06566699999999992,-0.058501000000000004,0.6137239999999999,-0.18033599999999994,0.29996500000000004,0.648331,0.11466900000000002,0.35846600000000006,0.9592135674520981,0.2579425538207297,single,0.29996500000000004
155,1.291667,step_acsent,0.18286537077033824,-0.09395248380129506,-0.04823614110871217,0.07699104663534947,1.2388416242830276,-1.2396356892203861,0.008039356851443425,0.021118310535152066,-0.02015838732901424,0.017878569714424416,0.005999520038396382,-0.11099112071034638,12.251276726795806,-5.384031740191167,-3.0519833300014523,-0.5328944526667144,2.3612014558267647,-4.938712186539019,-0.4754384353870736,3.815760988683386,3.6302530736312466,-0.036063999999999985,-0.06470799999999999,-0.058267000000000006,0.612349,-0.17950299999999997,0.299442,0.648413,0.11479499999999998,0.357709,0.9495306782361104,0.31236363201761663,single,0.299442
156,1.3,step_acsent,0.06792271690868314,-0.04296171846872101,-0.019800792031682404,-0.0051351194321761886,0.30534983435243807,-0.45342091103607673,0.01608064322573817,0.004200168006721065,0.0034801392055683117,-0.004800192007678362,0.0039601584063434754,-0.12216488659546394,-13.793670210206779,6.119136605372994,3.412378384378887,0.9649929646339378,-2.0302583137442345,2.836736653616001,-2.7215602690630485,-0.24473318517375145,-1.3409055424357816,-0.03649599999999997,-0.06431500000000012,-0.05807299999999999,0.6117429999999999,-0.17911200000000005,0.298589,0.648239,0.11479699999999993,0.356662,0.9716990446407676,0.29612787085748743,single,0.298589
157,1.308333,step_acsent,0.06912276491059957,-0.045481819272786835,-0.024480979239169292,-0.01814911287467914,0.3559340087161595,-0.46262326021849914,0.016680667226689247,0.0003600144005730556,0.0012000480019196224,0.001200048001921288,0.06216248649946276,-0.17712708508340225,0.1440115206908011,-0.30242419345564003,-0.5616449306956595,0.07200576034454369,-0.4608368662124139,-0.27362188931341774,0.7200576034561029,6.984558753524518,-6.595727647658563,-0.036932999999999994,-0.06393300000000002,-0.057859,0.611177,-0.1782149999999999,0.297317,0.64811,0.11428199999999988,0.355176,0.9721205778443891,0.18712969001541713,single,0.297317
158,1.316667,step_acsent,0.06791456683464736,-0.04859611231101339,-0.029637628989680267,-0.04195289967975716,0.39772078891060947,-0.476324449010593,-0.010679145668347139,-0.008879289656816284,0.00443964482841397,-0.0021598272138250376,-0.027237820974319114,-0.06623470122390121,-0.1449721713405569,-0.37368526976560285,-0.6187484701836976,-3.2829149142112044,-1.1086277966629794,0.38872052153759573,-0.40315277366766256,-10.727178722555939,13.30602158141351,-0.037587999999999955,-0.06360199999999994,-0.057575,0.6105929999999999,-0.1780369999999999,0.297012,0.6481809999999999,0.11443499999999995,0.354587,0.9756988578676111,0.38058476517208606,single,0.297012
159,1.325,step_acsent,0.06120244809792573,-0.04464178567143194,-0.029761190447617963,-0.07471392875339547,0.36913520321646404,-0.4136829398123341,-0.07908316332654293,-0.06204248169928062,-0.010200408016320954,-0.009840393615741239,-0.027601104044169638,-0.11496459858394614,-0.8054864678653177,0.4745381782769096,-0.014827968071246493,-8.208810471402426,-6.379838238625323,-1.7568766164328644,-0.9217048364234095,-0.043595712210551654,-5.847821596069288,-0.03875700000000004,-0.063747,-0.057412000000000005,0.610001,-0.17789499999999991,0.296302,0.6487580000000001,0.11414799999999992,0.35371400000000003,0.8316133369886303,0.3022662198073599,single,0.296302
160,1.333333,step_acsent,0.0669626785071328,-0.050282011280444,-0.03228129125165014,-0.08197004991837886,0.4120675607151953,-0.4699750565215705,0.002520100804037968,-0.019560782431286495,0.012480499219968572,-0.002640105604226763,-0.04200168006719733,-0.03384135365414611,0.6912552993168097,-0.6768541472473254,-0.30242419345159416,9.792783407005818,5.098007832472504,2.721817741064338,0.8640691241466879,-1.7281382482932246,9.735178798727782,-0.03929399999999994,-0.06349099999999996,-0.057039,0.609421,-0.17782599999999993,0.296289,0.6487149999999999,0.11433499999999996,0.35332800000000003,0.9611006291765294,0.40999462202466797,single,0.296289
161,1.341667,step_acsent,0.06671466282697522,-0.054355651547881606,-0.034437245020398494,-0.0681355407187943,0.4141395777765999,-0.47542776301977685,0.012838972882165858,-0.007199424046070329,-0.019678425725941997,0.002759779217662069,-0.038276937844981436,-0.026517878569711474,-0.02975950085884233,-0.4887977282742597,-0.2586937567492672,1.23816559612768,1.483244346678234,-3.85876229252594,0.6479343438791618,0.44693331200095576,0.8787467103953414,-0.03974299999999997,-0.06309799999999988,-0.056916,0.6088880000000001,-0.17769199999999996,0.29635500000000004,0.648631,0.11459400000000008,0.35327100000000006,0.9590423195943687,0.4222550781230201,single,0.29635500000000004
162,1.35,step_acsent,0.0616824672986926,-0.04968198727948004,-0.03408136325453036,-0.11557958230724188,0.40490574939993246,-0.4466848736904713,0.00516020640825807,-0.016560662426493348,0.005520220808831949,0.005640225609026572,-0.03756150246009867,-0.014280571222852954,-0.6038876188986592,0.5608621466940459,0.04270752020498367,-0.9214888364223753,-1.1233935413923983,3.0239585425145212,0.3456673936594807,0.08585568041314681,1.4685356230479187,-0.04021399999999997,-0.06282199999999993,-0.056586,0.6084210000000001,-0.17759100000000005,0.29652,0.6486350000000001,0.11476900000000012,0.35310600000000003,0.9696613508339995,0.4323691940994734,single,0.29652
163,1.358333,step_acsent,0.06276251050042674,-0.05328213128526522,-0.038641545661825503,-0.10710308049212705,0.45423922322999477,-0.47078666984996714,0.0938437537501448,0.02580103204126439,0.041881675267011316,0.00012000480018879799,-0.03204128165125509,0.003960158406336919,0.12961036862284195,-0.4320345620767083,-0.5472437786265675,10.642451379081669,5.083606680398192,4.363549076944643,-0.6624529951803462,0.6624529951810431,2.188975114507385,-0.039955000000000074,-0.06216299999999997,-0.055915000000000006,0.607899,-0.17741399999999985,0.296875,0.647854,0.11525099999999988,0.35279,0.8234086788381815,0.4461911566125458,single,0.296875
164,1.366667,step_acsent,0.05975521958243276,-0.05183585313174762,-0.0373170146388293,-0.10784363496864666,0.41710344898526874,-0.43490488902097313,0.002399808015361153,-0.010799136069105207,0.01007919366450685,-0.003839692824571184,-0.0178785697144306,0.016438684905207245,-0.3608460424758762,0.17353949526248927,0.15893100827888118,-10.972395696518232,-4.3916688397371395,-3.8159925128994745,-0.47512570491480105,1.699389481260425,1.4973033955927801,-0.04043300000000005,-0.061820999999999904,-0.05552,0.607369,-0.17713099999999993,0.297323,0.647802,0.11531000000000002,0.352843,0.9750572564952207,0.4590184032686789,single,0.297323
165,1.375,step_acsent,0.06108244329773027,-0.05256210248409246,-0.03972158886355466,-0.12013997615533235,0.4504612486614145,-0.4456488509939803,0.001560062402501005,-0.01044041761669855,0.010680427217088638,-0.004680187207489692,-0.008760350414015409,0.03396135845434247,0.15927321676437337,-0.0871534084177182,-0.28856044938502157,-0.10077350448339803,0.04304793620624742,0.07215091234630898,-0.10086336048464126,1.094230085253243,2.10280493809377,-0.04092899999999999,-0.061469999999999914,-0.0551,0.606821,-0.17676599999999998,0.297937,0.64775,0.11529600000000007,0.353037,0.9749718136532753,0.4410268008202542,single,0.297937
166,1.383333,step_acsent,0.06840273610944013,-0.05832233289331464,-0.04056162246489956,-0.10972239485980094,0.4713901427358392,-0.5202291593781752,0.004920196807867288,-0.010560422416907333,0.016680667226689247,-0.012960518420736587,-0.005880235209404319,0.025081003240124942,0.8784702762162396,-0.6912552993186409,-0.10080806448396845,0.40323225793427503,-0.01440115207113692,0.7200576034562179,-0.9936794927693472,0.34562764965932036,-1.0656852531162377,-0.041457999999999995,-0.061072000000000015,-0.054623,0.6061430000000001,-0.17632899999999996,0.29848399999999997,0.6476010000000001,0.11525699999999994,0.35310699999999995,0.9660893528118375,0.4519372826581036,single,0.29848399999999997
167,1.391667,step_acsent,0.0731941444684419,-0.0607151427885639,-0.04571634269258334,-0.12409165887253466,0.5505533095012927,-0.5353677475887536,0.0273578113750905,0.0219582433405379,-0.0031197504199661683,-0.011039116870647982,0.0,0.023038156947447087,0.5749230092394688,-0.28711421829244554,-0.6185169459663711,2.692298364197629,3.9019277366744642,-2.375860048794728,0.2305497420312683,0.705571779386162,-0.2451219453657115,-0.04183999999999999,-0.060383000000000076,-0.054268000000000004,0.6054410000000001,-0.17582300000000006,0.299057,0.647281,0.11543999999999999,0.353325,0.941302396023721,0.45742265936430015,single,0.299057
168,1.4,step_acsent,0.07056282251290512,-0.057482299291986394,-0.048241929677187476,-0.10982872667153987,0.571818273643058,-0.47457904831562614,0.006600264010563753,-0.006960278411150132,0.016080643225728605,-0.008400336013442354,0.002640105604220172,0.009120364814588465,-0.31577126551503715,0.3879567378588188,-0.3030825614549575,-2.4910053239561907,-3.4703614246595818,2.304139403059516,0.31666636951945903,0.31682534552024433,-1.6702018640176106,-0.042372999999999994,-0.05996200000000007,-0.05373200000000001,0.6047830000000001,-0.17532199999999998,0.299535,0.6471560000000001,0.11535999999999991,0.353267,0.968792983021841,0.4788709746049977,single,0.299535
169,1.408333,step_acsent,0.06312252490099811,-0.05328213128523715,-0.047521900876035104,-0.13106210267744833,0.5341406229570703,-0.4265688756170696,-0.0769230769230759,-0.062042481699252326,0.008280331213249172,-0.004200168006721065,0.002040081603269466,0.0016800672026897584,-0.892871428285957,0.5040403224227974,0.08640691241477962,-10.023201840110188,-6.610128799724136,-0.9360748844928952,0.5040403224194426,-0.07200576034449722,-0.8928714282849606,-0.04354000000000002,-0.06003500000000006,-0.053266999999999995,0.604222,-0.17486100000000004,0.299945,0.647762,0.11482599999999998,0.353212,0.8347141097663688,0.4917292399183369,single,0.299945
170,1.416667,step_acsent,0.15754739620830738,-0.10607151427887254,-0.11987041036717289,0.08477667122530777,1.7672493414782942,-0.7663608682433557,0.0019198464122889736,-0.02279817614589826,0.03683705303575721,-0.002759779217662069,0.0022798176145898256,-0.011399088072955789,11.330078150625278,-6.334219221698632,-8.681126648804794,9.460393968726466,4.708939951206481,3.426532496101342,0.172832828060838,0.028766020076837543,-1.569373083230837,-0.044837000000000016,-0.059340999999999866,-0.051961,0.602886,-0.17395799999999995,0.300849,0.647723,0.11461700000000008,0.35280999999999996,0.9277271542812053,0.4800867744548004,single,0.300849
171,1.425,step_acsent,0.05748229929197154,-0.04884195367815182,-0.041161646465857446,-0.1684264807243251,0.42139968698446717,-0.4157309636945055,0.0010800432017324612,-0.020400816032641367,0.04140165606624253,-0.0015600624024943019,0.0010800432017191379,-0.01920076803072011,-12.008291961638555,6.867821984965765,9.445429485337101,-0.10078041648343906,0.2876947213796771,0.5477742746292135,0.14397177669119718,-0.14397868869202768,-0.9362390444934819,-0.045306999999999986,-0.05910399999999982,-0.051273,0.602394,-0.17354199999999997,0.30103199999999997,0.647701,0.11443800000000015,0.352305,0.9230538262964384,0.4678428433321092,single,0.30103199999999997
172,1.433333,step_acsent,0.04560182407295565,-0.03876155046200098,-0.03252130085203526,-0.13470807826149,0.3326523592138111,-0.3286773221600765,-0.02520100804032706,-0.12912516500661067,0.006360254410176165,-0.002400096003842576,-0.0009600384015370304,-0.02604104164166197,-1.4257140548441136,1.2096967738090645,1.0368829489766311,-3.153852303139297,-13.047443774627421,-4.205136404184169,-0.1008080644843732,-0.24481958517414937,-0.8208656679397484,-0.045896999999999966,-0.05985700000000005,-0.050948999999999994,0.601994,-0.17322700000000013,0.301086,0.647891,0.11337000000000008,0.352035,0.7804749325855471,0.4563849546746749,single,0.301086
173,1.441667,step_acsent,0.0,0.0,0.0,0.0,0.0,0.0,0.12958963282936906,-0.0254379649628149,0.049676025917925914,-0.0008399328053730732,-0.005039596832251761,-0.026517878569717428,-5.471781146262935,4.651013974322136,3.9022439227303827,18.573391033080746,12.441468687760375,5.197476782787307,0.1872046074477431,-0.48950785105767936,-0.0572158540983265,-0.044816999999999996,-0.06006900000000015,-0.050535,0.601987,-0.17326900000000012,0.300865,0.646804,0.11319999999999997,0.3514,0.7648388817728805,0.4549907136992986,single,0.300865
174,1.45,step_acsent,0.0,0.0,0.0,0.0,0.0,0.0,0.011520460818431041,0.007080283211332268,0.04356174246969945,-0.0009600384015370304,-0.012120484819381692,-0.02988119524781009,0.0,0.0,0.0,-14.168867396008531,3.9023458747326853,-0.7337433635217229,-0.014413248069597779,-0.8497405480775225,-0.40361414593696077,-0.04472100000000001,-0.06001000000000012,-0.050171999999999994,0.601979,-0.17337000000000002,0.300616,0.6467,0.1133599999999999,0.350788,0.9239795927468213,0.4462331769110811,single,0.300616
175,1.458333,step_acsent,0.0,0.0,0.0,0.0,0.0,0.0,-0.09048361934476278,-0.028081123244937403,0.12048481939277336,-0.0006000240009639587,-0.010560422416907052,-0.040921636865471525,0.0,0.0,0.0,-12.240979258753393,-4.219537556254537,9.231138476307759,0.04320345620701612,0.1872149768960293,-1.3249059903589633,-0.04547499999999993,-0.060244000000000186,-0.049167999999999996,0.601974,-0.1734580000000001,0.300275,0.6474489999999999,0.11321399999999993,0.349443,0.744546011119775,0.429555717167262,single,0.300275
176,1.466667,step_acsent,0.0,0.0,0.0,0.0,0.0,0.0,-0.009479241660673477,-0.007679385649129251,0.07259419246460437,0.000719942404608365,-0.022438204943597405,-0.051355891528676756,0.0,0.0,0.0,9.719747742271519,2.448012670483386,-5.746415518138937,0.15838329800484147,-1.4252198856120204,-1.2520103987527513,-0.04555399999999998,-0.06030800000000003,-0.048562999999999995,0.60198,-0.17364500000000005,0.29984700000000003,0.647534,0.11333700000000002,0.34841,0.8773131157286349,0.4065860622928777,single,0.29984700000000003
177,1.475,step_acsent,0.0,0.0,0.0,0.0,0.0,0.0,-0.03636145445817075,-0.0006000240009639587,0.10332413296531688,0.0063602544101793255,-0.022680907236288423,-0.034441377655110066,0.0,0.0,0.0,-3.225994575482636,0.8495573800750231,3.687740369700225,0.6768645152491133,-0.02912544014052729,2.029822857742277,-0.045856999999999926,-0.06031300000000006,-0.047701999999999994,0.602033,-0.17383400000000004,0.29956,0.64789,0.11352099999999998,0.34726199999999996,0.8174380481700204,0.43045615124243874,single,0.29956
178,1.483333,step_acsent,0.0,0.0,0.0,0.0,0.0,0.0,-0.04560182407296897,-0.03924156966278281,0.08088323532941404,0.003120124804988687,-0.0014400576023055455,-0.057842313692546124,0.0,0.0,0.0,-1.1088887093241693,-4.637170966256956,-2.693015436925843,-0.38883110586711483,2.5490039162346183,-2.808224653478492,-0.04623699999999997,-0.06064000000000003,-0.04702799999999999,0.602059,-0.17384600000000006,0.299078,0.648296,0.11320600000000003,0.346106,0.8319926844703347,0.40342616241670065,single,0.299078
179,1.491667,step_acsent,0.0,0.0,0.0,0.0,0.0,0.0,-0.023278137748983203,-0.05231581473483317,0.06347492200623922,0.0005999520038436186,-0.018118550515960053,-0.03347732181425811,0.0,0.0,0.0,2.678628068632781,-1.5687839059335562,-2.0888304923415744,-0.3023965444138528,-2.0012590489146125,2.923565140183325,-0.046431,-0.06107600000000013,-0.04649899999999999,0.602064,-0.17399700000000007,0.298799,0.648495,0.11292099999999994,0.345298,0.8575230828429452,0.43654894950826456,single,0.298799
180,1.5,step_acsent,0.0,0.0,0.0,0.0,0.0,0.0,-0.05148205928237329,-0.011280451218053445,0.07140285611424502,-0.008160326413058097,-0.013800552022078158,-0.017280691227646562,0.0,0.0,0.0,-3.384605968245571,4.924440599637597,0.9513901485666469,-1.0512754610466575,0.5181805464876917,1.9436734173300967,-0.04686000000000001,-0.06117000000000017,-0.04590399999999999,0.601996,-0.17411200000000004,0.298655,0.6488560000000001,0.11294199999999988,0.344559,0.8520884379387067,0.4607122986240181,single,0.298655
181,1.508333,step_acsent,0.0,0.0,0.0,0.0,0.0,0.0,0.04152166086644325,0.01260050402016353,0.034081363254530435,-0.0073202928117165255,-0.014280571222846672,-0.016320652826116194,0.0,0.0,0.0,11.16089285357223,2.8658292617565335,-4.47875829349753,0.10080806448356885,-0.05760460827655334,0.11520921655230729,-0.046513999999999944,-0.06106500000000015,-0.045619999999999994,0.601935,-0.17423100000000002,0.298519,0.6484489999999999,0.11316599999999988,0.344139,0.9080404626425698,0.4618524389169475,single,0.298519
182,1.516667,step_acsent,0.0,0.0,0.0,0.0,0.0,0.0,0.0004799616030722306,-0.037556995440365414,0.042836573074153284,-0.00863930885528683,-0.00767938564915569,-0.012958963282936905,0.0,0.0,0.0,-4.92460994280906,-6.018418461786484,1.0505411350639287,-0.15826926368734026,0.7920789025307094,0.4033704755434681,-0.04650999999999994,-0.061378000000000155,-0.045263,0.601863,-0.1742950000000001,0.298411,0.648373,0.11291699999999993,0.343674,0.9050478152146313,0.47105823131729263,single,0.298411
183,1.525,step_acsent,0.0,0.0,0.0,0.0,0.0,0.0,-0.017520700828044144,-0.07560302412095454,0.02856114244569834,-0.003960158406336919,-0.002640105604220172,-0.010320412816509753,0.0,0.0,0.0,-2.1601658983699195,-4.565706069913534,-1.7131202002226178,0.5615205146945822,0.6047377949040638,0.31663872152012196,-0.04665600000000003,-0.06200800000000006,-0.045024999999999996,0.6018300000000001,-0.17431700000000006,0.298325,0.6484860000000001,0.11230899999999999,0.34335,0.8621743142836764,0.4810582814263877,single,0.298325
184,1.533333,step_acsent,0.0,0.0,0.0,0.0,0.0,0.0,-0.014520580823223881,-0.0714028561142581,0.02652106084243311,0.0038401536061413574,-0.01032041281651614,-0.003960158406336814,0.0,0.0,0.0,0.3600288017304944,0.5040403224164606,-0.24481958517523056,0.9360748844927566,-0.921673732424797,0.7632610596631259,-0.04677699999999996,-0.06260300000000019,-0.044804,0.601862,-0.17440300000000009,0.298292,0.648639,0.1117999999999999,0.343096,0.8707652674294941,0.4804963995471099,single,0.298292
185,1.541667,step_acsent,0.0,0.0,0.0,0.0,0.0,0.0,-0.030837532997368324,-0.06575473962083074,0.0448764098872098,0.010679145668347424,-0.011879049676021372,-0.006599472042233355,0.0,0.0,0.0,-1.9578776306869157,0.6777197616303661,2.202465688118195,0.8206133983928721,-0.18702146142371742,-0.3166923009235171,-0.04703400000000002,-0.06315100000000018,-0.04443,0.601951,-0.17450200000000005,0.29823700000000003,0.648985,0.11135099999999987,0.34266700000000005,0.8577118398349879,0.47119466655059117,single,0.29823700000000003
