frame_id,timestamp,gait_type,root_linear_velocity_x,root_linear_velocity_y,root_linear_velocity_z,root_angular_velocity_x,root_angular_velocity_y,root_angular_velocity_z,left_linear_velocity_x,left_linear_velocity_y,left_linear_velocity_z,right_linear_velocity_x,right_linear_velocity_y,right_linear_velocity_z,root_acceleration_x,root_acceleration_y,root_acceleration_z,left_acceleration_x,left_acceleration_y,left_acceleration_z,right_acceleration_x,right_acceleration_y,right_acceleration_z,left_pos_rel_x,left_pos_rel_y,left_pos_rel_z,right_pos_rel_x,right_pos_rel_y,right_pos_rel_z,step_length,step_width,step_height,left_contact_prob,right_contact_prob,support_type,max_foot_height
<<<<<<< HEAD
<<<<<<< HEAD
1,0.008333,step_acsent,-0.06576263050521935,-0.044881795271809126,0.13752550102003844,-1.2572022046141322,-1.4305061406364257,0.14990066040555486,0.009000360014406246,-0.0014400576022922092,0.006840273610944617,0.017160686427457605,-0.9534381375254852,-0.1356054242169694,0.0,0.0,0.0,0.0,0.0,0.0,0.0,0.0,0.0,-0.07658900000000002,-0.08840799999999993,-0.921747,0.153752,0.07797200000000004,-0.889632,0.23034100000000002,0.16637999999999997,0.032115000000000005,0.9810066101147862,0.17885000000000006,single,-0.889632
2,0.016667,step_acsent,-0.03191744660427027,-0.07559395248380361,0.03491720662346174,0.242949277253882,-0.2780392505227734,-0.009209299330426145,0.008879289656829673,-0.0008399328053864011,0.006119510439165158,0.024238060955127844,-1.0421166306695528,-0.08387329013678967,4.061097180339463,-3.685164052315153,-12.312010366759862,-0.01452728072673067,0.07200921489150565,-0.0864846618405878,0.8492170059599516,-10.640567931853564,6.207359500861497,-0.07624900000000001,-0.087785,-0.9219869999999999,0.15422000000000002,0.069917,-0.8906219999999999,0.23046900000000003,0.157702,0.031364999999999976,0.9819725764503002,0.18635000000000013,single,-0.8906219999999999
3,0.025,step_acsent,-0.10200408016320861,-0.13224528981158482,-0.02268090723628882,0.1408515647593054,-0.6458946719687331,0.08436725481389011,0.006240249609977317,0.0007200288011594278,0.004560182407295856,0.03360134405374246,-0.95163806552262,-0.12300492019680764,-8.410732456370857,-6.798432416630409,-6.912050145175874,-0.3166974735212235,0.1872028809007355,-0.18712684889827216,1.1236389173904495,10.857862132117228,-4.695983446540019,-0.07534700000000005,-0.086677,-0.9217599999999999,0.15534999999999988,0.06308899999999995,-0.891458,0.23069699999999993,0.14976599999999995,0.03030199999999994,0.9870627132055,0.19698000000000004,single,-0.891458
4,0.033333,step_acsent,-0.02964118564742556,-0.11352454098163955,-0.011520460818430936,-0.17185541070834817,-0.3431918882262337,0.1459413478513803,0.004440177607112055,0.003600144005757169,0.0007200288011519335,0.043561742469712374,-0.9602784111364532,-0.10992439697587905,8.683894697681874,2.2465797227823425,1.3393071424286431,-0.21601728103507278,0.34562764965771525,-0.46083686621191916,1.1952956217412594,-1.0368829489779432,1.5697255755344524,-0.07506299999999999,-0.08570100000000003,-0.921658,0.15596,0.05603299999999989,-0.892278,0.23102299999999998,0.14173399999999992,0.02937999999999996,0.9903975327939787,0.20620000000000005,single,-0.892278
5,0.041667,step_acsent,-0.0439164866810628,-0.15826733861291936,-0.09215262778977572,-1.1934967654744708,-0.38999314425017223,0.2421669792577097,0.0013198944084453137,0.002039836813060326,-0.0015598752099830959,0.06743460523157564,-0.942404607631366,-0.24430045596352243,-1.7128990921090999,-5.368706219256036,-9.675086029678999,-0.3744040315174875,-0.18722188537279133,-0.2735665960085228,2.86451437027397,2.144684845822793,-16.123837171543478,-0.07468600000000003,-0.08436499999999991,-0.920903,0.15688799999999992,0.04949800000000015,-0.893546,0.23157399999999995,0.13386300000000007,0.027357000000000076,0.9951879012016928,0.22643000000000002,single,-0.893546
6,0.05,step_acsent,0.011640465618626394,-0.14268570742829662,0.04140165606624741,1.683071100581427,0.5500292174064674,-0.03051571408791567,-0.0025201008040380123,0.0022800912036470954,-0.0019200768030723776,0.0422416896676023,-0.9473178927157168,-0.1724468978759143,6.667100960001104,1.8698705369762085,16.027155148928735,-0.46081785821232757,0.028831680137617857,-0.04322592020752211,-3.0232707985087415,-0.5896177948338819,8.62277188138823,-0.07480400000000009,-0.08315699999999993,-0.921264,0.15714300000000003,0.04279300000000008,-0.895328,0.23194700000000013,0.12595,0.02593599999999996,0.9934943573873738,0.24063999999999997,single,-0.895328
7,0.058333,step_acsent,0.012480499219967956,-0.05436217448697056,0.03768150726029479,0.12601171923985585,-0.12451995956439453,0.21918639849624072,-0.003360134405366252,0.003840153606134763,-0.001440057602303867,0.07476299051959896,-0.9911196447857934,-0.2265690627625106,0.10080806448356679,10.599247922876042,-0.4464357141428805,-0.10080806448196805,0.187214976897596,0.057604608276552345,3.9027122107280285,-5.256420505229405,-6.494919583174883,-0.074936,-0.08267200000000008,-0.92159,0.15766199999999986,0.03498699999999999,-0.89753,0.23259799999999986,0.11765900000000007,0.02405999999999997,0.9911633577205811,0.25939999999999996,single,-0.89753
8,0.066667,step_acsent,0.01559875209982763,-0.09515238780898051,-0.00659947204223989,0.13344819221754112,0.050728641691164075,0.010073330710631533,-0.0063594912407104335,0.002399808015361171,0.0021598272138233887,0.04883609311255654,-0.9876409887209141,-0.23914086873050255,0.3741604127501407,-4.8944340439176806,-5.313292452907928,-0.35989402871900417,-0.1728276446812565,0.43195162180552615,-3.110978810540247,0.4174053353586864,-1.5084960364761164,-0.07511900000000005,-0.08185900000000002,-0.921517,0.15793899999999994,0.027548999999999935,-0.899468,0.233058,0.10940799999999995,0.022048999999999985,0.9881131420672478,0.2795100000000001,single,-0.899468
9,0.075,step_acsent,0.016320652826116056,-0.1108844353774195,0.006720268810745833,-0.08045742652278584,-0.21875429102408198,0.06581502623949054,-0.010800432017271516,0.005520220808831217,0.0019200768030715467,0.03804152166088119,-0.9710788431537122,-0.20268810752430066,0.08663155241670789,-1.8879212250616828,1.598432839671875,-0.5329342105557526,0.37446451379695767,-0.02877120013822659,-1.2954003902166513,1.9875369695430143,4.37450632499723,-0.075345,-0.08088899999999999,-0.921557,0.15812000000000004,0.020381000000000093,-0.9012129999999999,0.23346500000000003,0.10127000000000008,0.02034400000000003,0.9795326232161974,0.29656,single,-0.9012129999999999
=======
=======
>>>>>>> 3b0d06690e55fb02323d988053aa126fb7c3a6e7
1,0.008333,stand,-0.06576263050521935,-0.044881795271809126,0.13752550102003844,-1.2572022046141322,-1.4305061406364257,0.14990066040555486,0.009000360014406246,-0.0014400576022922092,0.006840273610944617,0.017160686427457605,-0.9534381375254852,-0.1356054242169694,0.0,0.0,0.0,0.0,0.0,0.0,0.0,0.0,0.0,-0.07658900000000002,-0.08840799999999993,-0.921747,0.153752,0.07797200000000004,-0.889632,0.23034100000000002,0.16637999999999997,0.032115000000000005,0.9810066101147862,0.17885000000000006,single,-0.889632
2,0.016667,stand,-0.03191744660427027,-0.07559395248380361,0.03491720662346174,0.242949277253882,-0.2780392505227734,-0.009209299330426145,0.008879289656829673,-0.0008399328053864011,0.006119510439165158,0.024238060955127844,-1.0421166306695528,-0.08387329013678967,4.061097180339463,-3.685164052315153,-12.312010366759862,-0.01452728072673067,0.07200921489150565,-0.0864846618405878,0.8492170059599516,-10.640567931853564,6.207359500861497,-0.07624900000000001,-0.087785,-0.9219869999999999,0.15422000000000002,0.069917,-0.8906219999999999,0.23046900000000003,0.157702,0.031364999999999976,0.9819725764503002,0.18635000000000013,single,-0.8906219999999999
3,0.025,stand,-0.10200408016320861,-0.13224528981158482,-0.02268090723628882,0.1408515647593054,-0.6458946719687331,0.08436725481389011,0.006240249609977317,0.0007200288011594278,0.004560182407295856,0.03360134405374246,-0.95163806552262,-0.12300492019680764,-8.410732456370857,-6.798432416630409,-6.912050145175874,-0.3166974735212235,0.1872028809007355,-0.18712684889827216,1.1236389173904495,10.857862132117228,-4.695983446540019,-0.07534700000000005,-0.086677,-0.9217599999999999,0.15534999999999988,0.06308899999999995,-0.891458,0.23069699999999993,0.14976599999999995,0.03030199999999994,0.9870627132055,0.19698000000000004,single,-0.891458
4,0.033333,stand,-0.02964118564742556,-0.11352454098163955,-0.011520460818430936,-0.17185541070834817,-0.3431918882262337,0.1459413478513803,0.004440177607112055,0.003600144005757169,0.0007200288011519335,0.043561742469712374,-0.9602784111364532,-0.10992439697587905,8.683894697681874,2.2465797227823425,1.3393071424286431,-0.21601728103507278,0.34562764965771525,-0.46083686621191916,1.1952956217412594,-1.0368829489779432,1.5697255755344524,-0.07506299999999999,-0.08570100000000003,-0.921658,0.15596,0.05603299999999989,-0.892278,0.23102299999999998,0.14173399999999992,0.02937999999999996,0.9903975327939787,0.20620000000000005,single,-0.892278
5,0.041667,stand,-0.0439164866810628,-0.15826733861291936,-0.09215262778977572,-1.1934967654744708,-0.38999314425017223,0.2421669792577097,0.0013198944084453137,0.002039836813060326,-0.0015598752099830959,0.06743460523157564,-0.942404607631366,-0.24430045596352243,-1.7128990921090999,-5.368706219256036,-9.675086029678999,-0.3744040315174875,-0.18722188537279133,-0.2735665960085228,2.86451437027397,2.144684845822793,-16.123837171543478,-0.07468600000000003,-0.08436499999999991,-0.920903,0.15688799999999992,0.04949800000000015,-0.893546,0.23157399999999995,0.13386300000000007,0.027357000000000076,0.9951879012016928,0.22643000000000002,single,-0.893546
6,0.05,stand,0.011640465618626394,-0.14268570742829662,0.04140165606624741,1.683071100581427,0.5500292174064674,-0.03051571408791567,-0.0025201008040380123,0.0022800912036470954,-0.0019200768030723776,0.0422416896676023,-0.9473178927157168,-0.1724468978759143,6.667100960001104,1.8698705369762085,16.027155148928735,-0.46081785821232757,0.028831680137617857,-0.04322592020752211,-3.0232707985087415,-0.5896177948338819,8.62277188138823,-0.07480400000000009,-0.08315699999999993,-0.921264,0.15714300000000003,0.04279300000000008,-0.895328,0.23194700000000013,0.12595,0.02593599999999996,0.9934943573873738,0.24063999999999997,single,-0.895328
7,0.058333,stand,0.012480499219967956,-0.05436217448697056,0.03768150726029479,0.12601171923985585,-0.12451995956439453,0.21918639849624072,-0.003360134405366252,0.003840153606134763,-0.001440057602303867,0.07476299051959896,-0.9911196447857934,-0.2265690627625106,0.10080806448356679,10.599247922876042,-0.4464357141428805,-0.10080806448196805,0.187214976897596,0.057604608276552345,3.9027122107280285,-5.256420505229405,-6.494919583174883,-0.074936,-0.08267200000000008,-0.92159,0.15766199999999986,0.03498699999999999,-0.89753,0.23259799999999986,0.11765900000000007,0.02405999999999997,0.9911633577205811,0.25939999999999996,single,-0.89753
8,0.066667,stand,0.01559875209982763,-0.09515238780898051,-0.00659947204223989,0.13344819221754112,0.050728641691164075,0.010073330710631533,-0.0063594912407104335,0.002399808015361171,0.0021598272138233887,0.04883609311255654,-0.9876409887209141,-0.23914086873050255,0.3741604127501407,-4.8944340439176806,-5.313292452907928,-0.35989402871900417,-0.1728276446812565,0.43195162180552615,-3.110978810540247,0.4174053353586864,-1.5084960364761164,-0.07511900000000005,-0.08185900000000002,-0.921517,0.15793899999999994,0.027548999999999935,-0.899468,0.233058,0.10940799999999995,0.022048999999999985,0.9881131420672478,0.2795100000000001,single,-0.899468
9,0.075,stand,0.016320652826116056,-0.1108844353774195,0.006720268810745833,-0.08045742652278584,-0.21875429102408198,0.06581502623949054,-0.010800432017271516,0.005520220808831217,0.0019200768030715467,0.03804152166088119,-0.9710788431537122,-0.20268810752430066,0.08663155241670789,-1.8879212250616828,1.598432839671875,-0.5329342105557526,0.37446451379695767,-0.02877120013822659,-1.2954003902166513,1.9875369695430143,4.37450632499723,-0.075345,-0.08088899999999999,-0.921557,0.15812000000000004,0.020381000000000093,-0.9012129999999999,0.23346500000000003,0.10127000000000008,0.02034400000000003,0.9795326232161974,0.29656,single,-0.9012129999999999
<<<<<<< HEAD
>>>>>>> 3b0d06690e55fb02323d988053aa126fb7c3a6e7
=======
>>>>>>> 3b0d06690e55fb02323d988053aa126fb7c3a6e7
10,0.083333,step_acsent,0.040201608064319445,-0.0680427217088664,0.008640345613833186,0.1863141189751098,0.004789844390653326,-0.049768675032991705,-0.01872074882995858,0.0028801152046110624,0.00012000480019212759,0.007320292811696468,-0.9709588383535418,-0.21552862114484633,2.8658292617548744,5.1412112886779155,0.23041843310780652,-0.9504760365639093,-0.31682534552023905,-0.2160172810367716,-3.686694929699352,0.014401152066528403,-1.5409232713963348,-0.07583600000000001,-0.08029799999999998,-0.921628,0.15784599999999993,0.012857000000000007,-0.903081,0.23368199999999995,0.09315499999999999,0.01854699999999998,0.9684310322249181,0.3145300000000001,single,-0.903081
11,0.091667,step_acsent,0.03383729301655924,-0.06359491240699781,0.005399568034552648,0.07237469064145227,0.03303646870353132,0.28357413168899565,-0.023278137748983397,0.007679385649155754,-0.0007199424046075193,-0.21958243340532752,-1.2031437485001217,-0.08975281977441711,-0.76365671319417,0.5336944206705766,-0.3888622005376219,-0.5468429228491505,0.5758663840346406,-0.10078560172781946,-27.22614905411857,-27.85996042075595,15.091888813346447,-0.07631200000000005,-0.079704,-0.921679,0.15573399999999993,0.0033599999999999186,-0.903874,0.23204599999999997,0.08306399999999992,0.01780500000000007,0.9591288278015524,0.32194999999999996,single,-0.903874
12,0.1,step_acsent,0.036961478459135326,-0.130325213008524,-0.029761190447620996,-0.25563734166879487,-0.08550896186488367,-0.060687057508580916,-0.02496099843993589,0.008880355214197458,-0.008880355214208283,0.05076203048122667,-0.8145925837033494,-0.26137045481819243,0.3749172497991223,-8.007956390438755,-4.219459796252684,-0.20195136096873792,0.14412211268951194,-0.9792887087004388,32.44263337172134,46.62800489580847,-20.594940002853132,-0.07682800000000001,-0.07854400000000006,-0.921505,0.15584900000000002,-0.0023420000000000663,-0.9058039999999999,0.23267700000000002,0.07620199999999999,0.015701000000000076,0.9534294781904988,0.34299,single,-0.9058039999999999
13,0.108333,step_acsent,0.04716188647545626,-0.10404416176647821,-0.030841233649340206,0.21937515644840255,0.24472135784510934,-0.058667343850889564,-0.013800552022078041,0.01080043201728484,-0.013920556822273502,-0.0470418816752608,-0.8510740429617176,-0.20340813632545343,1.2240979258755478,3.153852303137624,-0.12961036862105016,1.3393071424286402,0.23041843310781043,-0.6048483869033029,-11.736938936335958,-4.377950229013349,6.955756449386661,-0.07733599999999996,-0.07758699999999996,-0.9213640000000001,0.1550640000000001,-0.008566999999999991,-0.907242,0.23240000000000005,0.06901999999999997,0.014122000000000079,0.9626991782144363,0.35878,single,-0.907242
14,0.116667,step_acsent,0.024118070554356434,-0.11879049676025132,-0.061195104391649865,-0.10690691360161139,0.2793020716091479,0.19938205851959656,-0.02459803215742867,0.006599472042239885,-0.008519318454522992,-0.07559395248381688,-0.7600191984641163,-0.14074874010079186,-2.7650367075953683,-1.76941864576111,-3.6421731152279375,-1.295593968724576,-0.504074871015713,0.6480967563895493,-3.4259744190732007,10.925707283129503,7.518526064874192,-0.07774199999999998,-0.076542,-0.920925,0.15423299999999995,-0.013911000000000007,-0.907905,0.23197499999999993,0.06263099999999999,0.013020000000000032,0.9552415431894034,0.3698,single,-0.907905
15,0.125,step_acsent,0.04296171846874844,-0.1065642625705029,-0.05664226569063103,-0.1911073166581405,0.29315323428752826,0.1660531255137664,-0.020520820832837197,0.003720148805952631,-0.003600144005760503,-0.04500180007200462,-0.5135005400216052,-0.15048601944077752,2.2613282028551565,1.4672067910414526,0.5463624986222058,0.48928493034819104,-0.34553260965885707,0.5903245468333725,3.6712051376229793,29.583422349995356,-1.1685202616087453,-0.07827100000000009,-0.075623,-0.9204829999999999,0.15349999999999986,-0.01730200000000004,-0.908687,0.23177099999999995,0.058320999999999956,0.011795999999999918,0.964727070828008,0.38204,single,-0.908687
16,0.133333,step_acsent,0.06012240489619264,-0.12948517940718243,-0.05784231369254555,0.24992889634089027,0.5261420113281086,0.002330331702473201,-0.014400576023041988,0.0030001200047931973,-0.004920196807872235,-0.017880715228603697,-0.30409216368653824,-0.10104404176167067,2.0593647458831374,-2.7506200452033496,-0.14401152069056983,0.7344587555256454,-0.08640691241562859,-0.15841267276031812,3.254660367622813,25.130010360622435,5.933274652478916,-0.07889200000000007,-0.074519,-0.920042,0.15284999999999993,-0.018756999999999913,-0.909047,0.231742,0.05576200000000009,0.010994999999999977,0.9741486274560192,0.39005,single,-0.909047
17,0.141667,step_acsent,0.05855531557474611,-0.08735301175905359,-0.05903527717783167,0.04245738027521881,0.4480481187489853,-0.02838111297175754,-0.010679145668347247,-0.0002399808015294569,-0.003479721622270376,0.015358771298311532,-0.056395488360941035,-0.05219582433405315,-0.18803567571952645,5.055455681320967,-0.14314416670099891,0.4465359196897949,-0.38878099427917706,0.17284319481663815,3.9884193096850624,29.721223341204436,5.8613171859392414,-0.07946900000000001,-0.073793,-0.9195789999999999,0.15249000000000013,-0.018499000000000043,-0.90899,0.23195900000000014,0.055293999999999954,0.01058899999999996,0.9812761140696807,0.7635051353512115,double,-0.90899
18,0.15,step_acsent,0.08064322572902981,-0.05772230889236341,-0.053042121684860444,-0.15386207880925135,0.6044472496711603,0.08851711155870676,-0.002520100804024687,0.0021600864034516352,-0.004200168006720302,-0.005400216008649072,0.07956318252731065,-0.04752190087603506,2.6506552447238305,3.555826577065901,0.7192074274536447,0.9791245487006542,0.288019585381146,-0.08645702441496764,-2.4911781239602284,16.315693134315563,0.5608932506921974,-0.08016199999999996,-0.07329399999999997,-0.919172,0.15177300000000005,-0.0173549999999999,-0.908944,0.231935,0.05593900000000007,0.010228000000000015,0.9910777599011267,0.7429998816349168,double,-0.908944
19,0.158333,step_acsent,0.07284291371655151,-0.11148445937836995,-0.029401176047047946,0.10700992545393047,0.5780324136358811,-0.012641755443661121,-0.0026401056042201455,0.0009600384015370207,0.0018000720028802486,-0.06360254410175435,0.19212768510739975,-0.03768150726029059,-0.9360748844927749,-6.4517161269658585,2.837026957615802,-0.014401152069537784,-0.14401152069058124,0.7200576034562037,-6.9845587535227684,13.508280640836313,1.1808944696681223,-0.08079099999999995,-0.072357,-0.918912,0.1506360000000001,-0.014824999999999977,-0.909013,0.23142700000000005,0.05753200000000003,0.009898999999999991,0.9944392020583039,0.557910455850755,double,-0.909013
20,0.166667,step_acsent,0.04163666906647299,-0.10763138948884518,-0.057955363570915616,-0.14404493601509755,0.21263342094426313,-0.011076887787723217,-0.00011999040077138885,-0.0015598752099880903,0.0028797696184300722,-0.10727141828655766,0.19534437245019934,-0.07151427885769124,-3.744449802025257,0.4623314002309539,-3.4262284045917495,0.30238963324319107,-0.3023654441474813,0.12955334959801088,-5.23984571451923,0.38597160340767783,-4.059607823062229,-0.08113899999999996,-0.07147300000000001,-0.9184049999999999,0.14939499999999994,-0.012299999999999978,-0.909126,0.2305339999999999,0.05917300000000003,0.009278999999999926,0.9945378368595488,0.5171214306065741,double,-0.909126
21,0.175,step_acsent,0.03492139685587927,-0.10428417136685597,-0.039241569662782555,-0.20801091690443715,0.211654832677651,0.09185672592700084,0.002640105604220154,0.0002400096003909176,0.0021600864034566386,-0.09504380175205879,0.10680427217089399,-0.0320412816512657,-0.8058648998672427,0.40168224192838325,2.245745098779924,0.33122476958976954,0.215994817038163,-0.08636544041442883,1.4673726790470303,-10.62523704299839,4.736949142736786,-0.08140800000000004,-0.07060199999999994,-0.91806,0.148312,-0.010540999999999912,-0.9090659999999999,0.22972000000000004,0.06006100000000003,0.008994000000000058,0.9943006492864652,0.6658656299260385,double,-0.9090659999999999
22,0.183333,step_acsent,0.043081723268930505,-0.10944437777510045,-0.0382815312612454,-0.1474216679225628,0.4097363823484636,-0.01006521951564233,0.006480259210368228,-0.003000120004806521,-0.00012000480019212759,-0.033721348853951214,0.041881675267002566,-0.024960998439938393,0.9792783406997753,-0.619249538970896,0.11520921655312051,0.46083686621241704,-0.388831105867927,-0.2736218893134243,7.3589887073211955,-7.79102326939774,0.8496679720781591,-0.08171300000000004,-0.06971500000000008,-0.9177420000000001,0.14767200000000003,-0.009280000000000066,-0.9089550000000001,0.22938500000000006,0.060435000000000016,0.00878699999999999,0.9880965830502246,0.8133280722351373,double,-0.9089550000000001
23,0.191667,step_acsent,0.057955363570915616,-0.10295176385889424,-0.03131749460043994,-0.25116563572589523,0.20224502777545203,-0.13341238706266695,0.005759539236866806,0.0011999040076872453,0.0025197984161267296,0.05231581473480688,-0.033237341012715554,0.013078953683705883,1.7846940607133546,0.7790513458370782,0.8356175498926628,-0.08647947846189367,0.5039625644940919,0.31675104587459263,10.323633739951765,-9.01356086869667,4.564429100509268,-0.082148,-0.06884699999999999,-0.9174599999999999,0.1476249999999999,-0.008699000000000012,-0.908585,0.2297729999999999,0.06014799999999998,0.008874999999999966,0.989333145065908,0.80567321990315,double,-0.908585
24,0.2,step_acsent,0.03732149285970838,-0.10164406576263547,-0.004440177607098729,0.12589521746429885,0.3809981069869436,0.12340196795721141,0.04380175207007661,-0.006480259210368228,0.01872074882995275,0.06336253450139008,-0.06540261610464625,0.012600504020160906,-2.476163531886142,0.1569300487530013,3.225407055483162,4.565248149911169,-0.921656452424753,1.944191817331814,1.325659398365918,-3.859987410528101,-0.057416256275648156,-0.082094,-0.06805399999999995,-0.917267,0.14784200000000003,-0.008396999999999988,-0.908443,0.22993600000000003,0.05965699999999996,0.008824000000000054,0.9198776338516412,0.7585436889183059,double,-0.908443
25,0.208333,step_acsent,0.05028201128045833,-0.10632425297011215,-0.019200768030727157,0.005164497375618793,0.4082843971235098,-0.10445605354397701,0.014280571222846577,-0.004680187207489661,0.0061202448097926986,0.04884195367815279,-0.054602184087361616,0.015480619224768689,1.555324423466937,-0.5616449306944304,-1.771341704503596,-3.542683409003973,0.21601728103667014,-1.5121209672579004,-1.7425394003644936,1.2961036862216078,0.3456276496589212,-0.08239400000000008,-0.06720700000000002,-0.917056,0.14783000000000002,-0.007966000000000029,-0.9081539999999999,0.2302240000000001,0.05924099999999999,0.008902000000000077,0.9729559894041142,0.7861847842152857,double,-0.9081539999999999
26,0.216667,step_acsent,0.06419486441084134,-0.03659707223422119,0.05303575713943521,0.8219339675170783,0.3442240266324687,-0.1872021129808787,0.014278857691395625,-0.005279577633794572,0.004439644828413999,0.0529157667386505,0.013798896088310069,-0.005879529637629036,1.6694088229401238,8.366592360918034,8.667689605251056,-0.0002056073255281212,-0.07192109746879181,-0.20165586529622,0.4888184617827817,8.207473023238736,-2.5630128224619275,-0.08280999999999994,-0.06694600000000006,-0.917461,0.14773599999999998,-0.007546000000000053,-0.908645,0.23054599999999992,0.05940000000000001,0.008815999999999935,0.97357031534404,0.8201724731622932,double,-0.908645
27,0.225,step_acsent,0.060482419296779014,-0.05628225129005788,0.04104164166566101,0.39060081291585064,0.3529185162532505,0.08176357908270333,0.014040561622455613,-0.007680307212282843,0.008640345613824027,0.028441137645510924,0.05292211688467831,-0.008760350414016155,-0.44551123413684396,-2.362315979339574,-1.4393514309101392,-0.028596672139687047,-0.28809907338152757,0.5041042584195397,-2.93707297409571,4.694974294535966,-0.3457123216593203,-0.08319700000000008,-0.06654099999999996,-0.917731,0.14746899999999996,-0.006635999999999975,-0.90906,0.23066600000000004,0.059904999999999986,0.008670999999999984,0.9696877334201268,0.8120972177378631,double,-0.90906
28,0.233333,step_acsent,0.0625225009000352,-0.07320292811712456,0.03996159846394185,0.4047994759591907,-0.04137153788693004,0.12232662923726641,0.011280451218053333,-0.004440177607112052,0.011400456018241297,0.018840753630140716,0.04620184807391916,0.015960638425536317,0.2448195851741484,-2.03056244174567,-0.1296103686210437,-0.3312264975881769,0.38883110586472924,0.33122649758997574,-1.1520921655310452,-0.8064645158717321,2.9666373262393435,-0.08362400000000003,-0.06596800000000003,-0.917969,0.14710499999999993,-0.005641000000000007,-0.90926,0.23072899999999996,0.06032700000000002,0.008709000000000078,0.9722644354718915,0.8255994631892087,double,-0.90926
29,0.241667,step_acsent,0.02795776337892108,-0.08531317494600658,0.058315334773216654,0.19495648662973417,-0.22547974419500466,0.2686550371580136,0.011039116870648092,-0.004319654427636797,0.0093592512598986,0.023158147348225366,0.025197984161272377,0.01907847372210304,-4.1474367075970955,-1.4531133703962145,2.2022721753389543,-0.028957805064223855,0.014461624607062063,-0.244924977002964,0.5180458025059588,-2.5202620485537355,0.37411030676346646,-0.08376499999999998,-0.06529299999999993,-0.918377,0.1470650000000001,-0.0047199999999999465,-0.9095869999999999,0.2308300000000001,0.06057299999999999,0.008790000000000076,0.974827423442037,0.8467967255806752,double,-0.9095869999999999
30,0.25,step_acsent,0.11520460818433591,-0.0483619344773708,0.0318012720508905,0.03308705213677322,0.1895425724776598,0.16406538576438634,0.006720268810759145,-0.0021600864034649584,0.006480259210369061,0.02604104164165505,0.010200408016320854,0.029161166446657862,10.470040178256902,4.434326229285462,-3.1818147992711068,-0.5182824984866126,0.25915852924179006,-0.34549286565817067,0.3459611536577081,-1.7997811286393268,1.20997152580761,-0.084669,-0.06490800000000008,-0.9185880000000001,0.14632199999999995,-0.0042320000000000135,-0.909609,0.23099099999999995,0.06067600000000006,0.00897900000000007,0.9840293893534205,0.8428684616795448,double,-0.909609
31,0.258333,step_acsent,0.10800432017280862,-0.03132125285012209,0.003120124804988666,-0.33964528599667554,0.03579794230224421,0.18430358728837895,0.004680187207476338,-0.00048001920075518877,0.0045601824072958675,0.028681147245901935,0.004200168006721149,0.017160686427456818,-0.8640691241482431,2.0449635938136024,-3.441875344522009,-0.2448195851773446,0.20161612897033165,-0.23041843310610804,0.316825345523448,-0.7200576034561047,-1.4401152069124055,-0.0855300000000001,-0.0646509999999999,-0.9185760000000001,0.14566100000000004,-0.0039359999999999395,-0.909492,0.23119100000000015,0.06071499999999996,0.009084000000000092,0.9890798562384908,0.8530168600884189,double,-0.909492
32,0.266667,step_acsent,0.10535157187424209,-0.05111591072713295,-0.014998800095997316,-0.22123616579514105,-0.17183501153762487,0.026719762854091493,0.0,0.000599952003830301,0.005039596832253459,0.024838012958944805,0.009479241660659965,0.005759539236860977,-0.31830433148146464,-2.375168931726763,-2.1740970603534873,-0.5615775386940645,0.1295861776560462,0.05752512898459219,-0.46113922329699136,0.6334381634195838,-1.3680282206138505,-0.08640800000000004,-0.06422000000000005,-0.918409,0.14498999999999995,-0.003431000000000073,-0.909319,0.231398,0.06078899999999998,0.009090000000000042,0.9915413622979953,0.8637631373178134,double,-0.909319
33,0.275,step_acsent,0.09768390735629161,-0.03732149285972158,-0.05376215048601969,-0.43794543915856154,-0.14556059136653338,0.06388477755160187,0.0004800192007685088,0.0019200768030740352,0.0001200048001921272,0.013080523220945195,0.01188047521901726,0.0012000480019204393,-0.9201565484159903,1.6553963599437551,-4.651788118327399,0.05760460827655187,0.15842131276175792,-0.5903746588337108,-1.410955206768218,0.28815955338500965,-0.5471608346262473,-0.08721800000000002,-0.06389299999999998,-0.91796,0.1442850000000001,-0.0030209999999999404,-0.9088609999999999,0.23150300000000013,0.06087200000000004,0.00909900000000008,0.9966953254846445,0.8794913667900406,double,-0.9088609999999999
34,0.283333,step_acsent,0.10008400336013483,-0.08424336973478726,-0.022920916836666468,0.13827989385084727,-0.02695801395408157,0.010270597831218004,0.003240129605184125,0.0012000480019146184,-0.004800192007680124,0.003240129605184125,0.004320172806903284,0.003240129605184125,0.2880230413828426,-5.630850459026256,3.7010960817656664,0.33122649758977835,-0.08640691241562685,-0.5904472348340649,-1.1808944696701182,-0.9072725803568937,0.24481958517504987,-0.08802500000000002,-0.06318100000000004,-0.917809,0.1434780000000001,-0.002283000000000035,-0.9086430000000001,0.23150300000000013,0.06089800000000001,0.009165999999999896,0.9901426284808601,0.8978438667439586,double,-0.9086430000000001
35,0.291667,step_acsent,0.08483321334293406,-0.06755459563234698,-0.02459803215742867,0.23154625788992084,-0.05772717382862195,-0.015991868346332247,0.006599472042239885,0.0013198944084586342,-0.010919126469882495,-0.009479241660686609,-0.005999520038396261,-0.005759539236860977,-1.8299484061915952,2.002492692877402,-0.2012377394723062,0.40308884533906364,0.01438041835181373,-0.7342133983924125,-1.5262024557080298,-1.2382640803095195,-1.0798738711357203,-0.088677,-0.06260699999999997,-0.917695,0.14269199999999993,-0.0017700000000000493,-0.908486,0.23136899999999994,0.06083699999999992,0.009209000000000023,0.9786222808518961,0.8868926424000861,double,-0.908486
36,0.3,step_acsent,0.11484459378374991,-0.04284171366855306,-0.02412096483859441,-0.1584018514585524,-0.06670717091641762,-0.1007317601131766,0.00480019200768512,-0.0031201248050019893,-0.01212048481939327,-0.012360494419772529,-0.011520460818430963,-0.015600624024961651,3.601509713286442,2.965664462233767,0.05725036827484219,-0.21592224103621377,-0.5328236185600185,-0.14416876869204093,-0.34576416165677754,-0.6625393951799731,-1.1809774136686306,-0.08959399999999995,-0.062276,-0.917595,0.14163199999999998,-0.0015089999999999826,-0.908415,0.23122599999999993,0.060767000000000015,0.009180000000000077,0.9776590078824587,0.8698709310437727,double,-0.908415
37,0.308333,step_acsent,0.1405256210248444,-0.032881315252609546,-0.02328093123725269,-0.027075911857281393,0.12475887700475716,-0.22803525444776948,-0.006240249609990614,0.0009600384015370176,-0.0010800432017274793,-0.012600504020163363,-0.008520340813624377,-0.021480859234369116,3.0818465427930373,1.195295621738086,0.10080806448358531,-1.324905990360697,0.48963917035149285,1.3249059903595035,-0.02880230413906548,0.360028801728858,-0.7056564513869483,-0.09081700000000004,-0.061993999999999994,-0.91741,0.14035599999999993,-0.0013059999999999183,-0.9084,0.23117299999999996,0.060688000000000075,0.009009999999999962,0.9893243680586461,0.8660316292570969,double,-0.9084
38,0.316667,step_acsent,0.1377489800815988,-0.02687784977201863,-0.021358291336694563,-0.14485634812289006,-0.004107065634701623,-0.2945835267216094,-0.008039356851443318,0.0034797216222770488,0.003839692824573733,-0.011879049676007891,-0.010199184065275046,-0.0147588192944563,-0.33317025956870716,0.7203582290125932,0.23069833220040067,-0.21587559892641156,0.3023377994648483,0.5903210974683514,0.08656759589098577,-0.20144507459211397,0.806580266368233,-0.092032,-0.061740999999999935,-0.9172,0.13910900000000004,-0.001166999999999918,-0.908345,0.23114100000000004,0.06057400000000002,0.008855000000000057,0.9840588789829857,0.8755892382583523,double,-0.908345
39,0.325,step_acsent,0.13212528501138882,-0.03204128165125466,-0.013200528021114006,-0.016094903367787895,0.07855936183043447,-0.36657446793165915,-0.007920316812673734,0.004320172806903256,-0.0006000240009598033,-0.01008040321612536,-0.01188047521901726,-0.010680427217088496,-0.6748704032413254,-0.61963661097276,0.9789707566999307,0.014285376067392696,0.1008581764822037,-0.5327873305572444,0.21584620903426413,-0.2017630089694237,0.48942662634918854,-0.09319899999999992,-0.061438000000000104,-0.917095,0.13792400000000016,-0.0009990000000000832,-0.908324,0.23112300000000008,0.06043900000000002,0.008770999999999973,0.9849302233762448,0.8808066822847719,double,-0.908324
40,0.333333,step_acsent,0.14448577943118887,-0.02652106084243697,-0.007320292811723138,-0.038906431496910886,0.08692979421768297,-0.3367310204435961,-0.013560542421700471,0.004080163206539014,0.0013200528021117424,-0.008640345613833216,-0.011520460818430963,-0.01404056162246482,1.4833186631225352,0.6624529951779314,0.7056564513849612,-0.6768541472491001,-0.028802304135874552,0.2304184331059103,0.1728138248280509,0.04320345620860413,-0.40323225793547723,-0.09451600000000004,-0.06118299999999999,-0.9170229999999999,0.136648,-0.0008740000000000414,-0.90838,0.23116400000000004,0.060308999999999946,0.008642999999999956,0.9762958874897733,0.8800491126281884,double,-0.90838
41,0.341667,step_acsent,0.135949124070067,-0.022678185745139735,-0.004319654427636783,-0.038979123682144755,0.13276934131944637,-0.28694988611540584,-0.01607871370289985,0.003479721622263704,-0.003119750419966189,-0.008879289656842987,-0.006239500839925718,-0.006719462443004612,-1.024316697998782,0.4611081230258257,0.360047802266181,-0.30215638123342653,-0.0720472263349303,-0.5327337679479154,-0.028670991481853907,0.6336645042602881,0.8784616246052556,-0.09578299999999995,-0.06096500000000005,-0.9170130000000001,0.13544099999999992,-0.0007369999999999877,-0.9084,0.23122399999999987,0.06022800000000006,0.008613000000000093,0.972093094264086,0.8925963640557077,double,-0.9084
42,0.35,step_acsent,0.12288491539661915,-0.007440297611905274,0.0030001200047932073,0.024431882712975302,0.0521797505300799,-0.2689467035164515,-0.01704068162726219,0.006840273610941304,-0.009240369614784695,-0.006720268810732522,-0.0016800672026964535,-0.004320172806912445,-1.5677677515238082,1.8286197207769708,0.8784080682143296,-0.11544076855422299,0.4032823699361104,-0.7345036835255635,0.25909286524786634,0.547153922624418,0.2879262733819961,-0.09694899999999995,-0.06084600000000007,-0.917115,0.13436100000000006,-0.0006890000000000507,-0.908461,0.23131000000000002,0.060157000000000016,0.00865400000000005,0.9657396161721212,0.8998535746616547,double,-0.908461
43,0.358333,step_acsent,0.14100564022561288,-0.023880955238216657,0.003000120004806511,-0.005406686848298142,0.17049150353795278,-0.2715785210618672,-0.01800072002881242,0.006000240009599698,-0.008040321612864195,-0.002400096003855867,0.004560182407294172,-0.0031201248049919765,2.1745739624377354,-1.9729578334706965,1.5964951802791405e-12,-0.11520921655468935,-0.10080806448357157,0.14401152069128711,0.5184414744841758,0.7488599075951757,0.14401152069128323,-0.09827400000000008,-0.06059700000000001,-0.917207,0.1331659999999999,-0.00045200000000000795,-0.908512,0.23143999999999998,0.060145000000000004,0.008695000000000008,0.965653903126217,0.9030096780687062,double,-0.908512
44,0.366667,step_acsent,0.13486921046316447,-0.02135829133669442,0.0010799136069158564,0.10941455948246714,0.058804998782308306,-0.2567695959496964,-0.013078953683695058,0.006599472042239885,-0.00947924166066746,0.002519798416132558,0.004319654427650105,0.0004799616030714012,-0.7363126664804899,0.3026954525464644,-0.2304063352400591,0.5905647162367839,0.07190209174948235,-0.17265659320893487,0.5903401031903552,-0.028861048673394164,0.4319758109027327,-0.09950700000000001,-0.06036399999999997,-0.9172950000000001,0.13206299999999993,-0.00023799999999996047,-0.908517,0.23156999999999994,0.06012600000000001,0.008778000000000064,0.9709183103063361,0.9038469012817031,double,-0.908517
45,0.375,step_acsent,0.13968558742349044,-0.023400936037434983,0.0034801392055617193,0.128327746593841,-0.06024121074434999,-0.3624705805133719,-0.013320532821322877,0.00480019200768512,-0.005280211208448636,0.007440297611905274,0.003600144005757178,0.0009600384015361912,0.5779883547733086,-0.24512716917563512,0.2880385933812395,-0.028990656141584054,-0.21592224103621377,0.5039038104186768,0.5904835228336407,-0.086344704415328,0.05761152027658601,-0.10078200000000004,-0.06012899999999999,-0.917368,0.130961,-1.3000000000040757e-05,-0.908538,0.23174300000000003,0.06011599999999995,0.008830000000000005,0.9748140764424731,0.8978314966011772,double,-0.908538
46,0.383333,step_acsent,0.1402856114244544,-0.017520700828030703,-0.000960038401537024,0.04424865288388788,0.18080632223816243,-0.15450829880510258,-0.008040321612855922,0.0012000480019146184,-0.006360254410176122,0.010560422416907264,0.005160206408258173,0.0012000480019196146,0.0720057603460887,0.7056564513865707,-0.5328426265569127,0.633650691043678,-0.4320345620749443,-0.1296103686220436,0.3744299537983916,0.18721497689919575,0.028802304138176412,-0.10201799999999994,-0.059973000000000054,-0.917413,0.1298800000000001,0.00017599999999995397,-0.90852,0.23189800000000005,0.06014900000000001,0.00889300000000004,0.982796986455273,0.8913786054464945,double,-0.90852
47,0.391667,step_acsent,0.13066954643628576,-0.03455723542117419,0.007319414446841574,0.2123550164129077,0.14572144123166808,-0.14786041476810555,-0.007319414446841574,0.0015598752099880903,-0.0032397408207342476,0.010319174466046365,0.00683945284376934,0.00011999040076805845,-1.1538354917408962,-2.0442206135281342,0.9934548654161975,0.08650193976654035,0.043175810903944276,0.3744316761989287,-0.028947438308243156,0.2014934527851171,-0.12959654441463345,-0.10316799999999993,-0.05967199999999995,-0.917501,0.12887700000000013,0.0005209999999999937,-0.9085799999999999,0.23204500000000006,0.06019299999999994,0.008921000000000068,0.9864084422545851,0.8901557596753515,double,-0.9085799999999999
48,0.4,step_acsent,0.14208568342734537,-0.016200648025920517,-0.009960398415929904,-0.05292118469335612,0.11396479907621446,-0.14179436843597393,0.05208208328332325,-0.008880355214210751,0.018120724828992886,0.006600264010550342,0.005280211208453596,0.0030001200048006818,1.3699912385766913,2.202878602574535,-2.0736604899521667,7.128464866214397,-1.2528777660144963,2.563358412303738,-0.4462871061437667,-0.18711648089712438,0.34562937765901974,-0.10391800000000007,-0.05961099999999997,-0.917267,0.12774799999999997,0.0007000000000000339,-0.9084720000000001,0.23166600000000004,0.060311000000000003,0.008794999999999997,0.9069085757591308,0.8971014925068633,double,-0.9084720000000001
49,0.408333,step_acsent,0.15300612024479998,-0.028561142445693154,-0.006960278411136762,-0.0673082106529325,0.13023376181028568,-0.14354150854213327,0.007320292811709816,-0.0015600624025009946,0.002640105604224318,0.0061202448097951966,0.004680187207489661,-0.00060002400096064,1.310504838288088,-1.4833186631192448,0.360028801727247,-5.371629721782496,0.8784702762162216,-1.8577486169169095,-0.05760460827494855,-0.07200576034608631,-0.4320345620738426,-0.105132,-0.05938600000000005,-0.917187,0.12652400000000008,0.0009770000000000056,-0.908419,0.23165600000000008,0.060363000000000056,0.008767999999999998,0.9867722262780243,0.8994400438200901,double,-0.908419
50,0.416667,step_acsent,0.15298776097912464,-0.027357811375090683,-0.005639548836095417,-0.04399944101066706,0.07036555760245389,-0.163999442291974,0.014038876889852848,-0.00227981761458978,0.001679865610751153,0.0007199424046016899,0.002399808015361169,0.005039596832253459,-0.002202935646188912,0.14438817741810284,0.15847487101528002,0.8061655961294728,-0.0863637163533459,-0.11521958165024766,-0.6479844498672308,-0.2736236131663654,0.6767003639565747,-0.10629,-0.059177000000000035,-0.917126,0.125255,0.0012250000000000316,-0.90833,0.231545,0.06040200000000007,0.008796000000000026,0.9761305878467847,0.9026599188868417,double,-0.90833
51,0.425,step_acsent,0.1743669746789921,-0.025921036841473,-0.0129605184207365,-0.16540072014977938,0.2156396260791256,-0.11518302770407836,0.0190807632305317,-0.004800192007671796,0.0018000720028802544,0.0031201248050019893,0.002280091203647101,-0.003840153606143932,2.565608268314833,0.1724198408277555,-0.8785514922166208,0.6050505629039797,-0.30245702545086073,0.014425344069254976,0.288033409384412,-0.014366592069370982,-1.0656126771147743,-0.10758400000000001,-0.05900099999999997,-0.917003,0.12382800000000005,0.0014600000000000168,-0.908254,0.23141200000000006,0.06046099999999999,0.008749000000000007,0.9670708830302926,0.9034299892293081,double,-0.908254
52,0.433333,step_acsent,0.11340453618144362,-0.08064322572902953,-0.03216128645146344,0.15011468651089868,-0.12483205075694254,-0.05398677621954051,0.019320772830909164,-0.004560182407294172,0.004560182407295837,0.003480139205548373,0.0007200288011461016,-0.0016800672026881154,-7.31578525111583,-6.566925343520498,-2.304184331060466,0.02880230413746128,0.02880230413748033,0.33122649758977213,0.04320345620381404,-0.18721497689919514,0.2592207372441867,-0.10836800000000002,-0.05836699999999995,-0.916697,0.12291199999999991,0.0021379999999999733,-0.9079999999999999,0.23127999999999993,0.06050499999999992,0.008697000000000066,0.966052213704998,0.9064784021944552,double,-0.9079999999999999
53,0.441667,step_acsent,0.13426925845932175,-0.0368370530357509,-0.02675785937124724,-0.174413676907917,-0.02735807331377025,-0.022525848459311798,0.02075833933285094,-0.0008399328053864059,0.0009599232061436414,-0.00011999040075806804,0.0,-0.004199664026877911,2.5035663880343466,5.25632021757606,0.6483593808754777,0.172494180698558,0.44639424068967926,-0.4319965444147128,-0.43198099427723324,-0.08639654441397956,-0.30232743270816054,-0.10931400000000002,-0.05806700000000009,-0.916466,0.12179200000000001,0.0024449999999999195,-0.907812,0.23110600000000003,0.06051200000000001,0.00865400000000005,0.9653375166171037,0.9064577036237058,double,-0.907812
54,0.45,step_acsent,0.14028561142445348,-0.029401176047047846,-0.01896075843033611,-0.32789434425223,-0.04123540290567705,0.011826501578247287,0.01920076803072703,-0.002400096003829221,0.004200168006720288,0.0006000240009639668,-0.002160086403451628,-0.0034801392055683576,0.7219912354652228,0.8923409322816537,0.9356895404909511,-0.18691603289618425,-0.18722707289605287,0.38884492986639063,0.08640518441402038,-0.259220737243684,0.08634643241444262,-0.11032299999999995,-0.05784199999999995,-0.916273,0.12062800000000007,0.0026720000000000077,-0.907683,0.23095100000000002,0.06051399999999996,0.008589999999999987,0.9669986799471907,0.9072004486936864,double,-0.907683
55,0.458333,step_acsent,0.1718468738749541,-0.03336133445337827,-0.01056042241689394,0.09228582331014605,0.19264841693722753,-0.17312055711362492,0.01224048961957707,0.0007200288011461063,0.003840153606144765,-0.003480139205575043,-0.002040081603269507,-0.0008400336013440632,3.7875029941798504,-0.47523801828038353,1.0080806448388566,-0.8352668200107974,0.374429953795192,-0.043203456207311204,-0.4896391703514964,0.014401152067937276,0.31682534552073693,-0.111653,-0.057558,-0.916153,0.11916700000000002,0.0029329999999999634,-0.907602,0.23082000000000003,0.06049099999999996,0.008550999999999975,0.9785851293022659,0.9076224114110867,double,-0.907602
56,0.466667,step_acsent,0.1798656107511431,-0.01835853131748963,-0.0009599232061444676,0.03551786412897322,0.18840290605218973,-0.1785632992235608,0.012119030477563911,0.002039836813060324,0.0028797696184300722,-0.002639788816890625,-0.0008399328053730787,-0.0013198944084469777,0.962171451426566,1.800192360917762,1.1519677478701058,-0.014573931127088902,0.1583642922863231,-0.11523685957699684,0.10083397992373612,0.14400633524075196,-0.057578690557105114,-0.11305100000000001,-0.057387999999999995,-0.916121,0.11764600000000003,0.003078999999999943,-0.907605,0.23069700000000004,0.06046699999999994,0.008515999999999968,0.9789626716026494,0.9097257244010373,double,-0.907605
57,0.475,step_acsent,0.18792751710069258,0.00576023040920882,0.003960158406330232,-0.12193840257166322,0.017769976783156654,-0.09843761224390539,0.010440417616711805,0.0034801392055617193,-0.002400096003840062,-0.003480139205575043,-0.000480019200768512,0.000120004800192128,0.9674674606443658,2.8943671818910968,0.5904334108333987,-0.20144160096629188,0.17284320082820098,-0.6336092190411794,-0.10084608048534978,0.043191360206956395,0.1727948168293663,-0.11453000000000002,-0.057406999999999986,-0.9161739999999999,0.1160509999999999,0.003027000000000002,-0.9076369999999999,0.23058099999999992,0.06043399999999999,0.008537000000000017,0.9812269290287419,0.9087714382511679,double,-0.9076369999999999
58,0.483333,step_acsent,0.1978879155166079,0.0015600624025009842,0.010560422416907193,0.12211659106412723,0.1688018635077045,-0.22656251270274552,0.009000360014392885,0.004200168006721121,-0.003600144005760485,-0.002640105604220137,0.000120004800195458,-0.0018000720028802425,1.1952956217347017,-0.5040403224178349,0.7920633638037842,-0.17281382483126295,0.08640691241562445,-0.14401152069127782,0.1008080644851677,0.07200576034608995,-0.23041843310600774,-0.11610399999999998,-0.05738500000000002,-0.9162920000000001,0.11438000000000004,0.00301499999999999,-0.90774,0.23048400000000002,0.06040000000000001,0.008552000000000115,0.9823924788375047,0.9091506217870869,double,-0.90774
59,0.491667,step_acsent,0.1856251499880099,0.0035997120230350926,0.005639548836082095,-0.22018039361860678,-0.08330154697439696,-0.024286935722352847,0.004199664026878715,0.002399808015361169,-0.005279577633788743,-0.0014398848092033799,-0.0011999040076872453,-0.002159827213823387,-1.4714141502997322,0.24473837539406126,-0.5904575930915638,-0.5760374355068593,-0.2160259168898428,-0.2015159140902636,0.14401497420407436,-0.15837638683497746,-0.04316717193942214,-0.11761600000000005,-0.057394999999999974,-0.916383,0.11282100000000006,0.00297499999999995,-0.907805,0.23043700000000011,0.060369999999999924,0.008577999999999975,0.9880661317111931,0.9094538311783844,double,-0.907805
60,0.5,step_acsent,0.18240729629184801,0.018120724828994673,-0.015480619224761195,-0.33839997409535094,-0.04002006807046253,-0.051017125393488884,0.004680187207489661,0.00240009600384256,-0.004920196807872252,0.001320052802110077,-0.00048001920075518877,-0.002160086403455806,-0.386157889855023,1.7425912403647685,-2.5345215481631276,0.05766508827684468,3.4560000166900464e-05,0.043127424206947394,0.3312057615880792,0.08638963241714367,-3.110400005028114e-05,-0.11909700000000001,-0.057525999999999966,-0.916295,0.11131200000000008,0.0028200000000000447,-0.907694,0.23040900000000009,0.06034600000000001,0.00860099999999997,0.9879961869769773,0.909695646115134,double,-0.907694
61,0.508333,step_acsent,0.1954878195127787,0.005400216008635731,0.012960518420736413,-0.07924697476595825,-0.055182517556436377,-0.027789510404457485,0.002520100804038002,0.002400096003829221,-0.005040201608064346,-0.0020400816032828165,0.0009600384015236944,0.002160086403455791,1.5697255755346957,-1.5265221193278398,3.413073040381314,-0.2592207372436877,-1.6007627707336616e-12,-0.01440115206913398,-0.40323225793746303,0.17281382482645832,0.5184414744883691,-0.12070499999999995,-0.05755100000000002,-0.9164450000000001,0.10966599999999993,0.00278299999999998,-0.907784,0.23037099999999988,0.060334,0.00866100000000003,0.9897917515459251,0.9081859471053675,double,-0.907784
62,0.516667,step_acsent,0.19750419966403235,0.009239260859130571,0.007319414446841623,-0.04223555116781414,0.03591963172633973,-0.061517664642406246,0.0005999520038303051,0.0027597792176620325,-0.0031197504199670426,0.0004799616030855586,0.0020398368130603375,0.0010799136069117006,0.2419462624494447,0.4606485301769693,-0.6768783266012506,-0.23039942407099928,0.04315853297729946,0.23043570771506047,0.302380994284664,0.129565444148866,-0.12961036675595114,-0.12234600000000007,-0.05760500000000002,-0.916532,0.10802400000000001,0.002723000000000031,-0.907836,0.23037000000000007,0.06032800000000005,0.008696000000000037,0.9929862899301076,0.9091109377840869,double,-0.907836
63,0.525,step_acsent,0.2074882995319781,0.017640705628226044,0.008160326413051327,-0.10760448665224294,-0.005673820777974922,-0.02257037402806877,-0.005280211208440274,0.002160086403464951,-0.001920076803071537,0.004200168006721121,0.003000120004806511,-0.0006000240009598033,1.1981399097498737,1.008213700839486,0.10091347248406332,-0.7056478113849218,-0.07196601634430325,0.1439665926911677,0.44644262614131125,0.11523859255324245,-0.20160057696765832,-0.12411899999999998,-0.05773399999999995,-0.916616,0.10633000000000004,0.0026010000000000755,-0.907909,0.23044900000000001,0.06033500000000003,0.00870700000000002,0.9899676497428089,0.9042693995381299,double,-0.907909
64,0.533333,step_acsent,0.1990879635185385,0.004920196807880611,0.014760590423628511,-0.06199440361980507,0.10544398129483427,0.001478828607316432,-0.015480619224774622,0.0008400336013415707,-0.0016800672026881377,0.0037201488059393386,0.001560062402487682,-0.0002400096003842576,-1.0080806448385538,-1.5265221193262388,0.7920633638038216,-1.224097925877168,-0.15841267276171755,0.028802304138173702,-0.057604608278145515,-0.1728138248312543,0.04320345620731417,-0.125907,-0.05776800000000004,-0.916753,0.10470199999999996,0.0025729999999999364,-0.908034,0.23060899999999995,0.06034099999999998,0.008719000000000032,0.9740097318512726,0.9060747472937238,double,-0.908034
65,0.541667,step_acsent,0.1954643628509694,-0.020158387329020363,0.0009599232061311396,-0.13334294714292413,-0.009154983326125203,0.07957629373118946,-0.01883849292056174,0.002279817614589765,-0.005039596832253425,-0.017758579313632568,-0.020998320134380116,-0.07919366450683896,-0.43479729632458125,-3.0091893612791916,-1.6559475902924485,-0.4029126104856122,0.17276026076892045,-0.4031113066433,-2.5772411950530048,-2.706789361275213,-9.473680694318947,-0.12769299999999995,-0.05758099999999999,-0.9168029999999999,0.10292500000000016,0.0025660000000000682,-0.9087019999999999,0.2306180000000001,0.06014700000000006,0.008101000000000025,0.967277092626728,0.7792687190538263,double,-0.9087019999999999
66,0.55,step_acsent,0.19368774750990012,0.011640465618626345,-0.01176047041880848,-0.046458471300009525,-0.10869801640743668,-0.10724246714856679,0.05328213128525118,-0.011160446417857836,0.005280211208447768,0.01032041281648963,0.0033601344053662383,-0.0016800672026881154,-0.2132023690230752,3.8160149943173614,-1.526508295324561,8.654821097541415,-1.612896199741695,1.2384265019442156,3.3696138401682565,2.9231314700283515,9.302003756648329,-0.12886299999999995,-0.05777100000000002,-0.9166610000000001,0.10139699999999996,0.0024969999999999715,-0.908618,0.2302599999999999,0.06026799999999999,0.008043000000000022,0.9088435150574324,0.9012651699050013,double,-0.908618
67,0.558333,step_acsent,0.18792751710069383,0.009360374414979384,-0.017400696027848682,-0.17969424182646818,0.01441377313520899,-0.0008854172868692572,0.013440537621505102,0.0016800672026964648,0.0037201488059526618,0.012960518420736587,0.007080283211332268,0.0037201488059526618,-0.6912552993167332,-0.27362188931321046,-0.6768541472507205,-4.781182486949051,1.540923271397386,-0.18721497689849037,0.3168253455234586,0.44643571414449346,0.6480518431106236,-0.13031700000000002,-0.05783499999999997,-0.916485,0.09993899999999989,0.0024779999999999802,-0.908442,0.2302559999999999,0.06031299999999995,0.008043000000000022,0.9765888093888663,0.8941871013811925,double,-0.908442
68,0.566667,step_acsent,0.19438444924405357,-0.00455963522917953,-0.010079193664503522,-0.10537347423542316,0.0255900728763354,-0.16126623504405566,0.00155987520998808,-0.0027597792176619956,0.008519318454523767,0.011879049676034377,0.008519318454528763,-0.0037197024238064566,0.7747698756131137,-1.6702675358961854,0.8785100028011884,-1.4255654441465,-0.5327389513269051,0.5758542894853694,-0.12976586809481663,0.17267041555033405,-0.8927107307126304,-0.13192399999999993,-0.05781999999999998,-0.91633,0.098418,0.002587000000000006,-0.908389,0.23034199999999994,0.06040699999999999,0.007940999999999976,0.9848499744288295,0.8954500144603021,double,-0.908389
69,0.575,step_acsent,0.19620784831394072,0.009240369614783925,-0.02520100804031374,-0.4012363045109362,-0.0075448617775438764,-0.1465965591318233,0.014640585623419728,-0.009720388815565762,0.006360254410176165,0.011040441617662525,0.008880355214197546,-0.0032401296051841467,0.2188166410521027,1.6560668239485878,-1.8146903127097511,1.5697480395333936,-0.8353065640110201,-0.2590980492436844,-0.10063699248432252,0.043326144206022606,0.05755104027628876,-0.13343700000000003,-0.057978000000000085,-0.9160670000000001,0.09687499999999993,0.0025839999999999197,-0.9082060000000001,0.23031199999999996,0.060562000000000005,0.007861000000000007,0.9688513625104196,0.8971659015933323,double,-0.9082060000000001
70,0.583333,step_acsent,0.18576743069722637,0.002640105604220137,-0.010920436817480244,-0.052777671592159306,0.13733697105576784,-0.19098760085664263,-0.009600384015356853,-0.00972038881555231,0.012960518420737246,0.009360374414979259,0.00816032641306465,-0.00636025441017608,-1.252900230014918,-0.7920633638022033,1.7137370962238612,-2.909032717961896,1.614398242673717e-12,0.7920633638018785,-0.2016161289671498,-0.08640691241244379,-0.3744299537971823,-0.135065,-0.05808100000000005,-0.915868,0.09540499999999996,0.002630000000000021,-0.908168,0.23046999999999995,0.06071100000000007,0.00770000000000004,0.9686140349084489,0.8997465431172934,double,-0.908168
71,0.591667,step_acsent,0.18394528437724922,0.0020398368130603107,-0.00959923206143129,-0.009887389796690621,0.16599707349877418,-0.13845231149040954,0.0008399328053730732,-0.00959923206143129,0.015598752099831675,0.008399328053757375,0.008879289656829605,-0.007919366450684312,-0.21864006719188128,-0.07202649281975301,0.15853188817481925,1.2527377994636246,0.014537647482723652,0.3165627164740111,-0.11531633803958205,0.08626868775677349,-0.18707847858269977,-0.13659100000000002,-0.05817800000000006,-0.915658,0.09394199999999997,0.002686999999999995,-0.908154,0.230533,0.06086500000000006,0.007503999999999955,0.9694416855122885,0.9006868517387387,double,-0.908154
72,0.6,step_acsent,0.18624744989799735,0.004440177607098773,-0.0008400336013415707,-0.26634366580180147,0.12391392871201189,-0.13313687046349418,0.0012000480019146262,-0.00960038401535698,0.019080763230529325,0.009840393615734576,0.009960398415930036,-0.005760230409216353,0.27627091332631165,0.2880524173813134,1.0511458610452178,0.04321555220707504,-0.00013824000068279955,0.4178580500057221,0.17293478482865884,0.12973824062167774,0.2591066892437271,-0.13813300000000006,-0.058294999999999986,-0.9154920000000001,0.09247199999999989,0.0027329999999999854,-0.9081950000000001,0.23060499999999995,0.06102799999999997,0.007296999999999998,0.9643441210274931,0.9017964719578234,double,-0.9081950000000001
73,0.608333,step_acsent,0.17880715228608965,0.02424096963878971,0.006960278411136715,-0.49561337680686574,0.06688404306802094,-0.14700160647150287,0.006720268810759123,-0.009480379215174717,0.026761070442817718,0.00804032161286919,0.010680427217089328,-0.004800192007680092,-0.8928714282860521,2.3761900914065586,0.9360748844927701,0.6624529951811441,0.014401152067954146,0.9216737324239002,-0.2160172810350867,0.0864069124156114,0.11520921655301303,-0.139567,-0.05857600000000007,-0.915327,0.09104899999999994,0.0026199999999999557,-0.908293,0.23061599999999993,0.06119600000000003,0.007033999999999985,0.9513746038520041,0.9059862838850699,double,-0.908293
74,0.616667,step_acsent,0.194744420446357,0.00947924166066003,-0.017038636909057752,-0.32214997724422556,0.4199504768101148,-0.4943111525772963,-0.0039596832253492855,-0.011519078473720367,0.045476361891048665,0.0008399328053864059,0.0047996160307223696,0.003959683225341792,1.9123191936965982,-1.771265656123082,-2.8796394672659713,-1.2814917249950166,-0.2446243410781931,2.2456553213620176,-0.8639775386948435,-0.7056408910927516,1.051100939887441,-0.141223,-0.058751,-0.914806,0.0894330000000001,0.0025810000000000555,-0.908118,0.23065600000000008,0.06133200000000005,0.006688000000000027,0.9215343714495452,0.9226556567858879,double,-0.908118
75,0.625,step_acsent,0.15768630745230192,0.021840873634947165,-0.0003600144005730508,-0.3155705597763257,0.2609135497848941,-0.4213841482906639,-0.1389655586223434,-0.02964118564742544,0.12984519380775172,0.008400336013442242,0.00972038881555231,0.0033601344053762307,-4.4471514453444065,1.4834551751214549,2.0015147616086204,-16.201353101763296,-2.174739850438617,10.124664816596988,0.9072846763537507,0.5905163548337837,-0.07194873634532091,-0.14369500000000002,-0.05918000000000001,-0.913721,0.08818900000000007,0.0024800000000000377,-0.908087,0.2318840000000001,0.06166000000000005,0.005634000000000028,0.6791945868218827,0.9215276890869655,double,-0.908087
76,0.633333,step_acsent,0.16788671546862274,0.0357614304572206,0.004080163206525663,-0.47748600885440123,0.3423405690557265,-0.4374201211347353,-0.006840273610941258,-0.03864154566181833,0.10848433937357473,0.011880475218990615,0.016560662426493566,0.01620064802592135,1.2240979258755291,1.6705336400184059,0.5328426265569057,15.855668428105314,-1.0800864051833494,-2.563405068303961,0.41763341000220316,0.820865667939665,1.5409232713962637,-0.14515100000000003,-0.059799999999999964,-0.912851,0.08688899999999988,0.0023199999999999887,-0.907986,0.2320399999999999,0.06211999999999995,0.004865000000000008,0.8077269715892422,0.9079570209246193,double,-0.907986
77,0.641667,step_acsent,0.14998800095992088,0.05135589152867607,-0.0014398848092033894,-0.6287932007151197,0.28293820682677395,-0.4733016167190843,-0.01871850251980392,-0.053875689944808645,0.13630909527237875,0.008399328053757487,0.014878809695226026,-0.0021598272138234013,-2.147673927130066,1.8711856337239692,-0.6623527736655969,-1.4252734471877526,-1.8279510778726187,3.3387036115675763,-0.41770424348849866,-0.20180618325744543,-2.2030807823067984,-0.14655700000000005,-0.06067699999999998,-0.911703,0.08570899999999992,0.0020160000000000178,-0.907992,0.23226599999999997,0.062693,0.00371100000000002,0.7537326331133202,0.9341868960594967,double,-0.907992
78,0.65,step_acsent,0.15384615384615385,0.05364214568582423,0.012240489619576989,-0.5839191241195508,0.30861068102599293,-0.5891959371501037,0.0170406816272754,-0.0510020400816041,0.15576623064922537,0.0033601344053928845,0.014520580823237398,-0.0016800672026881154,0.4629968662226045,0.2743614733167112,1.6417105998776336,4.291273748599444,0.3448517776556506,2.3349496432073136,-0.6047274269008258,-0.04298918420600336,0.057573504276405126,-0.14769699999999997,-0.061548999999999965,-0.910507,0.08445500000000006,0.0016900000000000803,-0.908108,0.23215200000000003,0.06323900000000005,0.002398999999999929,0.7253552216777936,0.9510122002928245,double,-0.908108
79,0.658333,step_acsent,0.13464538581542862,0.05676227049082696,0.015600624024956758,-0.5745890622916426,0.3478549251964135,-0.6414890777553516,0.04632185287411508,-0.06432257290291442,0.1999279971198867,0.002520100804011389,0.011280451218040121,-0.0008400336013440688,-2.304184331060292,0.3744299537984825,0.40323225793589335,3.5138811048649887,-1.59852787967244,5.299623961437866,-0.1008080644883599,-0.38883110586791153,0.10080806448386585,-0.14843299999999993,-0.062558,-0.908971,0.08335399999999993,0.001310999999999951,-0.908245,0.23178699999999985,0.06386899999999995,0.0007260000000000044,0.6415530743187923,0.9734249839505669,double,-0.908245
80,0.666667,step_acsent,0.15718742500600233,0.07211423086152605,0.02639788816894604,-0.6862336415166347,0.36140258756558896,-0.6134453890395024,0.2592992560595095,-0.0910727141828725,0.3356131509479217,-0.0010799136069025276,0.0059995200383962215,-0.014518838492919989,2.7048283166034963,1.8420878774536802,1.2955680518345571,25.555243962730113,-3.209760172781122,16.28091598608519,-0.4319671719359119,-0.6336610486733693,-1.6413252809666206,-0.147582,-0.06391800000000003,-0.9063939999999999,0.08203499999999997,0.0007599999999999829,-0.9085859999999999,0.22961699999999996,0.06467800000000001,0.0021919999999999717,0.47808,0.9737555759746006,single,-0.9063939999999999
81,0.675,step_acsent,0.12360494419776444,0.07788311532461394,0.030001200048011815,-0.5833466886297094,0.23425097697730177,-0.7483516433151217,0.07056282251290417,-0.08532341293650585,0.30373214928597,0.0016800672026831191,0.011760470418821804,-0.029401176047042017,-4.030058899344504,0.6922938273236368,0.43241472207677445,-22.64927799671241,0.6899437473138874,-3.825873234363567,0.33121094558809977,0.6913416993190398,-1.7859519445724188,-0.14802399999999993,-0.06527799999999995,-0.904113,0.08101899999999995,0.00020900000000001473,-0.909081,0.22904299999999989,0.06548699999999996,0.0049679999999999724,0.45032,0.9471490449148985,single,-0.904113
82,0.683333,step_acsent,0.12552502100084015,0.08160326413056763,0.05460218408736198,-0.43595782140695233,0.20454319999053466,-0.6914771093665117,0.12672506900275476,-0.12000480019200889,0.32533301332053555,0.027961118444756017,0.03576143045722107,-0.02196087843513792,0.23041843310641155,0.4464357141430137,2.952236174169013,6.7397391683488665,-4.161932947978323,2.5922073724427896,3.153852303140902,2.880230413824491,0.8928714282856315,-0.14801399999999998,-0.06695799999999996,-0.901857,0.08020600000000011,-0.00017299999999997873,-0.909719,0.2282200000000001,0.06678499999999998,0.007862000000000036,0.42138,0.9159533159707713,single,-0.901857
83,0.691667,step_acsent,0.16102711783058016,0.20350371970242595,0.11915046796256468,-0.3588698415018046,-0.2594831236226124,-0.051287017233326314,0.12706983441324982,-0.17206623470122814,0.4022078233741279,0.0314374850011978,0.04415646748259193,-0.020278377729780927,4.259910826702632,14.626884517861457,7.74517445106818,0.04136853977622377,-6.246872391314958,9.224239267289631,0.4171306163237049,1.0073238571359246,0.2018839339281232,-0.148297,-0.07008800000000004,-0.899498,0.07912600000000003,-0.0015010000000000856,-0.910881,0.22742300000000004,0.06858699999999995,0.011383000000000032,0.38616999999999996,0.9035444591895455,single,-0.899498
84,0.7,step_acsent,0.11832473298931243,0.11904476179047185,0.07476299051961297,-0.5616113331008485,0.06521128585422305,-0.454786750782268,0.12216488659546054,-0.19872794911796543,0.4790591623664985,0.029521180847230374,0.042601704068162424,-0.02328093123724967,-5.124491160598598,-10.13548036864933,-5.326710361568717,-0.5886172828260312,-3.199533711356958,9.222529580267762,-0.2299656971039774,-0.18657907289445813,-0.36032083372960155,-0.14826499999999998,-0.07273600000000002,-0.896129,0.07838600000000007,-0.0021380000000000843,-0.911698,0.22665100000000005,0.07059799999999994,0.015569000000000055,0.34431,0.9053015448413035,single,-0.896129
85,0.708333,step_acsent,0.1402856114244668,0.111244449777992,0.05760230409216776,-0.7065931200556917,0.22001558777671423,-0.5658810228474448,0.13416536661467163,-0.24372974918996718,0.5492619704788166,0.012000480019199396,0.019560782431300078,-0.021360854434177824,2.63541082865166,-0.9360748844929583,-2.0593647458832516,1.4401152069136007,-5.400432025921224,8.42467396043656,-2.102568202091792,-2.765021197271361,0.23041843310594465,-0.148316,-0.07569400000000004,-0.892032,0.07731699999999997,-0.002902000000000071,-0.9123560000000001,0.22563299999999997,0.07279199999999997,0.02032400000000001,0.29676,0.9477473596580466,single,-0.892032
86,0.716667,step_acsent,0.13906887449002894,0.10379169666426663,0.06455483561315507,-0.7083909184922343,0.2916238148855219,-0.5324996879791305,0.17698584113270852,-0.29181665466762313,0.6477081833453274,0.005759539236866767,0.014038876889852754,-0.01847852171826173,-0.14599675239235027,-0.8942588329404022,0.8342370435549868,5.138045898492508,-5.769967059953874,11.812600535938328,-0.7488529856410585,-0.66257565892096,0.34585225772931044,-0.1479999999999999,-0.07899100000000003,-0.8871720000000001,0.07620600000000011,-0.003650000000000042,-0.9130480000000001,0.22420600000000002,0.07534099999999999,0.02587600000000001,0.24124000000000007,0.9601489536788095,single,-0.8871720000000001
87,0.725,step_acsent,0.11724468978759325,0.11928477139084945,0.0703228129125142,-0.49118976051555424,0.25000301165915784,-0.38219607494794144,0.1791671666866651,-0.29221168846753715,0.7381495259810464,0.00444017760708545,0.012720508820345667,-0.011160446417857153,-2.6190069245692893,1.859243336923432,0.6921849633216346,0.26176953725628305,-0.0474059522277711,10.853395252096465,-0.15832972876291002,-0.15821049676072244,0.8782041642151258,-0.14748399999999995,-0.08241999999999994,-0.881607,0.07526599999999994,-0.004538000000000042,-0.9137270000000001,0.2227499999999999,0.0778819999999999,0.03212000000000004,0.17880000000000001,0.9708413303307568,single,-0.881607
88,0.733333,step_acsent,0.12072482899316671,0.08676347053882469,0.061562462498497963,-0.6623175472763619,0.32810353256135033,-0.47826638729722276,0.16512660506419383,-0.3367334693387825,0.7989919596783834,0.027361094443791676,0.05268210728430054,-0.08724348973958904,0.417633410005213,-3.902712210731384,-1.051284101045986,-1.6849347920882296,-5.342827417646127,7.301384099044371,2.750620045206544,4.795583639020125,-9.13033041182426,-0.14711400000000008,-0.08594900000000005,-0.875462,0.074488,-0.004821999999999993,-0.914967,0.22160200000000008,0.08112700000000006,0.03950500000000001,0.10495000000000004,0.8241255149338785,single,-0.875462
89,0.741667,step_acsent,0.10295176385889493,0.08339332853371792,0.07883369330453832,-0.8116225735265059,0.2290768461557985,-0.3218362744945824,0.2633789296856336,-0.35529157667386707,0.9067674586033162,-0.07859371250300887,-0.029397648188151205,-0.19462443004559726,-2.132597208335959,-0.40438468983762754,2.072381906172361,11.789335807708222,-2.2267947366312297,12.932025308967289,-12.71355974883623,-9.84878275407394,-12.884682062156088,-0.14577700000000005,-0.08960500000000005,-0.8685620000000001,0.0729749999999999,-0.005762000000000045,-0.917246,0.21875199999999995,0.083843,0.04868399999999995,0.013160000000000116,0.6467615609559745,single,-0.8685620000000001
90,0.75,step_acsent,0.10056402256088934,0.07836313452538245,0.07308292331692885,-0.7937814468516258,0.2888752348279709,-0.30560562405406927,0.16212648505940064,-0.28849153966158064,0.9776791071642826,0.0037201488059659354,-0.020880835233410146,-0.03996159846393839,-0.28654041737736485,-0.6036474268973301,-0.690120003313266,-12.150779386323356,8.016325094478118,8.50973821684461,9.878058479416111,1.022058436906399,18.560282201087034,-0.14526399999999995,-0.09266200000000002,-0.861024,0.07216800000000012,-0.006589000000000067,-0.918188,0.21743200000000007,0.08607299999999996,0.05716399999999999,0.0,0.9245977796713519,single,-0.861024
91,0.758333,step_acsent,0.10704428177127087,0.08340333613344512,0.0872434897395932,-1.0230297509175315,0.13367224454616405,-0.18301422457115327,0.21936877475099534,-0.3483739349573955,1.1567262690507583,0.04836193447737064,-0.002400096003842544,0.11688467538701448,0.7776622117342502,0.6048483869029949,1.699335944157481,6.869349536972814,-7.186174882493051,21.48651888713247,5.357228569711331,2.2177774186448485,18.82230575434444,-0.1443279999999999,-0.09626000000000001,-0.852112,0.07167900000000005,-0.007304000000000088,-0.917941,0.21600699999999995,0.08895599999999992,0.06582900000000003,0.0,0.7891375875946269,single,-0.852112
92,0.766667,step_acsent,0.04223662107031689,0.029157667386608424,0.15022798176145033,-1.3702759602464227,0.3582443205377799,-0.23750201294232728,0.24562035037196084,-0.43340532757380373,1.3533717302615864,-0.0033597312214923374,0.0033597312215056588,-0.01919846412287033,-7.776297180340094,-6.508959532857813,7.557534439867709,3.149937079549514,-10.202950877898814,23.59556769988352,-6.206103395591945,0.6911239771236183,-16.32867044755047,-0.142633,-0.10011500000000007,-0.842085,0.07129900000000011,-0.007519000000000053,-0.919353,0.21393200000000012,0.09259600000000001,0.077268,0.0,0.9670372005790968,single,-0.842085
93,0.775,step_acsent,0.06612264490580547,0.02016080643225072,0.07392295691828374,-0.7549673138744568,0.44255407027591387,-0.2901691712634961,0.2467298691947737,-0.3945757830313145,1.411496459858388,0.03972158886353748,-0.016560662426493566,0.07008280331213233,2.8664375177593273,-1.0796665011829671,-9.156969259950351,0.13314758464092702,4.659731734368061,6.975246561478608,5.169965208811909,-2.390542859474276,10.714180659426653,-0.14112800000000003,-0.10357099999999997,-0.830939,0.07107899999999989,-0.007824999999999971,-0.919385,0.21220699999999992,0.095746,0.08844600000000002,0.0,0.8629308823790873,single,-0.830939
94,0.783333,step_acsent,0.0871234849393989,0.051962078483141806,0.06936277451097717,-1.1414241697522247,0.19458580258571392,-0.03464113143212583,0.321252850113999,-0.3367334693387736,1.4545781831273374,-0.0038401536061481215,0.015240609624383703,0.03300132005280211,2.5202016120957196,3.8163052983188983,-0.5472437786279389,8.943115434924518,6.941355297316863,5.170013592817705,-5.227618201090364,3.8163052983172396,-4.449955989359242,-0.1391770000000001,-0.10680999999999996,-0.819396,0.07032099999999986,-0.008131,-0.919688,0.20949799999999996,0.09867899999999996,0.10029199999999994,0.0,0.9390786005789895,single,-0.819396
95,0.791667,step_acsent,0.07259419246459828,0.04343652507799024,0.034317254619631185,-0.5656564532021506,0.5845244988155139,-0.0899892115647467,0.36969042476601593,-0.33957283417326345,1.5225581953443614,0.010199184065288231,0.008999280057600994,0.0296376289896811,-1.743375626925908,-1.0229845698525917,-4.205125976883335,5.8120439947224085,-0.34069652441682263,8.156948910130007,1.6845857537120525,-0.748899636043036,-0.4036106387234203,-0.13670100000000007,-0.11000199999999993,-0.806993,0.069801,-0.008417999999999926,-0.919727,0.20650200000000007,0.10158400000000001,0.112734,0.0,0.9456503232841377,single,-0.806993
96,0.8,step_acsent,0.06888275531020774,0.018720748829958517,0.0819632785311396,-0.6978029168831582,0.3287985895502474,-0.012333445302577514,0.4056162246489902,-0.3565342613704602,1.565702628105118,-0.004920196807867223,0.007800312012478276,0.009480379215168056,-0.44539027413782845,-2.966011790235404,5.7177515794441645,4.311268436694364,-2.0354526817708702,5.1775390328520885,-1.8143982807098753,-0.14388192069155323,-2.4189667316108197,-0.133895,-0.11312900000000004,-0.794629,0.06918600000000008,-0.008508999999999989,-0.920331,0.20308100000000007,0.10462000000000005,0.12570199999999998,0.0,0.9779564323955472,single,-0.794629
97,0.808333,step_acsent,0.07368294731789381,0.0367214688587581,0.08832353294132685,-1.2326326502583733,0.656746084356521,0.04853300981487982,0.5624624984999448,-0.4702988119524831,1.781351254050178,-0.002640105604220172,-0.004440177607112096,0.01140045601824141,0.5760460827656442,2.160172810368384,0.7632610596648625,18.822305754344892,-13.652292161529333,25.878870268218147,0.2736218893132211,-1.4689175110513002,0.23041843310612883,-0.129822,-0.11735400000000007,-0.780521,0.06855000000000011,-0.008852000000000082,-0.920972,0.1983720000000001,0.10850199999999999,0.140451,0.0,0.9791396353893594,single,-0.780521
98,0.816667,step_acsent,0.07775377969762143,0.029037676985836647,0.09071274298055833,-0.7519172847492096,-0.062492526642066365,0.04223057709221901,0.3920086393088547,-0.3888888888888785,1.6511879049675895,0.005519558435323991,-0.022198224142067353,0.04319654427645746,0.48846080870261455,-0.9219812662492674,0.28668227012616554,-20.45282687678051,9.768409294888881,-15.618352421716754,0.9790813582366332,-2.130795120584968,3.81522537295606,-0.12720299999999995,-0.12083699999999997,-0.7675160000000001,0.06794800000000012,-0.009279000000000037,-0.921368,0.19515100000000007,0.11155799999999993,0.15385199999999988,0.0,0.9185348043332074,single,-0.7675160000000001
99,0.825,step_acsent,0.05544221768871687,0.007560302412100783,0.13956558262330923,-0.9408976945400442,0.608245690768572,-0.015270617966437635,0.46357854314172386,-0.39553582143287014,1.7067082683307504,-0.005640225609040045,0.0008400336013415707,0.012120484819392518,-2.6774945408502053,-2.5773880443701023,5.862575260140567,8.588732009224746,-0.7976638118314754,6.662710111983849,-1.3392276544298738,2.764701517269787,-3.7292763059000626,-0.12380200000000008,-0.12419600000000008,-0.754457,0.06743899999999992,-0.009335000000000093,-0.9224300000000001,0.191241,0.11486099999999999,0.16797300000000004,0.0,0.9776751288650367,single,-0.754457
100,0.833333,step_acsent,0.037321492859708254,0.012240489619576989,0.06480259210368207,-0.41296250998168854,0.12335863871135405,0.048428122784450606,0.5033001320052818,-0.4516980679227138,1.7521900876034973,-0.0006000240009639668,-0.009120364814588344,0.010440417616705073,-2.1745739624395224,0.5616449306943702,-8.971917739064784,4.766781334880326,-6.739739168347942,5.458036634194968,0.6048483869046031,-1.195295621736454,-0.2016161289676513,-0.119919,-0.128062,-0.740396,0.06712299999999993,-0.009512999999999994,-0.922883,0.18704199999999993,0.11854900000000002,0.18248699999999995,0.0,0.9768733317019723,single,-0.740396
101,0.841667,step_acsent,0.05375569954403654,0.02699784017278966,0.0867530597552091,-0.9613117486058222,0.45118860504197666,0.02164730717429799,0.49064074874009816,-0.44024478041755394,1.6921046316294572,-0.08987281017517194,-0.03479721622270342,0.012239020878329392,1.9719470463556712,1.7707404071529347,2.6338454105503795,-1.5190044714643058,1.3742845578545415,-7.2096779426493365,-10.711877390713617,-3.0809756909185118,0.21581512618482182,-0.11627799999999999,-0.13195599999999996,-0.7270169999999999,0.06592600000000004,-0.010028000000000037,-0.923504,0.18220400000000003,0.12192799999999993,0.19648700000000008,0.0,0.8380864265375896,single,-0.7270169999999999
102,0.85,step_acsent,0.015960638425543138,-0.009120364814588465,0.04452178087123648,-0.12534805816271113,-0.1803520018481443,0.37035142963764905,0.4933397335893452,-0.448817952718122,1.722788911556479,0.00756030241208746,-0.011760470418808637,-0.013920556822272783,-4.535588757769561,-4.334357972804327,-5.067956184324133,0.32389113755514776,-1.0288218289413376,3.682260881677907,11.692441208119561,2.7645200772704897,-3.1392748950680924,-0.11230000000000007,-0.13562000000000007,-0.7130319999999999,0.06585599999999991,-0.010050000000000003,-0.923991,0.17815599999999998,0.12557000000000007,0.21095900000000012,0.0,0.9671176871557227,single,-0.7130319999999999
103,0.858333,step_acsent,0.08904356174245845,0.017880715228603638,0.06480259210368207,-0.4060448708120982,0.3593851245712983,0.15871106421279332,0.443417736709467,-0.4273370934837286,1.722908916356648,0.0007200288011461016,-0.002760110404415595,-0.004080163206528161,8.770301610094204,3.240259215551661,2.4337946996814472,-5.990879260755788,2.5778062203760137,0.014401152066368477,-0.8208656679396772,1.080086405183368,1.1808944696681363,-0.10934699999999997,-0.13932999999999995,-0.6992149999999999,0.06511999999999996,-0.010221999999999953,-0.924565,0.17446699999999993,0.129108,0.22535000000000005,0.0,0.9917026807021536,single,-0.6992149999999999
104,0.866667,step_acsent,0.08039356851452643,-0.02327813774898351,0.1227501799856147,-0.758340626658118,0.36884264173042536,0.09875313779908149,0.5123590112791001,-0.49556035517159847,1.6966642668586593,0.0023998080153745066,0.0022798176145897952,0.0064794816414685385,-1.037916154059523,-4.938667263929371,6.953154293488477,8.272291165062816,-8.186136511623499,-3.149106011277755,0.20155738111692043,0.6047429828420229,1.267056017278229,-0.10574700000000004,-0.143266,-0.6860980000000001,0.06447000000000003,-0.010008999999999935,-0.9255340000000001,0.17021700000000006,0.13325700000000007,0.23943599999999998,0.0,0.9878733157860928,single,-0.6860980000000001
105,0.875,step_acsent,0.10116404656186663,0.004440177607112037,0.12096483859353098,-0.5955094431839209,0.5192221052723782,0.07238838123988116,0.5131405256210296,-0.5154206168246633,1.664706588263523,-0.000240009600390916,0.0010800432017191524,0.006480259210368207,2.492557067963532,3.3263308959672906,-0.21424953703152705,0.09378547245044043,-2.383326731437032,-3.8350748344097187,-0.31679078552327034,-0.1439786886920242,9.331200044020625e-05,-0.10231400000000002,-0.147598,-0.6732339999999999,0.06362499999999993,-0.010037000000000074,-0.926488,0.16593899999999995,0.13756099999999993,0.2532540000000001,0.0,0.9890432849915601,single,-0.6732339999999999
106,0.883333,step_acsent,0.0787231489259555,0.00504020160806268,0.1449657986319564,-1.1022860368205927,0.49833778885295965,0.136805143828311,0.5433817352694057,-0.5514220568822749,1.64046561862474,0.0010800432017191524,0.0013200528021233915,0.0028801152046085544,-2.6930154369268013,0.07200576034449069,2.8802304138275927,3.6290903214179693,-4.320345620738194,-2.9090327179626763,0.15841267276011795,0.028802304140674202,-0.43203456207363944,-0.09844200000000003,-0.152235,-0.660772,0.06297799999999987,-0.010067999999999966,-0.927672,0.1614199999999999,0.14216700000000004,0.2669,0.0,0.9944212465774673,single,-0.660772
107,0.891667,step_acsent,0.06047516198703525,-0.0173986081113586,0.09767218622510032,-0.5163969820011409,0.5416546198345402,0.07652302717142721,0.5341972642188669,-0.6049916006719486,1.5944324454043728,-0.0023998080153478634,0.001559875209974779,0.0021598272138225686,-2.1895832660091616,-2.6924417709888897,-5.674779506462246,-1.1020483621956827,-6.42783102827862,-5.523538903331823,-0.4175487421486724,0.028776386831220156,-0.08642764468274416,-0.09449399999999997,-0.15713199999999994,-0.648298,0.06245400000000001,-0.009909999999999974,-0.9284680000000001,0.15694799999999998,0.14722199999999996,0.28017000000000003,0.0,0.9940238569724673,single,-0.648298
108,0.9,step_acsent,0.061562462498497963,-0.020400816032641638,0.07632305292211296,-0.7506713713933097,0.5127247468780264,0.21282552619674108,0.5337813512540488,-0.6527061082443236,1.5462618504740167,0.0018000720028919003,0.008760350414015293,0.01092043681747275,0.13048128062674993,-0.36027936172843233,-2.561998476297525,-0.049911552240265306,-5.725969947482882,-5.780702619747502,0.5040057624192663,0.8640915881483839,1.0513152050462191,-0.09055899999999995,-0.1624009999999999,-0.636049,0.06195600000000012,-0.009666999999999981,-0.929013,0.15251500000000007,0.15273399999999993,0.292964,0.0,0.976474603623817,single,-0.636049
109,0.908333,step_acsent,0.07788311532461498,-0.016920676827066845,0.07284291371655223,1.51304109289949,0.517897919096282,-0.20844028701169087,0.5199807992319645,-0.6801872074883065,1.488299531981289,-0.0033601344053929296,0.004920196807880611,0.008880355214208371,1.9585566814013156,0.41763341000537924,-0.41763341000369136,-1.656132487949649,-3.297863823830931,-6.95575644938535,-0.6192495389757443,-0.4608368662108144,-0.24481958517513466,-0.08687500000000004,-0.16792799999999997,-0.6242540000000001,0.06127899999999997,-0.009484999999999966,-0.929546,0.148154,0.158443,0.3052919999999999,0.0,0.982176829330187,single,-0.6242540000000001
110,0.916667,step_acsent,0.16798656107510754,0.012838972882165517,0.27885769138468625,-3.117363086188263,0.6634036988906951,0.5024108331596339,0.5151187904967552,-0.7227021838252885,1.4330453563714771,0.002039836813046989,0.002879769618420062,0.000839932805375571,10.81154856617373,3.57087229532423,24.719795736516975,-0.5833943766749722,-5.101389049313854,-6.6299706755233405,0.6479447106359344,-0.24483167620116794,-0.9647735071793542,-0.083982,-0.17405799999999993,-0.614635,0.05989599999999995,-0.009568000000000021,-0.931863,0.14387799999999995,0.16448999999999991,0.31722799999999995,0.0,0.9939539970971212,single,-0.614635
111,0.925,step_acsent,0.06864274570983014,-0.006600264010563665,0.1029641185647452,-0.2806665808618558,0.726325349434647,-0.076753945843413,0.4935797431897295,-0.7609504380175225,1.3591743669746736,-0.0038401536061214237,-0.003840153606134747,0.004920196807872219,-11.921734713221767,-2.33280173919706,-21.10807306131529,-2.5847890684058115,-4.589974102032141,-8.864873322549283,-0.7056270753832219,-0.8064230438683284,0.48965126635024975,-0.08044099999999998,-0.18034399999999995,-0.6041670000000001,0.05929200000000012,-0.009544999999999915,-0.9326800000000001,0.1397330000000001,0.17079900000000003,0.32851299999999994,0.0,0.9877864037435604,single,-0.6041670000000001
112,0.933333,step_acsent,0.029881195247816753,-0.022560902436093568,0.06612264490579302,-0.06679476357191878,0.6957511106872886,-0.2087183357608539,0.48229929197168264,-0.8031921276851086,1.2894515780631348,0.0010800432017191667,0.0019200768030740608,-0.0026401056042235026,-4.651572118326382,-1.9153532251926135,-4.421153685221712,-1.3537082944974181,-5.069205528331515,-8.367069352158822,0.5904472348302695,0.6912552993170359,-0.9072725803547091,-0.07667100000000004,-0.18684899999999993,-0.5939730000000001,0.05905199999999999,-0.009340999999999933,-0.933253,0.13572300000000004,0.177508,0.3392799999999999,0.0,0.9942691512532961,single,-0.5939730000000001
113,0.941667,step_acsent,-0.0007199424046150068,-0.045356371490279164,0.09815214782817125,-0.12326168927312658,0.4552234950897285,-0.12592242950842425,0.46292296616270684,-0.8461723062155033,1.229781617470594,-0.0023998080153478313,-0.0004799616030722306,0.003839692824573682,-3.6718427708701133,-2.73523746750485,3.843232892053994,-2.3249730992291404,-5.157208846939571,-7.159822485306019,-0.41754874214866466,-0.2879815702119358,0.7775136103668269,-0.07280699999999996,-0.193523,-0.584542,0.059038000000000146,-0.008966999999999947,-0.934039,0.1318450000000001,0.18455600000000005,0.34949699999999995,0.0,0.9924111407243479,single,-0.584542
114,0.95,step_acsent,-0.100564022560904,-0.1052442097683937,0.25297011880475434,-2.3216767385030352,-0.3325147759462817,0.5213623479781925,0.45001800072003667,-0.8871954878195188,1.1602064082563421,-0.000840033601354894,-0.0002400096003909192,-0.0012000480019204553,-11.98176888951037,-7.18682806649647,18.57889967317707,-1.5486577994324118,-4.922978711630373,-8.349359080073503,0.18718041689583004,0.02879539213744313,-0.6047930909029381,-0.06821899999999992,-0.20003899999999997,-0.576982,0.05986900000000006,-0.008091999999999988,-0.936157,0.12808799999999998,0.19194699999999998,0.359175,0.0,0.9975260376661235,single,-0.576982
115,0.958333,step_acsent,-0.026041041641654963,-0.09060362414495944,0.09060362414497276,-1.523036385368454,0.6239517581091638,-0.03958749074867114,0.4278171126844971,-0.9347173886955494,1.0828033121324812,-0.002760110404428918,-0.0004800192007685088,0.002520100804032173,8.943115434927245,1.7569405524342012,-19.48475874952369,-2.664213132790046,-5.702856219372421,-9.288743084586663,-0.2304184331062062,-0.02880230413747613,0.4464357141428792,-0.06443700000000008,-0.20707300000000006,-0.568714,0.060062999999999866,-0.007341000000000042,-0.936891,0.12449999999999994,0.19973200000000002,0.368177,0.0,0.9937196213975972,single,-0.568714
116,0.966667,step_acsent,0.022918166546669037,-0.10799136069114532,-0.036357091432691495,0.3533588787362348,0.630306275361337,0.03110044816808477,0.4109671226301878,-0.9716822654187517,0.9955603551715785,0.00011999040078470967,-0.0013198944084453037,-0.00035997120230334037,5.874635011797891,-2.0863614766241594,-15.234067143948078,-2.0218370595523383,-4.435430372354449,-10.468317369918648,0.3455844498696431,-0.10077696276419348,-0.3455809942807165,-0.06120300000000001,-0.214271,-0.560114,0.059873000000000065,-0.006452000000000013,-0.936591,0.12107600000000007,0.20781899999999998,0.37647699999999995,0.0,0.9977110784852703,single,-0.560114
117,0.975,step_acsent,0.007560302412100783,-0.07428297131885778,0.1215648625945099,-1.1870291651979257,0.1312879768868748,-0.1266928692173812,0.39337573502940515,-1.0256810272410957,0.9181567262690614,-0.00432017280692996,-0.0034801392055617427,0.0013200528021117513,-1.8430174168448812,4.045168531415798,18.951392538965898,-2.1110509541321036,-6.480110623106261,-9.288807020582956,-0.5328408985617077,-0.25923974524378485,0.20161094496761153,-0.05798800000000004,-0.22219899999999992,-0.5534760000000001,0.05977399999999988,-0.005861999999999923,-0.937593,0.11776199999999992,0.216337,0.38411699999999993,0.0,0.9904959363410246,single,-0.5534760000000001
118,0.983333,step_acsent,0.015000600023992583,-0.06888275531020774,0.11664466578662773,-1.7457484095324012,0.25818936740941517,0.032494498349145154,0.3849753990159577,-1.0609624384975473,0.8328333133325301,-0.0007200288011461016,-0.0018000720028919003,0.0010800432017283122,0.8928714282841437,0.6480518431117264,-0.5904472348352509,-1.0080806448394861,-4.233938708322516,-10.239219121148563,0.4320345620765443,0.20161612896553888,-0.028802304138178105,-0.05490499999999998,-0.23046600000000006,-0.547508,0.059643,-0.005303000000000058,-0.9385560000000001,0.11454799999999998,0.225163,0.39104800000000006,0.0,0.9963012036463516,single,-0.547508
119,0.991667,step_acsent,0.070794336453095,-0.08771298296136805,0.04043676505879933,-0.6667046581085639,0.26477107252743953,0.03135720494879443,0.3754499640028877,-1.1175905927525782,0.7652987760979159,-0.003119750419949558,-0.0021598272138184057,0.0016798656107511643,6.694712794468772,-2.259446562414257,-9.144216550015459,-1.1429607647072253,-6.794834923809838,-8.103496188458676,-0.2879435587717147,-0.043167171937425905,0.0719729312482428,-0.052366000000000024,-0.23904899999999996,-0.541467,0.05902700000000005,-0.004589999999999983,-0.938879,0.11139300000000008,0.23445899999999997,0.397412,0.0,0.9930839067011726,single,-0.541467
120,1.0,step_acsent,0.08352334093362726,-0.09228369134765588,-0.029881195247816357,0.17885838884679162,0.40529266738964115,-0.16324087493843437,0.3745349813992593,-1.158166326653057,0.6767070682827291,-0.002880115204611053,-0.002640105604220137,0.0008400336013440577,1.5275416393294374,-0.5485069466324023,-8.438492776504908,-0.10980230452759268,-4.869282839371018,-10.63143019503017,0.02875737613566591,-0.05763571227669856,-0.10078387248375172,-0.0499409999999999,-0.2479309999999999,-0.535579,0.05830700000000011,-0.00384299999999993,-0.938623,0.10824800000000001,0.24408799999999997,0.40304399999999996,0.0,0.9933394032539924,single,-0.535579
121,1.008333,step_acsent,0.04428177127085889,-0.09288371534860776,0.09408376335053571,-1.1827505511892094,-0.021997893866745027,-0.06935437571669377,0.3476539061562407,-1.2196087843513892,0.6077043081723273,-0.003600144005757202,-0.0025201008040380353,0.0008400336013440688,-4.709176726601312,-0.07200576034464029,14.87639008740588,-3.225858063484799,-7.3733898593942975,-8.280662439745875,-0.08640691241403525,0.014401152067935031,1.3401274902917074e-15,-0.04741300000000004,-0.25732,-0.531299,0.05790800000000007,-0.003090000000000037,-0.9394,0.10532100000000011,0.25422999999999996,0.40810100000000005,0.0,0.9925431609735146,single,-0.531299
122,1.016667,step_acsent,0.06239500839932337,-0.0889128869690408,0.06191504679625114,-0.8739281807973244,0.2112241667537055,-0.052702854422467124,0.344852411807058,-1.270098392128628,0.5279577633789274,-0.0019198464122889224,-0.0008399328053730732,0.0,2.173414582249141,0.4764612886449396,-3.859937191538796,-0.3361524297075446,-6.0582682718068614,-9.56881986961835,0.20161958164966004,0.20160403151727255,-0.10079596848380878,-0.04505899999999996,-0.26716400000000007,-0.527415,0.05737200000000009,-0.0023560000000000247,-0.939916,0.10243100000000005,0.26480800000000004,0.412501,0.0,0.9965074295663189,single,-0.527415
123,1.025,step_acsent,0.07764310572423738,-0.08484339373575178,0.031561262450499894,-0.5064787479858666,0.14582238593578153,-0.036540931313190445,0.34381375255010593,-1.290891635665427,0.46693867754711016,-0.003000120004819874,-0.002640105604220172,-0.0007200288011519401,1.82984487278461,0.4883587223435807,-3.6425998254832024,-0.12464409659811324,-2.4952890359773434,-7.322583203146263,-0.12963801662438035,-0.2160293770367353,-0.08640691241473018,-0.04284100000000002,-0.27721399999999996,-0.523787,0.05669999999999986,-0.001670999999999978,-0.9401849999999999,0.09954099999999988,0.275543,0.41639799999999993,0.0,0.993232159560087,single,-0.523787
124,1.033333,step_acsent,0.04308172326892979,-0.04476179047161288,0.12492499699988617,-1.3915549090563943,-0.028434436145017925,0.02116311003807247,0.36025441017639465,-1.3508940357614154,0.39733589343572484,-0.0020400816032561425,-0.002640105604233425,0.0,-4.147531795908675,4.809984791088227,11.204096309778548,1.9729578334679496,-7.20057603455987,-8.352668200094095,0.115209216556308,-1.590406057313522e-12,0.0864069124147279,-0.04019800000000007,-0.2880980000000001,-0.521517,0.05632399999999993,-0.0013200000000000989,-0.941226,0.096522,0.286778,0.419709,0.0,0.9944392020582951,single,-0.521517
125,1.041667,step_acsent,0.1078713702903768,-0.12359011279098944,-0.10499160067195666,0.2588484705547028,0.4533434783478276,0.07567586241099049,0.40184785217183944,-1.3806095512359293,0.30693544516439325,-0.0007199424046017042,-0.0015598752099747998,0.0009599232061436541,7.774135711716853,-9.45864198696641,-27.587784697845837,4.990813774351522,-3.5655766108128706,-10.847186017678583,0.15840403151601432,0.12961727792880318,0.11518157021162376,-0.037748000000000004,-0.298574,-0.518084,0.055418999999999996,-0.0003029999999999422,-0.9403429999999999,0.093167,0.29827100000000006,0.42225899999999994,0.0,0.9967200185051628,single,-0.518084
126,1.05,step_acsent,-0.0012000480019279175,-0.07620304812191649,0.09936397455898673,-0.6667922381116203,-0.06637592775730122,-0.01264809722180498,0.30325213008519164,-1.4684987399495653,0.25561022440897435,-0.0032401296051840604,-0.0021600864034649224,0.0007200288011519209,-13.089093758826689,5.686675227297747,24.523649973711727,-11.83195992879468,-10.547124530617353,-6.159272861564623,-0.30243456145233555,-0.07202822434778736,-0.028788480138213012,-0.03521099999999999,-0.310176,-0.5167820000000001,0.05540200000000006,0.00031399999999992545,-0.941165,0.09061300000000005,0.31048999999999993,0.42438299999999995,0.0,0.9933997359894318,single,-0.5167820000000001
127,1.058333,step_acsent,0.04008160326413771,-0.1135245409816406,0.04140165606623447,-0.7939222218469647,0.12688701253704426,0.17796024806492272,0.25033001320053416,-1.401896075843043,0.26677067082683253,0.0008400336013282475,0.0001200048001954596,-0.0003600144005763864,4.953996311780392,-4.478758293498674,-6.95575644938831,-6.350908062481454,7.99263939835868,1.3393071424286913,0.48963917034829535,0.27362188931482095,-0.12961036862214295,-0.033459000000000017,-0.320912,-0.514904,0.055074999999999874,0.0012609999999999566,-0.9415129999999999,0.08853399999999989,0.32217299999999993,0.4266089999999999,0.0,0.9984637093988252,single,-0.514904
128,1.066667,step_acsent,0.0009599232061444612,-0.057475401967842996,0.013918886489081366,-0.6150122877824937,0.35776227893614476,-0.21240315507276492,0.4116870650347895,-1.487161027117821,0.1870650347972187,-0.000959923206117818,-0.0011999040076739157,-0.0009599232061436286,-4.694226068873644,6.725358652963424,-3.2976685357754856,19.36129731632519,-10.230975674919296,-9.563911210656734,-0.21597753869043096,-0.15837638683337715,-0.07198329800422819,-0.030036000000000063,-0.332827,-0.513461,0.05505900000000008,0.0017300000000000093,-0.941637,0.08509500000000014,0.334557,0.428176,0.0,0.9969803078012962,single,-0.513461
129,1.075,step_acsent,0.0786031441257611,-0.13716548661946665,0.12180487219488749,-1.9339424173285715,0.12403573832244469,0.1017170902714956,0.33493339733589506,-1.492499699988017,0.12636505460218173,-0.001680067202709788,-0.001320052802110086,0.0002400096003842576,9.317559212722589,-9.563192685902361,12.94683615814318,-9.210808556209669,-0.6406663710783508,-7.284288994964302,-0.086420736420494,-0.014418432069623356,0.14399769669121532,-0.027900000000000036,-0.344121,-0.513423,0.05438999999999994,0.002862000000000031,-0.94265,0.08228999999999997,0.34698300000000004,0.429227,0.0,0.9964165620890235,single,-0.513423
130,1.083333,step_acsent,-0.05748229929197154,-0.031321252850108144,-0.0471618864754554,0.23840410923670458,0.3034698611641334,-0.2279904492858141,0.3421336853474137,-1.5013800552021879,0.08232329293171822,-0.000360014400573046,-0.001800072002878553,-0.001680067202688093,-16.330906446385484,12.701816124967797,-20.276822113325323,0.864069124147185,-1.0656852531106216,-5.285222809367903,0.1584126727633168,-0.05760460827654611,-0.23041843310600227,-0.02456999999999998,-0.3563710000000001,-0.5123439999999999,0.05486599999999997,0.0031079999999999997,-0.942271,0.07943599999999995,0.3594790000000001,0.42992700000000006,0.0,0.9958525458311703,single,-0.5123439999999999
131,1.091667,step_acsent,0.0005999520038436347,-0.1672666186705103,-0.49964002879769914,3.2331836058601686,1.673467077535317,-0.8190148836267026,0.30897528197744695,-1.5131989440844933,0.0413966882649377,-0.002159827213805113,-0.00035997120231417377,-0.002639788816894841,6.969312610489114,-16.31213892733438,-54.293033635979405,-3.978690109187348,-1.4181532136195882,-4.910799696038073,-0.2159602607669908,0.1727982722059523,-0.11515738111432279,-0.02200000000000002,-0.367588,-0.507835,0.054843000000000086,0.00449899999999992,-0.938129,0.0768430000000001,0.37208699999999995,0.43029399999999995,0.0,0.9942838149236402,single,-0.507835
132,1.1,step_acsent,-0.0636025441017666,-0.05316212648506834,0.14748589943596582,-0.2510217493830896,-0.7863731767950672,-0.6844175966085315,0.2846513860554421,-1.5409816392655427,0.008160326413057879,-0.002040081603282789,-0.0015600624024876403,-0.0046801872074879024,-7.704607716981774,13.693086785724224,77.6582177167471,-2.9189842700113307,-3.3340567839972253,-3.988522963144035,0.014370048064601184,-0.14401670468900102,-0.2448576011752101,-0.01909799999999995,-0.37998599999999993,-0.508996,0.05535599999999996,0.004929000000000072,-0.9393969999999999,0.07445399999999991,0.384915,0.4304009999999999,0.0,0.9911024535303199,single,-0.508996
133,1.108333,step_acsent,0.05916236649465621,-0.16080643225729271,-0.11652466098643381,1.3793107826601307,-0.4843201301488365,-0.06135848840398434,0.28837153486138906,-1.5361814472579118,-0.02124084963398348,-0.0025201008040380353,-0.003480139205575066,-0.0014400576023038802,14.73237856671354,-12.917833406003284,-31.682534552070326,0.4464357141422043,0.5760460827590141,-3.5282822569352725,-0.05760460827496106,-0.23041843310781748,0.38883110586632086,-0.01718799999999998,-0.391447,-0.508202,0.054841999999999946,0.006240000000000023,-0.938438,0.07202999999999993,0.397687,0.43023599999999995,0.0,0.9924472148531803,single,-0.508202
134,1.116667,step_acsent,0.0273578113750905,-0.14746820254378631,-0.08783297336212495,-0.5158646908903207,-0.18779389161624346,0.42933648109536643,0.3171346292296666,-1.510799136069105,-0.06023518118550499,-0.0017998560115042128,-0.002279817614589765,-0.003119750419967001,-3.8162413150426535,1.6004595288584471,3.442727096749297,3.4512952205756355,3.0456336919614286,-4.678945470544902,0.08642246130715348,0.1440270687527348,-0.2015470143584243,-0.014772999999999925,-0.4028090000000001,-0.5079720000000001,0.054599000000000064,0.007449999999999957,-0.937732,0.06937199999999999,0.41025900000000004,0.4297599999999999,0.0,0.9928956404814395,single,-0.5079720000000001
135,1.125,step_acsent,0.03936157446297828,-0.06588263530541542,0.043081723268930935,-0.3858505202894053,0.07502187136816897,-0.03706456838518937,0.29281171246850113,-1.5438617544701814,-0.07764310572423072,-0.002040081603256197,-0.001320052802110086,-0.0036001440057597004,1.440509190914183,9.790659694992396,15.710392011407304,-2.918866766010526,-3.9676729150457906,-2.089034506027348,-0.028828224139203957,0.11517638455294464,-0.05764953627657553,-0.012660999999999922,-0.41512499999999997,-0.508978,0.054254000000000135,0.007987999999999995,-0.9381210000000001,0.06691500000000006,0.42311299999999996,0.42914300000000005,0.0,0.9927609260087067,single,-0.508978
136,1.133333,step_acsent,0.02616104644186409,-0.06228249129965822,0.014520580823224268,-0.02596912397694301,0.24193301209804943,-0.18693404264300573,0.20868834753389548,-1.676107044281794,-0.11256450258010356,-0.000840033601354894,-0.00108004320173249,-0.0018000720028802666,-1.584126727602821,0.4320345620733517,-3.4274741924525296,-10.095207600456789,-15.870069580176871,-4.190735252114863,0.1440115206889853,0.028802304137477277,0.2160172810367755,-0.011140000000000039,-0.428573,-0.510037,0.054028999999999994,0.008498000000000006,-0.938257,0.06516900000000003,0.437071,0.42822000000000005,0.0,0.9962315605261273,single,-0.510037
137,1.141667,step_acsent,0.06875449964003376,-0.1346292296616208,-0.10367170626349524,0.4861889585580069,-0.21403079056435434,-0.04717839019897873,0.24382049436045336,-1.4814014878809545,-0.1108711303095787,-0.0007199424046016851,-0.0015598752099747583,-0.0026397888168947707,5.110805519338774,-8.68091413030502,-14.181939895214617,4.215520377556709,23.36279774428102,0.20318841738959106,0.014409790827118789,-0.057575234970274135,-0.10075795704517611,-0.00968100000000005,-0.439797,-0.510097,0.05345,0.009607000000000032,-0.937415,0.06313100000000005,0.449404,0.427318,0.0,0.9947506580480026,single,-0.510097
138,1.15,step_acsent,0.02136085443416562,-0.0902436097443876,0.00972038881555244,0.11014841702821691,0.10981585956523185,-0.12447337341020477,0.28177127085083864,-1.5371414856594423,-0.20148805952238105,0.00012000480018213638,-0.0002400096003909192,-0.0025201008040322066,-5.687464923301161,5.326487449566017,13.60759571331438,4.554275349860269,-6.689067296110443,-10.87446648419575,0.10079769648191877,0.15839020875841248,0.014363136068950575,-0.007510999999999934,-0.45185400000000003,-0.511857,0.053273000000000015,0.01035699999999995,-0.937517,0.06078399999999995,0.462211,0.42566000000000004,0.0,0.995776088627156,single,-0.511857
139,1.158333,step_acsent,0.046441857674309306,-0.06972278891156168,0.04392175687027133,-0.3505659395370021,0.30862284448195704,-0.29466686878151693,0.3536541461658444,-1.3787351494059554,-0.27661106444257305,-0.0004800192007551792,-0.0010800432017324612,-0.0007200288011519209,3.009840782448488,2.4625970038192193,4.104328339699784,8.626290089404115,19.009520731247342,-9.015121195270693,-0.07200576034289032,-0.10080806448356262,0.21601728103687198,-0.004950999999999928,-0.462762,-0.514528,0.052882000000000096,0.010928999999999967,-0.937889,0.05783300000000002,0.473691,0.423361,0.0,0.9976933952168763,single,-0.514528
140,1.166667,step_acsent,0.05039596832253227,-0.12646988240940957,-0.011039116870648276,-0.1714275521698752,-0.38604103663858846,0.17243732211145546,0.29217662586993176,-1.422006239500867,-0.24550035997120603,-0.0003599712023008521,-0.0009599232061311652,-0.002999760019199023,0.47445532136105595,-6.809106491222578,-6.594777266729141,-7.376712298525774,-5.192115442154117,3.7329858976922976,0.014404607445923846,0.014413246412442796,-0.27354586249665774,-0.0029359999999999387,-0.473559,-0.516482,0.052459000000000144,0.011975000000000069,-0.937822,0.05539500000000008,0.4855340000000001,0.42134000000000005,0.0,0.9947164847557763,single,-0.516482
141,1.175,step_acsent,0.05820232809313095,-0.1436457458298311,-0.06444257770310816,0.1430907640697279,-0.12893291471343116,0.0627098283155228,0.22908916356653128,-1.3807752310092114,-0.2774510980439146,-0.0002400096003909128,-0.0008400336013548716,-0.0004800192007676697,0.9368006444976053,-2.061186057892865,-6.4086716467609435,-7.570798308340259,4.947918935756018,-3.834241938402497,0.014395968067915182,0.014387328066277629,0.30238099345149516,-0.0015120000000000688,-0.48386799999999996,-0.518257,0.05197200000000002,0.013164999999999982,-0.937289,0.05348400000000009,0.49703299999999995,0.41903200000000007,0.0,0.9983386087717496,single,-0.518257
142,1.183333,step_acsent,0.031201248049913515,-0.055922236889472066,0.05880235209408315,-0.45299189489372954,0.6411485398080178,-0.2789528872383235,0.2172086883475466,-1.3334933397336028,-0.32701308052322786,0.0008400336013282475,-0.0004800192007685152,-0.0001200048001921288,-3.2402592155547443,10.527242162529683,14.789983174990093,-1.4257140548403664,5.674053915229687,-5.947675804549828,0.12961036862104527,0.04320345620861151,0.04320345620731359,3.8000000000093515e-05,-0.494514,-0.5214719999999999,0.05171899999999996,0.013626999999999945,-0.93778,0.051680999999999866,0.508141,0.416308,0.0,0.9983751273241881,single,-0.5214719999999999
143,1.191667,step_acsent,0.04019678425726934,-0.17002639788816784,-0.07931365490760951,0.45939638736639354,-0.20341148914207952,0.16839435539090877,0.21490280777537477,-1.295176385889122,-0.3376529877609745,-0.0009599232061444612,-0.00011999040075806644,0.0002399808015361153,1.079377994643119,-13.691404007522786,-16.572595032600386,-0.2766835339779014,4.597666648005815,-1.2766867335909022,-0.2159775386936279,0.04320000000125342,0.0431948166220592,0.0014939999999999953,-0.5038910000000001,-0.523625,0.051375999999999866,0.015043000000000029,-0.937117,0.04988199999999987,0.518934,0.41349199999999997,0.0,0.9983388081227669,single,-0.523625
144,1.2,step_acsent,0.05388215528620254,-0.14856594263770223,0.030721228849158323,-0.41046758510596226,-0.3473888314489299,0.11503168255244087,0.2300492019680744,-1.2121684867394773,-0.3813752550102056,0.0,-0.0004800192007685152,-0.002880115204608593,1.6423102158806349,2.575357644361671,13.204714239381838,1.8176400087243225,9.961346351811539,-5.246881945185582,0.11519539255303853,-0.04320518420862259,-0.37442649779728027,0.00296200000000002,-0.512754,-0.5270589999999999,0.050926999999999945,0.016276999999999986,-0.937397,0.047964999999999924,0.529031,0.4103380000000001,0.0,0.9951335953195735,single,-0.5270589999999999
145,1.208333,step_acsent,0.018240729629189767,-0.07416296651866033,0.057602304092166996,-0.39771873470358465,0.6421294090077722,-0.16330818122150764,0.17172686907476853,-1.119884795391797,-0.3988959558382258,-0.000720028801146092,-0.002760110404415558,-0.0002400096003834185,-4.27714216452804,8.928714282856186,3.2258580634835234,-6.998959905592806,11.074485941159093,-2.1025682020904717,-0.0864069124140261,-0.2736218893132129,0.31682534552083624,0.00424100000000005,-0.521468,-0.5308630000000001,0.05076899999999995,0.016871999999999998,-0.937879,0.0465279999999999,0.53834,0.40701599999999993,0.0,0.9952290649858524,single,-0.5308630000000001
146,1.216667,step_acsent,0.05207583393329178,-0.19126469882410915,-0.10439164866811303,0.5513252063600654,-0.3205108090968127,0.2588857945039196,0.1972642188624922,-1.0521958243340699,-0.40640748740101246,-0.00011999040075806964,-0.0002399808015427825,-0.00215982721382343,4.0598877254742805,-14.05108378995093,-19.437719313688877,3.0642368355800533,8.122026764786222,-0.9013116825998091,0.07199884813871295,0.30239136103585595,-0.2303596848380187,0.005450999999999984,-0.528643,-0.53338,0.05033399999999999,0.018464000000000036,-0.9370269999999999,0.044883000000000006,0.547107,0.403647,0.0,0.9963726187610544,single,-0.53338
147,1.225,step_acsent,0.028321132845314994,-0.13020520820831305,-0.023160926437056924,0.05373416154418321,0.2509996124527154,0.00020015582081885704,0.16032641305651993,-0.965678627145072,-0.37525501020040036,-0.0009600384015370048,0.0006000240009639587,-0.0014400576023038418,-2.850678157683472,7.327431971174251,9.748076590790193,-4.432714005276807,10.382478961838036,3.7384468019454635,-0.10080979248516986,0.1008046084851466,0.08637580841468565,0.0065509999999999735,-0.5356050000000001,-0.536314,0.05008999999999997,0.01955399999999996,-0.936846,0.043538999999999994,0.555159,0.400532,0.0,0.9969470103759177,single,-0.536314
148,1.233333,step_acsent,0.038521540861623384,-0.18012720508821545,-0.006000240009599778,0.1814078769730433,-0.29027840218273226,0.17790928880536783,0.046201848073919624,-0.902556102244098,-0.36301452058082656,-0.000840033601354894,-0.0021600864034516565,-0.0024000960038400776,1.224097925874053,-5.990879260758772,2.0593647458847117,-13.69549561773687,7.575005988356487,1.4689175110493116,0.01440115206793615,-0.33122649758978046,-0.11520921655301146,0.0066150000000000375,-0.541625,-0.5392889999999999,0.04976199999999997,0.021037000000000083,-0.936816,0.043146999999999935,0.562662,0.3975270000000001,0.0,0.9944392020582995,single,-0.5392889999999999
149,1.241667,step_acsent,0.03095752339813889,-0.10607151427885639,0.07067434605232267,-0.5847441123010508,0.02702667467908086,0.12466655160560346,0.13786897048235502,-0.8455723542116597,-0.2933765298776112,-0.0026397888168906074,-0.0019198464122889224,-0.0003599712023041729,-0.9076094868591835,8.88597201936147,9.200214310285801,10.999174755031762,6.837502763671454,8.355890413152727,-0.21595334959631626,0.028826492820102263,0.24479539255290242,0.007505999999999902,-0.5477879999999999,-0.5423230000000001,0.049481999999999915,0.021905000000000063,-0.937408,0.04197600000000001,0.569693,0.3950849999999999,0.0,0.9945268649774437,single,-0.5423230000000001
150,1.25,step_acsent,0.008280331213246894,-0.1522860914436549,-0.04260170406817575,0.5308015886293043,0.37155266646951246,-0.035979285448559405,0.08076323052922607,-0.758310332413299,-0.3279731189247582,-0.0012000480019279496,-0.0019200768030740608,-0.0012000480019196224,-2.721371917063747,-5.545971098619817,-13.593669761250384,-6.852962912892052,10.471861490262981,-4.151756755927917,0.17277580882787363,-2.764800013660675e-05,-0.10081324848379422,0.00810999999999995,-0.5528379999999999,-0.5447009999999999,0.049402999999999864,0.023158000000000012,-0.937063,0.04129299999999991,0.575996,0.3923620000000001,0.0,0.9957289978590936,single,-0.5447009999999999
151,1.258333,step_acsent,0.06780271210847616,-0.1773670946837865,-0.0289211568462664,-0.040607213347492836,-0.5304394560003749,0.3023387374828253,0.09120364814592462,-0.7425897035881536,-0.23148925957038663,-0.0024000960038292525,-0.00108004320173249,-0.0031201248049928503,7.142971426284628,-3.0098407824471174,1.6417313358825718,1.2529002300130376,1.8865509210543154,11.57852626357524,-0.14401152068898523,0.10080806448356876,-0.2304184331061137,0.008305000000000007,-0.557548,-0.546389,0.04881800000000003,0.024626999999999954,-0.936848,0.04051300000000002,0.582175,0.390459,0.0,0.9931967873308232,single,-0.546389
152,1.266667,step_acsent,0.018118550515960053,-0.1279097672186229,0.08279337652987319,-0.20948961136772415,0.11839706212789279,-0.07392471119600535,0.041396688264943256,-0.6652267818574455,-0.26157907367410593,-0.002279817614589765,-0.0017998560115175344,-0.001679865610751142,-5.961622461304984,5.93440454345611,13.404671631406137,-5.976357077151546,9.282807983046249,-3.6104888533380217,0.014432252128568112,-0.08637062752400275,0.17281727792676954,0.008499000000000034,-0.562026,-0.5492589999999999,0.048648000000000025,0.02567799999999998,-0.9375519999999999,0.04014899999999999,0.587704,0.388293,0.0,0.9944075948107739,single,-0.5492589999999999
153,1.275,step_acsent,0.03972158886355133,-0.16272650906036676,-0.0441617664706501,0.11869362164175064,0.04621111966157807,0.19339591304416107,-0.008400336013442354,-0.5981039241569703,-0.2828513140525645,-0.003480139205575066,-0.0020400816032695203,-0.0033601344053754427,2.5924683004429947,-4.178176148055223,-15.2352265691257,-5.975881948684275,8.055065126662166,-2.552770956253298,-0.1440443526923451,-0.02882822413920414,-0.20164032096775664,0.00809800000000005,-0.565654,-0.5512480000000001,0.048288,0.027016999999999958,-0.937212,0.04018999999999995,0.592671,0.385964,0.0,0.9912497928500128,single,-0.5512480000000001
154,1.283333,step_acsent,0.018240729629189767,-0.18480739229568688,0.007560302412087259,0.272587128272484,-0.44442287245113565,0.13449749788089868,-0.031441257650303596,-0.5670226809072239,-0.24000960038401137,-0.003840153606148019,-0.0032401296051840604,-0.003240129605184893,-2.5778062203721572,-2.6498119807175966,6.206896541790046,-2.7650211972711918,3.729898385904949,5.141211288677829,-0.043203456207001924,-0.1440115206905699,0.01440115206894846,0.007684000000000024,-0.568839,-0.553311,0.048103999999999925,0.028529999999999944,-0.937302,0.0404199999999999,0.5973689999999999,0.38399099999999997,0.0,0.9900356664609891,single,-0.553311
155,1.291667,step_acsent,0.03659707223422192,-0.16078713702904168,-0.08843292536597093,0.43952688807248563,0.28212477433065625,0.06889551881201426,-0.08255339572834593,-0.5022798176146032,-0.2686585073194185,-0.002519798416105965,-0.0007199424046017042,-0.0022798176145906583,2.2025849058114355,2.8822000559929988,-11.518265872097434,-6.132965932090629,7.768522113345563,-3.43759382474294,0.1584299484091768,0.3023982722081119,0.11522822061366128,0.0066910000000000025,-0.571685,-0.554813,0.0477780000000001,0.029864,-0.936584,0.041087000000000096,0.601549,0.38177099999999997,0.0,0.994210817204199,single,-0.554813
156,1.3,step_acsent,0.04872194887795636,-0.16164646585862996,0.053162126485055014,-0.2068487804366633,-0.010909428241068825,0.05230185683369725,-0.09780391215648576,-0.4544581783271233,-0.25033001320052084,-0.002760110404428881,-0.0022800912036470555,-0.001920076803072344,1.4550433989840668,-0.10312358449397149,16.992085905559037,-1.8301351767838194,5.738826267548183,2.199507274558661,-0.02883859214243513,-0.18722534489923484,0.04317062420716524,0.005469999999999975,-0.574125,-0.557342,0.047348999999999974,0.031191999999999998,-0.937043,0.041879,0.605317,0.37970099999999996,0.0,0.9932292048162548,single,-0.557342
157,1.308333,step_acsent,0.030361214448571944,-0.2130085203408121,-0.10584423376934435,0.5672096247527435,-0.33457108928749685,0.28154424333620187,-0.1000840033601355,-0.4017760710428475,-0.25417016680667565,-0.0012000480019279496,0.0012000480019146262,0.006120244809792739,-2.203376266576813,-6.163693085585337,-19.08152649158776,-0.27362188931354314,6.322105758343488,-0.46083686621322945,0.18721497689918945,0.41763341000380577,0.9648771886313641,0.004383000000000026,-0.575698,-0.558578,0.04708599999999996,0.03297699999999992,-0.93611,0.042702999999999935,0.608675,0.377532,0.0,0.9894146816893469,single,-0.558578
158,1.316667,step_acsent,0.014638828893696373,-0.15154787616990695,0.052315814734819846,-0.047026716616578604,0.11826759041780847,-0.06425309455064468,-0.11339092872569792,-0.3648908087353003,-0.2762179025677956,0.002759779217675317,0.005759539236866767,0.010679145668346306,-1.8865353437575536,7.374687325522521,18.97768760549112,-1.5967033076028705,4.425877406713098,-2.6455166500023743,0.47514125505198423,0.5470951805798063,0.5470243410791376,0.0033159999999999856,-0.5774760000000001,-0.561316,0.046987,0.034287999999999985,-0.936457,0.043671000000000015,0.611764,0.37514099999999995,0.0,0.9792613601540854,single,-0.561316
159,1.325,step_acsent,0.02724108964358326,-0.24468978759150747,-0.07656306252250489,0.6371478157950554,-0.5247472946094363,0.2656503763868307,-0.12084483379335045,-0.3064922596903905,-0.3181327253090103,0.004320172806903313,0.009000360014393005,0.02856114244569834,1.5123317832577705,-11.177476469650951,-15.466083914235677,-0.8945043882938439,7.008106209637622,-5.029979928142938,0.18725472089619707,0.3889140498651467,2.145925450300276,0.0020820000000000283,-0.577991,-0.563329,0.04679599999999995,0.036401999999999934,-0.935581,0.04471399999999992,0.614393,0.372252,0.0,0.9495737824122747,single,-0.563329
160,1.333333,step_acsent,0.045601824072967756,-0.15144605784230927,0.04896195847833395,-0.4757570926395569,0.15761793615659456,0.008627716778319472,-0.1052442097683909,-0.27133085323411954,-0.34141365654626094,-0.021600864034542637,-0.02376095043800756,-0.061202448097923266,2.203376266576764,11.189695157709897,15.063605064302969,1.8721497689858733,4.219537556254693,-2.793823501410081,-3.1106488469273366,-3.9315145148685935,-10.772061747704313,0.0008249999999999647,-0.57899,-0.5665819999999999,0.046236000000000055,0.037466,-0.936499,0.04541100000000009,0.616456,0.36991700000000005,0.0,0.8848078929939782,single,-0.5665819999999999
161,1.341667,step_acsent,0.03395728341731793,-0.2056635469162498,-0.05795536357090345,0.5256314924577606,0.17182965577513395,0.10344245833162893,-0.1113510919126539,-0.2284617230621614,-0.38468922486201673,-0.0033597312215190253,-0.002759779217662069,-0.0037197024238057232,-1.3972331000300036,-6.505578242613578,-12.829052321722994,-0.7327672359326991,5.143884109906283,-5.192652785667941,2.188760836695939,2.519938951325401,6.897377690678982,-0.00038599999999999746,-0.57918,-0.5693050000000001,0.045924999999999994,0.039157,-0.9360470000000001,0.04631099999999999,0.618337,0.366742,0.0,0.9904634677085147,single,-0.5693050000000001
162,1.35,step_acsent,0.022680907236288423,-0.17316692667707403,0.10488419536780452,-0.5906806154756024,-0.1866589596744525,0.12932759827483137,-0.11880475219007777,-0.17964718588743547,-0.41149645985838895,-0.0030001200047931474,-0.0010800432017324612,-0.004800192007680028,-1.3532192704943367,3.8997504187177725,19.541528733793967,-0.8944750122913412,5.857978780118213,-3.2169968794397876,0.043155072209992984,0.20157638496694807,-0.12966393662237916,-0.0015649999999999276,-0.579234,-0.573608,0.04571100000000006,0.040591000000000044,-0.9369609999999999,0.047275999999999985,0.6198250000000001,0.3633529999999999,0.0,0.9903954500551729,single,-0.573608
163,1.358333,step_acsent,0.015240609624383703,-0.17208688347533282,-0.0855634225368979,1.0204379588669594,0.7014714175736054,-0.17689807100866423,-0.1088443537741509,-0.12804512180487151,-0.4266170646825882,-0.0024000960038292525,0.0006000240009639748,-0.002760110404416464,-0.892871428285706,0.12961036862369132,-22.85462833369785,1.195295621736105,6.19249538972332,-1.8145451607103547,0.0720057603460819,0.2016161289687329,0.24481958517503688,-0.002598999999999907,-0.578867,-0.57645,0.04556400000000016,0.04203000000000001,-0.9362710000000001,0.04816300000000007,0.620897,0.35982100000000006,0.0,0.9938223748104106,single,-0.57645
164,1.366667,step_acsent,0.027597792176633277,-0.21106311495081026,-0.007079433645312071,0.9592699872707056,-0.20781414312952426,-0.2033399334577428,-0.09839212862971403,-0.09287257019438337,-0.4150467962562951,-0.0032397408207342263,-0.00011999040077138805,-0.003599712023038399,1.482743286806993,-4.676773635166443,9.41732528096775,1.2541666839976955,4.220368563773443,1.3883211454635251,-0.10074931808314944,-0.08639481662291304,-0.10074413470385513,-0.0036490000000000133,-0.577882,-0.57985,0.0453070000000001,0.04378800000000005,-0.936242,0.04895600000000011,0.62167,0.35639200000000004,0.0,0.9919259942251871,single,-0.57985
165,1.375,step_acsent,0.04896195847833525,-0.23376935077402708,-0.24756990279611854,2.2006885277892283,-0.48230771147267953,-0.029184576490954732,-0.09480379215168182,-0.026761070442814745,-0.480139205568231,-0.003480139205575066,0.0001200048001954596,-0.0027601104044156313,2.563802508304593,-2.724857293077766,-28.86001069852498,0.4306176020679517,7.933697318081031,-7.811401573495317,-0.028848960139306577,0.028800576139067547,0.1007562244837124,-0.004846999999999935,-0.576157,-0.581788,0.044870000000000076,0.04573700000000003,-0.934202,0.04971700000000001,0.621894,0.352414,0.0,0.9925943003393756,single,-0.581788
166,1.383333,step_acsent,0.00216008640346498,-0.17760710428417742,-0.012000480019199556,0.9612255477367131,-0.5302393970163928,-0.08859699487099149,-0.0646825873035008,-0.006000240009606439,-0.4504980199207985,-0.00312012480500201,0.0008400336013415707,-0.0031201248049928503,-5.6164493069567625,6.739739168348755,28.269461511691002,3.6146891693485297,2.4913993079573373,3.55708456107437,0.04320345620701536,0.08640691241403069,-0.04320345620751498,-0.005404000000000075,-0.574727,-0.585442,0.04482599999999992,0.047224000000000044,-0.934128,0.05023,0.621951,0.34868599999999994,0.0,0.9925137136396491,single,-0.585442
167,1.391667,step_acsent,0.006719462442997906,-0.14302855771537817,0.06875449964003376,0.24408097476908105,0.24754648435094437,-0.06229490482815016,0.010079193664503522,-0.0040796736261072995,-0.4780417566594621,-0.0035997120230350688,0.0013198944084453037,-0.0035997120230375663,0.5470813582352881,4.1490936607630164,9.689822373318059,8.97069606047561,0.23044953005749041,-3.3049840099188086,-0.05754586249496701,0.05757869055720294,-0.05754586249636578,-0.005376000000000047,-0.573569,-0.5899989999999999,0.04474,0.048427,-0.934731,0.05011600000000005,0.621996,0.34473200000000004,0.0,0.9912348584110078,single,-0.5899989999999999
168,1.4,step_acsent,-0.03804152166086819,-0.23748949957997972,-0.1719668786751507,2.5145989611330912,-0.3055999198066521,-0.1531366635266288,-0.03564142565702561,0.06216248649946276,-0.33649345973839606,-0.002040081603256197,0.002640105604220172,-0.0026401056042243353,-5.371532953782132,-11.335766454410466,-28.887720906658668,-5.486693786335,7.949377190156087,16.98647508953166,0.18716313689894226,0.15843168076021605,0.11515737655265089,-0.005356000000000027,-0.571072,-0.59137,0.04504000000000008,0.05042799999999992,-0.93332,0.05039600000000011,0.6214999999999999,0.3419500000000001,0.0,0.9929088771946037,single,-0.59137
169,1.408333,step_acsent,-0.0638425537021442,-0.23328933157326567,-0.13140525621024096,2.129922865005624,-0.558577784692634,-0.16992892523765918,-0.06192247689907019,0.10704428177126944,-0.24480979239168973,-0.0028801152046110143,0.00168006720269642,-0.0021600864034565953,-3.0962476948608617,0.5040403224185739,4.867589399365058,-3.1538523031374197,5.386030873851662,11.0024801808118,-0.1008080644851557,-0.11520921655151029,0.05760460827645886,-0.005340000000000011,-0.568236,-0.592315,0.04554800000000003,0.052386000000000044,-0.932243,0.050888000000000044,0.620622,0.339928,0.042881288649262994,0.9933785569993716,single,-0.592315
170,1.416667,step_acsent,0.10079193664506454,-0.17182625389968995,0.1348692104631672,-2.5948020969435643,1.1377466122839457,0.5447738306952937,-0.052435805135592636,0.0757139428845698,-0.08579313654908025,-0.00299976001919153,0.0005999520038303131,-0.0013198944084470041,19.754558476987263,7.374979322483429,31.95037997041195,1.1383095468535798,-3.759339919210492,19.080472263332435,-0.014356229251322064,-0.12960345558748826,0.1008149742032166,-0.006616999999999984,-0.566173,-0.5941540000000001,0.04468300000000014,0.053822999999999954,-0.933378,0.05130000000000012,0.619996,0.33922399999999997,0.2902211674811166,0.9944470668838967,single,-0.5941540000000001
171,1.425,step_acsent,-0.011280451218039821,-0.2530901236049431,0.05748229929197154,-0.28262898699983263,-0.242280939906098,0.22774774321063584,0.03600144005761103,0.0627625105004184,-0.057722308892349125,-0.004440177607111978,0.001320052802123374,-0.001680067202688093,-13.44922451255279,-9.75205444680808,-9.286800812575818,10.612893938941813,-1.5542340554603598,3.368634064170242,-0.17285702483144397,0.08641555241726248,-0.04322246420749821,-0.0062229999999999785,-0.563541,-0.595114,0.04474,0.055943000000000076,-0.933871,0.05096299999999998,0.619484,0.338757,0.3457356043598393,0.9917874854323416,single,-0.595114
172,1.433333,step_acsent,0.1018840753630141,-0.27493099723988396,-0.2254890195607935,1.7281820247358255,0.34265036289980383,0.17390994641569338,-0.013080523220932045,0.08748349933997196,0.014400576023035471,-0.003720148805965985,0.001560062402487682,-0.0024000960038400776,13.580286401182642,-2.6210096765799906,-33.957916578995274,-5.890071196273074,2.9666373262395043,8.655092393541972,0.08640691241401652,0.028802304135882657,-0.08640691241473553,-0.007180999999999993,-0.560521,-0.5931150000000001,0.0438599999999999,0.05824699999999994,-0.932012,0.05104099999999989,0.618768,0.3388969999999999,0.3506324505875278,0.9921766441795106,single,-0.5931150000000001
173,1.441667,step_acsent,0.05699544036477077,-0.25809935205183554,-0.14602831773458294,1.1398632055378135,0.25466686459554866,0.10071443519026134,0.07163426925845381,0.0704343652507799,-0.11123110151187288,-0.005039596832238439,0.002399808015361153,-0.001679865610751142,-5.386205303364889,2.0196358516976587,9.534521457428601,10.16496190057418,-2.0457324321084633,-15.074595336561961,-0.15832109746489612,0.10076141263180523,0.08642073351199066,-0.0070590000000000375,-0.557783,-0.5928249999999999,0.04334300000000002,0.06041799999999997,-0.930809,0.05040200000000006,0.618201,0.33798400000000006,0.2501954859627594,0.9902848109739492,single,-0.5928249999999999
