frame_id,timestamp,gait_type,root_linear_velocity_x,root_linear_velocity_y,root_linear_velocity_z,root_angular_velocity_x,root_angular_velocity_y,root_angular_velocity_z,left_linear_velocity_x,left_linear_velocity_y,left_linear_velocity_z,right_linear_velocity_x,right_linear_velocity_y,right_linear_velocity_z,root_acceleration_x,root_acceleration_y,root_acceleration_z,left_acceleration_x,left_acceleration_y,left_acceleration_z,right_acceleration_x,right_acceleration_y,right_acceleration_z,left_pos_rel_x,left_pos_rel_y,left_pos_rel_z,right_pos_rel_x,right_pos_rel_y,right_pos_rel_z,step_length,step_width,step_height,left_contact_prob,right_contact_prob,support_type,max_foot_height
<<<<<<< HEAD
<<<<<<< HEAD
1,0.008333,step_decsent,-0.05856234249367837,0.012120484819394905,-0.006000240009613046,-0.28326748727830653,0.11608116580358659,0.11841321749721567,0.0003600144005730523,0.0004800192007685108,-0.002160086403451637,-0.004200168006721138,0.001680067202683126,-0.0034801392055683724,0.0,0.0,0.0,0.0,0.0,0.0,0.0,0.0,0.0,-0.07471500000000009,0.010963,-0.918554,0.13128699999999993,-0.007769000000000026,-0.91038,0.20600200000000002,0.018732000000000026,0.008174000000000015,0.9962635422032421,0.9087475219404034,double,-0.91038
2,0.016667,step_decsent,-0.0745140388769144,0.0,0.0067194624430112785,-0.125895657192798,0.09297105193228045,0.1253966842701754,0.0,0.0005999520038369624,-0.0038396928245778734,-0.0021598272138317145,0.00035997120230750603,-0.0004799616030722342,-1.9140504419529676,-1.45434183098091,1.5262421949393237,-0.04319827220698971,0.014390785105405755,-0.20153664760334009,0.24482130944197544,-0.1583988481372234,0.35999251289850465,-0.07409399999999988,0.010967999999999978,-0.9186420000000001,0.13189000000000006,-0.007765999999999995,-0.91044,0.20598399999999994,0.018733999999999973,0.008202000000000043,0.9935228642745717,0.914243990542287,double,-0.91044
3,0.025,step_decsent,-0.09576383055320466,-0.004800192007678446,0.004680187207476326,0.003861195104391167,-0.016688721878297574,0.17438136221361045,0.002760110404402283,0.0,-0.0009600384015303599,-0.0013200528021100738,0.0014400576023055323,-0.0008400336013482247,-2.5500770042349994,-0.5760460827647241,-0.2447228171768814,0.33122649758817746,-0.0719971203452493,0.345572353659848,0.10077696048501628,0.12961555262186802,-0.043210368207847176,-0.07327300000000014,0.011007999999999962,-0.9186889999999999,0.13267699999999993,-0.007713999999999999,-0.9104859999999999,0.20595000000000008,0.01872199999999996,0.00820299999999996,0.9951294869147472,0.9144258492046324,double,-0.9104859999999999
4,0.033333,step_decsent,-0.0980439217568784,0.007680307212282849,-0.0008400336013282398,-0.13652935636683708,-0.24476250408687886,0.15975404153885156,0.002400096003855877,0.00012000480019545849,-0.0013200528021167354,-0.0019200768030740432,0.001680067202683126,0.0009600384015370216,-0.27362188931642173,1.497719815187963,-0.6624529951763549,-0.043203456203816874,0.0144011520695378,-0.0432034562086134,-0.07200576034609016,0.028802304137476753,0.21601728103747106,-0.07243599999999994,0.010945000000000038,-0.9186930000000001,0.13347799999999999,-0.007763999999999993,-0.910471,0.20591399999999993,0.01870900000000003,0.008222000000000063,0.9954303533505888,0.9132366915910257,double,-0.910471
5,0.041667,step_decsent,-0.0893928485721137,-0.0035997120230350957,-0.010319174466046374,-0.033785918387839446,-0.07667736028962406,0.05727441442423732,-0.0015598752099880916,0.0009599232061444684,0.0004799616030722342,-0.0004799616030589126,0.0022798176145897822,0.00035997120230750603,1.0380457385126827,-1.353494028715856,-1.1374059112932726,-0.4751585329786378,0.1007821461421898,0.215984449866687,0.1728000000018155,0.0719642922854159,-0.07200230372324401,-0.07170399999999999,0.01098300000000002,-0.9186030000000001,0.1342190000000001,-0.007715000000000027,-0.910382,0.20592300000000008,0.018698000000000048,0.008221000000000034,0.9968443056879253,0.9138609377841043,double,-0.910382
6,0.05,step_decsent,-0.046201848073932524,0.015840633625347534,0.005280211208440295,-0.18011653595079158,-0.09042261597428486,0.12229611087915025,0.0006000240009639692,0.000840033601341563,-0.0004800192007685108,-0.00216008640346496,0.003240129605184117,0.0001200048001887969,5.183127384877136,2.3329347951977235,1.8720011609848395,0.2591982732451771,-0.014387328069471418,-0.11520230455307152,-0.20162304097036451,0.11524204855326228,-0.02879712013905066,-0.07131399999999988,0.010857999999999979,-0.918651,0.1345860000000001,-0.00782000000000005,-0.910425,0.20589999999999997,0.018678000000000028,0.008225999999999956,0.9981025575061985,0.9112466670343742,double,-0.910425
7,0.058333,step_decsent,-0.046441857674296795,0.008040321612862562,0.01032041281651632,-0.10474123053082296,-0.027018221005122585,0.08232043427678962,0.0008400336013282398,0.0014400576023055323,-0.001200048001921277,-0.0008400336013548863,0.0015600624025009907,0.0030001200047998617,-0.02880230413587802,-0.9360748844935763,0.6048483869045992,0.028802304135877903,0.07200576034609016,-0.08640691241482854,0.15841267276011925,-0.20161612896713382,0.34562764965931414,-0.0709200000000001,0.010803000000000007,-0.918747,0.13496599999999992,-0.007873999999999992,-0.910486,0.205886,0.018677,0.008260999999999963,0.9965764145028633,0.9115828752586195,double,-0.910486
8,0.066667,step_decsent,-0.0395968322534127,0.007799376049913815,-0.007079433645312124,-0.08815620126573959,0.054397497298727095,-0.00853518491638848,0.0009599232061444684,0.0002399808015361171,0.0004799616030722342,-0.0019198464122889367,0.0037197024238064848,0.0002399808015361171,0.8213373435186099,-0.028911154661476805,-2.0878145502553926,0.01438560172980904,-0.14399769627662767,0.20158502579715754,-0.12956717193833098,0.25913607167092556,-0.33119020917491526,-0.07058200000000014,0.010740000000000027,-0.9186840000000001,0.13527999999999984,-0.00790799999999997,-0.910425,0.205862,0.018647999999999998,0.008259000000000016,0.9981671163527076,0.9104219969563788,double,-0.910425
9,0.075,step_decsent,-0.03804152166088119,0.0038401536061480894,-0.00468018720747633,0.02934992962782413,0.08233371705200673,-0.05239645284706475,0.049441977679116685,-0.004440177607105397,-0.048361934477377536,-0.002760110404402285,0.00264010560422015,-0.00036001440057305256,0.18664473689325675,-0.47512569827981865,0.2879210893838708,5.818079259927067,-0.56164147469597,-5.8612619801331824,-0.10083571248210119,-0.1295568006223852,-0.07200230434527423,-0.06985299999999994,0.010670999999999986,-0.9190480000000001,0.13557400000000008,-0.007918000000000036,-0.9103890000000001,0.20542700000000003,0.018589000000000022,0.008658999999999972,0.8844926524655602,0.907015997294655,double,-0.9103890000000001
10,0.083333,step_decsent,-0.009480379215161426,0.01728069122764639,0.007320292811696468,-0.02271053164384677,0.09058262501057711,-0.029510254400584607,-0.05040201608065362,0.006480259210368228,0.04512180487219335,-0.0018000720028919063,0.0034801392055683693,-0.0008400336013482239,3.427474192454067,1.6129290317410643,1.4401152069090108,-11.981758521513285,1.3105048382903657,11.21849746184697,0.11520921654990736,0.10080806448436563,-0.05760460827735161,-0.07019400000000009,0.010581000000000007,-0.918733,0.13563799999999993,-0.008033000000000012,-0.910457,0.20583200000000001,0.01861400000000002,0.008276000000000061,0.8867361210447979,0.9105614097135524,double,-0.910457
11,0.091667,step_decsent,0.004079673626120655,0.03251739860811392,0.011879049676034476,0.009828272410824785,0.01573092565398899,0.04244374514780111,0.00011999040078471066,0.0008399328053730801,0.0002399808015361173,-0.0016798656107461602,0.0021598272138250558,-0.002159827213818395,1.6270761748598621,1.8282586249661081,0.547007063155509,6.062155805308179,-0.6767850257973544,-5.385388057434277,0.014423613168436066,-0.1584247650279955,-0.15836256449126132,-0.07022700000000004,0.010316999999999965,-0.91883,0.13558999999999988,-0.008286000000000016,-0.910574,0.20581699999999992,0.01860299999999998,0.008256000000000041,0.9985304237204324,0.9116301291711387,double,-0.910574
12,0.1,step_decsent,-0.018000720028812478,0.004200168006714473,0.0002400096003909168,0.19829219644783314,0.05078604689526629,-0.03047290479567982,0.0016800672026831248,-0.00036001440057305197,0.004800192007685103,-0.0019200768030740415,0.0028801152046044006,-0.0012000480019212759,-2.6497532287211225,-3.398203600311944,-1.3967406787043741,0.18721670489600536,-0.14399942469052335,0.547247234627263,-0.028826496139191287,0.08643801641417788,0.11517811255215626,-0.07006299999999999,0.010279000000000038,-0.918792,0.13572399999999996,-0.008296999999999999,-0.9105860000000001,0.20578699999999994,0.018576000000000037,0.008205999999999936,0.991502601789568,0.9118340207518433,double,-0.9105860000000001
13,0.108333,step_decsent,-0.018240729629176777,0.009000360014406253,-0.014160566422664419,0.1870464998864709,-0.07325916217379728,-0.016736230725117086,0.0002400096003909172,0.001200048001921278,0.0008400336013415638,-0.001800072002865263,0.001560062402500992,-0.0027601104044156083,-0.028802304135881376,0.5760460827663246,-1.7281382482965735,-0.17281382482805818,0.1872149768983957,-0.47523801828195644,0.01440115207113628,-0.15841267275931953,-0.18721497689839597,-0.069909,0.010214,-0.918667,0.135861,-0.008359000000000005,-0.9104909999999999,0.20577,0.018573000000000006,0.008176000000000072,0.9975260376661349,0.9121635739305811,double,-0.9104909999999999
14,0.116667,step_decsent,-0.02255819534438167,0.01775857931365267,-0.0027597792176753356,-0.018054071953427113,-0.011835985275694561,-0.023917226344280146,0.0014398848092033799,0.0005999520038369618,0.00035997120230084497,-0.0009599232061444676,0.0034797216222703644,-0.002639788816897286,-0.5180544414692689,1.0509022437300706,1.367985025796625,0.14397350717692123,-0.07200575930937313,-0.05760287965451384,0.10080979082322948,0.23034067911799502,0.014437435507358067,-0.06970900000000002,0.010070999999999997,-0.9186409999999999,0.13604100000000008,-0.008477999999999986,-0.9104899999999999,0.2057500000000001,0.018548999999999982,0.00815100000000002,0.9973318806367444,0.911036738199507,double,-0.9104899999999999
15,0.125,step_decsent,-0.02544101764069112,0.02040081603264174,-0.002520100804011368,-0.04777988938282589,-0.03185013074370972,-0.006493299243352892,0.001320052802110075,-0.0006000240009573081,0.0014400576023055336,-0.000840033601354887,0.001320052802110075,-0.002400096003842556,-0.3459525136576809,0.31708108952226943,0.02876256014208184,-0.01438041606783932,-0.14400288069054012,0.12961555262266766,0.014387328067872397,-0.2591706252442447,0.028764288138093147,-0.06948600000000016,0.009896000000000016,-0.9186080000000001,0.13624599999999987,-0.008637000000000006,-0.9104890000000001,0.20573200000000003,0.01853300000000002,0.008118999999999987,0.996593986486276,0.9140348744404453,double,-0.9104890000000001
16,0.133333,step_decsent,-0.0267610704428278,0.016200648025920573,0.0,0.07007221939580231,-0.006854384845109666,0.003386635969598838,0.0019200768030740415,0.0014400576022988694,-0.00048001920076851036,0.0001200048002087816,0.0026401056042268073,-0.0031201248049886558,-0.15841267276331183,-0.5040403224194363,0.3024241934491019,0.07200576034608977,0.2448195851741481,-0.23041843310620935,0.11520921655630238,0.1584126727609182,-0.08640691241402845,-0.06924700000000006,0.009772999999999976,-0.9186120000000001,0.1364700000000001,-0.00874999999999998,-0.9105150000000001,0.20571700000000015,0.018522999999999956,0.00809700000000002,0.9959206212139768,0.9122150373865358,double,-0.9105150000000001
17,0.141667,step_decsent,-0.024358051355885972,0.01955843532517694,0.0010799136069025385,-0.0007402025372407039,0.05426756411872552,0.01640555969066311,0.0009599232061444707,0.0009599232061444707,0.00011999040077138925,0.0010799136069025385,0.00203983681305367,-0.003479721622270376,0.28833922329515643,0.4029022437312665,0.12957926648698598,-0.1152092148943572,-0.057611518617038615,0.07199539255338384,0.11517984241585784,-0.07202649282135092,-0.043148166220508904,-0.0690360000000001,0.00961799999999996,-0.91862,0.13668199999999997,-0.008896000000000015,-0.910553,0.20571800000000007,0.018513999999999975,0.008067000000000046,0.9977286183722074,0.9123706716897475,double,-0.910553
18,0.15,step_decsent,-0.03144125765030412,0.030721228849151357,0.0016800672026831248,-0.09184744021458971,0.0142946185467629,0.02273106227066695,0.003120124805001979,0.0001200048001954584,-0.0013200528021167343,0.0,0.002520100804031349,-0.002760110404415604,-0.8500187560804207,1.339588806429186,0.07202131234616414,0.2592345612453506,-0.10079424048350073,-0.1728120968304479,-0.12959481662096933,0.05763398427669246,0.08635680041458918,-0.06874800000000003,0.00936300000000001,-0.9186449999999999,0.13694399999999995,-0.009131,-0.91059,0.20569199999999999,0.01849400000000001,0.008054999999999923,0.9943499952430612,0.9132207862304915,double,-0.91059
19,0.158333,step_decsent,-0.032401296051841146,0.025921036841472914,-0.014160566422664394,-0.04010566101747381,-0.12051737715853532,0.09159874924007291,0.00180007200286526,0.0013200528021100728,0.0,0.0009600384015370207,0.001800072002878583,-0.003240129605184114,-0.11520921655310469,-0.5760460827647232,-1.9009520731246259,-0.15841267276331666,0.1440115206905812,0.15841267276091842,0.11520921655310451,-0.08640691241482842,-0.05760460827655224,-0.06846300000000016,0.009158,-0.9185269999999999,0.13722199999999996,-0.009332000000000007,-0.910499,0.20568500000000012,0.018490000000000006,0.008027999999999924,0.9962796361379198,0.9133385222874746,double,-0.910499
20,0.166667,step_decsent,-0.03191744660428356,0.019678425725941605,-0.15490760739140028,-1.102995667478248,-0.6698756322054336,0.055728556891017605,0.0020398368130736455,-0.0002399808015361169,0.0017998560115242072,0.00011999040075806724,0.0014398848092167015,-0.004199664026878715,0.05805728912377997,-0.7490534095909891,-16.88829385274007,0.028769475666952884,-0.18718905731295754,0.21596544414737287,-0.10079769627777209,-0.04321900571896822,-0.11513491980976721,-0.06817999999999991,0.008992,-0.917221,0.13748899999999997,-0.009483999999999992,-0.909243,0.20566899999999988,0.018475999999999992,0.00797799999999993,0.9954484414539584,0.912817889959473,double,-0.909243
21,0.175,step_decsent,-0.014880595223810548,0.016680667226689136,-0.0129605184207365,-0.09217670604069955,-0.010812599564212868,0.0033404365837312426,0.00024000960036427117,0.000720028801152768,-0.0001200048001954588,0.0004800192007818352,0.00120004800192128,-0.001800072002878589,2.0445039458145993,-0.3597454097266862,17.034332049761684,-0.21598790504132712,0.1152057605530886,-0.23039251310688477,0.043205184210220675,-0.028781568138176176,0.2879625613824711,-0.06805400000000006,0.008859000000000006,-0.917114,0.1376170000000001,-0.009612999999999983,-0.9091499999999999,0.20567100000000016,0.01847199999999999,0.007964000000000082,0.9987193239254787,0.9166666152020799,double,-0.9091499999999999
22,0.183333,step_decsent,-0.007800312012478302,0.017040681627268794,-0.008760350414015322,-0.07303025894851699,-0.008245251121182922,-0.017262341484486136,0.0033601344053928958,0.0006000240009573072,-0.003360134405372911,-0.0002400096003909168,0.001800072002878583,-0.003840153606148083,0.849667972078752,0.04320345620780729,0.5040403224194377,0.3744299538015867,-0.01440115206953807,-0.38883110586552855,-0.08640691241722685,0.07200576034529012,-0.2448195851757461,-0.06796099999999994,0.008721999999999952,-0.9170689999999999,0.13768000000000002,-0.009740000000000026,-0.909109,0.20564099999999996,0.01846199999999998,0.007959999999999967,0.9920171998705898,0.9133201687985758,double,-0.909109
23,0.191667,step_decsent,-0.004199664026878715,0.017158627309809046,-0.00527957763378125,-0.08725711923009709,-0.0014912001312358532,-0.018831982676753692,0.0010799136069025348,0.00011999040077138885,0.0004799616030722338,-0.00035997120230084497,0.002759779217662014,-0.004079673626107326,0.43204319481636466,0.014152349716852789,0.41765932088241764,-0.273604607450247,-0.05759942406838467,0.46077465904069365,-0.014394240689936172,0.11515565332174585,-0.02874010318685424,-0.067917,0.008580000000000032,-0.9170210000000001,0.13771200000000006,-0.00985999999999998,-0.9090990000000001,0.20562900000000006,0.018440000000000012,0.007921999999999985,0.998020259391939,0.9125490122281237,double,-0.9090990000000001
24,0.2,step_decsent,-0.01680067202688454,0.016440657626304825,-0.01836073442938553,0.07543175321869851,0.010489242324353415,0.020934591949907412,0.0006000240009639688,0.0,0.0007200288011461039,-0.0007200288011461039,0.0009600384015370207,-0.003600144005763828,-1.512181447258588,-0.08615980841284294,-1.5698016075368137,-0.05758905627487886,-0.01439942406952943,0.02880921613750989,-0.04320864020703932,-0.21597753703648045,0.0575458562754708,-0.06777199999999994,0.008443000000000034,-0.9168620000000001,0.13784600000000014,-0.00998899999999997,-0.908976,0.20561800000000008,0.018432000000000004,0.00788600000000006,0.9984378875803253,0.9148151916873265,double,-0.908976
25,0.208333,step_decsent,-0.005520220808831226,0.01728069122765311,-0.005040201608049391,-0.08058724683009143,-0.004221552049664754,0.025333355980357988,0.002640105604220154,0.001320052802110077,-0.001800072002878589,0.0014400576022922126,0.002280091203647101,-0.003000120004799869,1.3537082944981806,0.10080806448437372,1.598527879675528,0.24481958517414984,0.15841267276012005,-0.30242419345070193,0.25922073724208833,0.15841267276012044,0.07200576034608908,-0.06770399999999999,0.008309999999999984,-0.9168350000000001,0.13790400000000003,-0.010114000000000012,-0.9089590000000001,0.205608,0.018423999999999996,0.007875999999999994,0.9942378253966684,0.9145166365398815,double,-0.9089590000000001
26,0.216667,step_decsent,-0.013558915286780614,0.008879289656829664,-0.007919366450698519,-0.011711510471328582,-0.004282757649029805,0.0234756108069762,0.0015598752099880903,0.0002399808015361169,-0.0002399808015361169,-0.0017998560115042247,0.0008399328053730787,-0.0033597312214989758,-0.9645661720601607,-1.0080875414954928,-0.34547214334642734,-0.12961727792561348,-0.12959827220709852,0.1871959684836178,-0.3887585329729343,-0.17280518337821224,-0.04314989401237177,-0.06757799999999992,0.008237999999999968,-0.916771,0.13800200000000018,-0.010181000000000051,-0.908921,0.2055800000000001,0.01841900000000002,0.007850000000000024,0.997339385909989,0.9149951380020604,double,-0.908921
27,0.225,step_decsent,-0.00684027361094128,0.012360494419772489,-0.0030001200047931973,-0.04567396283975344,0.017511041760943567,0.033990011724176254,0.0026401056042201455,0.00024000960038425518,-0.0014400576022988694,0.0014400576022922079,0.0014400576023055312,-0.0033601344053795727,0.8062692518707942,0.41776128200441887,0.5903331868361116,0.12963283262115136,3.456000016594404e-06,-0.14401497669059782,0.3888051858630061,0.07201785634614809,-4.838400103166868e-05,-0.06749899999999998,0.008137000000000005,-0.916758,0.13807100000000005,-0.010272000000000003,-0.9089240000000001,0.20557000000000003,0.01840900000000001,0.007833999999999897,0.9949718768390929,0.9151114558407377,double,-0.9089240000000001
28,0.233333,step_decsent,-0.02232089283571575,0.0024000960038425517,-0.00252010080403801,0.07639264026423127,-0.018793984218804804,0.07300787669083504,-0.00012000480018213519,-0.00012000480018879679,0.00012000480018879679,0.0,0.0,-0.003360134405372911,-1.8577486169176112,-1.1952956217364608,0.05760460827495341,-0.33122649758817696,-0.04320345620701448,0.18721497689759567,-0.17281382482805793,-0.1728138248296568,7.994445972182801e-13,-0.06731399999999987,0.008116000000000012,-0.916736,0.13825700000000007,-0.010292000000000023,-0.9089309999999999,0.20557099999999995,0.018408000000000035,0.007805000000000062,0.9996535759815411,0.9163497759910451,double,-0.9089309999999999
29,0.241667,step_decsent,-0.017758579313659387,0.00407967362610734,-0.009479241660659997,-0.013719503418955385,0.03332227284978347,0.0626898215028311,0.00023998080151613527,0.0008399328053730815,0.0009599232061444707,0.00011999040075806764,0.001679865610752824,-0.0009599232061444707,0.5474338279405294,0.2015331920164138,-0.8350301003866094,0.04319481661846308,0.11518329800358539,0.10078214614298968,0.014397696275266129,0.2015677478705097,0.2880023037231157,-0.067164,0.008089000000000013,-0.916649,0.13840600000000003,-0.010311999999999988,-0.90886,0.20557000000000003,0.018401,0.007789000000000046,0.9978368422873463,0.9188791595829505,double,-0.90886
30,0.25,step_decsent,-0.007200288011514332,0.00444017760710539,-0.002760110404428927,-0.03468205810315047,-0.009536798241581535,0.05882377028501129,0.0036001440057838127,0.00048001920076851036,-0.0028801152046110624,0.0019200768030740415,0.00036001440057305197,-0.0012000480019212759,1.2670456380829287,0.04326220820809429,0.8063280038678823,0.40323571394067853,-0.04319136020695678,-0.4608230422123521,0.2160190090382782,-0.15838848076080292,-0.028816128138342122,-0.06707399999999986,0.008056000000000008,-0.91665,0.138482,-0.010346000000000022,-0.908847,0.20555599999999985,0.01840200000000003,0.007803000000000004,0.9922744078099477,0.9181488525191892,double,-0.908847
31,0.258333,step_decsent,-0.001200048001901295,0.004560182407294202,0.006240249609977332,-0.05763622362361432,-0.010902642429013887,0.07182688455216009,0.00012000480018213558,0.0008400336013415652,0.00120004800192128,0.001080043201745806,0.000480019200768512,-0.001440057602305536,0.7200576034577044,0.014401152068740208,1.0800864051849612,-0.4176334100086026,0.04320345620701497,0.4896391703506964,-0.10080806448196779,0.01440115206953802,-0.028802304138276818,-0.0670630000000001,0.008025000000000004,-0.9166919999999998,0.13850099999999999,-0.01038,-0.9089109999999999,0.20556400000000008,0.018405000000000005,0.007780999999999927,0.9975504122737098,0.9190850408623634,double,-0.9089109999999999
32,0.266667,step_decsent,-0.005399568034565961,0.002759779217662014,-0.0021598272138050696,-0.018271348184858278,-0.003179836452970741,0.059715986144134016,0.0015598752099880903,0.0,-0.0019198464122889352,-0.0002399808015427777,0.00035997120230750576,0.00035997120230750576,-0.5039020917524193,-0.21603110026784098,-1.007928584567122,0.1727706275265123,-0.10079596848350905,-0.3743573811147363,-0.15839020917789567,-0.014404607446724995,0.21598617765935205,-0.06700499999999998,0.008002000000000009,-0.91669,0.138544,-0.010399999999999965,-0.90889,0.20554899999999998,0.018401999999999974,0.007800000000000029,0.995877224196439,0.9210619918886711,double,-0.90889
33,0.275,step_decsent,-0.006720268810759123,0.0016800672026897807,0.0016800672026831191,-0.013533458980423697,-0.01875225729262916,0.06063173390896818,0.0009600384015370176,-0.0001200048001887964,0.0021600864034582896,0.0019200768030740352,-0.000120004800195458,-0.0002400096003842544,-0.15849043276048919,-0.1295706246216523,0.46080576220906905,-0.07198329634598227,-0.014401152068738257,0.48961152235055894,0.2592172812452663,-0.057599424277326505,-0.07200057634606476,-0.06694099999999992,0.007987000000000022,-0.916686,0.13861600000000007,-0.010415000000000008,-0.908906,0.205557,0.01840200000000003,0.007780000000000009,0.9960552256243581,0.9189687718665903,double,-0.908906
34,0.283333,step_decsent,-0.0031201248050019893,0.002640105604226816,0.0014400576022922126,-0.024151178491003424,-0.00457937207711541,0.04661088232165111,-0.0006000240009639708,0.000720028801152768,-0.000480019200768512,0.00036001440057305316,0.0006000240009639708,0.000480019200768512,0.43203456207334,0.11520921655310665,-0.028802304139074413,-0.18721497689919503,0.10080806448356731,-0.3168253455210378,-0.18721497689919428,0.0864069124156283,0.08640691241482877,-0.06691999999999987,0.007971000000000006,-0.9167019999999999,0.13864500000000013,-0.010431999999999997,-0.9089139999999999,0.205565,0.018403000000000003,0.007788000000000017,0.9982449369199935,0.9207057298668184,double,-0.9089139999999999
35,0.291667,step_decsent,-0.0025197984161059147,0.00455963522917956,0.001439884809230023,-0.02521380899336314,-0.028135587055443768,0.054808516541850656,0.0051595872330231825,-0.0009599232061444676,-0.0013198944084453126,0.0016798656107461574,0.0,0.0005999520038369618,0.07203340399520927,0.23032512898401036,-2.0733508782048572e-05,0.691098060233639,-0.20157811462649794,-0.10077696276419483,0.15836947566271936,-0.07199712034604874,0.014390785105405536,-0.06685600000000003,0.007925000000000015,-0.916725,0.13867999999999991,-0.01046999999999998,-0.9089210000000001,0.20553599999999994,0.018394999999999995,0.007803999999999922,0.9909807437134768,0.9189870240886188,double,-0.9089210000000001
36,0.3,step_decsent,-0.002520100804038019,0.0040801632065323515,0.00048001920075518877,-0.029399886890851174,-0.01313561037939206,0.039547518999642955,0.0012000480019279415,-0.000960038401537024,0.001320052802110077,-0.0002400096003909176,0.000960038401537024,0.0,-3.628800337263615e-05,-0.057538944275436196,-0.11518848055620265,-0.47516371428000126,-1.3824000066767992e-05,0.31680633752014836,-0.2303942411060938,0.11520921655310529,-0.07199712034524941,-0.06682499999999991,0.007882999999999973,-0.9167179999999999,0.1386989999999999,-0.010496000000000005,-0.908925,0.20552399999999982,0.01837899999999998,0.007792999999999939,0.9966234763358203,0.9204206917774198,double,-0.908925
37,0.308333,step_decsent,-0.0007200288011461016,0.006360254410172749,0.000240009600390916,-0.01582953002692707,-0.003563852955564858,0.028685270475914054,0.00012000480018213478,0.001200048001921272,0.0006000240009639668,0.0014400576023188495,-0.0008400336013482211,0.0014400576023055264,0.21601728103827073,0.2736218893124191,-0.028802304135878046,-0.12961036862424125,0.2592207372444842,-0.08640691241402944,0.20161612897033002,-0.21601728103747003,0.17281382482965563,-0.06681800000000004,0.007840000000000014,-0.916715,0.13871699999999998,-0.01055600000000001,-0.9089149999999999,0.20553500000000002,0.018396000000000023,0.007800000000000029,0.997754915764563,0.9183283411834902,double,-0.9089149999999999
38,0.316667,step_decsent,-0.00779937604991386,0.013438924886009314,-0.005879529637624912,-0.03255380832936839,0.0025722686960652744,0.05365749860680268,0.0004799616030589154,-0.0002399808015361185,0.0002399808015361185,0.0011999040076606101,-0.0002399808015361185,0.002519798416125914,-0.8494537135550514,0.8493725072998086,-0.7342859656846488,0.04319136103633101,-0.17278963324422827,-0.04320172779311859,-0.028816126068903384,0.07200057593137821,0.12955853297580916,-0.06674900000000017,0.007726000000000011,-0.9166639999999999,0.1387919999999998,-0.010670000000000013,-0.908845,0.20554099999999997,0.018396000000000023,0.00781899999999991,0.9990202824803054,0.9171413264819248,double,-0.908845
39,0.325,step_decsent,-0.00528021120846692,0.010920436817473582,0.0036001440057571543,-0.021954069677802876,-0.038809650553444625,0.046910457764279156,0.0016800672027097656,0.0001200048001887964,-0.000120004800195458,0.0020400816032828165,0.0,0.001080043201725814,0.30231187344856947,-0.3022306574505846,1.1376063414595015,0.14401843269540923,0.043200000206997886,-0.043200000207797316,0.10082534448844388,0.02879884813825963,-0.17277753682948443,-0.06669099999999983,0.007635999999999976,-0.916695,0.13885300000000012,-0.01076100000000002,-0.908866,0.20554399999999995,0.018396999999999997,0.007829000000000086,0.9971856379695888,0.9178627692984122,double,-0.908866
40,0.333333,step_decsent,0.002760110404428936,0.010800432017278197,-0.00048001920075518877,-0.018014419829127385,-0.01065549191732081,0.013681398837038838,0.00024000960036427117,0.0001200048001954588,0.0006000240009573092,0.00048001920075518877,0.000240009600384256,0.000960038401537024,0.9648771886350505,-0.014401152069529088,-0.48963917034829635,-0.17281382483445315,7.995210365290154e-13,0.08640691241482887,-0.1872149769023919,0.028802304138276322,-0.01440115206873758,-0.0667120000000001,0.007547000000000026,-0.9166860000000001,0.1388339999999999,-0.010848999999999998,-0.908854,0.205546,0.018396000000000023,0.007832000000000061,0.9989045110654474,0.9198468963978814,double,-0.908854
41,0.341667,step_decsent,-0.00011999040078471047,0.011999040076792523,-0.0020398368130736455,-0.023209348137630374,0.007330977999186721,0.013784289379913628,0.0009599232061444676,-0.00035997120230750576,0.0019198464122889352,0.0023998080153744905,-0.0014398848092167015,0.002039836813060324,-0.3455844498696477,0.143821461424805,-0.18716314042698046,0.08638272207585741,-0.057592512899323746,0.1583660200781887,0.2303562292559755,-0.20157120345583823,0.12956544414726412,-0.06670299999999996,0.007444000000000006,-0.9166529999999999,0.13885500000000017,-0.010960999999999999,-0.90882,0.20555800000000013,0.018405000000000005,0.007832999999999979,0.9963726187610511,0.9158981138750005,double,-0.90882
42,0.35,step_decsent,-0.005520220808831226,0.011880475219010679,0.008280331213260163,0.007056545155682501,-0.08616145811761655,0.0697935264857837,0.000960038401537024,-0.0006000240009573092,-0.000240009600384256,0.00036001440057305316,-0.00036001440057305316,0.001320052802110077,-0.6480535711084279,-0.014228352067903988,1.2384697019481379,1.3824000066767992e-05,-0.028807488137501985,-0.2591930892443534,-0.24478502517718018,0.12958963262254303,-0.08637753641548647,-0.06664899999999996,0.007340000000000013,-0.9167240000000001,0.13890400000000014,-0.01106299999999999,-0.9088780000000001,0.2055530000000001,0.018403000000000003,0.00784600000000002,0.9980711926955101,0.9191819404531132,double,-0.9088780000000001
43,0.358333,step_decsent,0.004440177607112037,0.012120484819394855,0.0018000720028652538,-0.0212283217022878,-0.0100901432053316,0.02351055077895513,0.0008400336013548828,-0.0014400576023055264,0.0004800192007685088,0.0004800192007551856,-0.0001200048001887964,0.001080043201725814,1.1952956217380561,0.028802304138266503,-0.7776622117358553,-0.0144011520679396,-0.10080806448436502,0.086406912414828,0.014401152067938548,0.02880230413827622,-0.028802304138276988,-0.06667899999999993,0.0072269999999999834,-0.9167349999999999,0.13887099999999997,-0.01116499999999998,-0.9088839999999999,0.2055499999999999,0.018391999999999964,0.007850999999999941,0.9971085178817441,0.9195100218135628,double,-0.9088839999999999
44,0.366667,step_decsent,0.005039596832265116,0.01295896328293699,0.0013198944084719558,-0.016702900666794654,0.0003310050922835511,0.024944708314135366,0.0002399808015427777,0.0009599232061444676,-0.0004799616030722338,0.0019198464122889352,-0.0005999520038436226,0.002639788816897286,0.07192455305412505,0.1006093668757061,-0.05761670199103643,-0.07200057593137803,0.28797465904127567,-0.11518848138237842,0.1727654441485179,-0.057589057313993976,0.18715450146045964,-0.06671899999999997,0.0071269999999999945,-0.9167500000000002,0.13884499999999989,-0.01127800000000001,-0.908873,0.20556399999999986,0.018405000000000005,0.007877000000000134,0.9981671163527053,0.9156987158283512,double,-0.908873
45,0.375,step_decsent,0.004680187207476338,0.01056042241689394,0.0020400816032561833,-0.031882965155692396,-0.027812450274475646,0.03214330023806547,0.0007200288011461063,0.0,0.00036001440057971477,0.0008400336013548883,-0.0008400336013415652,0.001440057602305536,-0.04313088020986183,-0.2878364173818621,0.08642592041092395,0.05760806427497058,-0.11519539255303853,0.10080115248433345,-0.12958272062091078,-0.028810944137518682,-0.14397350469119802,-0.06675199999999992,0.0070390000000000175,-0.916764,0.13881300000000008,-0.011372999999999966,-0.9088780000000001,0.205565,0.018411999999999984,0.007885999999999949,0.9986583055457281,0.9180286057069993,double,-0.9088780000000001
46,0.383333,step_decsent,0.005280211208440308,0.012240489619583732,0.000840033601328242,-0.02237463807539869,0.004705445901740805,0.02486377751838472,0.002160086403438319,0.0006000240009573092,0.0,0.0010800432017191595,0.0006000240009573092,0.00036001440057305316,0.07200576034609048,0.2016161289679343,-0.144011520692181,0.1728138248280591,0.07200576034529109,-0.04320345620781419,0.028802304135878053,0.17281382482885851,-0.12961036862264316,-0.066778,0.006942000000000004,-0.9167709999999999,0.13877800000000007,-0.01146999999999998,-0.908882,0.20555600000000007,0.018411999999999984,0.007888999999999924,0.9962635422032641,0.9189651531471894,double,-0.908882
47,0.391667,step_decsent,0.013318934485264479,0.014878809695225927,0.005999520038409583,-0.029060007793643757,-0.03455666807495487,0.09954660392719808,0.0005999520038436226,-0.0009599232061378068,-0.00011999040077138885,0.0004799616030855554,0.0,0.0,0.9645696276486876,0.3165730832304047,0.6190888453421329,-0.18720115185921465,-0.18717869055616926,-0.014397696276864498,-0.07200403151351135,-0.07199712034524941,-0.043198272206989775,-0.06688400000000017,0.006810000000000038,-0.916822,0.138671,-0.011593999999999993,-0.9089320000000001,0.20555500000000015,0.01840400000000003,0.007889999999999953,0.9981027851810884,0.9203000639948573,double,-0.9089320000000001
48,0.4,step_decsent,0.013560542421673734,0.010920436817473582,0.0,-0.054855542581037545,-0.01643606929009058,0.030921750375497603,0.0,0.0002400096003842544,-0.001080043201725814,0.0009600384015370176,0.0002400096003842544,0.0006000240009573052,0.028994112133595856,-0.4750237462801306,-0.7199712034572853,-0.07199712034604826,0.14399769669051438,-0.11521094455231262,0.05761152027498622,0.028802304138275937,0.07200576034529013,-0.06699699999999997,0.0067210000000000325,-0.916831,0.1385660000000002,-0.011682999999999999,-0.908927,0.20556300000000016,0.01840400000000003,0.007903999999999911,0.998156017349239,0.9190311926955106,double,-0.908927
49,0.408333,step_decsent,0.0070802832113322205,0.009600384015363578,0.00048001920075518877,-0.036745177716752855,-0.015309246066136446,0.044304393260289565,0.0018000720028919124,0.0009600384015303623,-0.000480019200768512,0.0,0.001440057602305536,-0.0014400576022988744,-0.7776622117294527,-0.15841267276011126,0.05760460827495379,0.21601728103827156,0.08640691241402973,0.07200576034529023,-0.11520921655310452,0.1440115206913818,-0.2448195851741491,-0.0670409999999999,0.0066489999999999605,-0.916839,0.13850700000000016,-0.011751000000000011,-0.9089429999999998,0.20554800000000006,0.018399999999999972,0.007896000000000125,0.9965070104410902,0.9176457516803761,double,-0.9089429999999998
50,0.416667,step_decsent,0.007559395248397674,0.00851931845452216,-0.0004799616030589122,-0.023471063904609044,-0.002769791518599393,0.046242889974948236,0.0011999040076872453,0.002039836813060324,-0.002399808015361169,-0.00011999040078471047,0.0013198944084453126,-0.0005999520038436226,0.057488845340227135,-0.12971748990177806,-0.11518848137918168,-0.07201439827269818,0.12956544414806345,-0.2303562292527784,-0.014397696278462966,-0.014418429788843687,0.10080460744603444,-0.06709399999999999,0.0065950000000000175,-0.916855,0.13844299999999987,-0.011811000000000016,-0.908944,0.20553699999999986,0.018406000000000033,0.007911000000000001,0.9943826206282615,0.9184653228435742,double,-0.908944
51,0.425,step_decsent,-0.000960038401537024,0.007920316812673786,-0.0030001200047932073,0.0030629999291414333,0.0031339858897185984,0.0407392002216291,0.0014400576022922126,-0.00036001440057971477,-0.001320052802110077,-0.0006000240009639708,0.0006000240009639708,-0.003240129605184125,-1.0223729329094826,-0.07188307234469873,-0.30243110545233426,0.028819584135961595,-0.28799366538342075,0.12957580862247628,-0.05760633627496237,-0.08638790441393779,-0.31683398552028186,-0.06707400000000008,0.006525999999999976,-0.916841,0.13844599999999985,-0.011871999999999994,-0.908946,0.20551999999999992,0.01839799999999997,0.007894999999999985,0.9966892784997061,0.9154676624117133,double,-0.908946
52,0.433333,step_decsent,-0.0014400576023188495,0.009480379215168056,-0.002760110404428918,0.030753253176396583,-0.028400095236195484,0.08842621877849444,0.0003600144005730508,0.0003600144005797124,0.0021600864034582896,-0.00024000960036426957,0.0007200288011461016,-0.001080043201725814,-0.05760460827814995,0.18721497689838754,0.028802304135880034,-0.12961036862104372,0.08640691241562752,0.41763341000460247,0.04320345621021237,0.014401152067938352,0.2592207372444861,-0.06705899999999998,0.006450000000000011,-0.9168,0.13845600000000013,-0.011945000000000039,-0.908932,0.20551500000000011,0.01839500000000005,0.007867999999999986,0.9963012036463608,0.9191199119964945,double,-0.908932
53,0.441667,step_decsent,0.019078473722104767,0.009119270458359181,0.011879049676034535,-0.08047315338412593,-0.0033165317364373483,0.09077994694022647,0.0034797216222770488,0.0016798656107461687,-0.004319654427650133,-0.000959923206144474,0.000479961603072237,-0.002519798416125914,2.462026796787105,-0.043329584450309204,1.7565586849608277,0.374334919810897,0.1583694756619227,-0.7775066991970794,-0.08638272207585895,-0.02880575930811926,-0.1727568051835983,-0.06718899999999994,0.006388000000000005,-0.9169350000000001,0.1382890000000001,-0.012017,-0.909052,0.20547800000000005,0.018405000000000005,0.007883000000000084,0.9903405450158023,0.9166052802933714,double,-0.909052
54,0.45,step_decsent,0.02004080163206859,-0.0019200768030673734,0.09684387375495006,0.6790231895519285,0.7030394904772551,0.042578526282545784,0.0009600384015370176,0.0016800672026897807,-0.001200048001921272,0.00024000960036426957,0.0016800672026897807,-0.000120004800195458,0.11548396855440032,-1.3247746623576753,10.196186736939298,-0.3023740814520606,2.4192000913474806e-05,0.3743677457972937,0.14399769668891618,0.1440184326914123,0.28798675338178875,-0.06734799999999996,0.006417999999999979,-0.9177520000000001,0.1381239999999999,-0.011987000000000025,-0.9098600000000001,0.20547199999999988,0.018405000000000005,0.00789200000000001,0.9962051150123947,0.9182443972001378,double,-0.9098600000000001
55,0.458333,step_decsent,0.011640465618626424,0.001800072002878589,0.030001200047985368,0.07393280805401188,0.16456632557177867,0.0961265135465285,-0.00036001440057305316,0.00036001440057971477,0.0010800432017324826,0.0007200288011727528,0.0006000240009639708,-0.0016800672026831304,-1.008080644838856,0.4464357141420823,-8.021441702503882,-0.1584126727601193,-0.1584126727601187,0.2736218893140238,0.057604608281349376,-0.1296103686218424,-0.18721497689759706,-0.06744799999999995,0.006406000000000023,-0.9179929999999998,0.13803300000000007,-0.01199699999999998,-0.9101239999999999,0.20548100000000002,0.018403000000000003,0.007868999999999904,0.9980099455236007,0.9181036278367294,double,-0.9101239999999999
56,0.466667,step_decsent,0.017878569714417397,-0.002399808015361169,0.04571634269260696,0.1794085003936518,0.15318163836511406,0.11564339595131358,0.0007199424046016899,0.0005999520038369618,-0.0005999520038436226,0.0014398848092033799,-0.002639788816897286,-0.00011999040077138885,0.7485126104860772,-0.5039452865658453,1.8856662640534647,0.12958444986497983,0.02879020917413569,-0.201583298005292,0.08637581089880327,-0.38874643842827616,0.18719424069015358,-0.06759099999999996,0.00643100000000002,-0.9183790000000001,0.13789600000000002,-0.011998999999999982,-0.910506,0.20548699999999998,0.018430000000000002,0.007873000000000019,0.9981454246669328,0.9162544267642703,double,-0.910506
57,0.475,step_decsent,0.011040441617662452,-0.001080043201725821,0.010800432017271535,0.01259412789337477,-0.07064164741806739,0.19823225370938402,0.0007200288011461063,0.00012000480018879719,-0.0009600384015303623,0.0012000480019279415,-0.003600144005757178,0.0008400336013415652,-0.8206081959384329,0.1583781127607526,-4.1900768841156255,1.0368000049968653e-05,-0.05759596827651096,-0.04321209620625712,-0.028781568135778104,-0.11524723255248943,0.1152074885530969,-0.06767699999999999,0.0064409999999999745,-0.918477,0.1378140000000001,-0.012019999999999975,-0.9105890000000001,0.2054910000000001,0.01846099999999995,0.007887999999999895,0.9979899444735687,0.914642086987201,double,-0.9105890000000001
58,0.483333,step_decsent,0.009600384015370176,0.007920316812673734,0.0010800432017191524,-0.11820258736191805,0.03591464414622168,0.16870196910859883,0.0003600144005730508,0.0032401296051841034,-0.002520100804038002,0.0018000720028652538,-0.004320172806916579,-0.0004800192007685088,-0.1728138248280656,1.0800864051841494,-1.166493317598985,-0.04320345620701477,0.3744299537975871,-0.18721497689999198,0.07200576034289088,-0.0864069124156244,-0.15841267276011864,-0.06775400000000009,0.006401999999999963,-0.918507,0.1377489999999999,-0.012122000000000022,-0.9106019999999999,0.205503,0.018523999999999985,0.007905000000000051,0.9931324114110953,0.9131087680371592,double,-0.9106019999999999
59,0.491667,step_decsent,0.008519318454515498,0.0023998080153545083,-0.00299976001919147,-0.06638923593045686,-0.08777851303652104,0.1445665540132982,0.0004799616030855554,0.0014398848092167015,-0.0008399328053730787,0.0043196544276634255,-0.002759779217662014,-0.0014398848092100406,-0.12971748990336893,-0.6624080630332638,-0.4895372235313918,0.014392512900468503,-0.21601209454852413,0.2016040315172692,0.30232570491938676,0.18723225213037725,-0.11517465904026049,-0.06782099999999991,0.006394000000000011,-0.918489,0.13771400000000011,-0.012164999999999981,-0.910589,0.20553500000000002,0.018558999999999992,0.007900000000000018,0.9971088648318469,0.9121260268248993,double,-0.910589
60,0.5,step_decsent,0.012840513620554364,0.002520100804038019,-0.007320292811723138,-0.1466379583963231,-0.10231007593346407,0.10783466464628975,0.001800072002865266,0.000720028801152768,-0.000240009600384256,0.003720148805939314,-0.00240009600384256,0.00012000480018879719,0.5185641624911649,0.014435712070504125,-0.5184846744907811,0.15841958475695594,-0.08638617641472882,0.07199366434523272,-0.07194355234898753,0.043163712206822843,0.1871942408974969,-0.06791300000000011,0.006378999999999968,-0.9184299999999999,0.13763799999999993,-0.01220600000000005,-0.9105269999999999,0.20555100000000004,0.018585000000000018,0.007902999999999993,0.9967441056450281,0.9135886479110342,double,-0.9105269999999999
61,0.508333,step_decsent,0.0031201248049753222,0.006720268810752461,-0.012600504020136717,0.02374996537684856,0.0600757315142026,0.07068120629134715,0.000720028801172748,0.0009600384015370176,-0.0019200768030740352,0.0037201488059659354,-0.0034801392055683576,0.0003600144005797124,-1.1664933176021843,0.5040403224186277,-0.6336506910372683,-0.1296103686178463,0.028802304138275364,-0.20161612896793138,3.1947078054972955e-12,-0.12961036862184006,0.028802304139075266,-0.0679329999999998,0.0063309999999999755,-0.9183410000000001,0.13764300000000018,-0.012291000000000052,-0.9104190000000001,0.20557599999999998,0.018622000000000027,0.007921999999999985,0.9962262565974269,0.9122684904072174,double,-0.9104190000000001
62,0.516667,step_decsent,0.012359011279120095,0.010079193664503655,-0.007079433645312165,-0.0911342639663946,-0.029592772645303876,0.07054005424271115,-0.0003599712023274906,0.0027597792176620325,-0.0010799136069092029,0.005519558435324065,-0.0033597312214989983,0.0023998080153545243,1.1085776906821243,0.4030387393509975,0.6624754469431946,-0.12958963324936942,0.21595162180525862,0.10081151861829099,0.21591188257237098,0.014447802264142069,0.24475565332071317,-0.06803900000000018,0.006269999999999998,-0.9182910000000001,0.13758599999999999,-0.012402999999999997,-0.9103400000000001,0.20562500000000017,0.018672999999999995,0.00795099999999993,0.9950244559216739,0.9090017937634296,double,-0.9103400000000001
63,0.525,step_decsent,0.020400816032641638,0.009000360014399546,-0.006360254410186072,-0.07856746863127914,-0.050795288797214413,0.026795456067706353,0.0006000240009639668,0.001200048001921272,-0.0014400576023055264,0.0075603024120873595,-0.004560182407294172,0.00252010080403134,0.9650551726294864,-0.12946521662115737,0.08630496041354739,0.11520403255627666,-0.1871752328982064,-0.04321900820788696,0.2448990731745213,-0.14405990469160787,0.014435712069700629,-0.06820400000000015,0.006205000000000016,-0.91825,0.1374789999999999,-0.012515999999999972,-0.910266,0.20568300000000006,0.018720999999999988,0.007983999999999991,0.9967196248916194,0.9048571004733228,double,-0.910266
64,0.533333,step_decsent,0.032761310452414524,0.01248049921996807,-0.004080163206539041,-0.06812402391815599,-0.0457094531498474,0.02551097294428867,0.04164166566663871,0.0014400576023055455,-0.044881795271809535,0.009480379215161521,-0.008040321612869298,0.002880115204611091,1.4833186631192847,0.4176334100046269,0.2736218893132188,4.92519400764132,0.028802304138278622,-5.213217049022489,0.23041843310622576,-0.4176334100054192,0.04320345620781881,-0.06813000000000002,0.006113000000000035,-0.9185899999999999,0.13728499999999988,-0.012687000000000004,-0.9102079999999999,0.2054149999999999,0.01880000000000004,0.008382,0.8979314278398708,0.894913214126936,double,-0.9102079999999999
65,0.541667,step_decsent,0.028677705783522484,0.01319894408447302,-0.0014398848092033701,-0.09124675165971412,-0.08318670325601715,0.006528127563439237,0.005159587233023149,0.0077993760499137565,-0.004319654427643415,0.01583873290137029,-0.008879289656822945,0.0014398848092166917,-0.48999336079817724,0.08620648722161549,0.31680806303523523,-4.3774992120968665,0.7630571691394483,4.867067535897026,0.7629414070324837,-0.10066811182549083,-0.17281382234153927,-0.06832599999999989,0.006068000000000018,-0.918614,0.13717800000000002,-0.012870999999999966,-0.910184,0.2055039999999999,0.018938999999999984,0.008430000000000049,0.9828316326443236,0.8853419279911273,double,-0.910184
66,0.55,step_decsent,0.05520220808833854,0.04524180967238865,0.0008400336013548828,-0.05723011305602784,-0.17874574731242598,0.054072810975167605,-0.003960158406330205,-0.0021600864034582896,-0.0009600384015370176,0.023040921636861774,-0.014160566422657686,0.0015600624024943227,3.183067599281885,3.8452976824571587,0.27360115331312174,-1.094413253252528,-1.1951833017367102,0.40317004993476335,0.8642972201477805,-0.633778563042688,0.01442188806883841,-0.06881899999999996,0.005672999999999984,-0.9186290000000001,0.13690999999999987,-0.013365999999999989,-0.9101780000000002,0.20572899999999983,0.019038999999999973,0.008450999999999986,0.9923133409934162,0.8703408796078613,double,-0.9101780000000002
67,0.558333,step_decsent,0.021000840033605885,0.01548061922476796,-0.01068042721708947,0.13396953470405543,-0.09538297999715777,-0.020949041070406155,0.0014400576022922224,0.0020400816032695203,-0.0007200288011527728,0.020040801632068856,-0.013080523220932045,-0.005160206408258207,-4.104328339701545,-3.571485713143041,-1.3825105986372805,0.6480518431084215,0.5040403224202387,0.028802304138275173,-0.36002880172722257,0.12961036862182293,-0.8064645158709458,-0.0689820000000001,0.005561000000000038,-0.9185460000000001,0.13690199999999986,-0.013604000000000005,-0.9101320000000002,0.20588399999999996,0.019165000000000043,0.008413999999999922,0.995668545176269,0.875056897314151,double,-0.9101320000000002
68,0.566667,step_decsent,0.024718022558186573,0.01763858891288782,-0.013438924886022456,0.1972698748435859,-0.12710517054050247,-0.022180173009874144,0.0,0.002279817614589765,0.0,0.018598512119045604,-0.016558675305971972,-0.00911927045835906,0.44602622085201094,0.2589356477225635,-0.33099324081269077,-0.17279308882795913,0.028766020076822985,0.08639654441477888,-0.1730608966910536,-0.41734486261577874,-0.47504968203753567,-0.06918800000000003,0.005433000000000021,-0.918434,0.13685100000000006,-0.013888999999999985,-0.910096,0.20603900000000008,0.019322000000000006,0.008337999999999957,0.9962003039756837,0.8724217259442182,double,-0.910096
69,0.575,step_decsent,0.02136085443417894,0.024720988839551886,-0.0092403696147706,0.1789971581957125,0.025808046664481218,-0.011628554331611536,-0.0014400576022922224,0.004440177607098773,-0.0026401056042268333,0.012120484819381692,-0.022680907236289027,-0.007080283211332268,-0.40287628993251673,0.8499219880792187,0.5038467864216841,-0.1728138248280614,0.2592535692438531,-0.31682534552104374,-0.777394371734546,-0.7346972195268344,0.24468825717350412,-0.06937799999999994,0.005263999999999991,-0.9183790000000001,0.13677399999999995,-0.014283999999999963,-0.9100780000000002,0.2061519999999999,0.019547999999999954,0.008300999999999892,0.9910620812946608,0.8725346505009213,double,-0.9100780000000002
70,0.583333,step_decsent,0.036001440057598186,0.024840993639747014,0.009120364814588344,-0.008961232548251177,-0.13093985810951964,0.03191521599709256,0.0010800432017191524,0.001200048001921272,-0.002160086403451628,0.007920316812687057,-0.032881315252609546,-0.0006000240009573052,1.7569405524323993,0.014401152069498182,2.203376266573727,0.30242419344910165,-0.38883110586553316,0.0576046082773555,-0.5040403224162507,-1.2240979258754923,0.7776622117334616,-0.06966899999999998,0.005066999999999988,-0.9184730000000001,0.1365400000000001,-0.014764999999999973,-0.910159,0.2062090000000001,0.01983199999999996,0.008314000000000044,0.9955053792043305,0.8604815087319901,double,-0.910159
71,0.591667,step_decsent,0.014878809695225826,0.025077993760500735,-0.0026397888168906074,0.14796531083837594,-0.0338205413425779,-0.020860768089083107,-0.0028797696184333834,0.0035997120230417297,-0.002279817614596426,0.015358771298284736,-0.027237820974325772,-0.00659947204223984,-2.5345128824540675,0.028437739471288553,-1.4111055473336767,-0.47513952725612024,0.28793664760264454,-0.014366596009694865,0.892543134820929,0.677165140182833,-0.71987617485991,-0.06981700000000002,0.0048880000000000035,-0.9184700000000001,0.136544,-0.01520100000000002,-0.9101920000000001,0.20636100000000002,0.020089000000000024,0.008278000000000008,0.9914286381122452,0.8639558840186539,double,-0.9101920000000001
72,0.6,step_decsent,0.026521060842437147,0.023640945637826056,0.0007200288011461112,0.08944799271291479,-0.06293588802071046,0.03363138217847625,-0.0032401296051841467,0.002520100804031374,0.0,0.015120604824201566,-0.03624144965798293,-0.006240249609984035,1.3971260227062794,-0.1724526728278762,0.40319424193408726,-0.043244928207220285,-0.12955852862238876,0.2735890573138661,-0.028581120134786055,-1.0804786611853159,0.043108416207345304,-0.07006500000000004,0.004711999999999994,-0.9184760000000001,0.13644900000000004,-0.015699999999999992,-0.91025,0.2065140000000001,0.020411999999999986,0.008226000000000067,0.9931586737963579,0.8514700118463894,double,-0.91025
73,0.608333,step_decsent,0.03888155526220924,0.027361094443778353,0.005760230409222106,0.003949464013848517,-0.06215574948576382,0.0539165741073025,-0.001440057602292203,0.002640105604226798,-0.0015600624024943227,0.009120364814588344,-0.03948157926317321,-0.0002400096003842544,1.4833186631191695,0.44643571414283956,0.604848386904593,0.21601728103827386,0.014401152069533624,-0.18721497689839386,-0.720057603457722,-0.3888311058670668,0.7200576034561089,-0.07040099999999994,0.00450600000000001,-0.9185370000000002,0.13620100000000002,-0.01625700000000002,-0.9103000000000001,0.20660199999999995,0.02076300000000003,0.00823700000000005,0.9943535364560674,0.8500933070909333,double,-0.9103000000000001
74,0.616667,step_decsent,0.035637149028076964,0.02663786897048251,0.010199184065261723,-0.08661446790021349,-0.07819219384503012,0.07957914041076766,-0.006119510439167692,0.0032397408207342692,0.0002399808015361185,0.019438444924405617,-0.03131749460043349,-0.005519558435324065,-0.38929760428753213,-0.08678011438635092,0.5326318281785029,-0.5614894212713601,0.07195046994330148,0.2159879054512181,1.2380705675326773,0.979611790585525,-0.6334951805783345,-0.07074899999999995,0.004311000000000009,-0.91862,0.13606600000000002,-0.016740000000000033,-0.910431,0.20681499999999997,0.021051000000000042,0.008189000000000002,0.9884527637522941,0.8559921877744419,double,-0.910431
75,0.625,step_decsent,0.0286811472458751,0.02628105124204588,-0.0036001440057571543,0.08872551020196469,-0.004207257183297637,0.1091576625358466,-0.007200288011540955,0.0042001680067144595,0.0021600864034582896,0.012000480019199396,-0.03696147845913521,0.00252010080403134,-0.8347536040083807,-0.04281984020600358,-1.6559856079465762,-0.12969849662465602,0.11525587255252445,0.2304218891062238,-0.8925914922844341,-0.6773051552504135,0.9647977006306697,-0.071048,0.004126999999999992,-0.9185719999999999,0.13592700000000013,-0.017266999999999977,-0.91038,0.20697500000000013,0.02139399999999997,0.008191999999999977,0.9856481193640216,0.8531759400636689,double,-0.91038
76,0.633333,step_decsent,0.04716188647546935,0.023880955238209996,0.0036001440057571543,-0.013758435372242046,-0.07472764696934162,0.12242655282633863,-0.008520340813624377,0.006000240009599698,0.001200048001921272,0.0033601344053662383,-0.04164166566662483,0.006840273610947919,2.217777418648047,-0.28802304138196017,0.8640691241466792,-0.15841267275692034,0.21601728103746923,-0.11520921655310376,-1.0368829489779339,-0.5616449306959805,0.5184414744889669,-0.07151200000000002,0.0039779999999999816,-0.918592,0.13556199999999996,-0.017812999999999968,-0.910353,0.20707399999999998,0.02179099999999995,0.008238999999999996,0.9825167379283284,0.8470545024233147,double,-0.910353
77,0.641667,step_decsent,0.03191744660428378,0.017758579313652788,-0.0004799616030589154,0.04462432359846542,-0.04195992373762837,0.11615003556239596,-0.010079193664503655,0.0056395488360954545,0.003959683225342625,-0.0067194624430113176,-0.04295656347492525,0.008639308855286944,-1.829186449626309,-0.734626340839602,-0.4895735071773569,-0.1870473783152492,-0.04327947846223252,0.3311297364316498,-1.2094548654160802,-0.15777511498685176,0.21586695996388708,-0.07186200000000009,0.0038770000000000193,-0.918555,0.1352399999999998,-0.018318999999999974,-0.9102770000000001,0.2071019999999999,0.022195999999999994,0.008277999999999897,0.9796507065884111,0.8433384285006791,double,-0.9102770000000001
78,0.65,step_decsent,0.027961118444728997,0.009840393615747768,0.0013200528021100684,0.0974307876937828,-0.007092973894310913,0.1326906049026627,-0.004800192007685088,0.0057602304092154435,0.004080163206525663,-0.0070802832113055275,-0.04056162246489902,0.011160446417857836,-0.47477837028138303,-0.9502202925603008,0.21601036903503856,0.633505539039787,0.014482368069121392,0.014458176069007282,-0.04330022420427318,0.2874044173798413,0.3025486094528839,-0.07213500000000006,0.0038429999999999853,-0.9185320000000001,0.13494800000000007,-0.018739000000000006,-0.9101950000000001,0.20708300000000013,0.02258199999999999,0.008337000000000039,0.9857726955127961,0.8455289140655057,double,-0.9101950000000001
79,0.658333,step_decsent,0.04284171366854002,0.016920676827073506,0.0037201488059393386,0.05812176600961696,0.012195172116585632,0.1855533878681344,-0.004800192007685152,0.006600264010563753,0.0021600864034583183,-0.004440177607112096,-0.039121564862594015,0.009240369614783925,1.7857428565716018,0.8496679720779794,0.2880230413811703,-7.702480332550396e-15,0.10080806448437742,-0.23041843310540772,0.3168253455170354,0.17281382482959548,-0.23041843310619567,-0.07253200000000004,0.0037570000000000103,-0.918545,0.13455400000000006,-0.019206,-0.910149,0.2070860000000001,0.02296300000000001,0.008395999999999959,0.9859296113148734,0.8486358201696114,double,-0.910149
80,0.666667,step_decsent,0.060595152387805835,0.022078233741302626,0.015118790496768604,-0.027893721832711132,-0.07875575335728814,0.2597638318585832,-0.0067194624429845855,0.00659947204223318,0.005039596832251761,-0.15370770338373865,-0.03995680345572657,-0.05975521958243276,2.130242226933727,0.6188573211217999,1.367727584692726,-0.23029402871363316,-9.50285973809484e-05,0.3455136103663812,-17.910670239575882,-0.10022061352682334,-8.27880839899402,-0.07309299999999985,0.0036279999999999646,-0.918629,0.132768,-0.019723000000000046,-0.910773,0.20586099999999985,0.02335100000000001,0.007855999999999974,0.9821969304308265,0.6386302362538868,double,-0.910773
81,0.675,step_decsent,0.046921876875078435,0.012360494419772447,0.01188047521901726,0.05650318076762842,-0.056638766790615545,0.20484663385337076,-0.01080043201729811,0.006240249609983953,0.0076803072122894785,0.016200648025920517,0.0015600624025009842,-0.021600864034556248,-1.6408586958751163,-1.1661753655982405,-0.38861337786527417,-0.48973593835515505,-0.043108416206555325,0.31689792152138563,20.38981776186949,4.9822231919149615,4.578705813977721,-0.07357400000000003,0.003576999999999997,-0.9186640000000001,0.13251199999999996,-0.01981299999999997,-0.9110520000000001,0.206086,0.023389999999999966,0.007612000000000063,0.9755859122049988,0.8788031483957414,double,-0.9110520000000001
82,0.683333,step_decsent,0.05892235689427861,0.01260050402016353,0.003600144005757202,0.059906390979954385,0.014418831029144409,0.24034811346394738,-0.0045601824072942325,0.004800192007685152,0.004200168006721177,-0.030241209648376486,-0.048001920076804885,0.012000480019199556,1.4401152069123109,0.02880230413909584,-0.993679492770927,0.748859907596776,-0.17281382482885085,-0.41763341000460014,-5.573245850749721,-5.947675804548941,4.032322579353908,-0.07410300000000003,0.003512000000000015,-0.9186590000000001,0.13176900000000002,-0.020318000000000003,-0.9109820000000001,0.20587200000000005,0.023830000000000018,0.007677000000000045,0.9869319602992725,0.8265816308589019,double,-0.9109820000000001
83,0.691667,step_decsent,0.06299496040318031,0.01763858891288782,0.023278137748956557,-0.007161150752878166,-0.1634936029751433,0.301497248929801,-0.005639548836082057,0.006959443244540683,0.0,-0.06623470122391453,-0.026637868970482155,-0.003119750419969499,0.48867332720202405,0.6045218253808797,2.36117035555546,-0.12951361036570871,0.25908942126896023,-0.5039798424191438,-4.318873479186198,2.5634810542743662,-1.8142825100994648,-0.07467500000000005,0.0034230000000000094,-0.9188529999999999,0.1306919999999998,-0.02068700000000001,-0.9112019999999998,0.20536699999999986,0.02411000000000002,0.007651000000000074,0.9850706886602472,0.8043921812846372,double,-0.9112019999999998
84,0.7,step_decsent,0.04092163686546595,0.0055202208088312625,0.008040321612869298,0.16077486750055678,-0.059369430742823734,0.22840585837660335,0.002040081603256197,0.004080163206525717,-0.002760110404422293,-0.09420376815070453,-0.07248289931597252,0.005280211208447005,-2.648904780716976,-1.4542623429805197,-1.8286110807737188,0.9215925164212558,-0.34552742565882544,-0.3312264975905818,-3.356422288106354,-5.50162370640715,1.008035716838663,-0.07499900000000004,0.0034109999999999974,-0.918943,0.12956600000000007,-0.021336999999999995,-0.911225,0.2045650000000001,0.024747999999999992,0.007718000000000003,0.9911137005914175,0.7245216749563166,double,-0.911225
85,0.708333,step_decsent,0.0642025681027181,0.015000600023999245,0.004440177607112037,-0.011318390694594466,0.021023844672947004,0.2321885703055979,-0.0019200768030740352,0.007800312012478276,-0.0015600624024943227,-0.0034801392055750194,-0.06192247689907768,0.03588143525741606,2.7938235014103023,1.1376910134606915,-0.4320345620733525,-0.4752380182803571,0.44643571414287087,0.14401152069218354,10.887270964254064,1.2673013820826586,3.6722937776273756,-0.07555,0.003350999999999993,-0.918993,0.12900200000000006,-0.021977999999999998,-0.910963,0.20455200000000007,0.02532899999999999,0.008029999999999982,0.9863612727539277,0.8002803162705024,double,-0.910963
86,0.716667,step_decsent,0.05099592032638787,0.0028797696184333834,0.016558675305971972,0.1300777996447791,-0.08283981984461608,0.2323357765848582,-0.0002399808015427761,0.007079433645312071,-0.0010799136069091885,-0.046556275497966405,-0.0479961603071731,0.00959923206143129,-1.584670959482857,-1.4543832980040519,1.4541033955915337,0.20159539255234538,-0.08649848418120942,0.05761324641050282,-5.168722857258346,1.6710243090838095,-3.153612094550584,-0.07597700000000018,0.003386,-0.91914,0.1281889999999999,-0.022402000000000005,-0.911021,0.20416600000000007,0.025788000000000005,0.008118999999999987,0.988057756478009,0.8062234475090928,double,-0.911021
87,0.725,step_decsent,0.0462018480739063,0.009840393615741239,0.012480499219981395,0.043156554877337314,-0.11173270443292514,0.23491880280547162,-0.0024000960038292525,0.00492019680787395,0.001680067202689803,-0.05052202088083626,-0.05064202568102839,0.014880595223810647,-0.5753116827651039,0.8353082920086307,-0.48940070634712757,-0.2592241932421092,-0.2591187852439866,0.3312109455897056,-0.4759084822836781,-0.317516545524458,0.6337889310427703,-0.07638199999999995,0.0033450000000000424,-0.91923,0.12738300000000002,-0.022905999999999982,-0.9110010000000001,0.20376499999999997,0.026251000000000024,0.00822899999999993,0.9904560340090127,0.7959346892248715,double,-0.9110010000000001
88,0.733333,step_decsent,0.07932317292691947,0.018360734429378807,0.005040201608049358,-0.3134221860352034,-0.033759027126860845,0.17054262229359632,-0.0030001200047931873,0.007200288011514309,-0.0003600144005797124,-0.06228249129964407,-0.05820232809312507,0.022200888035520214,3.974717971080407,1.0224817969083801,-0.8928714282889724,-0.07200576034608573,0.2736218893124144,-0.24481958517574787,-1.4113129027730422,-0.9072725803548122,0.878470276216193,-0.07706799999999991,0.003251999999999977,-0.919275,0.12620300000000007,-0.02354400000000001,-0.910858,0.20327099999999998,0.026795999999999986,0.008417000000000008,0.9869856406376412,0.7690166344686057,double,-0.910858
89,0.741667,step_decsent,0.05699544036477153,0.007079433645305505,0.005399568034565996,0.19443652277992918,-0.08161155251308261,0.1668048100600296,-0.0002399808015427793,0.00467962562995098,-0.0027597792176620325,-0.06419486441084175,-0.07439404847612013,0.028797696184307577,-2.6791135783714988,-1.3536478022646228,0.04312052154027367,0.331190209173317,-0.302455289364452,-0.28794874215050803,-0.22946641603044107,-1.9428510178779888,0.7915536535622032,-0.07754499999999998,0.0032320000000000126,-0.919343,0.1251930000000001,-0.024222999999999967,-0.910663,0.20273800000000008,0.02745499999999998,0.008680000000000021,0.9909365097243203,0.7425414522527074,double,-0.910663
90,0.75,step_decsent,0.05616224648984891,0.007800312012484937,0.019680787231495536,0.12079879841568854,-0.12884262575656796,0.15466205409532252,-0.0006000240009639668,0.002280091203647086,0.001200048001921272,-0.06180247209888888,-0.03300132005280167,0.015120604824188042,-0.0999872644812928,0.08650886441610814,1.7138148562257867,-0.043206912207030594,-0.2879556493824414,0.4751982742809658,0.2870985613767987,4.967326103842348,-1.6413166158789725,-0.07801799999999992,0.0031859999999999666,-0.919497,0.12421000000000015,-0.024563,-0.9107010000000001,0.20222800000000007,0.027748999999999968,0.008795999999999915,0.9955907420926731,0.7925821346595538,double,-0.9107010000000001
91,0.758333,step_decsent,0.07020280811233112,0.01908076323052491,-0.0019200768030740352,-0.001517331789735833,0.0015336582025383897,0.17301495255437016,-0.0008400336013282363,0.0022800912036537477,0.0002400096003842544,-0.02988119524780303,-0.03060122404896246,0.022560902436099928,1.6849347920895419,1.3537082944965708,-2.5922073724432355,-0.028802304135877668,7.994445972182774e-13,-0.11520921655310375,3.830706450388302,0.28802304138235985,0.8928714282865541,-0.07860999999999985,0.0030460000000000487,-0.919479,0.12337600000000015,-0.02497699999999997,-0.9104970000000001,0.201986,0.02802300000000002,0.008981999999999934,0.9959304392276942,0.8295864542585701,double,-0.9104970000000001
92,0.766667,step_decsent,0.0692344612431069,0.01403887688985294,0.006359491240683827,-0.07279859022279753,-0.027629398307013355,0.09008211270947017,-0.00011999040078471127,0.0032397408207342692,-0.000479961603072237,-0.06071514278859135,-0.04991600671946269,-0.0056395488360954545,-0.11619232892059285,-0.6049779626436282,0.9934686877559288,0.08639827220344723,0.11514874215029122,-0.08638963324411993,-3.6997777226768056,-2.3175885133789706,-3.383783449987466,-0.07918800000000004,0.002956000000000014,-0.9195359999999999,0.12229299999999999,-0.025510000000000005,-0.9105969999999999,0.20148100000000002,0.02846600000000002,0.00893900000000003,0.9945378368595512,0.7792734856378136,double,-0.9105969999999999
93,0.775,step_decsent,0.07836313452538245,0.019320772830909164,0.004680187207502953,-0.011910213502726707,-0.046923454555969295,0.11629654918289538,0.0009600384015370176,0.0020400816032628316,0.0001200048001887964,-0.03252130085202317,-0.1140045601824076,0.06120244809792492,1.0954846132575906,0.633852867041426,-0.2015245449635026,0.12960864062423189,-0.14396486469115957,0.07199884834525751,3.3833963682428974,-7.690934052915472,8.021360486501871,-0.07983300000000004,0.0028120000000000367,-0.9195740000000001,0.12136900000000006,-0.026620999999999978,-0.910126,0.2012020000000001,0.029433000000000015,0.009448000000000123,0.9962368719304334,0.6831563438676834,double,-0.910126
94,0.783333,step_decsent,0.06516260650425598,0.01068042721708947,-0.00312012480500201,0.17671241993445258,0.008775156258184643,0.10181039159287265,0.003480139205575066,0.0015600624024943435,-0.003000120004799889,0.0019200768030740608,-0.07740309612384647,-0.022800912036477824,-1.5841267276042945,-1.0368829489763318,-0.9360748844959839,0.30242419345230664,-0.057604608276550166,-0.3744299537967975,4.133130643837458,4.3923513810826185,-10.080806448386356,-0.08034699999999995,0.002736000000000016,-0.919573,0.12084200000000012,-0.02735499999999999,-0.9102899999999999,0.20118900000000006,0.030091000000000007,0.009283000000000041,0.9919126498583251,0.7726460701359713,double,-0.9102899999999999
95,0.791667,step_decsent,0.07559395248381637,0.005519558435323991,-0.0028797696184333834,-0.010643671978936186,0.03490240649570741,0.05050305130281521,0.000479961603058909,0.0014398848092166917,0.0,-0.035997120230403974,-0.06767458603311458,-0.003839692824577845,1.251661384636466,-0.619254713434778,0.02884031516302194,-0.359992512900904,-0.014420157580711648,0.3599856017278457,-4.5496996680438855,1.167327824661845,2.275164292284597,-0.08097300000000018,0.0027020000000000377,-0.919549,0.1199119999999998,-0.027964999999999962,-0.9102979999999999,0.20088499999999998,0.030667,0.00925100000000001,0.9974703802414505,0.7795752551651132,double,-0.9102979999999999
96,0.8,step_decsent,0.09372374894994809,0.015360614424578957,-0.006960278411123393,-0.05793776366867106,0.05499368453126567,0.09745633753507285,0.002640105604246783,-0.003000120004799849,0.000120004800195458,-0.05316212648505572,-0.09132365294611887,-0.004920196807873884,2.175662602439895,1.1809739576688978,-0.489680642348493,0.25922764924851377,-0.532821890557605,0.014401152069537682,-2.0598831458840365,-2.838001549622488,-0.12966566462210904,-0.08173199999999992,0.0025490000000000235,-0.91949,0.1186879999999999,-0.02885399999999999,-0.9102810000000001,0.20041999999999982,0.031403000000000014,0.009208999999999912,0.9933364009564305,0.7316019550547931,double,-0.9102810000000001
97,0.808333,step_decsent,0.07272290891634345,0.00684027361094801,-0.0019200768030740608,0.17959747606576765,0.0016401080788868703,0.11291814090629626,0.0021600864034383334,-0.0014400576023055455,-0.003960158406336919,0.059162366494669535,-0.06552262090483571,-0.06552262090483571,-2.520201612097064,-1.0224817969075992,0.6048483869014014,-0.05760460828134574,0.1872149768983941,-0.4896391703507037,13.479478336700621,3.096247694861802,-7.272581794907282,-0.08231999999999995,0.0024799999999999822,-0.9195070000000001,0.1185750000000001,-0.02945700000000001,-0.910811,0.20089500000000005,0.03193699999999999,0.008696000000000037,0.9921079164538904,0.729808109052072,double,-0.910811
98,0.816667,step_decsent,0.07931365490760951,0.005759539236860106,0.003719702423793135,0.07814618523076608,0.0318257921393502,0.13030902824108204,0.0013198944084453037,-0.003119750419969499,0.001559875209981419,-0.1197504199664083,-0.12934965202783627,0.01919846412286924,0.7908262528516935,-0.1296777506704938,0.6767193696744844,-0.1008149742012267,-0.2015470143585242,0.6623510458745255,-21.467816949973177,-7.658631044276467,10.165716945968839,-0.08296999999999999,0.0024059999999999637,-0.9195249999999999,0.11691600000000002,-0.030583,-0.910682,0.199886,0.03298899999999996,0.008842999999999934,0.9937843891416988,0.6160475032697239,double,-0.910682
99,0.825,step_decsent,0.08724348973960769,0.010320412816509753,-0.0021600864034383334,0.04311110145592043,0.04458445639246356,0.18782461979447077,-0.01068042721708947,0.0021600864034583183,0.011040441617669188,-0.13584543381734324,-0.10440417616704879,0.041401656066247794,0.9516182445695726,0.5473267226268677,-0.705602883383118,-1.4400961989121426,0.6336057630418654,1.137713477461641,-1.931478921269061,2.9935768463683794,2.6644896127899624,-0.08378600000000014,0.0023380000000000067,-0.9194150000000001,0.11505699999999996,-0.031538999999999984,-0.9103190000000001,0.1988430000000001,0.03387699999999999,0.009095999999999993,0.9741463064145828,0.6152699131446016,double,-0.9103190000000001
100,0.833333,step_decsent,0.07836313452538245,0.004920196807873884,-0.010320412816516277,0.08183536169041784,0.0653130083933686,0.18843556066113443,0.0014400576023188495,-0.00252010080403134,0.0013200528021100684,-0.06408256330253596,-0.08916356654266057,0.017520700828030585,-1.0656852531171492,-0.648051843110026,-0.9792783407029774,1.4545163589833516,-0.5616449306959844,-1.1664933175997936,8.61188893733433,1.8289463127790904,-2.8658292617565233,-0.08442700000000003,0.0022760000000000002,-0.9193180000000001,0.11386999999999992,-0.03232299999999999,-0.9100870000000001,0.19829699999999995,0.03459899999999999,0.00923099999999999,0.9946856553239698,0.722369770580637,double,-0.9100870000000001
101,0.841667,step_decsent,0.08459323254139073,-0.006239500839932337,0.008399328053757375,0.1356400861477786,0.023522004707208825,0.22887793616937116,0.0019198464122889224,-0.0028797696184333834,-0.001679865610752807,-0.1245500359971306,-0.017518598512119767,0.004319654427643415,0.7475519577643669,-1.3390565932092797,2.246189209296077,0.05757005159228092,-0.04315680518383015,-0.3599614126305319,-7.255516282048737,8.59670842699067,-1.5839988481385974,-0.08511599999999997,0.0023039999999999727,-0.919402,0.11212699999999987,-0.032417,-0.9101210000000001,0.19724299999999984,0.034720999999999974,0.009280999999999984,0.9935880251412298,0.6974396710697215,double,-0.9101210000000001
102,0.85,step_decsent,0.07932317292692052,-0.017160686427457765,-0.009120364814588465,0.11116844222788357,0.17928819976540628,0.2255701875155889,0.002520100804011389,-0.003120124804988687,0.0007200288011527728,-0.09552382095284126,-0.04956198247929923,-0.022800912036477824,-0.6324324510344717,-1.3105946942908349,-2.1024472420912037,0.07203340834303038,-0.0288437761376822,0.28799884938264747,3.4832851367202218,-3.845359890457189,-3.254598159620963,-0.08575600000000017,0.0024210000000000065,-0.9193200000000001,0.11066999999999982,-0.032686999999999994,-0.9102350000000001,0.196426,0.035108,0.00908500000000001,0.9932085576037899,0.7258085451313736,double,-0.9102350000000001
103,0.858333,step_decsent,0.07332293291730645,-0.01572062882515201,0.0003600144005730508,0.031092737087400873,0.04777161904964102,0.2851729331033941,0.003000120004819834,-0.0034801392055683576,-0.0013200528021100684,-0.04344173766950341,-0.06468258730349327,0.010320412816509616,-0.7200576034578245,0.1728138248296831,1.1376910134599156,0.0576046082813444,-0.04320345620780861,-0.24481958517494692,6.250099998000436,-1.8145451607097058,3.974717971077319,-0.08634199999999992,0.0025229999999999975,-0.9193340000000001,0.10969699999999993,-0.03309500000000001,-0.9101520000000001,0.19603899999999985,0.03561800000000001,0.009182000000000023,0.9920322475750664,0.7771845315380557,double,-0.9101520000000001
104,0.866667,step_decsent,0.13726901847852657,-0.01859851211903253,-0.019078473722104767,0.2763162956898351,0.2928069779555615,0.1501627439716679,0.0045596352291795905,-0.0045596352291795905,0.0008399328053730844,-0.08075353971681395,-0.050995920326371895,-0.0109191264698834,7.672916434031737,-0.3453183697960809,-2.332431980162938,0.18712685677462987,-0.12952916050050864,0.25917753869488425,-4.477058081030808,1.6422686557621136,-2.5485408311006883,-0.08744799999999997,0.002640000000000031,-0.919168,0.10787999999999998,-0.03336499999999998,-0.9100840000000001,0.19532799999999995,0.03600500000000001,0.00908399999999987,0.989162047912301,0.7489436064914946,double,-0.9100840000000001
105,0.875,step_decsent,0.11988479539181182,-0.02208088323533142,0.009240369614770478,0.4102789006806863,0.2618765250909214,0.28367456539460784,0.001200048001901287,-0.005400216008642393,0.00252010080403134,-0.05616224648984891,-0.063482539301572,-0.017040681627262078,-2.086190218014482,-0.41790125000586514,3.398397136310468,-0.40316659393715226,-0.10087372848467521,0.20162822496798857,2.9510732301649996,-1.4984542151926132,-0.7346160035255792,-0.0884370000000001,0.0027790000000000314,-0.9192239999999999,0.10641300000000009,-0.03370999999999996,-0.9103029999999999,0.1948500000000002,0.036488999999999994,0.008921000000000068,0.9898684546246576,0.7666969016487768,double,-0.9103029999999999
106,0.883333,step_decsent,0.09408376335054779,-0.029881195247809696,-0.0009600384015370176,0.01957160951556813,0.10376197943440806,0.31557764447903075,0.002880115204611053,-0.0036001440057638156,-0.0013200528021100684,0.006120244809795156,-0.01776071042841817,-0.02364094563782574,-3.0962476948594655,-0.9360748844927689,-1.2240979258739293,0.20161612897032988,0.21601728103666978,-0.46083686621161557,7.474197923874212,5.486838938335969,-0.7920633638021883,-0.08919700000000019,0.0029980000000000007,-0.9192269999999999,0.10568,-0.03360899999999997,-0.9104919999999999,0.1948770000000002,0.03660699999999997,0.008735000000000048,0.9920071838062705,0.8623234402431762,double,-0.9104919999999999
107,0.891667,step_decsent,0.06119510439162363,-0.05231581473482055,-0.021718262538995413,-0.12242731521325248,0.1973074370531258,0.3390676449637201,0.00659947204225325,-0.00779937604991386,0.0013198944084453212,-0.012958963282937077,-0.004919606431487099,-0.016438684905207467,-3.946323369201385,-2.6919389833226517,-2.490787633484343,0.44628711754766237,-0.5038675358951364,0.3167683238007445,-2.28932182538185,1.5408092148945458,0.8642021517420584,-0.08965199999999984,0.003369000000000011,-0.9190349999999999,0.10506200000000021,-0.033213999999999994,-0.9104479999999999,0.19471400000000005,0.036583000000000004,0.008587000000000011,0.9828304679370454,0.8782921081108146,double,-0.9104479999999999
108,0.9,step_decsent,0.05124204968200834,-0.03984159366374626,-0.016440657626284785,-0.32392394931833773,0.08328997598040082,0.45353726178560944,0.0033601344053662383,-0.0057602304092154435,0.0032401296051841034,-0.0163206528261293,0.007440297611905225,-0.012480499219967906,-1.1944143417274993,1.4969664071851954,0.6333379230421944,-0.3887360658690745,0.2447072651744159,0.23043744110629713,-0.4034188819383424,1.4832478151196773,0.4750012822800365,-0.0900510000000001,0.0036530000000000173,-0.9188710000000001,0.1044989999999999,-0.03281999999999999,-0.9104150000000001,0.19455,0.036473000000000005,0.008456000000000019,0.9876431308523281,0.8790209650653982,double,-0.9104150000000001
109,0.908333,step_decsent,0.1317652706108042,-0.0621624864994561,-0.009120364814615112,0.29527112541744466,0.28481631812849784,0.1529414738617566,0.005400216008649127,-0.006240249609984035,0.0038401536061481215,0.0032401296051841467,0.004320172806913306,-0.012960518420736587,9.663173038377128,-2.6786142848565992,0.8784702762114173,0.24481958517735594,-0.0576046082765626,0.07200576034609668,2.347387787269126,-0.3744299537971856,-0.05760460827657332,-0.09110399999999985,0.004118999999999984,-0.9187629999999999,0.10342800000000008,-0.03226600000000002,-0.9104469999999999,0.19453199999999993,0.036385,0.00831599999999999,0.9848296865324091,0.8934390639625585,double,-0.9104469999999999
110,0.916667,step_decsent,0.08375329973603098,-0.05207583393329039,-0.016198704103671132,0.021960602791760382,0.26742094241263914,0.2646702234947928,0.008159347252214599,-0.004199664026878687,-0.0004799616030722306,0.02291816654668236,0.007439404847612913,-0.021118310535158166,-5.76097562692259,1.2103014838211699,-0.8493327680652707,0.3310692636867592,0.24485068191808645,-0.5183723553180128,2.3611755389366524,0.3742779026517379,-0.9788567451909667,-0.09173399999999998,0.004518000000000022,-0.9186319999999999,0.10292100000000004,-0.031769999999999965,-0.910488,0.19465500000000002,0.03628799999999999,0.008143999999999929,0.9846845676357596,0.8651597778248608,double,-0.910488
111,0.925,step_decsent,0.09156366254650979,-0.0640825633025293,-0.00024000960036426957,-0.03981077696990824,0.19662104898984387,0.17370383168489967,0.004800192007685088,-0.007080283211325512,0.00588023520940424,0.022320892835715672,0.0032401296051841034,-0.015600624024963212,0.9372810284985933,-1.4408651589150199,1.9151199451946235,-0.403114753933697,-0.3456881296588039,0.7632541476630798,-0.07167571234449593,-0.5039331864189118,0.6621488671780787,-0.09245700000000001,0.004993000000000025,-0.9185810000000001,0.10234399999999999,-0.031208999999999987,-0.9106160000000001,0.194801,0.03620200000000001,0.007965,0.982699597003639,0.8746425921755762,double,-0.9106160000000001
112,0.933333,step_decsent,0.0979239169566705,-0.060842433697346016,-0.001680067202709788,-0.16834793374223722,0.164221129108087,0.237239044936248,0.00756030241208746,-0.00684027361094801,0.0019200768030740608,0.05280211208448338,0.009360374414976053,-0.019800792031677936,0.7632610596616799,0.3888311058662326,-0.17281382483445715,0.3312264975881912,0.028802304137466036,-0.475238018280357,3.65789262555718,0.7344587555252616,-0.5040403224186681,-0.09321000000000002,0.005442999999999976,-0.9185509999999999,0.10196800000000006,-0.030624000000000012,-0.9107669999999999,0.19517800000000007,0.03606699999999999,0.007784000000000013,0.9827088485567079,0.8268862567526158,double,-0.9107669999999999
113,0.941667,step_decsent,0.0788336933045506,-0.05399568034557266,-0.008879289656816284,-0.05958871673949015,0.16897803554209212,0.22605630099718674,0.006839452843769295,-0.006959443244540683,0.0075593952483776405,0.009239260859117126,0.013798896088313308,-0.02435805135589239,-2.2906435867674295,0.8215446786385056,-0.8638375874857741,-0.08649502859589148,-0.014299212094153097,0.6766640803099996,-5.22712397712574,0.5325799944009144,-0.5468273727159132,-0.09381000000000017,0.005834999999999979,-0.9184140000000001,0.10138799999999981,-0.030059000000000002,-0.9108959999999999,0.19519799999999998,0.03589399999999998,0.007518000000000136,0.9794278760618673,0.8756861651898279,double,-0.9108959999999999
114,0.95,step_decsent,0.08004320172806663,-0.07044281771270966,0.006840273610941349,0.11162982378356089,0.12047447623581627,0.12346088533838956,-0.03564142565702561,-0.004320172806909975,0.04728189127565211,0.005640225609040045,0.008520340813631152,-0.011160446417857985,0.1451468166945922,-1.9737354334737973,1.8864230490528955,-5.097909336468894,0.31672512152054866,4.766890198880935,-0.43190150606949634,-0.6334519710407062,1.5837759436018872,-0.09477400000000014,0.006386000000000003,-0.918077,0.10076799999999997,-0.02940100000000001,-0.911046,0.1955420000000001,0.03578700000000001,0.0070310000000000095,0.9010534325092938,0.9044707438679631,double,-0.911046
115,0.958333,step_decsent,0.09336373454937504,-0.06504260170406632,-0.007440297611905225,-0.24250857084727787,0.1875804749979026,0.08928559633298165,0.008880355214224074,-0.008640345613826497,0.005880235209410902,0.015120604824174719,0.009960398415936565,-0.014520580823230737,1.598527879672189,0.648051843110922,-1.7137370962254306,5.342827417646646,-0.51844147448896,-4.968397463847478,1.1376910134566944,0.1728138248296421,-0.4032322579350459,-0.09547799999999995,0.006855999999999973,-0.917966,0.10011599999999987,-0.028776000000000024,-0.9111049999999999,0.19559399999999982,0.035632,0.006861000000000006,0.9771421392578223,0.8927071910743205,double,-0.9111049999999999
116,0.966667,step_decsent,0.08183345332374205,-0.059515238780896644,0.005639548836108701,-0.13734000235401678,0.16810012344343786,0.07802559519501975,0.00803935685142989,-0.008999280057594332,0.006359491240697064,0.015118790496768604,0.03347732181425478,-0.008279337652985986,-1.3835230652307295,0.6632304923409693,1.5694560172802767,-0.1009117305968536,-0.0430686877571193,0.05750612326447784,-0.00021770187258403912,2.821805063393093,0.7488892692878214,-0.0960930000000002,0.007276999999999978,-0.9179600000000001,0.09955999999999987,-0.028001000000000026,-0.9112210000000001,0.19565300000000008,0.035278000000000004,0.0067390000000000505,0.9772659439887503,0.8698526114594967,double,-0.9112210000000001
117,0.975,step_decsent,0.09504380175205941,-0.05904236169447407,0.002640105604220172,0.04114629353579302,0.22273304068601404,0.035587999016911676,0.007320292811723187,-0.010080403216132157,0.007560302412100783,0.012960518420736587,0.036841473658946904,-0.027601104044162977,1.5853052236070424,0.05674752027152026,-0.359947585730056,-0.0862911364102615,-0.12973996862328513,0.1441031046926353,-0.25900300924421416,0.40371436993785614,-2.3187047151298654,-0.09682400000000002,0.007684999999999997,-0.917919,0.09887599999999996,-0.027201999999999976,-0.911473,0.19569999999999999,0.034886999999999974,0.006446000000000063,0.9757124066644676,0.8558341141941574,double,-0.911473
118,0.983333,step_decsent,0.0819632785311396,-0.057242289691581384,-0.004920196807867223,-0.021283202437032914,0.18151414543722977,0.023171734670870085,0.006360254410186072,-0.00888035521420409,0.00804032161286253,0.002760110404428918,-0.0033601344053762307,-0.015120604824194703,-1.5697255755333916,0.21601728103836293,-0.9072725803536977,-0.11520921655311545,0.1440115206921952,0.05760460827574038,-1.22409792587395,-4.824385943156482,1.497719815188794,-0.09745399999999993,0.008087999999999984,-0.9178110000000002,0.09821600000000008,-0.026753000000000027,-0.9115580000000001,0.19567,0.03484100000000001,0.006253000000000064,0.9773946714411674,0.9112475857690256,double,-0.9115580000000001
119,0.991667,step_decsent,0.09455243580513743,-0.05591552675786232,0.012479001679851519,-0.03908965038325211,0.14750336879411974,0.02278113575269668,0.005039596832238506,-0.007319414446848284,0.009959203263738926,0.014998800095984094,-0.0410367170626363,-0.013798896088310161,1.510578026637617,0.15919881614099712,2.087736799582294,-0.1584662320551444,0.18729790825003778,0.23024737831490374,1.4685252809641522,-4.520828252611024,0.15859236091727258,-0.09820000000000007,0.008492999999999973,-0.917832,0.097553,-0.026629000000000014,-0.911777,0.19575300000000007,0.03512199999999999,0.006055000000000033,0.9777540831633766,0.8630849104474259,double,-0.911777
120,1.0,step_decsent,0.08472338893556852,-0.0601224048961991,-0.0073202928116964435,-0.009887732181610983,0.18974283058202712,-0.025771938090565077,0.0037201488059659354,-0.008760350414015293,0.010200408016320819,-0.002640105604220137,0.004080163206528994,-0.014280571222853145,-1.1795328056604908,-0.5048455704232281,-2.3760103794009217,-0.15834009675657806,-0.1729192328293535,0.02894572813895256,-2.116753354158665,5.414242201987892,-0.057803328278288914,-0.09887500000000005,0.008921000000000012,-0.9176860000000001,0.09682499999999994,-0.02609399999999998,-0.9118350000000002,0.19569999999999999,0.03501499999999999,0.00585099999999994,0.9767482634929077,0.9163485886188892,double,-0.9118350000000002
121,1.008333,step_decsent,0.09828393135724356,-0.05460218408736198,0.003840153606121475,-0.04614055459910651,0.2256015512811995,-0.07603815468643178,0.00444017760708545,-0.009240369614783925,0.010920436817473728,-0.015480619224774622,0.009000360014399668,-0.0027601104044156313,1.6273301838083716,0.6624529951802679,1.3393071424238594,0.08640691241083893,-0.05760460827656749,0.08640691241484645,-1.5409232713974081,0.5904472348338796,1.3825105986364596,-0.0996570000000001,0.009299000000000002,-0.917627,0.09587699999999999,-0.025564000000000003,-0.9118899999999999,0.1955340000000001,0.034863000000000005,0.005737000000000103,0.9750358285578934,0.9124327658820001,double,-0.9118899999999999
122,1.016667,step_decsent,0.11399088072954154,-0.06167506599472169,0.010559155267589073,-0.8606497695853897,0.08484077153963494,0.0964693827123212,0.004679625629964239,-0.00659947204223318,0.007319414446841525,0.018958483321346448,-0.02075833933285066,0.021358291336694278,1.8846831500237415,-0.848677934648387,0.806215702119936,0.028731464228316284,0.3168823581174376,-0.4320881174264669,4.1323617165971696,-3.5707582610091313,2.893976690797903,-0.10056799999999999,0.009758000000000044,-0.917654,0.09508500000000009,-0.025222999999999968,-0.9117999999999999,0.19565300000000008,0.03498100000000001,0.005854000000000026,0.9818168457755942,0.8826167678174865,double,-0.9117999999999999
123,1.025,step_decsent,0.0710428417136603,-0.044881795271809535,-0.006240249609977374,0.7619245221997188,0.22534134265263653,-0.19066753403651265,0.005160206408258207,-0.007080283211332268,0.007920316812673838,0.0007200288011461112,0.005640225609023392,-0.0116404656186265,-5.153970840739425,2.0152730976733837,-2.0160092256770192,0.05767200027528768,-0.05769964827782224,0.07211116834661205,-2.1887020905076806,3.1679545112053638,-3.96000923500793,-0.1011169999999999,0.010072999999999999,-0.9175360000000001,0.09449900000000011,-0.02480199999999999,-0.911845,0.195616,0.03487499999999999,0.005691000000000113,0.9803157170041661,0.9214983975805928,double,-0.911845
124,1.033333,step_decsent,0.09612384495380268,-0.044761790471619545,0.003960158406330152,-0.11196684591662635,0.1261243087111208,-0.01300114550175235,0.003600144005757106,-0.00516020640825807,0.008640345613826381,-0.0016800672026830968,0.040801632065282735,-0.023400936037441176,3.0098407824483293,0.014401152068881375,1.2240979258739166,-0.18721497689920483,0.23041843310622398,0.08640691241480022,-0.28802304138115514,4.2195375562532975,-1.4113129027738474,-0.10188799999999998,0.010402999999999996,-0.917497,0.0936840000000001,-0.02408899999999997,-0.912073,0.19557200000000008,0.03449199999999997,0.005423999999999984,0.9821858093890491,0.8673168214773578,double,-0.912073
125,1.041667,step_decsent,0.07739380849532265,-0.051715862730977606,0.005399568034566068,-0.002023209583422441,0.06700134833940255,-0.05246409704550712,0.0002399808015427825,-0.004559635229179651,0.010319174466039912,-0.005519558435324138,0.07931365490760829,-0.07091432685385403,-2.2474245810511615,-0.8344219173695937,0.17271533816126036,-0.403187329519365,0.07206277646729427,0.2014433467978837,-0.4607020917495937,4.621073055234736,-5.701150805905179,-0.10253099999999993,0.010795999999999972,-0.917456,0.0929930000000001,-0.022997000000000017,-0.9127090000000001,0.19552400000000003,0.03379299999999999,0.004746999999999946,0.9811929958475236,0.7749696571016913,double,-0.9127090000000001
126,1.05,step_decsent,0.08628345133804172,-0.058082323292935494,-0.0228009120364972,0.06138237024773171,0.20939336732227518,-0.059271202217287114,0.002520100804011322,-0.0028801152046043525,0.008160326413057879,0.018120724828994312,-0.016200648025920302,0.021960878435135667,1.066799813118794,-0.7640058276680398,-3.384192976246583,0.27362534531003235,0.20155046496763102,-0.2590721292430092,2.836947469616949,-11.462174839016791,11.145470453496708,-0.10322900000000002,0.011256000000000044,-0.917198,0.0924250000000002,-0.022647999999999974,-0.912336,0.19565400000000022,0.03390400000000002,0.004861999999999922,0.984978080938747,0.8967829445637637,double,-0.912336
=======
=======
>>>>>>> 3b0d06690e55fb02323d988053aa126fb7c3a6e7
1,0.008333,stand,-0.05856234249367837,0.012120484819394905,-0.006000240009613046,-0.28326748727830653,0.11608116580358659,0.11841321749721567,0.0003600144005730523,0.0004800192007685108,-0.002160086403451637,-0.004200168006721138,0.001680067202683126,-0.0034801392055683724,0.0,0.0,0.0,0.0,0.0,0.0,0.0,0.0,0.0,-0.07471500000000009,0.010963,-0.918554,0.13128699999999993,-0.007769000000000026,-0.91038,0.20600200000000002,0.018732000000000026,0.008174000000000015,0.9962635422032421,0.9087475219404034,double,-0.91038
2,0.016667,stand,-0.0745140388769144,0.0,0.0067194624430112785,-0.125895657192798,0.09297105193228045,0.1253966842701754,0.0,0.0005999520038369624,-0.0038396928245778734,-0.0021598272138317145,0.00035997120230750603,-0.0004799616030722342,-1.9140504419529676,-1.45434183098091,1.5262421949393237,-0.04319827220698971,0.014390785105405755,-0.20153664760334009,0.24482130944197544,-0.1583988481372234,0.35999251289850465,-0.07409399999999988,0.010967999999999978,-0.9186420000000001,0.13189000000000006,-0.007765999999999995,-0.91044,0.20598399999999994,0.018733999999999973,0.008202000000000043,0.9935228642745717,0.914243990542287,double,-0.91044
3,0.025,stand,-0.09576383055320466,-0.004800192007678446,0.004680187207476326,0.003861195104391167,-0.016688721878297574,0.17438136221361045,0.002760110404402283,0.0,-0.0009600384015303599,-0.0013200528021100738,0.0014400576023055323,-0.0008400336013482247,-2.5500770042349994,-0.5760460827647241,-0.2447228171768814,0.33122649758817746,-0.0719971203452493,0.345572353659848,0.10077696048501628,0.12961555262186802,-0.043210368207847176,-0.07327300000000014,0.011007999999999962,-0.9186889999999999,0.13267699999999993,-0.007713999999999999,-0.9104859999999999,0.20595000000000008,0.01872199999999996,0.00820299999999996,0.9951294869147472,0.9144258492046324,double,-0.9104859999999999
4,0.033333,stand,-0.0980439217568784,0.007680307212282849,-0.0008400336013282398,-0.13652935636683708,-0.24476250408687886,0.15975404153885156,0.002400096003855877,0.00012000480019545849,-0.0013200528021167354,-0.0019200768030740432,0.001680067202683126,0.0009600384015370216,-0.27362188931642173,1.497719815187963,-0.6624529951763549,-0.043203456203816874,0.0144011520695378,-0.0432034562086134,-0.07200576034609016,0.028802304137476753,0.21601728103747106,-0.07243599999999994,0.010945000000000038,-0.9186930000000001,0.13347799999999999,-0.007763999999999993,-0.910471,0.20591399999999993,0.01870900000000003,0.008222000000000063,0.9954303533505888,0.9132366915910257,double,-0.910471
5,0.041667,stand,-0.0893928485721137,-0.0035997120230350957,-0.010319174466046374,-0.033785918387839446,-0.07667736028962406,0.05727441442423732,-0.0015598752099880916,0.0009599232061444684,0.0004799616030722342,-0.0004799616030589126,0.0022798176145897822,0.00035997120230750603,1.0380457385126827,-1.353494028715856,-1.1374059112932726,-0.4751585329786378,0.1007821461421898,0.215984449866687,0.1728000000018155,0.0719642922854159,-0.07200230372324401,-0.07170399999999999,0.01098300000000002,-0.9186030000000001,0.1342190000000001,-0.007715000000000027,-0.910382,0.20592300000000008,0.018698000000000048,0.008221000000000034,0.9968443056879253,0.9138609377841043,double,-0.910382
6,0.05,stand,-0.046201848073932524,0.015840633625347534,0.005280211208440295,-0.18011653595079158,-0.09042261597428486,0.12229611087915025,0.0006000240009639692,0.000840033601341563,-0.0004800192007685108,-0.00216008640346496,0.003240129605184117,0.0001200048001887969,5.183127384877136,2.3329347951977235,1.8720011609848395,0.2591982732451771,-0.014387328069471418,-0.11520230455307152,-0.20162304097036451,0.11524204855326228,-0.02879712013905066,-0.07131399999999988,0.010857999999999979,-0.918651,0.1345860000000001,-0.00782000000000005,-0.910425,0.20589999999999997,0.018678000000000028,0.008225999999999956,0.9981025575061985,0.9112466670343742,double,-0.910425
7,0.058333,stand,-0.046441857674296795,0.008040321612862562,0.01032041281651632,-0.10474123053082296,-0.027018221005122585,0.08232043427678962,0.0008400336013282398,0.0014400576023055323,-0.001200048001921277,-0.0008400336013548863,0.0015600624025009907,0.0030001200047998617,-0.02880230413587802,-0.9360748844935763,0.6048483869045992,0.028802304135877903,0.07200576034609016,-0.08640691241482854,0.15841267276011925,-0.20161612896713382,0.34562764965931414,-0.0709200000000001,0.010803000000000007,-0.918747,0.13496599999999992,-0.007873999999999992,-0.910486,0.205886,0.018677,0.008260999999999963,0.9965764145028633,0.9115828752586195,double,-0.910486
8,0.066667,stand,-0.0395968322534127,0.007799376049913815,-0.007079433645312124,-0.08815620126573959,0.054397497298727095,-0.00853518491638848,0.0009599232061444684,0.0002399808015361171,0.0004799616030722342,-0.0019198464122889367,0.0037197024238064848,0.0002399808015361171,0.8213373435186099,-0.028911154661476805,-2.0878145502553926,0.01438560172980904,-0.14399769627662767,0.20158502579715754,-0.12956717193833098,0.25913607167092556,-0.33119020917491526,-0.07058200000000014,0.010740000000000027,-0.9186840000000001,0.13527999999999984,-0.00790799999999997,-0.910425,0.205862,0.018647999999999998,0.008259000000000016,0.9981671163527076,0.9104219969563788,double,-0.910425
9,0.075,stand,-0.03804152166088119,0.0038401536061480894,-0.00468018720747633,0.02934992962782413,0.08233371705200673,-0.05239645284706475,0.049441977679116685,-0.004440177607105397,-0.048361934477377536,-0.002760110404402285,0.00264010560422015,-0.00036001440057305256,0.18664473689325675,-0.47512569827981865,0.2879210893838708,5.818079259927067,-0.56164147469597,-5.8612619801331824,-0.10083571248210119,-0.1295568006223852,-0.07200230434527423,-0.06985299999999994,0.010670999999999986,-0.9190480000000001,0.13557400000000008,-0.007918000000000036,-0.9103890000000001,0.20542700000000003,0.018589000000000022,0.008658999999999972,0.8844926524655602,0.907015997294655,double,-0.9103890000000001
10,0.083333,stand,-0.009480379215161426,0.01728069122764639,0.007320292811696468,-0.02271053164384677,0.09058262501057711,-0.029510254400584607,-0.05040201608065362,0.006480259210368228,0.04512180487219335,-0.0018000720028919063,0.0034801392055683693,-0.0008400336013482239,3.427474192454067,1.6129290317410643,1.4401152069090108,-11.981758521513285,1.3105048382903657,11.21849746184697,0.11520921654990736,0.10080806448436563,-0.05760460827735161,-0.07019400000000009,0.010581000000000007,-0.918733,0.13563799999999993,-0.008033000000000012,-0.910457,0.20583200000000001,0.01861400000000002,0.008276000000000061,0.8867361210447979,0.9105614097135524,double,-0.910457
11,0.091667,stand,0.004079673626120655,0.03251739860811392,0.011879049676034476,0.009828272410824785,0.01573092565398899,0.04244374514780111,0.00011999040078471066,0.0008399328053730801,0.0002399808015361173,-0.0016798656107461602,0.0021598272138250558,-0.002159827213818395,1.6270761748598621,1.8282586249661081,0.547007063155509,6.062155805308179,-0.6767850257973544,-5.385388057434277,0.014423613168436066,-0.1584247650279955,-0.15836256449126132,-0.07022700000000004,0.010316999999999965,-0.91883,0.13558999999999988,-0.008286000000000016,-0.910574,0.20581699999999992,0.01860299999999998,0.008256000000000041,0.9985304237204324,0.9116301291711387,double,-0.910574
12,0.1,stand,-0.018000720028812478,0.004200168006714473,0.0002400096003909168,0.19829219644783314,0.05078604689526629,-0.03047290479567982,0.0016800672026831248,-0.00036001440057305197,0.004800192007685103,-0.0019200768030740415,0.0028801152046044006,-0.0012000480019212759,-2.6497532287211225,-3.398203600311944,-1.3967406787043741,0.18721670489600536,-0.14399942469052335,0.547247234627263,-0.028826496139191287,0.08643801641417788,0.11517811255215626,-0.07006299999999999,0.010279000000000038,-0.918792,0.13572399999999996,-0.008296999999999999,-0.9105860000000001,0.20578699999999994,0.018576000000000037,0.008205999999999936,0.991502601789568,0.9118340207518433,double,-0.9105860000000001
13,0.108333,stand,-0.018240729629176777,0.009000360014406253,-0.014160566422664419,0.1870464998864709,-0.07325916217379728,-0.016736230725117086,0.0002400096003909172,0.001200048001921278,0.0008400336013415638,-0.001800072002865263,0.001560062402500992,-0.0027601104044156083,-0.028802304135881376,0.5760460827663246,-1.7281382482965735,-0.17281382482805818,0.1872149768983957,-0.47523801828195644,0.01440115207113628,-0.15841267275931953,-0.18721497689839597,-0.069909,0.010214,-0.918667,0.135861,-0.008359000000000005,-0.9104909999999999,0.20577,0.018573000000000006,0.008176000000000072,0.9975260376661349,0.9121635739305811,double,-0.9104909999999999
14,0.116667,stand,-0.02255819534438167,0.01775857931365267,-0.0027597792176753356,-0.018054071953427113,-0.011835985275694561,-0.023917226344280146,0.0014398848092033799,0.0005999520038369618,0.00035997120230084497,-0.0009599232061444676,0.0034797216222703644,-0.002639788816897286,-0.5180544414692689,1.0509022437300706,1.367985025796625,0.14397350717692123,-0.07200575930937313,-0.05760287965451384,0.10080979082322948,0.23034067911799502,0.014437435507358067,-0.06970900000000002,0.010070999999999997,-0.9186409999999999,0.13604100000000008,-0.008477999999999986,-0.9104899999999999,0.2057500000000001,0.018548999999999982,0.00815100000000002,0.9973318806367444,0.911036738199507,double,-0.9104899999999999
15,0.125,stand,-0.02544101764069112,0.02040081603264174,-0.002520100804011368,-0.04777988938282589,-0.03185013074370972,-0.006493299243352892,0.001320052802110075,-0.0006000240009573081,0.0014400576023055336,-0.000840033601354887,0.001320052802110075,-0.002400096003842556,-0.3459525136576809,0.31708108952226943,0.02876256014208184,-0.01438041606783932,-0.14400288069054012,0.12961555262266766,0.014387328067872397,-0.2591706252442447,0.028764288138093147,-0.06948600000000016,0.009896000000000016,-0.9186080000000001,0.13624599999999987,-0.008637000000000006,-0.9104890000000001,0.20573200000000003,0.01853300000000002,0.008118999999999987,0.996593986486276,0.9140348744404453,double,-0.9104890000000001
16,0.133333,stand,-0.0267610704428278,0.016200648025920573,0.0,0.07007221939580231,-0.006854384845109666,0.003386635969598838,0.0019200768030740415,0.0014400576022988694,-0.00048001920076851036,0.0001200048002087816,0.0026401056042268073,-0.0031201248049886558,-0.15841267276331183,-0.5040403224194363,0.3024241934491019,0.07200576034608977,0.2448195851741481,-0.23041843310620935,0.11520921655630238,0.1584126727609182,-0.08640691241402845,-0.06924700000000006,0.009772999999999976,-0.9186120000000001,0.1364700000000001,-0.00874999999999998,-0.9105150000000001,0.20571700000000015,0.018522999999999956,0.00809700000000002,0.9959206212139768,0.9122150373865358,double,-0.9105150000000001
17,0.141667,stand,-0.024358051355885972,0.01955843532517694,0.0010799136069025385,-0.0007402025372407039,0.05426756411872552,0.01640555969066311,0.0009599232061444707,0.0009599232061444707,0.00011999040077138925,0.0010799136069025385,0.00203983681305367,-0.003479721622270376,0.28833922329515643,0.4029022437312665,0.12957926648698598,-0.1152092148943572,-0.057611518617038615,0.07199539255338384,0.11517984241585784,-0.07202649282135092,-0.043148166220508904,-0.0690360000000001,0.00961799999999996,-0.91862,0.13668199999999997,-0.008896000000000015,-0.910553,0.20571800000000007,0.018513999999999975,0.008067000000000046,0.9977286183722074,0.9123706716897475,double,-0.910553
18,0.15,stand,-0.03144125765030412,0.030721228849151357,0.0016800672026831248,-0.09184744021458971,0.0142946185467629,0.02273106227066695,0.003120124805001979,0.0001200048001954584,-0.0013200528021167343,0.0,0.002520100804031349,-0.002760110404415604,-0.8500187560804207,1.339588806429186,0.07202131234616414,0.2592345612453506,-0.10079424048350073,-0.1728120968304479,-0.12959481662096933,0.05763398427669246,0.08635680041458918,-0.06874800000000003,0.00936300000000001,-0.9186449999999999,0.13694399999999995,-0.009131,-0.91059,0.20569199999999999,0.01849400000000001,0.008054999999999923,0.9943499952430612,0.9132207862304915,double,-0.91059
19,0.158333,stand,-0.032401296051841146,0.025921036841472914,-0.014160566422664394,-0.04010566101747381,-0.12051737715853532,0.09159874924007291,0.00180007200286526,0.0013200528021100728,0.0,0.0009600384015370207,0.001800072002878583,-0.003240129605184114,-0.11520921655310469,-0.5760460827647232,-1.9009520731246259,-0.15841267276331666,0.1440115206905812,0.15841267276091842,0.11520921655310451,-0.08640691241482842,-0.05760460827655224,-0.06846300000000016,0.009158,-0.9185269999999999,0.13722199999999996,-0.009332000000000007,-0.910499,0.20568500000000012,0.018490000000000006,0.008027999999999924,0.9962796361379198,0.9133385222874746,double,-0.910499
20,0.166667,stand,-0.03191744660428356,0.019678425725941605,-0.15490760739140028,-1.102995667478248,-0.6698756322054336,0.055728556891017605,0.0020398368130736455,-0.0002399808015361169,0.0017998560115242072,0.00011999040075806724,0.0014398848092167015,-0.004199664026878715,0.05805728912377997,-0.7490534095909891,-16.88829385274007,0.028769475666952884,-0.18718905731295754,0.21596544414737287,-0.10079769627777209,-0.04321900571896822,-0.11513491980976721,-0.06817999999999991,0.008992,-0.917221,0.13748899999999997,-0.009483999999999992,-0.909243,0.20566899999999988,0.018475999999999992,0.00797799999999993,0.9954484414539584,0.912817889959473,double,-0.909243
21,0.175,stand,-0.014880595223810548,0.016680667226689136,-0.0129605184207365,-0.09217670604069955,-0.010812599564212868,0.0033404365837312426,0.00024000960036427117,0.000720028801152768,-0.0001200048001954588,0.0004800192007818352,0.00120004800192128,-0.001800072002878589,2.0445039458145993,-0.3597454097266862,17.034332049761684,-0.21598790504132712,0.1152057605530886,-0.23039251310688477,0.043205184210220675,-0.028781568138176176,0.2879625613824711,-0.06805400000000006,0.008859000000000006,-0.917114,0.1376170000000001,-0.009612999999999983,-0.9091499999999999,0.20567100000000016,0.01847199999999999,0.007964000000000082,0.9987193239254787,0.9166666152020799,double,-0.9091499999999999
22,0.183333,stand,-0.007800312012478302,0.017040681627268794,-0.008760350414015322,-0.07303025894851699,-0.008245251121182922,-0.017262341484486136,0.0033601344053928958,0.0006000240009573072,-0.003360134405372911,-0.0002400096003909168,0.001800072002878583,-0.003840153606148083,0.849667972078752,0.04320345620780729,0.5040403224194377,0.3744299538015867,-0.01440115206953807,-0.38883110586552855,-0.08640691241722685,0.07200576034529012,-0.2448195851757461,-0.06796099999999994,0.008721999999999952,-0.9170689999999999,0.13768000000000002,-0.009740000000000026,-0.909109,0.20564099999999996,0.01846199999999998,0.007959999999999967,0.9920171998705898,0.9133201687985758,double,-0.909109
23,0.191667,stand,-0.004199664026878715,0.017158627309809046,-0.00527957763378125,-0.08725711923009709,-0.0014912001312358532,-0.018831982676753692,0.0010799136069025348,0.00011999040077138885,0.0004799616030722338,-0.00035997120230084497,0.002759779217662014,-0.004079673626107326,0.43204319481636466,0.014152349716852789,0.41765932088241764,-0.273604607450247,-0.05759942406838467,0.46077465904069365,-0.014394240689936172,0.11515565332174585,-0.02874010318685424,-0.067917,0.008580000000000032,-0.9170210000000001,0.13771200000000006,-0.00985999999999998,-0.9090990000000001,0.20562900000000006,0.018440000000000012,0.007921999999999985,0.998020259391939,0.9125490122281237,double,-0.9090990000000001
24,0.2,stand,-0.01680067202688454,0.016440657626304825,-0.01836073442938553,0.07543175321869851,0.010489242324353415,0.020934591949907412,0.0006000240009639688,0.0,0.0007200288011461039,-0.0007200288011461039,0.0009600384015370207,-0.003600144005763828,-1.512181447258588,-0.08615980841284294,-1.5698016075368137,-0.05758905627487886,-0.01439942406952943,0.02880921613750989,-0.04320864020703932,-0.21597753703648045,0.0575458562754708,-0.06777199999999994,0.008443000000000034,-0.9168620000000001,0.13784600000000014,-0.00998899999999997,-0.908976,0.20561800000000008,0.018432000000000004,0.00788600000000006,0.9984378875803253,0.9148151916873265,double,-0.908976
25,0.208333,stand,-0.005520220808831226,0.01728069122765311,-0.005040201608049391,-0.08058724683009143,-0.004221552049664754,0.025333355980357988,0.002640105604220154,0.001320052802110077,-0.001800072002878589,0.0014400576022922126,0.002280091203647101,-0.003000120004799869,1.3537082944981806,0.10080806448437372,1.598527879675528,0.24481958517414984,0.15841267276012005,-0.30242419345070193,0.25922073724208833,0.15841267276012044,0.07200576034608908,-0.06770399999999999,0.008309999999999984,-0.9168350000000001,0.13790400000000003,-0.010114000000000012,-0.9089590000000001,0.205608,0.018423999999999996,0.007875999999999994,0.9942378253966684,0.9145166365398815,double,-0.9089590000000001
26,0.216667,stand,-0.013558915286780614,0.008879289656829664,-0.007919366450698519,-0.011711510471328582,-0.004282757649029805,0.0234756108069762,0.0015598752099880903,0.0002399808015361169,-0.0002399808015361169,-0.0017998560115042247,0.0008399328053730787,-0.0033597312214989758,-0.9645661720601607,-1.0080875414954928,-0.34547214334642734,-0.12961727792561348,-0.12959827220709852,0.1871959684836178,-0.3887585329729343,-0.17280518337821224,-0.04314989401237177,-0.06757799999999992,0.008237999999999968,-0.916771,0.13800200000000018,-0.010181000000000051,-0.908921,0.2055800000000001,0.01841900000000002,0.007850000000000024,0.997339385909989,0.9149951380020604,double,-0.908921
27,0.225,stand,-0.00684027361094128,0.012360494419772489,-0.0030001200047931973,-0.04567396283975344,0.017511041760943567,0.033990011724176254,0.0026401056042201455,0.00024000960038425518,-0.0014400576022988694,0.0014400576022922079,0.0014400576023055312,-0.0033601344053795727,0.8062692518707942,0.41776128200441887,0.5903331868361116,0.12963283262115136,3.456000016594404e-06,-0.14401497669059782,0.3888051858630061,0.07201785634614809,-4.838400103166868e-05,-0.06749899999999998,0.008137000000000005,-0.916758,0.13807100000000005,-0.010272000000000003,-0.9089240000000001,0.20557000000000003,0.01840900000000001,0.007833999999999897,0.9949718768390929,0.9151114558407377,double,-0.9089240000000001
28,0.233333,stand,-0.02232089283571575,0.0024000960038425517,-0.00252010080403801,0.07639264026423127,-0.018793984218804804,0.07300787669083504,-0.00012000480018213519,-0.00012000480018879679,0.00012000480018879679,0.0,0.0,-0.003360134405372911,-1.8577486169176112,-1.1952956217364608,0.05760460827495341,-0.33122649758817696,-0.04320345620701448,0.18721497689759567,-0.17281382482805793,-0.1728138248296568,7.994445972182801e-13,-0.06731399999999987,0.008116000000000012,-0.916736,0.13825700000000007,-0.010292000000000023,-0.9089309999999999,0.20557099999999995,0.018408000000000035,0.007805000000000062,0.9996535759815411,0.9163497759910451,double,-0.9089309999999999
29,0.241667,stand,-0.017758579313659387,0.00407967362610734,-0.009479241660659997,-0.013719503418955385,0.03332227284978347,0.0626898215028311,0.00023998080151613527,0.0008399328053730815,0.0009599232061444707,0.00011999040075806764,0.001679865610752824,-0.0009599232061444707,0.5474338279405294,0.2015331920164138,-0.8350301003866094,0.04319481661846308,0.11518329800358539,0.10078214614298968,0.014397696275266129,0.2015677478705097,0.2880023037231157,-0.067164,0.008089000000000013,-0.916649,0.13840600000000003,-0.010311999999999988,-0.90886,0.20557000000000003,0.018401,0.007789000000000046,0.9978368422873463,0.9188791595829505,double,-0.90886
30,0.25,stand,-0.007200288011514332,0.00444017760710539,-0.002760110404428927,-0.03468205810315047,-0.009536798241581535,0.05882377028501129,0.0036001440057838127,0.00048001920076851036,-0.0028801152046110624,0.0019200768030740415,0.00036001440057305197,-0.0012000480019212759,1.2670456380829287,0.04326220820809429,0.8063280038678823,0.40323571394067853,-0.04319136020695678,-0.4608230422123521,0.2160190090382782,-0.15838848076080292,-0.028816128138342122,-0.06707399999999986,0.008056000000000008,-0.91665,0.138482,-0.010346000000000022,-0.908847,0.20555599999999985,0.01840200000000003,0.007803000000000004,0.9922744078099477,0.9181488525191892,double,-0.908847
31,0.258333,stand,-0.001200048001901295,0.004560182407294202,0.006240249609977332,-0.05763622362361432,-0.010902642429013887,0.07182688455216009,0.00012000480018213558,0.0008400336013415652,0.00120004800192128,0.001080043201745806,0.000480019200768512,-0.001440057602305536,0.7200576034577044,0.014401152068740208,1.0800864051849612,-0.4176334100086026,0.04320345620701497,0.4896391703506964,-0.10080806448196779,0.01440115206953802,-0.028802304138276818,-0.0670630000000001,0.008025000000000004,-0.9166919999999998,0.13850099999999999,-0.01038,-0.9089109999999999,0.20556400000000008,0.018405000000000005,0.007780999999999927,0.9975504122737098,0.9190850408623634,double,-0.9089109999999999
32,0.266667,stand,-0.005399568034565961,0.002759779217662014,-0.0021598272138050696,-0.018271348184858278,-0.003179836452970741,0.059715986144134016,0.0015598752099880903,0.0,-0.0019198464122889352,-0.0002399808015427777,0.00035997120230750576,0.00035997120230750576,-0.5039020917524193,-0.21603110026784098,-1.007928584567122,0.1727706275265123,-0.10079596848350905,-0.3743573811147363,-0.15839020917789567,-0.014404607446724995,0.21598617765935205,-0.06700499999999998,0.008002000000000009,-0.91669,0.138544,-0.010399999999999965,-0.90889,0.20554899999999998,0.018401999999999974,0.007800000000000029,0.995877224196439,0.9210619918886711,double,-0.90889
33,0.275,stand,-0.006720268810759123,0.0016800672026897807,0.0016800672026831191,-0.013533458980423697,-0.01875225729262916,0.06063173390896818,0.0009600384015370176,-0.0001200048001887964,0.0021600864034582896,0.0019200768030740352,-0.000120004800195458,-0.0002400096003842544,-0.15849043276048919,-0.1295706246216523,0.46080576220906905,-0.07198329634598227,-0.014401152068738257,0.48961152235055894,0.2592172812452663,-0.057599424277326505,-0.07200057634606476,-0.06694099999999992,0.007987000000000022,-0.916686,0.13861600000000007,-0.010415000000000008,-0.908906,0.205557,0.01840200000000003,0.007780000000000009,0.9960552256243581,0.9189687718665903,double,-0.908906
34,0.283333,stand,-0.0031201248050019893,0.002640105604226816,0.0014400576022922126,-0.024151178491003424,-0.00457937207711541,0.04661088232165111,-0.0006000240009639708,0.000720028801152768,-0.000480019200768512,0.00036001440057305316,0.0006000240009639708,0.000480019200768512,0.43203456207334,0.11520921655310665,-0.028802304139074413,-0.18721497689919503,0.10080806448356731,-0.3168253455210378,-0.18721497689919428,0.0864069124156283,0.08640691241482877,-0.06691999999999987,0.007971000000000006,-0.9167019999999999,0.13864500000000013,-0.010431999999999997,-0.9089139999999999,0.205565,0.018403000000000003,0.007788000000000017,0.9982449369199935,0.9207057298668184,double,-0.9089139999999999
35,0.291667,stand,-0.0025197984161059147,0.00455963522917956,0.001439884809230023,-0.02521380899336314,-0.028135587055443768,0.054808516541850656,0.0051595872330231825,-0.0009599232061444676,-0.0013198944084453126,0.0016798656107461574,0.0,0.0005999520038369618,0.07203340399520927,0.23032512898401036,-2.0733508782048572e-05,0.691098060233639,-0.20157811462649794,-0.10077696276419483,0.15836947566271936,-0.07199712034604874,0.014390785105405536,-0.06685600000000003,0.007925000000000015,-0.916725,0.13867999999999991,-0.01046999999999998,-0.9089210000000001,0.20553599999999994,0.018394999999999995,0.007803999999999922,0.9909807437134768,0.9189870240886188,double,-0.9089210000000001
36,0.3,stand,-0.002520100804038019,0.0040801632065323515,0.00048001920075518877,-0.029399886890851174,-0.01313561037939206,0.039547518999642955,0.0012000480019279415,-0.000960038401537024,0.001320052802110077,-0.0002400096003909176,0.000960038401537024,0.0,-3.628800337263615e-05,-0.057538944275436196,-0.11518848055620265,-0.47516371428000126,-1.3824000066767992e-05,0.31680633752014836,-0.2303942411060938,0.11520921655310529,-0.07199712034524941,-0.06682499999999991,0.007882999999999973,-0.9167179999999999,0.1386989999999999,-0.010496000000000005,-0.908925,0.20552399999999982,0.01837899999999998,0.007792999999999939,0.9966234763358203,0.9204206917774198,double,-0.908925
37,0.308333,stand,-0.0007200288011461016,0.006360254410172749,0.000240009600390916,-0.01582953002692707,-0.003563852955564858,0.028685270475914054,0.00012000480018213478,0.001200048001921272,0.0006000240009639668,0.0014400576023188495,-0.0008400336013482211,0.0014400576023055264,0.21601728103827073,0.2736218893124191,-0.028802304135878046,-0.12961036862424125,0.2592207372444842,-0.08640691241402944,0.20161612897033002,-0.21601728103747003,0.17281382482965563,-0.06681800000000004,0.007840000000000014,-0.916715,0.13871699999999998,-0.01055600000000001,-0.9089149999999999,0.20553500000000002,0.018396000000000023,0.007800000000000029,0.997754915764563,0.9183283411834902,double,-0.9089149999999999
38,0.316667,stand,-0.00779937604991386,0.013438924886009314,-0.005879529637624912,-0.03255380832936839,0.0025722686960652744,0.05365749860680268,0.0004799616030589154,-0.0002399808015361185,0.0002399808015361185,0.0011999040076606101,-0.0002399808015361185,0.002519798416125914,-0.8494537135550514,0.8493725072998086,-0.7342859656846488,0.04319136103633101,-0.17278963324422827,-0.04320172779311859,-0.028816126068903384,0.07200057593137821,0.12955853297580916,-0.06674900000000017,0.007726000000000011,-0.9166639999999999,0.1387919999999998,-0.010670000000000013,-0.908845,0.20554099999999997,0.018396000000000023,0.00781899999999991,0.9990202824803054,0.9171413264819248,double,-0.908845
39,0.325,stand,-0.00528021120846692,0.010920436817473582,0.0036001440057571543,-0.021954069677802876,-0.038809650553444625,0.046910457764279156,0.0016800672027097656,0.0001200048001887964,-0.000120004800195458,0.0020400816032828165,0.0,0.001080043201725814,0.30231187344856947,-0.3022306574505846,1.1376063414595015,0.14401843269540923,0.043200000206997886,-0.043200000207797316,0.10082534448844388,0.02879884813825963,-0.17277753682948443,-0.06669099999999983,0.007635999999999976,-0.916695,0.13885300000000012,-0.01076100000000002,-0.908866,0.20554399999999995,0.018396999999999997,0.007829000000000086,0.9971856379695888,0.9178627692984122,double,-0.908866
40,0.333333,stand,0.002760110404428936,0.010800432017278197,-0.00048001920075518877,-0.018014419829127385,-0.01065549191732081,0.013681398837038838,0.00024000960036427117,0.0001200048001954588,0.0006000240009573092,0.00048001920075518877,0.000240009600384256,0.000960038401537024,0.9648771886350505,-0.014401152069529088,-0.48963917034829635,-0.17281382483445315,7.995210365290154e-13,0.08640691241482887,-0.1872149769023919,0.028802304138276322,-0.01440115206873758,-0.0667120000000001,0.007547000000000026,-0.9166860000000001,0.1388339999999999,-0.010848999999999998,-0.908854,0.205546,0.018396000000000023,0.007832000000000061,0.9989045110654474,0.9198468963978814,double,-0.908854
41,0.341667,stand,-0.00011999040078471047,0.011999040076792523,-0.0020398368130736455,-0.023209348137630374,0.007330977999186721,0.013784289379913628,0.0009599232061444676,-0.00035997120230750576,0.0019198464122889352,0.0023998080153744905,-0.0014398848092167015,0.002039836813060324,-0.3455844498696477,0.143821461424805,-0.18716314042698046,0.08638272207585741,-0.057592512899323746,0.1583660200781887,0.2303562292559755,-0.20157120345583823,0.12956544414726412,-0.06670299999999996,0.007444000000000006,-0.9166529999999999,0.13885500000000017,-0.010960999999999999,-0.90882,0.20555800000000013,0.018405000000000005,0.007832999999999979,0.9963726187610511,0.9158981138750005,double,-0.90882
42,0.35,stand,-0.005520220808831226,0.011880475219010679,0.008280331213260163,0.007056545155682501,-0.08616145811761655,0.0697935264857837,0.000960038401537024,-0.0006000240009573092,-0.000240009600384256,0.00036001440057305316,-0.00036001440057305316,0.001320052802110077,-0.6480535711084279,-0.014228352067903988,1.2384697019481379,1.3824000066767992e-05,-0.028807488137501985,-0.2591930892443534,-0.24478502517718018,0.12958963262254303,-0.08637753641548647,-0.06664899999999996,0.007340000000000013,-0.9167240000000001,0.13890400000000014,-0.01106299999999999,-0.9088780000000001,0.2055530000000001,0.018403000000000003,0.00784600000000002,0.9980711926955101,0.9191819404531132,double,-0.9088780000000001
43,0.358333,stand,0.004440177607112037,0.012120484819394855,0.0018000720028652538,-0.0212283217022878,-0.0100901432053316,0.02351055077895513,0.0008400336013548828,-0.0014400576023055264,0.0004800192007685088,0.0004800192007551856,-0.0001200048001887964,0.001080043201725814,1.1952956217380561,0.028802304138266503,-0.7776622117358553,-0.0144011520679396,-0.10080806448436502,0.086406912414828,0.014401152067938548,0.02880230413827622,-0.028802304138276988,-0.06667899999999993,0.0072269999999999834,-0.9167349999999999,0.13887099999999997,-0.01116499999999998,-0.9088839999999999,0.2055499999999999,0.018391999999999964,0.007850999999999941,0.9971085178817441,0.9195100218135628,double,-0.9088839999999999
44,0.366667,stand,0.005039596832265116,0.01295896328293699,0.0013198944084719558,-0.016702900666794654,0.0003310050922835511,0.024944708314135366,0.0002399808015427777,0.0009599232061444676,-0.0004799616030722338,0.0019198464122889352,-0.0005999520038436226,0.002639788816897286,0.07192455305412505,0.1006093668757061,-0.05761670199103643,-0.07200057593137803,0.28797465904127567,-0.11518848138237842,0.1727654441485179,-0.057589057313993976,0.18715450146045964,-0.06671899999999997,0.0071269999999999945,-0.9167500000000002,0.13884499999999989,-0.01127800000000001,-0.908873,0.20556399999999986,0.018405000000000005,0.007877000000000134,0.9981671163527053,0.9156987158283512,double,-0.908873
45,0.375,stand,0.004680187207476338,0.01056042241689394,0.0020400816032561833,-0.031882965155692396,-0.027812450274475646,0.03214330023806547,0.0007200288011461063,0.0,0.00036001440057971477,0.0008400336013548883,-0.0008400336013415652,0.001440057602305536,-0.04313088020986183,-0.2878364173818621,0.08642592041092395,0.05760806427497058,-0.11519539255303853,0.10080115248433345,-0.12958272062091078,-0.028810944137518682,-0.14397350469119802,-0.06675199999999992,0.0070390000000000175,-0.916764,0.13881300000000008,-0.011372999999999966,-0.9088780000000001,0.205565,0.018411999999999984,0.007885999999999949,0.9986583055457281,0.9180286057069993,double,-0.9088780000000001
46,0.383333,stand,0.005280211208440308,0.012240489619583732,0.000840033601328242,-0.02237463807539869,0.004705445901740805,0.02486377751838472,0.002160086403438319,0.0006000240009573092,0.0,0.0010800432017191595,0.0006000240009573092,0.00036001440057305316,0.07200576034609048,0.2016161289679343,-0.144011520692181,0.1728138248280591,0.07200576034529109,-0.04320345620781419,0.028802304135878053,0.17281382482885851,-0.12961036862264316,-0.066778,0.006942000000000004,-0.9167709999999999,0.13877800000000007,-0.01146999999999998,-0.908882,0.20555600000000007,0.018411999999999984,0.007888999999999924,0.9962635422032641,0.9189651531471894,double,-0.908882
47,0.391667,stand,0.013318934485264479,0.014878809695225927,0.005999520038409583,-0.029060007793643757,-0.03455666807495487,0.09954660392719808,0.0005999520038436226,-0.0009599232061378068,-0.00011999040077138885,0.0004799616030855554,0.0,0.0,0.9645696276486876,0.3165730832304047,0.6190888453421329,-0.18720115185921465,-0.18717869055616926,-0.014397696276864498,-0.07200403151351135,-0.07199712034524941,-0.043198272206989775,-0.06688400000000017,0.006810000000000038,-0.916822,0.138671,-0.011593999999999993,-0.9089320000000001,0.20555500000000015,0.01840400000000003,0.007889999999999953,0.9981027851810884,0.9203000639948573,double,-0.9089320000000001
48,0.4,stand,0.013560542421673734,0.010920436817473582,0.0,-0.054855542581037545,-0.01643606929009058,0.030921750375497603,0.0,0.0002400096003842544,-0.001080043201725814,0.0009600384015370176,0.0002400096003842544,0.0006000240009573052,0.028994112133595856,-0.4750237462801306,-0.7199712034572853,-0.07199712034604826,0.14399769669051438,-0.11521094455231262,0.05761152027498622,0.028802304138275937,0.07200576034529013,-0.06699699999999997,0.0067210000000000325,-0.916831,0.1385660000000002,-0.011682999999999999,-0.908927,0.20556300000000016,0.01840400000000003,0.007903999999999911,0.998156017349239,0.9190311926955106,double,-0.908927
