frame_id,timestamp,gait_type,root_linear_velocity_x,root_linear_velocity_y,root_linear_velocity_z,root_angular_velocity_x,root_angular_velocity_y,root_angular_velocity_z,left_linear_velocity_x,left_linear_velocity_y,left_linear_velocity_z,right_linear_velocity_x,right_linear_velocity_y,right_linear_velocity_z,root_acceleration_x,root_acceleration_y,root_acceleration_z,left_acceleration_x,left_acceleration_y,left_acceleration_z,right_acceleration_x,right_acceleration_y,right_acceleration_z,left_pos_rel_x,left_pos_rel_y,left_pos_rel_z,right_pos_rel_x,right_pos_rel_y,right_pos_rel_z,step_length,step_width,step_height,left_contact_prob,right_contact_prob,support_type,max_foot_height
<<<<<<< HEAD
1,0.008333,step_decsent,0.06780271210847554,0.07524300972038912,0.012240489619590364,-0.11099489574065026,0.06883707878101543,-0.08284219116493123,-0.0014400576022922092,-0.001680067202686457,-0.0007200288011527661,-0.002160086403451637,0.00036001440057638307,0.0003600144005730523,0.0,0.0,0.0,0.0,0.0,0.0,0.0,0.0,0.0,-0.10468999999999995,-0.067883,-0.909934,0.08041500000000001,0.09325900000000001,-0.904331,0.18510499999999996,0.161142,0.005603000000000025,0.9961217009821202,0.9402712036463727,double,-0.904331
2,0.016667,step_decsent,0.03587712982961953,0.06779457643388481,-0.03551715862731869,-0.26719837060469154,-0.4862218477967201,0.13776271070332616,-0.0013198944084453137,-0.002039836813053665,-0.0007199424046083513,0.0008399328053730795,0.0025197984161267318,0.0011999040076805855,-3.8307634123897287,-0.8937404951409059,-5.730459352880856,0.014418429787244481,-0.04316889973208638,1.0366755989305337e-05,0.35997350717839166,0.25915334959807396,0.10077869055765935,-0.10499999999999998,-0.06846499999999998,-0.9096439999999999,0.08012299999999994,0.092715,-0.9040249999999999,0.18512299999999993,0.16118,0.005619000000000041,0.9957765954559781,0.9389524054869651,double,-0.9040249999999999
3,0.025,step_decsent,0.10092403696147613,0.0511220448817956,0.02484099363975378,0.06988098232268074,0.2427863970407031,-0.04826764035636867,-0.00216008640346496,-0.002280091203650426,-0.0015600624024943292,0.0003600144005863755,0.0007200288011519335,0.0,7.80594109346653,-2.0007838176034096,7.243268002768808,-0.10082707248525698,-0.028831680138816894,-0.10081843248361669,-0.05759251227489547,-0.21598099303669724,-0.1439942406912979,-0.10585900000000004,-0.06891,-0.909864,0.07928500000000005,0.092295,-0.9042319999999999,0.1851440000000001,0.16120500000000001,0.005632000000000081,0.9941551105259299,0.9423383055457146,double,-0.9042319999999999
4,0.033333,step_decsent,0.10488419536781968,0.032401296051842,0.001680067202683126,-0.2622497138589137,-0.17538352089068301,-0.2700365453545333,-0.0018000720028652614,-0.0025201008040313506,-0.00108004320173248,-0.00012000480019545849,0.0013200528021117392,0.0007200288011527661,0.47523801828195694,-2.2465797227833435,-2.779422349342452,0.04320345621021225,-0.02880230413787645,0.05760460827575292,-0.057604608278151205,0.0720057603455905,0.08640691241482854,-0.10674799999999995,-0.069201,-0.9098869999999999,0.07840999999999998,0.092036,-0.9042399999999999,0.18515799999999993,0.161237,0.005646999999999958,0.9945335211933733,0.9410159384195409,double,-0.9042399999999999
5,0.041667,step_decsent,0.06167506599470882,0.07043436525078044,0.020998320134393594,0.2650015597733033,0.22646064179537534,0.05536938046353276,-0.0021598272138317145,-0.0016798656107528196,-0.0008399328053730795,-0.0009599232061444684,0.0025197984161267318,0.002039836813053665,-5.184680750313277,4.5636032156153625,2.3180049114123427,-0.04316717194221899,0.10082015758081724,0.02881094268771305,-0.1007821461421898,0.14395795704523548,0.15836429228472504,-0.10727999999999993,-0.06980200000000002,-0.910069,0.07788800000000007,0.09147,-0.904398,0.185168,0.16127200000000003,0.005670999999999982,0.9952296374522417,0.9376548496905837,double,-0.904398
=======
1,0.008333,stand,0.06780271210847554,0.07524300972038912,0.012240489619590364,-0.11099489574065026,0.06883707878101543,-0.08284219116493123,-0.0014400576022922092,-0.001680067202686457,-0.0007200288011527661,-0.002160086403451637,0.00036001440057638307,0.0003600144005730523,0.0,0.0,0.0,0.0,0.0,0.0,0.0,0.0,0.0,-0.10468999999999995,-0.067883,-0.909934,0.08041500000000001,0.09325900000000001,-0.904331,0.18510499999999996,0.161142,0.005603000000000025,0.9961217009821202,0.9402712036463727,double,-0.904331
2,0.016667,stand,0.03587712982961953,0.06779457643388481,-0.03551715862731869,-0.26719837060469154,-0.4862218477967201,0.13776271070332616,-0.0013198944084453137,-0.002039836813053665,-0.0007199424046083513,0.0008399328053730795,0.0025197984161267318,0.0011999040076805855,-3.8307634123897287,-0.8937404951409059,-5.730459352880856,0.014418429787244481,-0.04316889973208638,1.0366755989305337e-05,0.35997350717839166,0.25915334959807396,0.10077869055765935,-0.10499999999999998,-0.06846499999999998,-0.9096439999999999,0.08012299999999994,0.092715,-0.9040249999999999,0.18512299999999993,0.16118,0.005619000000000041,0.9957765954559781,0.9389524054869651,double,-0.9040249999999999
3,0.025,stand,0.10092403696147613,0.0511220448817956,0.02484099363975378,0.06988098232268074,0.2427863970407031,-0.04826764035636867,-0.00216008640346496,-0.002280091203650426,-0.0015600624024943292,0.0003600144005863755,0.0007200288011519335,0.0,7.80594109346653,-2.0007838176034096,7.243268002768808,-0.10082707248525698,-0.028831680138816894,-0.10081843248361669,-0.05759251227489547,-0.21598099303669724,-0.1439942406912979,-0.10585900000000004,-0.06891,-0.909864,0.07928500000000005,0.092295,-0.9042319999999999,0.1851440000000001,0.16120500000000001,0.005632000000000081,0.9941551105259299,0.9423383055457146,double,-0.9042319999999999
4,0.033333,stand,0.10488419536781968,0.032401296051842,0.001680067202683126,-0.2622497138589137,-0.17538352089068301,-0.2700365453545333,-0.0018000720028652614,-0.0025201008040313506,-0.00108004320173248,-0.00012000480019545849,0.0013200528021117392,0.0007200288011527661,0.47523801828195694,-2.2465797227833435,-2.779422349342452,0.04320345621021225,-0.02880230413787645,0.05760460827575292,-0.057604608278151205,0.0720057603455905,0.08640691241482854,-0.10674799999999995,-0.069201,-0.9098869999999999,0.07840999999999998,0.092036,-0.9042399999999999,0.18515799999999993,0.161237,0.005646999999999958,0.9945335211933733,0.9410159384195409,double,-0.9042399999999999
5,0.041667,stand,0.06167506599470882,0.07043436525078044,0.020998320134393594,0.2650015597733033,0.22646064179537534,0.05536938046353276,-0.0021598272138317145,-0.0016798656107528196,-0.0008399328053730795,-0.0009599232061444684,0.0025197984161267318,0.002039836813053665,-5.184680750313277,4.5636032156153625,2.3180049114123427,-0.04316717194221899,0.10082015758081724,0.02881094268771305,-0.1007821461421898,0.14395795704523548,0.15836429228472504,-0.10727999999999993,-0.06980200000000002,-0.910069,0.07788800000000007,0.09147,-0.904398,0.185168,0.16127200000000003,0.005670999999999982,0.9952296374522417,0.9376548496905837,double,-0.904398
>>>>>>> 3b0d06690e55fb02323d988053aa126fb7c3a6e7
6,0.05,step_decsent,0.022560902436106683,0.1735269410776426,-0.004800192007685108,-0.5357814386841305,-0.4075185933194276,0.6889479210945819,-0.001680067202683126,-0.0002400096003809246,0.0001200048001887969,0.0006000240009639692,0.002040081603264505,-0.0016800672026897876,-4.693887382527558,12.371603963381995,-3.0959452948612385,0.05757350427800173,0.1727896328299406,0.11519712055224725,0.18720115289912848,-0.057568320276278236,-0.44640633814274,-0.10748199999999997,-0.07124999999999998,-0.910028,0.07770500000000002,0.09004100000000001,-0.904372,0.185187,0.161291,0.005655999999999994,0.9971643972001458,0.9389231834110783,double,-0.904372
7,0.058333,step_decsent,0.18948757950317976,-0.004680187207487984,0.003720148805965951,0.38374849227529495,0.3079302372901095,-0.45107765432237734,-0.0013200528021100738,-0.002280091203650426,0.0003600144005797139,-0.0018000720028919079,0.0021600864034558003,0.0018000720028852463,20.032002528149896,-21.385710822648576,1.0224817969100035,0.043203456207014546,-0.24481958517574723,0.028802304139075603,-0.28802304138436063,0.014401152069038175,0.41763341000540427,-0.10907199999999995,-0.07123000000000002,-0.910056,0.07611099999999993,0.090098,-0.904388,0.18518299999999988,0.161328,0.005668000000000006,0.995568118763516,0.9377556063269408,double,-0.904388
8,0.066667,step_decsent,0.09467242620589496,0.06419486441084721,-0.0005999520038436232,-0.10359157808468905,-0.16730261622036288,-0.020414023436903402,0.00035997120230084524,-0.0010799136069091966,0.0014398848092167025,-0.0004799616030589126,0.0013198944084478114,0.0010799136069091966,-11.376908243014734,8.264345046596494,-0.5183706275269466,0.20158675358902314,0.14400979082568147,0.12957408310978982,0.1584005759338847,-0.1008149742030224,-0.08641209454956199,-0.1098579999999999,-0.07177399999999999,-0.910039,0.07531800000000011,0.089574,-0.904374,0.185176,0.161348,0.005665000000000031,0.9969408330252036,0.9403972716062325,double,-0.904374
9,0.075,step_decsent,0.14220568822754154,0.052562102484098684,-0.013440537621518313,0.3234225364539437,0.04388652721154591,-0.18295611598191303,0.0002400096003909172,-0.001800072002881917,0.0008400336013415638,0.00048001920075518796,0.0018000720028794187,-0.0021600864034583005,5.704219611382049,-1.395987270700652,-1.54093191139742,-0.014395968067914093,-0.08642246441530313,-0.07198502434599055,0.11520230454987417,0.057623616276443974,-0.3888155538662546,-0.11104099999999995,-0.072227,-0.9099199999999998,0.0741369999999999,0.08915100000000001,-0.90428,0.18517799999999984,0.161378,0.005639999999999867,0.9966652002078993,0.9388458641049642,double,-0.90428
10,0.083333,step_decsent,0.08280331213248143,0.05616224648985992,0.00252010080403801,0.11522463965329979,-0.03816978712960462,-0.0604818369404485,0.0008400336013282392,-0.0012000480019212759,0.0006000240009573072,0.0002400096003909168,0.0007200288011519328,-0.0009600384015370207,-7.128570274218175,0.4320345620738312,1.9153532251957648,0.07200576034289229,0.0720057603456907,-0.028802304138276304,-0.028802304135877952,-0.1296103686220431,0.1440115206913811,-0.11172400000000005,-0.07270500000000002,-0.909936,0.07344899999999999,0.08868899999999999,-0.904309,0.18517300000000003,0.161394,0.005626999999999938,0.9973617132768907,0.9416903106069838,double,-0.904309
11,0.091667,step_decsent,0.05015598752100189,0.08519318454523672,-0.010919126469863363,-0.017849643340793794,-0.163706794042624,0.09261759955007781,0.0021598272138317167,-0.0005999520038369628,0.002279817614596445,-0.0002399808015427781,0.0017998560115192145,-0.0005999520038369628,-3.9173655641324174,3.483433891933864,-1.6125782666068373,0.1583625644952578,0.07200575930937286,0.20155910890798404,-0.057594240692788005,0.12956889973209532,0.04320691117111329,-0.112124,-0.07341999999999999,-0.909826,0.0730289999999999,0.08799399999999999,-0.9042230000000001,0.1851529999999999,0.161414,0.005602999999999914,0.9946712612612937,0.9407827794875392,double,-0.9042230000000001
12,0.1,step_decsent,0.10608424336973421,0.04008160326413065,-0.022920916836679718,0.08749476223692393,0.028035296192359865,-0.1288773644343298,0.0016800672026831248,-0.0006000240009606379,0.001800072002878583,-0.00048001920075518715,0.0021600864034566312,-0.002040081603262838,6.711659168214601,-5.413606297984644,-1.440272454916158,-0.0575735042780021,-8.640000441031035e-06,-0.05757177627719446,-0.028805760135894497,0.04322937620753828,-0.17282246482969807,-0.11299400000000004,-0.07375899999999999,-0.9096200000000001,0.07214100000000001,0.087678,-0.9040490000000001,0.18513500000000005,0.161437,0.005570999999999993,0.9957760886271636,0.9392738248714054,double,-0.9040490000000001
13,0.108333,step_decsent,0.09360374414976641,0.053522140885634874,0.02928117124683921,-0.03521251831761504,0.06662127834786355,-0.14640579680259866,0.0016800672026831276,0.0016800672026864583,-0.0002400096003842556,0.00048001920075518796,0.0016800672026881238,-0.00324012960518412,-1.4977198151887448,1.6129290317417782,6.26450115006828,3.3828460919984567e-16,0.2736218893132243,-0.2448195851749478,0.11520921654990711,-0.057604608276552,-0.14401152069138157,-0.11376000000000008,-0.07419100000000001,-0.909866,0.0713649999999999,0.087246,-0.90432,0.18512499999999998,0.161437,0.00554599999999994,0.9960198910472231,0.9384046099243287,double,-0.90432
14,0.116667,step_decsent,0.0851931845452349,0.06863450923926116,-0.02531797456203036,0.14988019683352774,0.05709571774531262,-0.18160578950785133,0.002519798416132558,0.0005999520038402923,0.00035997120230084497,-0.00035997120230084497,0.0010799136069108608,-0.0013198944084453126,-1.0091864176303693,1.8133391353043287,-6.551373387193367,0.1007596848391444,-0.129603455585093,0.07199193696725462,-0.10079078510391554,-0.07201267047963313,0.23040979082539062,-0.11444900000000002,-0.074758,-0.909652,0.07065199999999994,0.086683,-0.90412,0.18510099999999996,0.161441,0.005531999999999981,0.9956414497404711,0.9417750645855701,double,-0.90412
15,0.125,step_decsent,0.05928237129485118,0.06576263050522024,-0.014520580823237471,0.021493793158096162,-0.17837980812087223,0.13452538860761232,0.002280091203647097,0.0002400096003842556,0.0003600144005797142,0.0002400096003909172,0.0012000480019204451,-0.003720148805952631,-3.1094219669247267,-0.3446392336542568,1.2957390782182765,-0.02876601613890086,-0.04319481620737274,5.1840008243378385e-06,0.07200057634606537,0.014416704069312903,-0.28804204938285377,-0.11492400000000003,-0.07530400000000001,-0.9095279999999999,0.07016,0.086145,-0.9040299999999999,0.18508400000000003,0.161449,0.005498000000000003,0.9961320293600124,0.9384928713660208,double,-0.9040299999999999
16,0.133333,step_decsent,0.13440537621504967,0.18804752190087576,0.06492259690389107,-0.5515868994358144,-0.17572020833738458,0.40726951886917684,0.0010800432017191559,0.0006000240009606379,0.00012000480018879679,-0.0007200288011594272,0.001680067202688121,-0.003240129605184114,9.015121195271622,14.674773958436987,9.533562669762208,-0.1440115206921805,0.04320345620741414,-0.028802304139075627,-0.11520921655470341,0.05760460827645211,0.057604608276553025,-0.11603500000000011,-0.07686599999999999,-0.9100680000000001,0.06903399999999993,0.084592,-0.904598,0.18506900000000004,0.161458,0.005470000000000086,0.9979311011575016,0.939099751990077,double,-0.904598
17,0.141667,step_decsent,0.1931845452363816,-0.013678905687545387,-0.0154787616990696,0.3592978567215665,0.8790475587538907,-0.42301094982543885,0.002399808015374499,0.002279817614589788,0.0007199424046083531,-0.0002399808015294569,0.0015598752099830998,-0.002399808015361177,7.052936047676034,-24.20523489181925,-9.647391241056019,0.15835910890992874,0.2015591089067859,0.07198675359005972,0.05760115186344749,-0.01442188537377268,0.10083052433680575,-0.11762499999999998,-0.076733,-0.9099330000000001,0.06742199999999998,0.084719,-0.9044890000000001,0.18504699999999996,0.161452,0.005444000000000004,0.9943542139774669,0.9407728992866203,double,-0.9044890000000001
18,0.15,step_decsent,0.1257650306012165,0.08028321132845342,-0.029761190447620996,-0.02239048221816848,-0.2500527662728554,0.06562299927258457,0.0026401056042201455,0.00048001920076851036,-0.00012000480018879679,0.00024000960037759357,0.0027601104044164366,-0.002520100804031349,-8.090665382835118,11.275905078122973,-1.7139600082264952,0.028836864136043024,-0.2159844490365146,-0.10079769648351725,0.057601152274937006,0.14403398469138795,-0.014435712068903366,-0.11865099999999995,-0.077398,-0.909686,0.06637599999999999,0.08407300000000001,-0.904262,0.18502699999999994,0.161471,0.005423999999999984,0.9955232150714897,0.9395179557044987,double,-0.904262
19,0.158333,step_decsent,0.13044521780871945,0.053522140885635616,-0.003840153606148083,0.37440205700817303,0.2132789476470485,-0.19515096503347584,0.002040081603256177,0.0015600624024976588,0.001800072002878583,-0.00048001920076851036,0.004080163206528174,-0.003840153606148083,0.5616449306975828,-3.211456911414591,3.110648846930624,-0.07200576034609003,0.12961036862224257,0.23041843310540958,-0.08640691241402897,0.15841267276031878,-0.1584126727609184,-0.11972100000000008,-0.07783099999999998,-0.909639,0.06528499999999993,0.083661,-0.904262,0.185006,0.161492,0.005376999999999965,0.9947729371793472,0.9368573254819272,double,-0.904262
20,0.166667,step_decsent,0.10919126469881996,0.08615310775137938,-0.004319654427636783,-0.4539154876333646,-0.0908488806101813,0.06620990873172285,0.004439644828421493,0.007199424046073516,0.0002399808015361169,0.00011999040077138885,0.0038396928245737075,-0.0002399808015361169,-2.5502703515598126,3.915402791665915,-0.05753549573898481,0.2879245530555932,0.6766692636880072,-0.18719596848361705,0.07199539255338357,-0.0288541375035357,0.43198617765922276,-0.12059399999999998,-0.078489,-0.9096010000000001,0.06437599999999999,0.082975,-0.904228,0.18496999999999997,0.161464,0.005373000000000072,0.9858972280519418,0.9398549072344837,double,-0.904228
21,0.175,step_decsent,0.10788431537261314,0.04476179047161961,-0.016560662426493677,0.3480501825162999,0.059917749491385855,-0.052535349015093956,0.00048001920075518877,0.0030001200048031997,0.002520100804031357,-0.000480019200768512,0.002400096003840062,-0.00408016320652569,-0.15684019275252808,-4.967156759841579,-1.468979719051593,-0.4751740822832491,-0.503936642418136,0.273625345313242,-0.07200403234608213,-0.17275852882919107,-0.4608403222116384,-0.12148900000000007,-0.07883699999999999,-0.9094420000000001,0.063473,0.082622,-0.9041240000000001,0.18496200000000007,0.161459,0.005317999999999934,0.9934209831579666,0.9388899917590345,double,-0.9041240000000001
22,0.183333,step_decsent,0.10272410896435463,0.06840273610944361,-0.008160326413078,-0.174189562237798,0.10968014847231101,-0.14685350465340088,0.004320172806929917,0.003720148805949294,0.0013200528021100728,0.0007200288011594272,0.007320292811713122,-0.0007200288011527656,-0.6192495389725797,2.837026957617183,1.0080806448356738,0.4608368662156156,0.08640691241402777,-0.14401152069138165,0.14401152069218026,0.5904472348341601,0.403232257935068,-0.12230899999999989,-0.079376,-0.9093629999999999,0.0626230000000001,0.082113,-0.9040619999999999,0.18493199999999999,0.16148900000000002,0.005301,0.9902466615942567,0.9346720400094677,double,-0.9040619999999999
23,0.191667,step_decsent,0.10091192704584724,0.034077273818094465,-0.02975761939042521,0.6217689177127805,0.11722873214255991,-0.25648218341143,0.0009599232061444676,0.0022798176145931107,0.002399808015361169,-0.0008399328053864003,0.004799616030717342,-0.003119750419962859,-0.21744443466611343,-4.118725976883743,-2.591467839854474,-0.40319769627855123,-0.17282591688939064,0.1295602607692699,-0.18718041835203095,-0.3024570171581206,-0.2879435587725091,-0.12314199999999997,-0.07964099999999999,-0.9090950000000001,0.06177499999999991,0.081869,-0.9038400000000001,0.1849169999999999,0.16151,0.00525500000000001,0.9942558968817057,0.9378071206693542,double,-0.9038400000000001
24,0.2,step_decsent,0.12480499219967947,0.07044281771270895,-0.02556102244089986,-0.08310951579384307,-0.12227817921899198,-0.025708315511679593,-0.0046801872075029685,0.0016800672026864554,0.00024000960038425518,0.004080163206539,0.006720268810752484,-0.0009600384015370207,2.8672825097602557,4.3640398289468925,0.5036117784141778,-0.6768403232506218,-0.07197292834593241,-0.25918617724431925,0.590435138836601,0.23048755310634106,0.2591758092434701,-0.12422100000000003,-0.08021400000000001,-0.9088800000000001,0.06076900000000007,0.081338,-0.9036350000000001,0.1849900000000001,0.161552,0.005245000000000055,0.9917026807021294,0.9343494719788696,double,-0.9036350000000001
25,0.208333,step_decsent,0.08112324492979858,0.07800312012480493,-0.06600264010561044,-0.126451978643062,-0.3229347634090387,-0.012863754085489867,-0.12216488659545972,0.04080163206528355,0.010440417616705142,0.001320052802110077,0.005760230409216315,-0.00036001440057971477,-5.242019353159846,0.9072725803547332,-4.853188247295173,-14.098727875669871,4.694775574534644,1.2240979258755444,-0.3312264975913752,-0.11520921655300266,0.0720057603452907,-0.125915,-0.080524,-0.908243,0.060104000000000046,0.080736,-0.9030880000000001,0.18601900000000005,0.16126000000000001,0.00515499999999991,0.784631871902475,0.9385824881926933,double,-0.9030880000000001
26,0.216667,step_decsent,0.15526757859371443,0.02747780177585791,-0.009959203263745522,0.29095774170043365,0.43168979625845944,-0.24153123418650665,0.004799616030722338,0.0034797216222703644,0.004799616030715677,0.0007199424046016899,0.006239500839932378,-0.004919606431480405,8.896608311005012,-6.062553197617826,6.7246744470680175,15.234521553417558,-4.478270991482259,-0.6768420429552987,-0.07200748710203822,0.05750785105784288,-0.5471072751260723,-0.12716899999999998,-0.08072399999999999,-0.90812,0.05881599999999998,0.08055899999999999,-0.903046,0.18598499999999996,0.161283,0.005074000000000023,0.9872872449601497,0.9359629435966152,double,-0.903046
27,0.225,step_decsent,0.15444617784711834,0.04056162246489833,-0.03504140165606129,-0.014808741442119102,0.32886001834452383,-0.15373479189902034,0.004080163206512354,0.002640105604223476,0.005160206408258156,-0.00036001440057305197,0.00396015840633688,-0.007200288011520994,-0.09857203247282968,1.5701212875363504,-3.0099842064461475,-0.08633779241689478,-0.10075795248372585,0.04327257620814578,-0.12960000062099378,-0.2735320333127921,-0.273692737314363,-0.12842200000000015,-0.08104,-0.9077850000000001,0.057525999999999966,0.080254,-0.902814,0.1859480000000001,0.161294,0.004971000000000059,0.9881859758985515,0.9365810600518459,double,-0.902814
28,0.233333,step_decsent,0.10116404656185364,0.11664466578663145,-0.004560182407294187,-0.1913317123679237,-0.2207756586399477,-0.02497070131628103,0.004440177607112052,-0.009720388815552343,0.011040441617662416,-0.0014400576023055312,0.002640105604223476,-0.007080283211332197,-6.394111518692506,9.13033041182444,3.6578926255570714,0.043203456210212134,-1.4833186631196216,0.7056564513865661,-0.1296103686226423,-0.15841267276051874,0.01440115206873839,-0.129228,-0.082093,-0.9076550000000001,0.05667100000000003,0.079304,-0.902835,0.18589900000000004,0.161397,0.0048200000000000465,0.9743911643383021,0.9389791907591948,double,-0.902835
29,0.241667,step_decsent,0.15478761699064272,0.036477081833454085,-0.03635709143267853,0.24234803352987128,0.32425991076404115,-0.13705094237003623,0.006599472042253228,0.010559155267579187,0.004559635229179576,-0.0034797216222637152,-0.0021598272138225617,-0.011879049676021174,6.434313706358196,-9.619340527139135,-3.8153238571375594,0.2590946046485699,2.433350621926035,-0.7776345558534744,-0.24474010318672773,-0.5759458624965261,-0.5758059112897754,-0.13046299999999988,-0.082309,-0.9073140000000002,0.05535200000000007,0.078982,-0.9026310000000001,0.18581499999999995,0.161291,0.004683000000000104,0.9778992795099533,0.9322279412181952,double,-0.9026310000000001
30,0.25,step_decsent,0.01872074882995858,0.163686547461898,0.03384135365413335,-0.2986025897209157,-0.6583076836595526,0.2585545414002586,0.0037201488059393014,-0.015000600024002626,0.012960518420736457,-0.0024000960038425517,0.0019200768030723761,-0.007440297611905249,-16.32867732637514,15.26574650527347,8.424150376432477,-0.3455326096620574,-3.0672933267228837,1.0081463088391784,0.12956025662080434,0.48960806635004606,0.5326715545560928,-0.13058800000000004,-0.08379800000000001,-0.9074880000000001,0.055176,0.07763400000000001,-0.902975,0.18576400000000004,0.16143200000000002,0.0045130000000001,0.9663831826993671,0.9414530554572167,double,-0.902975
31,0.258333,step_decsent,0.17148685947438103,0.12000480019200808,-0.00924036961477054,-0.18118948928141948,0.29605842635993185,0.21657845778633258,0.009960398415943292,0.00768030721228953,0.008760350414022013,-0.002280091203647101,0.0013200528021117424,-0.007800312012484989,18.332666583994097,-5.24201935316093,-5.170013592812192,0.7488599075967847,2.721817741064708,-0.5040403224186313,0.014401152069536894,-0.07200576034569005,-0.04320345620781722,-0.131934,-0.084734,-0.9073380000000001,0.053728,0.07664499999999999,-0.9029630000000002,0.185662,0.161379,0.004374999999999907,0.9744537241866229,0.9425279351661654,double,-0.9029630000000002
32,0.266667,step_decsent,0.2242620590352781,0.0689944804415645,-0.13006959443245547,0.817357885368579,0.8137103976903658,0.00546171636588252,0.00527957763378125,-0.027957763378930977,0.020158387329013837,-0.0019198464122889352,0.00035997120230417536,-0.0074394048476129635,6.332517345919969,-6.120748710156411,-14.49834711035335,-0.5616535615745185,-4.276226372836629,1.3676550173976256,0.04322591688962869,-0.11520057593083348,0.043305395353014774,-0.13375900000000007,-0.085542,-0.906086,0.05184299999999997,0.076073,-0.9019410000000001,0.18560200000000004,0.161615,0.004144999999999843,0.9418844290120978,0.9457307291332379,double,-0.9019410000000001
33,0.275,step_decsent,0.1459258370334801,0.11796471858874279,-0.051122044881799555,0.09299745297362308,-0.277660839516403,0.044427766464933745,0.015000600023992583,0.002640105604226798,0.011160446417851175,0.0018000720028785772,-0.0013200528021125664,-0.009960398415936565,-9.400722669122484,5.876663644207138,9.47408490947505,1.166569349599339,3.6718911536250625,-1.0797961011835622,0.4464080661427453,-0.20161094496780688,-0.302531329452009,-0.13485000000000014,-0.086503,-0.905567,0.050641999999999965,0.075079,-0.901598,0.1854920000000001,0.161582,0.003969,0.9685293910075958,0.9432975588644904,double,-0.901598
34,0.283333,step_decsent,0.10116404656185399,0.06060242409696385,-0.016560662426493677,0.15680559437427682,-0.11390505255042609,-0.12215069625996808,0.007800312012478328,-0.010080403216128759,0.013680547221889269,0.016320652826116083,0.02760110404416196,0.0040801632065323515,-5.37162972178402,-6.883750689041051,4.147531795908552,-0.8640691241466787,-1.5265221193274436,0.3024241934523101,1.7425394003645196,3.470677648658898,1.6849347920879576,-0.13562800000000008,-0.08709199999999999,-0.9053150000000001,0.04993500000000006,0.07480400000000001,-0.9014260000000001,0.18556300000000014,0.16189599999999998,0.0038890000000000313,0.9688365969274635,0.9072368881506632,double,-0.9014260000000001
35,0.291667,step_decsent,0.17266618670507292,0.11699064074874042,0.020398368130549953,-0.45295435671844786,0.13973506113650028,0.04136020173745337,0.008519318454542141,-0.011879049676027795,0.01691864650827959,-0.00455963522917956,-0.001679865610751153,-0.011279097672190834,8.57957045155014,6.766044714636012,4.434728888534148,0.08627387113796654,-0.21582030956311912,0.38854083110035026,-2.5054341319049223,-3.513435283766869,-1.8429638683373135,-0.136996,-0.08816600000000001,-0.905344,0.048458,0.07381499999999999,-0.9016900000000001,0.185454,0.161981,0.003653999999999935,0.9627347641968356,0.9429911709752379,double,-0.9016900000000001
36,0.3,step_decsent,0.11856474258970255,0.06240249609984411,-0.06264250570021754,0.15087145919558861,-0.13308047302049436,-0.08092098543054421,0.008640345613806569,-0.010080403216128759,0.016680667226689136,-0.004920196807880578,0.0050402016080643795,-0.0048001920076784586,-6.492432991164106,-6.550839391443232,-9.965303471830998,0.014523840065333924,0.21584620903624635,-0.028558656137100166,-0.04326912020893065,0.8064403238708207,0.7774997797326764,-0.13791200000000015,-0.08877000000000002,-0.9046830000000001,0.04742899999999994,0.073337,-0.9012080000000001,0.1853410000000001,0.162107,0.003475000000000006,0.9644677470280987,0.9510437990662926,double,-0.9012080000000001
37,0.308333,step_decsent,0.00204008160325617,0.0992439697587901,0.12852514100561835,-0.5592836806627867,-1.2938804432414648,0.006716781933670511,0.015240609624410146,0.0007200288011527632,0.010800432017284785,-0.002760110404415595,-0.0018000720028802425,-0.014280571222846481,-13.983518659119872,4.42115368522091,22.941035246110054,0.7920633638069782,1.296103686221226,-0.7056564513865746,0.25922073724528677,-0.8208656679400689,-1.1376910134606963,-0.13780199999999987,-0.089591,-0.9056639999999999,0.047389000000000014,0.072495,-0.9023979999999999,0.18519099999999988,0.162086,0.003265999999999991,0.9688442998367632,0.9429136263259642,double,-0.9023979999999999
38,0.316667,step_decsent,0.11951043916486712,0.034557235421166094,0.04067674586034211,0.7500612204758804,-1.0848318153043237,-0.3492611873284479,0.01751859851211667,0.008999280057594452,0.007559395248377741,-0.00011999040077138965,-0.0017998560115192236,-0.009959203263738926,14.095315282170821,-7.761787177540722,-10.540964140301984,0.2733367995808178,0.9934306763189028,-0.3888933008047831,0.31678905731272144,2.5916889971071414e-05,0.5185226732790472,-0.1386519999999999,-0.08980400000000001,-0.90594,0.04639199999999999,0.072192,-0.90282,0.18504399999999988,0.161996,0.0031200000000000117,0.9648403327698345,0.951931257620565,double,-0.90282
39,0.325,step_decsent,0.0934837393495705,0.07704308172326906,0.005280211208440274,-0.10059901408635896,-0.24321735440710518,-0.06655935473867826,0.07740309612384544,0.05628225129005103,-0.15612624504980094,-0.002280091203647086,0.0010800432017283122,-0.008760350414015293,-3.1233289109920213,5.0985054964721925,-4.247754068390939,7.186427170494243,5.674183515235375,-19.643062558283688,-0.25922246524369225,0.34560172965888925,0.14386809669070308,-0.13878599999999985,-0.08997700000000002,-0.9072849999999999,0.04559400000000002,0.071559,-0.9029369999999999,0.18437999999999988,0.161536,0.0043480000000000185,0.6947936240418433,0.9413259726106598,double,-0.9029369999999999
40,0.333333,step_decsent,0.10956438257530961,0.08640345613824556,-0.041401656066247516,0.11042064647390946,0.4357300737024932,0.10170731638459694,0.01512060482417482,0.00180007200288192,0.00888035521421081,0.004680187207489661,0.02496099843993764,-0.05916236649466248,1.929754377263789,1.1232898613916387,-5.602048154888744,-7.474197923877448,-6.538123039381885,19.80158409504526,0.835266820009212,2.865829261755597,-6.048483869032438,-0.13957300000000006,-0.090682,-0.906866,0.04471999999999998,0.071047,-0.9030849999999999,0.18429300000000004,0.161729,0.0037810000000000343,0.9706206015966696,0.8548853816274995,double,-0.9030849999999999
41,0.341667,step_decsent,0.13018958483321352,0.08087353011759063,-0.010319174466019723,-0.015528624052958417,-0.6756589249887386,-0.10787133177775812,0.014278857691382303,-0.006239500839932378,0.006959443244540729,-0.0005999520038436226,0.0029997600191989634,-0.00851931845452216,2.4748262848456797,-0.6635380394354358,3.7295994240734056,-0.10100157580903721,-0.9646715674123217,-0.23049099708064308,-0.633566020078387,-2.6351377994646814,6.076679630446397,-0.14053900000000008,-0.09140799999999999,-0.906722,0.04362999999999995,0.070398,-0.90307,0.18416900000000003,0.161806,0.0036519999999999886,0.9715565376591734,0.9483934635528837,double,-0.90307
42,0.35,step_decsent,0.07752310092404141,0.07260290411616499,-0.027721108844364913,0.1239913078679861,0.4490315734136245,-0.050605053040367116,0.014640585623446277,-0.022080883235331566,0.03324132965318281,-0.00648025921036825,-0.010920436817472822,-0.005520220808831226,-6.320230878335803,-0.9925148207639098,-2.088315658027749,0.04340908821120541,-1.9010419291250722,3.1539525271381432,-0.7056650913866125,-1.6704904400182192,0.35990611372746195,-0.14106299999999994,-0.09219700000000002,-0.9062140000000001,0.04292999999999991,0.069702,-0.9028849999999999,0.18399299999999985,0.16189900000000002,0.0033290000000001374,0.9291539590033944,0.9436326820415324,double,-0.9028849999999999
43,0.358333,step_decsent,0.10572422896914747,0.08484339373574899,-0.030481219248767,-0.08825356838233571,-0.5122786196525552,-0.050237037970043565,0.013680547221882515,-0.01728069122764633,0.04464178567142468,0.0004800192007685088,0.004320172806911582,-0.007920316812673734,3.384270736242163,1.4689175110505162,-0.3312264975881527,-0.11520921655631312,0.5760460827655366,1.3681094465668813,0.8352668200092079,1.828946312778632,-0.28802304138275503,-0.1418299999999999,-0.09304799999999999,-0.9055880000000001,0.04205300000000001,0.069031,-0.9026970000000001,0.1838829999999999,0.16207899999999997,0.002890999999999977,0.9170229501353131,0.9560321735071637,double,-0.9026970000000001
44,0.366667,step_decsent,0.1984641228701755,0.09227261819054453,-0.12682985361172122,0.3228065569144014,0.8980535392694803,0.31984033326514183,0.00983921286296081,-0.006239500839932378,0.03887688984881763,0.0039596832253492595,0.0010799136069116935,-0.009479241660666627,11.127897036360444,0.891435619725885,-11.560911250654444,-0.4609232492106673,1.3248368595769067,-0.6917321601400342,0.4175262808472219,-0.38879999999998627,-0.18705601727776472,-0.14340200000000003,-0.09386899999999998,-0.904207,0.040432000000000023,0.068271,-0.9017189999999999,0.18383400000000005,0.16213999999999998,0.0024880000000000457,0.9323580906371388,0.9579039442585948,double,-0.9017189999999999
45,0.375,step_decsent,0.09864394575782928,0.08676347053882194,-0.004320172806903284,0.04932587515485706,0.635006664144436,0.10375732284492856,0.01176047041880856,-0.011280451218050038,0.06312252490099271,0.0001200048001954588,0.003120124804991997,-0.010440417616705142,-11.978900409497957,-0.6611241631732387,14.701749766568852,0.23056012910689472,-0.6049382429038369,2.9095925899646153,-0.4607798422121457,0.24483513717512398,-0.1153457285537643,-0.1441260000000001,-0.09468599999999999,-0.903645,0.03961100000000006,0.067574,-0.90177,0.18373700000000015,0.16226,0.001875000000000071,0.8913464937157403,0.9630877757754357,double,-0.90177
46,0.383333,step_decsent,0.10776431057243101,0.08052322092883711,-0.01632065282610276,-0.07915860821682032,-0.44332376975795956,-0.1432631788481702,0.008160326413078027,-0.0334813392535704,0.09840393615744503,-0.004320172806916608,-0.0012000480019196146,0.0,1.0944875572544999,-0.7488599075944852,-1.4401152069122172,-0.43203456207014773,-2.6642131327877614,4.233938708322621,-0.5328426265585117,-0.5184414744883742,1.2529002300138208,-0.14495599999999997,-0.095636,-0.9026890000000001,0.03867699999999996,0.06689300000000001,-0.901634,0.18363299999999994,0.162529,0.0010550000000000281,0.8262271145634563,0.9819770844064615,double,-0.901634
47,0.391667,step_decsent,0.086033117350608,0.07247420206383487,-0.04343652507801718,-0.24330788143586168,-0.15046591619413804,0.00463670419007053,0.01679865610751486,-0.04223662107031328,0.11399088072954229,-0.004079673626107326,0.0004799616030714012,-0.006239500839932378,-2.607534583852051,-0.965804999400316,-3.2536443786794327,1.0365166420010588,-1.0505497740272223,1.8702837259535936,0.028857593089666584,0.20158502579685794,-0.7486802063753746,-0.1455329999999999,-0.09659199999999998,-0.9013769999999999,0.037926000000000015,0.06629299999999999,-0.9013239999999999,0.18345899999999993,0.162885,5.299999999996974e-05,0.7954676886708463,0.9870194901077753,double,-0.9013239999999999
48,0.4,step_decsent,0.06312252490099896,0.08796351854074139,0.033841353654159884,-0.7155706127205423,-0.6257275668025898,-0.21272031334798094,0.036481459258353374,-0.03372134885395443,0.13488539541581773,-0.003960158406343528,-0.00048001920076767607,-0.00720028801152097,-2.7493810691958407,1.8587923289219312,9.27371639651707,2.3620308593349852,1.0218735409046933,2.507442060035444,0.01434240006765841,-0.11520230455287091,-0.11529907255353267,-0.14575500000000008,-0.097606,-0.9005350000000001,0.03736699999999993,0.065556,-0.9016660000000001,0.183122,0.163162,0.0011309999999999931,0.7491180661573967,0.9862808507223083,double,-0.9005350000000001
49,0.408333,step_decsent,0.10932437297491869,0.08532341293651766,-0.011520460818444288,-0.09522151458612906,0.13588125832003525,0.01903775363170689,0.039361574462991336,-0.03888155526221283,0.15228609144366054,-0.001920076803074048,0.00036001440057555127,-0.01008040321613209,5.544443546612246,-0.31682534552066927,-5.443635482131799,0.3456276496625428,-0.6192495389725684,2.088167050023143,0.24481958517574529,0.10080806448376689,-0.3456276496593216,-0.14633799999999997,-0.098641,-0.8991699999999999,0.03643999999999992,0.06484799999999999,-0.901654,0.18277799999999989,0.163489,0.0024840000000000417,0.7051180149361485,0.9828867469893676,double,-0.8991699999999999
50,0.416667,step_decsent,0.09719222462202744,0.07439404847612172,0.041156707463400756,-0.4742913243202786,-0.7519527072373904,-0.0892074686717936,0.06095512359010708,-0.02243820494360362,0.150227981761456,-0.0010799136069025348,-0.0019198464122864374,-0.00839932805375077,-1.4557413430395059,-1.3114188217417722,6.3207545334587225,2.5910186137647857,1.973044194697528,-0.24695340559209783,0.10081151861909196,-0.27356141263042794,0.20171288245516167,-0.14664,-0.09944800000000001,-0.898261,0.035621000000000014,0.064212,-0.902067,0.182261,0.16366,0.003805999999999976,0.6891588166461343,0.9855277338601967,double,-0.898261
51,0.425,step_decsent,0.13044521780870658,0.12180487219488792,-0.035641425657025376,0.0018984723992028763,0.17353597685359712,0.0825131951178006,0.08424336973478726,-0.019920796831873262,0.17868714748590206,-0.0056402256090266846,0.00036001440057555127,-0.009600384015363578,3.9905188031536327,5.689526427309051,-9.216144620235967,2.7947013254146444,0.30210105744994153,3.4152364963933923,-0.5472593306281245,0.27359424131309185,-0.14413248069276502,-0.14702499999999996,-0.100629,-0.8964749999999999,0.034487000000000045,0.0632,-0.9018499999999999,0.181512,0.163829,0.005375000000000019,0.6153300694052621,0.981432620560376,double,-0.8964749999999999
52,0.433333,step_decsent,0.1165246609864456,0.10656426257050236,-0.10308412336492734,0.3973047665369605,0.8490183836501363,0.1387256352375682,0.09996399855995203,-0.021360854434175326,0.21012840513620487,-0.0018000720028785772,-0.0001200048001921272,-0.009240369614783802,-1.6705336400169115,-1.8289463127787706,-8.093447462846715,1.8865509210566067,-0.17281382482924013,3.773101842110006,0.4608368662124194,-0.05760460827645223,0.04320345620782131,-0.14716299999999993,-0.10169499999999998,-0.8938649999999999,0.033501,0.062311,-0.901068,0.18066399999999994,0.16400599999999999,0.0072030000000000705,0.5385151325701198,0.9843086107313034,double,-0.8938649999999999
53,0.441667,step_decsent,0.0759539236861049,0.07691384689224938,-0.013918886489081551,-0.11452045372477601,-0.33826271652365814,-0.17888498933484928,0.10319174466041106,-0.026397888168949724,0.22930165586753143,-0.0032397408207342692,0.0038396928245745658,-0.010439164866811164,-4.868099028118661,-3.5577652601695644,10.698972507300972,0.38729854817123255,-0.6043956965172097,2.300606039276058,-0.17274643842760984,0.4751257049156126,-0.14384392272946583,-0.14693600000000007,-0.10255600000000001,-0.8918379999999999,0.03284100000000001,0.061702,-0.9010389999999999,0.17977700000000008,0.16425800000000002,0.009201000000000015,0.4866013101718461,0.9806914437008208,single,-0.8918379999999999
54,0.45,step_decsent,0.07476299051962529,0.0907236289451574,0.0034801392055750194,-0.2784797170904959,-0.3135285244010314,-0.17946624686058577,0.10020400816034293,-0.04224168966758547,0.24576983079323,-0.003000120004806511,0.006960278411135883,-0.011160446417857836,-0.14291769668542037,1.6572401359543933,2.0879666020228607,-0.3585427217170428,-1.9013322331256068,1.9762600414854803,0.028755648137256375,0.3744852497973484,-0.08655724841553697,-0.14672399999999997,-0.103664,-0.889819,0.032192999999999916,0.061003999999999996,-0.9011610000000001,0.17891699999999988,0.164668,0.011342000000000074,0.4386588346721923,0.9775153286875975,single,-0.889819
55,0.458333,step_decsent,0.06000240009599738,0.10296411856474257,0.020880835233396962,0.22826925108821897,0.27014039794452616,-0.059942754074968047,0.11388455538219956,-0.05364214568582792,0.2539301572062897,-0.0006000240009506475,0.009120364814592568,-0.01116044641785791,-1.7713417045035333,1.4689175110506658,2.088167050020639,1.6417313358762349,-1.3681094465669594,0.9792783407007937,0.2880230413843597,0.2592207372442926,-8.951531197288238e-15,-0.14627500000000004,-0.104969,-0.8878769999999999,0.03168800000000005,0.060222,-0.9014279999999999,0.1779630000000001,0.165191,0.01355099999999998,0.3921209808611492,0.975957407735966,single,-0.8878769999999999
56,0.466667,step_decsent,0.08975281977441447,0.08339332853371736,0.0020398368130736455,-0.15508514768069284,0.16313359975365702,-0.10959278614068911,0.11831053515720572,-0.0581953443724484,0.28221742260618704,0.0008399328053730787,0.0137988960883134,-0.0167986561075082,3.5697647802276298,-2.3483069391678884,-2.26073895132269,0.5310750869937784,-0.5463401351836429,3.394200311962721,0.17278099427930463,0.5613788425390962,-0.6765310402748119,-0.14603699999999986,-0.106149,-0.885542,0.030947000000000058,0.059642,-0.9015850000000001,0.17698399999999992,0.165791,0.01604300000000003,0.33957000000000026,0.9637405235608087,single,-0.885542
57,0.475,step_decsent,0.06168246729869383,0.06048241929677214,0.001920076803074048,0.040997988138815396,-0.048101065191800546,-0.06413547889805431,0.12720508820350912,-0.05844233769350971,0.30685227409096816,0.001920076803074048,0.014880595223808883,-0.021720868834751852,-3.368577040168092,-2.749419085196842,-0.014371776070994576,1.0673890611188561,-0.02964038414272303,2.9563004301909492,0.12962246462270152,0.12980908862300322,-0.5906891548354333,-0.14549100000000004,-0.10714000000000001,-0.8830010000000001,0.03044900000000006,0.059261999999999995,-0.9017820000000001,0.1759400000000001,0.166402,0.018780999999999937,0.3121900000000001,0.9560014219901167,single,-0.8830010000000001
58,0.483333,step_decsent,0.07284291371655126,0.0902436097443893,-0.004440177607112037,-0.2753168783686977,-0.0051233175517287725,-0.13940190819215267,0.16092643705748602,-0.06516260650425845,0.3334933397335851,-0.000120004800195458,0.012000480019201062,-0.017400696027841788,1.3393071424285827,3.571485713142571,-0.7632610596647136,4.046723731426468,-0.8064645158704803,3.197055759344391,-0.24481958517574673,-0.34562764965892345,0.518441474488185,-0.14475700000000002,-0.108435,-0.880185,0.029841000000000006,0.05861,-0.9018900000000001,0.17459800000000003,0.167045,0.021705000000000085,0.28295000000000026,0.9647701931717274,single,-0.880185
59,0.491667,step_decsent,0.08495320374370545,0.07223422126229875,-0.03143748500119801,-0.47334340366132144,-0.19240623889820765,-0.1945828846178982,0.17398608111350491,-0.07859371250300169,0.37556995440364993,-0.00227981761458978,0.009719222462202743,-0.013678905687545342,1.4531185537741995,-2.16095374155154,-3.2394177338716035,1.5670319241683321,-1.6116037915458634,5.0487898572192,-0.25915680518290374,-0.27372900851911647,0.44657911450641263,-0.14401500000000012,-0.10969200000000001,-0.876793,0.029113999999999973,0.058089,-0.901742,0.1731290000000001,0.167781,0.024949,0.25051,0.9717760289807513,single,-0.876793
60,0.5,step_decsent,0.06972278891154976,0.08424336973478976,-0.004200168006721149,-0.23515503841544452,-0.044445571405639255,-0.19023439091412,0.187087483499351,-0.09864394575782928,0.3914556582263285,-0.003720148805952637,0.007320292811712314,-0.011400456018242166,-1.8277228887742383,1.4411554629174406,3.268608783688579,1.5722311755485565,-2.406124235548739,1.9063607131499585,-0.17284665682981645,-0.2878830733817875,0.2734248973122742,-0.14303699999999997,-0.11121600000000001,-0.873496,0.028502000000000027,0.057448,-0.901802,0.171539,0.168664,0.028305999999999942,0.21694000000000002,0.976583683786044,single,-0.873496
61,0.508333,step_decsent,0.058322332893313865,0.06864274570982806,-0.014160566422664347,-0.3726469799434266,-0.23287781792214246,-0.25755397398900504,0.2787711508460417,-0.11520460818432553,0.46045841833672907,-0.002040081603269493,0.006840273610944588,-0.01104044161766238,-1.3681094465661643,-1.8721497689861548,-1.1952956217380484,11.002480180810071,-1.9873589855389626,8.280662439745624,0.20161612896713513,-0.05760460827645785,0.04320345620782256,-0.14119999999999988,-0.11274799999999999,-0.869541,0.027998999999999996,0.056933,-0.9017759999999999,0.16919899999999988,0.169681,0.0322349999999999,0.17765000000000042,0.9780883955698259,single,-0.869541
62,0.516667,step_decsent,0.06167506599472251,0.08831293496520336,0.04931605471561573,-0.23377760183595778,-0.7667758780419903,-0.23301814188402067,0.24886009119269512,-0.10331173506119577,0.4221262299016128,-0.0032397408207342692,0.008999280057595285,-0.011159107271419519,0.4022957885059589,2.360233891933694,7.61658520977687,-3.589040035198795,1.4270306123265926,-4.599494652641766,-0.1439475902885509,0.2590600487941815,-0.014238739351708642,-0.13964,-0.11434499999999999,-0.8664339999999999,0.027457999999999982,0.056272,-0.90228,0.16709799999999997,0.170617,0.035846000000000044,0.1415400000000001,0.9755046128358593,single,-0.8664339999999999
63,0.525,step_decsent,0.012360494419772447,0.005640225609024149,0.2097683907356385,-0.3198763958051387,-1.765373558712532,-0.22438250534664592,0.5633025321012788,-0.09912396495860047,0.49369974798991834,0.006120244809795156,0.01164046561862468,-0.012480499219967906,-5.917985308406319,-9.921121967620168,19.255050524423627,37.734602293121604,0.5025525144120104,8.589165737226118,1.123243205391742,0.316954945521347,-0.15857337676087624,-0.13504899999999997,-0.11521800000000001,-0.8640680000000001,0.02740600000000004,0.056322,-0.9041319999999999,0.16245500000000002,0.17154000000000003,0.04006399999999988,0.09936000000000011,0.9697822395339619,single,-0.8640680000000001
64,0.533333,step_decsent,0.1088443537741509,0.07512300492019768,-0.030601224048976187,-0.19385768831842456,-0.1130645401760615,-0.040735501802854145,0.3405736229449351,-0.13764550582023183,0.4117364694587842,0.004080163206525717,0.007920316812673005,-0.010920436817473728,11.578526263576062,8.33826704802282,-28.845507594457803,-26.728538240291098,-4.622769814188373,-9.835986863210712,-0.24481958517574193,-0.4464357141427708,0.187214976898379,-0.13311799999999985,-0.116991,-0.8603819999999999,0.02653300000000003,0.055762000000000006,-0.9039679999999999,0.15965099999999988,0.172753,0.043586000000000014,0.06413999999999986,0.976510339716198,single,-0.8603819999999999
65,0.541667,step_decsent,0.09215262778978835,0.10931125509959103,-0.009719222462202678,0.03784280047096022,0.3363561993036934,0.17293486060369423,0.3932085433165286,-0.16858651307895448,0.40640748740100163,-0.0004799616030722306,0.004559635229181195,-0.0059995200383962215,-2.0028468903722616,4.102261840579924,2.505639739233663,6.315685189775991,-3.712623861137798,-0.6394266927984825,-0.5471712034554731,-0.40324953005660963,0.5904627764671789,-0.13060899999999998,-0.11930700000000001,-0.856914,0.025760999999999923,0.054889,-0.9039369999999999,0.1563699999999999,0.17419600000000002,0.047022999999999926,0.029770000000000185,0.9874153005979117,single,-0.856914
66,0.55,step_decsent,0.1374054962198424,-0.07416296651866008,0.1185647425897284,-0.837010616509511,-1.482468761457986,-0.06513620994691506,0.44533781351254104,-0.19536781471258655,0.36229449177966894,0.002760110404415595,0.004320172806912415,0.005640225609019986,5.4305614340638275,-22.01778730568227,15.39469159389542,6.255762654027627,-3.213884751425892,-5.293771225408918,0.3888241938662921,-0.028736640137858996,1.3968253507039672,-0.1280429999999999,-0.12031700000000001,-0.8548830000000001,0.024638999999999966,0.055542999999999995,-0.9048780000000001,0.15268199999999987,0.17586000000000002,0.04999500000000001,4.999999999988347e-05,0.9872967362628958,single,-0.8548830000000001
67,0.558333,step_decsent,0.03936157446297828,0.12504500180007289,-0.06684267370696577,0.4443616543386605,0.6478799632407406,0.11097181984538425,0.4867394695787681,-0.2384495379815201,0.3327733109324434,-0.006000240009599778,0.0025201008040322066,0.0032401296051841467,-11.765741240473423,23.905912434745566,-22.249779946801375,4.96839746384585,-5.170013592815787,-3.5426834090034585,-1.0512841010458962,-0.21601728103686846,-0.2880230413819586,-0.12431500000000006,-0.12334599999999998,-0.851553,0.024260999999999977,0.054522,-0.9042939999999999,0.14857600000000004,0.177868,0.05274099999999993,0.0,0.9878834103517262,single,-0.851553
68,0.566667,step_decsent,0.17722582193423797,0.0045596352291816114,-0.0009599232061444612,-0.8153930462968189,-0.5003968760246424,0.2574678158913276,0.5508759299256032,-0.262538996880247,0.328173746100308,-0.006239500839925676,0.001199904007679744,0.00407967362611396,16.542386305646584,-14.45708742151312,7.905297636287593,7.695759580853681,-2.8905038275410035,-0.5519036275660405,-0.028709002918874047,-0.15841094268687936,0.10073722353369412,-0.121201,-0.125572,-0.84881,0.022732000000000085,0.054494,-0.904252,0.1439330000000001,0.180066,0.05544199999999999,0.0,0.9874153005979165,single,-0.84881
69,0.575,step_decsent,0.09396375855035358,0.003480139205568404,0.05040201608065412,-0.38571433172062763,-0.5035557802038966,0.0230790698098486,0.5903036121445053,-0.30721228849154325,0.2865714628585171,-0.005160206408258207,0.0008400336013440688,0.005880235209404319,-9.991847279957417,-0.12954470462177095,6.16367926158635,4.731511126713368,-5.3610094337329475,-4.9924736879624705,0.12952051262060227,-0.043186176207329695,0.21607603303616646,-0.11706499999999997,-0.128161,-0.8468420000000001,0.02190599999999998,0.054472000000000007,-0.9046230000000001,0.13897099999999996,0.182633,0.05778099999999997,0.0,0.9868861234707134,single,-0.8468420000000001
70,0.583333,step_decsent,0.17160686427456204,0.0015600624024959882,-0.10944437777511341,0.3572176275684234,0.8533670481777829,0.27983134282911576,0.6375855034201223,-0.3582143285731433,0.2557302292091666,-0.004560182407294172,-0.0003600144005763816,0.00900036001440621,9.317545388720525,-0.23041843310601318,-19.182334556074267,5.674053915230624,-6.120489629377153,-3.7010960817653134,0.0720057603460978,-0.1440115206912811,0.3744299537983773,-0.113182,-0.131159,-0.843799,0.020438000000000067,0.054456000000000004,-0.903636,0.13362000000000007,0.185615,0.05983700000000003,0.0,0.983173156833224,single,-0.843799
71,0.591667,step_decsent,0.09059275257980026,-0.05027597792176578,-0.046556275497966405,0.7301642911058093,0.4381944030435604,0.21654265366494613,0.6753059755219624,-0.4028077753779666,0.20614350851931657,-0.0029997600192047716,0.0025197984161267127,0.007439404847606253,-9.72091573011293,-6.219827252731147,7.545968595769921,4.526094564655598,-5.350785553734457,-5.949930488342892,0.18723570771410947,0.34554989401284764,-0.18729963604510977,-0.10830899999999999,-0.13409700000000002,-0.841693,0.019657999999999953,0.054896,-0.903186,0.12796699999999994,0.18899300000000002,0.06149300000000002,0.0,0.9859868426195115,single,-0.841693
72,0.6,step_decsent,0.11856474258970334,0.0024000960038400776,-0.08856354254169113,0.09338000802130177,0.5910735424902362,0.2516453579905639,0.6848673946957828,-0.42409696387855683,0.14112564502580358,-0.004200168006721177,0.0012000480019196224,-0.01044041761669855,3.356773072111285,6.321381726341815,-5.041073688194541,1.1474161975063675,-2.554804812263344,-7.802455717450328,-0.1440547206907976,-0.15837638476024268,-2.145664522297488,-0.10359000000000007,-0.137651,-0.839779,0.018634999999999957,0.054886,-0.9025350000000001,0.12222500000000003,0.19253699999999999,0.06275600000000003,0.0,0.9811376443012172,single,-0.839779
73,0.608333,step_decsent,-0.004200168006721121,-0.132485299411976,0.32797311892474057,-1.9848490786844217,-2.6398666099519525,-0.7101463056752184,0.7134285371414933,-0.4774990999639978,0.09708388335533431,-0.0008400336013415596,0.002520100804032173,0.0031201248049886453,-14.732378566713544,-16.18689492569489,49.98639883192487,3.427474192452945,-6.408512670759721,-5.285222809368664,0.40323225793586986,0.1584126727604158,1.627330183809809,-0.09760999999999997,-0.14052599999999998,-0.8417029999999999,0.018662999999999985,0.056011,-0.9052419999999999,0.11627299999999996,0.196537,0.06353900000000001,0.0,0.9931703783835552,single,-0.8417029999999999
74,0.616667,step_decsent,0.09371250299976436,-0.0385169186465083,-0.01571874250058579,-0.1633334940767204,0.4089371453359538,-0.05367825515870151,0.715622750179986,-0.5009599232061478,0.03167746580273434,0.001919846412288948,-0.0005999520038394636,0.00035997120230750815,11.74858063432758,11.275303667562785,-41.23972419310395,0.26328450185897123,-2.8150735831713605,-7.848142254931647,0.3311591089069502,-0.3743763868336518,-0.331191936966781,-0.09242700000000004,-0.14438,-0.8413080000000001,0.01789799999999997,0.056327,-0.905108,0.110325,0.20070700000000002,0.06379999999999997,0.0,0.9965943951751968,single,-0.8413080000000001
75,0.625,step_decsent,0.04908196327853006,-0.0907236289451574,0.06756270250808434,-0.21940250355093552,0.1105631682213155,0.07412125164094895,0.7416296651866,-0.5287411496459828,0.019680787231488875,-0.0004800192007685088,0.0034801392055683576,0.025681027241088575,-5.3558790017081614,-6.265055838071388,9.994173167967093,3.120954638979227,-3.333880528001312,-1.439659014910046,-0.2879953933826289,0.4896305303501505,3.0386482705845386,-0.08665600000000007,-0.14803,-0.841707,0.017484999999999973,0.057111999999999996,-0.905457,0.10414100000000004,0.205142,0.06374999999999997,0.0,0.9567996608976538,single,-0.841707
76,0.633333,step_decsent,0.10608424336973385,-0.04116164646585841,0.008520340813651023,-0.2315900414608228,0.03434970381506683,0.07016993100909984,0.7417496699867954,-0.5568222728909139,-0.04068162726508782,0.0014400576023055264,-0.0018000720028802425,0.002400096003835882,6.84054723283374,5.947675804548036,-7.0853668180046885,0.014401152069526078,-3.3698695841750803,-7.243779490768803,0.2304184331062075,-0.6336506910414711,-2.793823501410368,-0.08135900000000007,-0.15232700000000002,-0.842117,0.01661299999999999,0.05744,-0.9055080000000001,0.09797200000000006,0.209767,0.06339100000000009,0.0,0.994453608294791,single,-0.842117
77,0.641667,step_decsent,0.11999040076793935,-0.02387808975282006,-0.03395728341733079,-0.11541704333515612,0.17920379827545516,0.06390272271211624,0.744540436765065,-0.5844732421406305,-0.06719462443004658,0.0035997120230351165,-0.0021598272138225686,0.0029997600191981506,1.6686053993527212,2.0738608966928784,-5.096907155145435,0.3348652241744218,-3.3178508818954535,-3.1813051553826384,0.2591377994635952,-0.043167171939324234,0.07195392552943028,-0.07615400000000005,-0.156999,-0.8423940000000001,0.015642999999999962,0.057621000000000006,-0.9052,0.09179700000000002,0.21462,0.06280599999999992,0.0,0.9914006879449685,single,-0.8423940000000001
78,0.65,step_decsent,0.08244329773190812,-0.13848553942157613,0.07260290411616034,-1.1213858283112585,-0.221939361555292,-0.3984513343839249,0.7611904476179,-0.6177847113884546,-0.11724468978759169,0.013080523220931872,0.0010800432017274793,-0.03396135845433536,-4.505832597627634,-13.75344409801459,12.787734013379419,1.9980812255892173,-3.9975362111873265,-6.006248092829101,1.1377428534617444,0.38880000186607877,-4.435511637289494,-0.07049800000000006,-0.160993,-0.8439760000000001,0.015064999999999995,0.058783999999999996,-0.906088,0.08556300000000006,0.219777,0.062111999999999945,0.0,0.9393177572853935,single,-0.8439760000000001
79,0.658333,step_decsent,0.06948277931117262,-0.09084363374535073,0.058682347293887695,-0.15237444413539075,0.12840164178234426,0.21191104486324083,0.7627505100204112,-0.6504260170406853,-0.14136565462618783,0.006840273610941349,-0.0027601104044156313,-0.01740069602784202,-1.555324423465212,5.717257371441957,-1.6705336400183335,0.18721497690041744,-3.917113362802228,-2.8946315658942,-0.7488599075951734,-0.4608368662118259,1.9873589855386402,-0.06472100000000003,-0.165656,-0.8456429999999999,0.014542999999999973,0.059518,-0.906722,0.079264,0.22517399999999999,0.061079000000000105,0.0,0.9685008035917995,single,-0.8456429999999999
80,0.666667,step_decsent,0.08627309815215019,-0.05579553635709102,0.03203743700504142,-0.18559238582099044,0.2713776655850077,0.04972292976636822,0.778377729781614,-0.66330693544516,-0.16762658987280668,0.005759539236866767,-0.0003599712023041729,-0.013798896088309977,2.014677086750352,4.205435251770991,-3.1971334639844096,1.8751163620353646,-1.5455865616120226,-3.1510601447826554,-0.12967775066889534,0.287993664760192,0.4321814182303835,-0.05895300000000003,-0.170719,-0.847307,0.013871999999999995,0.05998,-0.9071039999999999,0.07282500000000003,0.230699,0.05979699999999988,0.0,0.9750716914185525,single,-0.847307
81,0.675,step_decsent,0.11196447857913809,-0.04848193927757109,-0.015600624024956551,0.14109099701801212,0.10823664218269408,0.1991848696916153,0.7844713788551527,-0.6811472458898344,-0.2121684867394677,0.010200408016320819,-0.00444017760710371,-0.007920316812673734,3.083088974797527,0.8776667562126365,-5.716795995439551,0.7312671395102225,-2.1409228902765407,-5.345241433656646,0.5329255705573064,-0.4896443543501164,0.7054577313856016,-0.05334899999999998,-0.175991,-0.8489450000000001,0.013024000000000036,0.060347000000000005,-0.9070400000000001,0.06637300000000002,0.23633800000000002,0.05809500000000001,0.0,0.9772394762255658,single,-0.8489450000000001
82,0.683333,step_decsent,0.08508340333612938,-0.011640465618624835,-0.0349213968558795,0.1511475008617581,0.654557031845165,-0.16565723078133052,0.8105124204968185,-0.6978279131165295,-0.223448937957524,0.009240369614783925,-0.0016800672026881377,-0.002400096003842576,-3.2258580634836145,4.421153685221,-2.3185854831301,3.1250499989998803,-2.001760137608927,-1.3537082944985475,-0.11520921655309044,0.33122649758977535,0.6624529951795521,-0.04730400000000001,-0.181709,-0.850516,0.01239200000000007,0.060430000000000005,-0.9067689999999999,0.05969600000000008,0.242139,0.056252999999999886,0.0,0.9838438593329699,single,-0.850516
83,0.691667,step_decsent,0.07787377009839282,-0.10451163906887372,0.06995440364770768,-0.4906010906054561,-0.05912724643782196,0.02726539235187912,0.7978161747060194,-0.7179025677945728,-0.29097672186225004,0.0059995200383962215,-0.002879769618430886,0.013078953683708292,-0.8650867815858537,-11.143649322084014,12.584089333283703,-1.523427620686224,-2.4087658600963784,-8.102685853698768,-0.3888708394993615,-0.1439527736672353,1.8573373755160487,-0.04130400000000001,-0.18682100000000001,-0.853524,0.011793000000000053,0.061277,-0.907243,0.05309700000000006,0.248098,0.05371900000000007,0.0,0.9755421937474771,single,-0.853524
84,0.7,step_decsent,0.11592463698548316,-0.03072122884915416,0.005400216008649127,0.2627962133320209,-0.20202131868607817,0.3331951367165717,0.8065522620904882,-0.7345493819752842,-0.3192127685107428,-0.01056042241689401,-0.00048001920076768247,0.020640825633026168,4.566286677918001,8.855203434503807,-7.746812389182665,1.048372421033113,-1.9976976095897632,-3.3884611362646146,-1.9872725855382674,0.28798156938236236,0.9074609323554476,-0.03554900000000005,-0.192686,-0.8562290000000001,0.010739000000000054,0.061529,-0.907116,0.04628800000000011,0.254215,0.050886999999999905,0.0,0.9613492625171217,single,-0.8562290000000001
85,0.708333,step_decsent,0.09864394575782863,-0.05856234249369936,0.012600504020163363,-0.09479282949341504,0.1214617078193414,0.11129753579412426,0.8030721228849158,-0.7518300732029242,-0.35305412216488513,-0.02172086883476503,0.00024000960038342167,0.018000720028799093,-2.0737658979544538,-3.341067280036612,0.8640691241466706,-0.4176334100050914,-2.0737658979527067,-4.0611248834924005,-1.3393071424302139,0.08640691241462872,-0.3168253455210685,-0.02967900000000001,-0.198463,-0.8592760000000002,0.009735999999999967,0.062019,-0.9070710000000001,0.03941499999999998,0.260482,0.04779499999999992,0.022050000000000236,0.9529811010484864,single,-0.8592760000000002
86,0.716667,step_decsent,0.10847132229421755,-0.0890328773698097,0.0197984161267062,0.25244912951365645,0.34238723321643677,0.4262548214305272,0.824094072474194,-0.7549796016318661,-0.3953683705303536,-0.012838972882165517,-0.0009599232061436286,0.018118550515960053,1.1791908490987333,-3.6561716913979,0.8636803583564654,2.5224321561408694,-0.37791317841875094,-5.077303619566615,1.0657422549315387,-0.14398041834977696,0.014138527377124946,-0.02371500000000004,-0.204013,-0.8627360000000001,0.008724999999999983,0.062753,-0.907085,0.032440000000000024,0.266766,0.04434899999999997,0.05651000000000028,0.9629548867358972,single,-0.8627360000000001
87,0.725,step_decsent,0.20100804032161254,-0.009120364814592628,-0.03204128165126841,-0.16259572813797854,-0.2973895596397125,0.18440889813314604,0.813752550102016,-0.7394695787831549,-0.422056882275294,-0.06156246249849878,0.007680307212288748,0.09516380655226155,11.104850357301792,9.589885102030216,-6.221012573859965,-1.2410323259544098,1.8612771929330747,-3.202749519373647,-5.847052636065488,1.0368691249768938,9.24580055637852,-0.018608999999999987,-0.21009899999999998,-0.865986,0.006537000000000015,0.062893,-0.9060250000000001,0.025146,0.272992,0.04003900000000005,0.09961000000000009,0.8106658305089586,single,-0.865986
88,0.733333,step_decsent,0.11076443057722349,-0.1018840753630144,0.026521060842436793,-0.019091107944748824,0.11597364839861525,0.38884732094190333,0.8129125165006502,-0.7387495499819989,-0.4461778471138826,0.029281171246852387,-0.016200648025920517,-0.0450018000720044,-10.82966635598088,-11.132090549432544,7.027762209732985,-0.10080806448646937,0.08640691241521127,-2.8946315658932567,10.901672116326749,-2.8658292617555703,-16.820545616736513,-0.012758000000000047,-0.21540600000000001,-0.8699250000000001,0.00585800000000003,0.063607,-0.9066210000000001,0.018616000000000077,0.279013,0.03669600000000006,0.13303999999999994,0.9065326855144907,single,-0.8699250000000001
89,0.741667,step_decsent,0.10907127429806261,-0.08087353011759076,-0.021838252939780124,-0.0015246302894052937,0.22974329527959658,0.36784215824829253,0.8178545716342792,-0.7417806575473996,-0.48488120950324454,0.011999040076792603,0.004799616030717374,-0.04655627549796036,-0.20316250049926635,2.5210637443513035,-5.802653441590736,0.592999176101395,-0.36370381154316306,-4.644031964166327,-2.0736898452195685,2.5198301003885306,-0.18652212934436926,-0.0068510000000000515,-0.220914,-0.8737839999999999,0.00504899999999997,0.064321,-0.9068269999999999,0.011900000000000022,0.285235,0.033043000000000045,0.1695700000000001,0.9194722258912289,single,-0.8737839999999999
90,0.75,step_decsent,0.15012600504020124,-0.04404176167046655,-0.054122164886592744,0.06023003176909855,0.0830159184981345,0.30819630298652806,0.7967118684747431,-0.7493099723988894,-0.5037801512060437,-0.017280691227652994,-0.0009600384015361848,-0.017040681627262078,4.926764759647001,4.419989013215415,-3.874224402593602,-2.5372258681790543,-0.9035539243357429,-2.2679637228848044,-3.5137083048656517,-0.6911861793175968,3.5420129450015794,-0.001462999999999992,-0.22679099999999996,-0.877531,0.003653999999999935,0.06468,-0.9065179999999999,0.005116999999999927,0.291471,0.028986999999999985,0.21013000000000015,0.95951925034457,single,-0.877531
91,0.758333,step_decsent,0.13908556342252554,-0.08928357134285353,0.013560542421700381,0.19240980915637482,0.1827741460357864,0.4338740438051164,0.7823112924516877,-0.7471498859954379,-0.5384615384615384,0.036121444857793644,-0.013800552022080472,-0.030241209648389406,-1.324905990360693,-5.429234330059617,8.12224976698582,-1.7281382482965646,0.25922073724367534,-4.161932947977271,6.4085126707604,-1.5409232713961638,-1.584126727604377,0.0038970000000000393,-0.23227299999999998,-0.882131,0.0027960000000000207,0.065309,-0.906883,0.0011010000000000186,0.297582,0.024751999999999996,0.25248000000000004,0.9181847478270128,single,-0.882131
92,0.766667,step_decsent,0.15490760739141463,-0.09167266618670568,-0.03575713942883503,-0.04796095157181186,0.14879154149987733,0.31995185694115,0.8785697144228573,-0.6821454283657341,-0.5203983681305501,-0.01247900167986484,0.0014398848092150459,-0.011879049676021214,1.8984933967949578,-0.28666844778643663,-5.917648410191467,11.550086629610039,7.799910922690679,2.167407047154844,-5.831587057554447,1.8287061232656114,2.2032829340494717,0.009928000000000048,-0.237194,-0.8861700000000001,0.0014009999999999856,0.066085,-0.906684,0.008527000000000062,0.30327899999999997,0.02051399999999992,0.29486000000000023,0.9711849493225783,single,-0.8861700000000001
93,0.775,step_decsent,0.1225249009960453,-0.12252490099603905,-0.005640225609039971,0.13182434684565345,-0.011694346199234157,0.3925039486493332,0.8201128045121778,-0.6998679947197863,-0.5485419416776638,0.007920316812673734,0.0033601344053762307,-0.007560302412100682,-3.8860802106527297,-3.7024162737709396,3.614174225344406,-7.015109793673248,-2.1267930342076267,-3.3773639202104406,2.4480161397502083,0.23043916910610546,0.5182704024865611,0.015741000000000005,-0.24200499999999997,-0.8906939999999999,0.00044599999999994644,0.067134,-0.9067,0.015295000000000059,0.309139,0.016006000000000076,0.3399399999999998,0.9809110201805007,single,-0.8906939999999999
94,0.783333,step_decsent,0.12804512180486485,-0.09828393135725522,-0.019560782431287015,-0.10070512357082836,0.13742184382936598,0.3395795591523172,0.8185527421096878,-0.7037081483259437,-0.5412216488659612,-0.0003600144005730556,0.007080283211328105,0.012000480019199556,0.6624529951781603,2.909032717962805,-1.6705336400152613,-0.18721497689788602,-0.46083686621354253,0.878470276215362,-0.9936794927693346,0.4464357141427947,2.347387787267541,0.021495000000000042,-0.24705000000000002,-0.895041,-0.0006239999999999579,0.06801199999999999,-0.906437,0.022119,0.315062,0.011396000000000073,0.3860399999999998,0.9767697789379843,single,-0.895041
95,0.791667,step_decsent,0.14722822174225686,-0.10427165826733803,-0.0533957283417357,0.10985145552020506,0.21389106272437597,0.44131415282994507,0.8334533237340959,-0.6862251019918323,-0.5656347492200576,0.005759539236853446,-0.001319894408446969,-0.003359731221498953,2.3017878494590667,-0.7184697516298018,-4.05986871975623,1.7879267607880958,2.0977977362744578,-2.9293376954759056,0.7342876934756964,-1.0079406791186716,-1.8430779026515949,0.02721400000000007,-0.2519,-0.89931,-0.001802999999999999,0.06887,-0.90602,0.02901700000000007,0.32077,0.006709999999999994,0.43290000000000006,0.9886712990654736,single,-0.89931
96,0.8,step_decsent,0.12492499699988784,-0.11688467538701532,-0.01140045601823543,0.2136666227404935,0.037046946871672135,0.3429395546610797,0.8144725789031512,-0.6540261610464404,-0.5243009720388808,-0.0018000720028785772,-0.0038401536061439066,0.002760110404415595,-2.6764940288454255,-1.5136225992652386,5.039634264190579,-2.2777804909329915,3.864027474545992,4.960251671808069,-0.9071896363532931,-0.3024432014516893,0.7344103715246038,0.03295999999999999,-0.256376,-0.903584,-0.002859000000000056,0.06981200000000001,-0.905902,0.035819000000000045,0.32618800000000003,0.0023179999999999312,0.47682000000000013,0.9915663951988867,single,-0.903584
97,0.808333,step_decsent,0.1988479539181609,-0.1158046321852877,-0.0522020880835194,-0.07527156694770501,-0.15123150908240937,0.3798422734992362,0.7939517580703247,-0.6144245769830865,-0.47809912396496146,0.0002400096003909192,-0.002760110404416464,-0.0020400816032628585,8.871109674579833,0.1296103686220592,-4.896391703502261,-2.4625970038193516,4.752380182809824,5.544443546612238,0.24481958517574884,0.12961036862203917,-0.5760460827647302,0.037918999999999925,-0.260531,-0.9071330000000001,-0.004514000000000018,0.070754,-0.9054840000000001,0.04243299999999994,0.331285,0.0016490000000000116,0.5,0.9777756621517535,single,-0.9054840000000001
98,0.816667,step_decsent,0.1292296616270682,-0.14422846172306125,-0.019438444924405357,-0.006440264977708825,-0.05355426870943064,0.30641357008288217,0.7806575473962037,-0.5977921766258637,-0.45260379169666054,0.0004799616030722306,-0.0015598752099830842,-0.0014398848092166917,-8.353526792787637,-3.4105866975969916,3.931322673279793,-1.595177666681168,1.995728384595953,3.05919513658516,0.028791936966799804,0.14401670199584482,0.07201785385723089,0.04334799999999994,-0.264311,-0.9107430000000001,-0.005587000000000009,0.07194300000000001,-0.9053340000000001,0.04893499999999995,0.336254,0.005408999999999997,0.5,0.9422826187610541,single,-0.9053340000000001
99,0.825,step_decsent,0.17184687387495523,-0.10548421936877629,-0.05856234249370556,0.07774256931406215,0.18280008484073987,0.469007862880479,0.7940717628705202,-0.5871834873394967,-0.4562582503300207,-0.0037201488059526618,0.002280091203647949,-0.005040201608062748,5.114270040548113,4.64949506231673,-4.695055510536489,1.609770247727895,1.2730936381095814,-0.43855257810634857,-0.5040334104194084,0.4608144022118167,-0.43205529807345366,0.04853299999999994,-0.268325,-0.9140570000000001,-0.007050000000000001,0.072841,-0.904888,0.05558299999999994,0.34116599999999997,0.009169000000000094,0.5,0.8971992000381379,single,-0.904888
100,0.833333,step_decsent,0.20004800192007285,-0.189487579503179,-0.004560182407294172,-0.1913404814480607,-0.34446734463364925,0.45629097788788786,0.7814712588503595,-0.5557422296891847,-0.41761670466818296,-0.006720268810759123,0.0003600144005763816,0.007440297611905225,3.3842707362435505,-10.080806448386216,6.480518431106583,-1.5121209672579636,3.7731018421110987,4.637170966259161,-0.360028801728843,-0.23041843310591134,1.497719815188758,0.053378000000000037,-0.271377,-0.9174990000000001,-0.00877300000000003,0.074423,-0.904788,0.06215100000000007,0.3458,0.012711000000000028,0.5,0.8561692833245028,single,-0.904788
101,0.841667,step_decsent,0.11471082313414321,-0.1851451883849281,-0.0814734821214412,0.25043707269810045,0.5388175075960513,0.08874450686637739,0.7549796016318594,-0.5392368610511116,-0.39416846652267307,-0.0008399328053730732,-0.0004799616030722306,0.003839692824571184,-10.239642282928845,0.5210452505700564,-9.228857657085006,-3.1787445666546565,1.9804857977049488,2.813563492381775,0.7055838739364056,-0.10078905731324764,-0.4320380114391665,0.058714000000000044,-0.27432799999999996,-0.920105,-0.009735999999999967,0.075962,-0.904077,0.06845000000000001,0.35029,0.01602799999999993,0.5,0.8331205279577689,single,-0.904077
102,0.85,step_decsent,0.15012600504020324,-0.17184687387495606,-0.01848073922956785,0.25788160389160736,-0.09467336307392424,0.4775385082801404,0.757590303612153,-0.5355814232569346,-0.3604944197767952,0.0007200288011594343,0.0020400816032645243,0.007080283211332268,4.249991828400377,1.5958615756596861,7.559431524285843,0.3132967695060105,0.43867008210452646,4.041047251395438,0.18720288089913859,0.3024172814516714,0.38888640186740836,0.06377600000000005,-0.27735899999999997,-0.922955,-0.010980999999999908,0.07741100000000001,-0.903864,0.07475699999999996,0.35477,0.01909099999999997,0.5,0.796750948985802,single,-0.903864
103,0.858333,step_decsent,0.19416776671066863,-0.17748709948397876,-0.08484339373575066,0.006588589393298794,-0.05129848711778947,0.19750079858815717,0.7371894875795012,-0.5072602904116187,-0.3591743669746803,0.0031201248049886453,0.0018000720028802425,-0.002640105604226798,5.285222809368199,-0.6768541472486101,-7.963837094225673,-2.448195851752271,3.398671888313426,0.15841267276069662,0.2880230413811594,-0.028802304138279226,-1.1664933175997871,0.06830100000000006,-0.280107,-0.925241,-0.012572999999999945,0.078905,-0.903179,0.080874,0.359012,0.022062000000000026,0.5,0.7719365846370153,single,-0.903179
104,0.866667,step_decsent,0.16882649388049617,-0.17974562035037292,-0.06803455723541965,0.07269467791339942,0.14689714027073442,0.2452448880649645,0.7258219342452611,-0.4986801055915547,-0.32829373650107707,0.0016798656107461687,0.0016798656107511643,-0.000479961603072237,-3.0407094828620833,-0.2710008239013892,2.016899028117483,-1.363997280326395,1.0295398152224688,3.7053792264942893,-0.17281727792686402,-0.014423613166436153,0.25919654441499557,0.07294299999999998,-0.282765,-0.92741,-0.013966000000000034,0.080417,-0.902616,0.08690900000000001,0.363182,0.024793999999999983,0.5,0.7480205211829662,single,-0.902616
105,0.875,step_decsent,0.11556462258489525,-0.1970478819152755,-0.05628225129005769,0.23603498357192948,0.02580940622345066,0.1864095387022239,0.7203888155526168,-0.49033961358453876,-0.2956918276731083,0.0009600384015370176,0.001920076803071537,0.0009600384015370176,-6.391680222680991,-2.07635444196598,1.4103331267685,-0.6520003231302373,1.0008990768049786,3.9123855547784263,-0.08638272041391433,0.028826496138290133,0.17280691282962302,0.07798300000000002,-0.285209,-0.9294049999999999,-0.014920999999999962,0.082075,-0.9021389999999999,0.09290399999999999,0.367284,0.027266000000000012,0.5,0.7234206596379318,single,-0.9021389999999999
106,0.883333,step_decsent,0.16476659066363408,-0.1413656546261851,-0.04440177607104043,0.4434256137530047,-0.13601669873720085,0.3816647102579681,0.6985479419176829,-0.4683787351494095,-0.26893075723028725,0.005160206408258139,-0.0018000720028802425,-0.003000120004799849,5.904472348342569,6.682134560073222,1.4257140548442595,-2.621009676579123,2.635410828648649,3.21145691141497,0.5040403224194292,-0.4464357141427774,-0.4752380182811533,0.08243100000000003,-0.287934,-0.931276,-0.016251000000000015,0.083238,-0.901794,0.09868200000000005,0.371172,0.029482000000000008,0.5,0.6947892042018773,single,-0.901794
107,0.891667,step_decsent,0.16234701223901432,-0.2127429805615559,-0.07631389488839244,0.23444824908286663,0.09469893514282776,0.4553919872677951,0.6840652747780164,-0.44264458843292764,-0.2482601391888648,0.008159347252214707,0.0,0.0057595392368601835,-0.2903261848595843,-8.564593944728966,-3.829147926248163,-1.7377810342772484,3.087850577931603,2.4802757429112754,0.3598681118258441,0.21599136103674738,1.05107502299737,0.08677900000000005,-0.28985000000000005,-0.932709,-0.017535999999999996,0.085011,-0.9011100000000001,0.10431500000000005,0.374861,0.03159899999999993,0.5,0.6673644100098592,single,-0.9011100000000001
108,0.9,step_decsent,0.1664466578663172,-0.22200888035521382,-0.04992199687987162,0.10855322332173396,0.07779671244740224,0.27645639448586756,0.6443057722308814,-0.43441737669506075,-0.21084843393735764,0.007080283211332174,0.0007200288011527632,0.009480379215168056,0.49197715436251915,-1.1119524533370782,3.1671544472003723,-4.7713311589025365,0.9873049007400524,4.489584213549383,-0.12949286462048823,0.08640691241482781,0.4465186581432685,0.09076099999999998,-0.29162,-0.93405,-0.018863999999999992,0.086867,-0.9006150000000002,0.10962499999999997,0.37848699999999996,0.03343499999999988,0.5,0.6458926917958505,single,-0.9006150000000002
109,0.908333,step_decsent,0.18516740669626489,-0.16296651866074768,-0.1027241089643823,0.4067017326481129,0.05400519071389206,0.46800936637925017,0.6702268090723765,-0.4408976359054415,-0.18756750270010744,0.004680187207489692,-0.0020400816032645243,0.012240489619583813,2.246579722782653,7.085366818008722,-6.336506910417756,3.110648846933325,-0.7776622117341673,2.7938235014101056,-0.28802304138275575,-0.33122649758998113,0.3312264975897975,0.09480300000000008,-0.293936,-0.9347569999999998,-0.02036799999999994,0.08820800000000001,-0.8996569999999999,0.11517100000000002,0.382144,0.03509999999999991,0.5,0.6268957224242643,single,-0.8996569999999999
110,0.916667,step_decsent,0.19858411327094558,-0.11063114950803841,-0.11699064074873299,0.18852861829840334,-0.031134156054702437,0.4729983027859646,0.616990640748733,-0.3963282937364981,-0.1826253899688039,0.005159587233023149,-0.004919606431485368,0.010679145668347139,1.6098759988817604,6.279741918971546,-1.7118468663727588,-6.387829172503374,5.347893228814865,0.5930060872694392,0.05752340119191904,-0.3455153381594459,-0.18734628644548385,0.09828999999999999,-0.296317,-0.9353039999999999,-0.02198,0.089089,-0.898593,0.12026999999999999,0.38540599999999997,0.03671099999999994,0.5,0.6114898429353075,single,-0.898593
111,0.925,step_decsent,0.19560782431297413,-0.14448577943117624,-0.09060362414497276,0.2987099307688806,0.1850573990373556,0.6843943462220426,0.598943957758304,-0.3915756630265213,-0.15324612984519653,0.006120244809795156,-0.004320172806912415,0.011520460818430887,-0.3571689617150406,-4.062718099500502,3.1665686551974215,-2.1656885863949262,0.5703384987371607,3.525652240922506,0.1152835205534625,0.07193491234524789,0.1009618564843087,0.10165099999999994,-0.29837600000000003,-0.9358259999999999,-0.023558999999999997,0.090257,-0.8977419999999999,0.12520999999999993,0.388633,0.03808400000000001,0.5,0.5962566822464994,single,-0.8977419999999999
112,0.933333,step_decsent,0.19068762750509613,-0.15816632665306754,-0.13032521300851196,0.12612574852148326,0.2120801113103074,0.6901905749289463,0.5759030361214499,-0.37945517820713154,-0.1340453618144713,0.00756030241208746,-0.005040201608064413,0.012360494419779273,-0.590447234834759,-1.641731335880406,-4.766781334878143,-2.76502119727041,1.4545163589811443,2.304184331060292,0.17281382482807123,-0.08640691241473716,0.10080806448438667,0.10486099999999998,-0.30022,-0.9358569999999999,-0.025085000000000024,0.091533,-0.8965529999999999,0.129946,0.391753,0.039304000000000006,0.5,0.5813918108279521,single,-0.8965529999999999
113,0.941667,step_decsent,0.19378449724022329,-0.18610511159107174,-0.052915766738650144,-0.08543997612804584,-0.7503982705944091,0.3031686109841072,0.5392368610511116,-0.36393088552915587,-0.1323494120470377,0.01271898248140745,-0.0037197024238056244,0.0019198464122889224,0.3715946406440043,-3.3523860016803435,9.288390481144855,-4.399589041317259,1.8627661000690607,0.20349769227664724,0.618992088951278,0.15844722633294683,-1.252777538695737,0.10773999999999995,-0.301702,-0.9365190000000001,-0.026594000000000007,0.093053,-0.896096,0.13433399999999995,0.394755,0.0404230000000001,0.5,0.5734531832385679,single,-0.896096
114,0.95,step_decsent,0.17544701788071243,-0.17172686907476475,-0.1267250690027814,0.1555573909495485,0.2105650860526591,0.5076186764873093,0.5066602664106682,-0.3352934117364681,-0.15192607704308184,0.008760350414015409,-0.002760110404416464,0.02316092643705754,-2.200585546563185,1.725458120281665,-8.857470570518654,-3.9093477307624718,3.436634320495384,-2.349293771276168,-0.4750548502810606,0.1151556485526424,2.549031564234827,0.11050000000000004,-0.303065,-0.9367289999999999,-0.02798299999999998,0.094461,-0.894847,0.13848300000000002,0.397526,0.041881999999999975,0.5,0.5396538883270181,single,-0.894847
115,0.958333,step_decsent,0.16464658586343864,-0.2221288851554051,-0.11040441617662379,0.23540183520631913,-0.393624314834036,0.5161700334127007,0.4701788071522814,-0.31753270130805544,-0.1651266050642005,0.01008040321612536,0.0008400336013440577,0.018000720028799093,-1.2961036862202984,-6.048483869031578,1.9585566814061623,-4.377950229015559,2.1313705062297585,-1.5841267276033357,0.15841267276010396,0.43203456207374374,-0.6192495389725701,0.11304599999999998,-0.30386,-0.9371850000000002,-0.029271000000000047,0.096319,-0.893777,0.14231700000000003,0.400179,0.04340800000000011,0.5,0.5315064163202367,single,-0.893777
116,0.966667,step_decsent,0.20122390208782287,-0.18574514038876758,-0.19282457403409214,-0.08771415361343059,-0.061438956254354984,0.5195576066312785,0.4382049436045069,-0.31209503239740155,-0.16426685865130775,0.012838972882165517,0.0015598752099830842,0.00707943364530541,4.388926832779452,4.365700115987191,-9.889627772674313,-3.836556701196813,0.6524680718327155,0.10316131664179695,0.33100187977443424,0.08637408311003371,-1.3104495300568275,0.11502100000000004,-0.304913,-0.936947,-0.030841000000000007,0.09788,-0.892111,0.14586200000000005,0.40279299999999996,0.04483599999999999,0.5,0.5270663682375927,single,-0.892111
117,0.975,step_decsent,0.16932677307093053,-0.2163686547461917,-0.15828633145326798,-0.04190459142387723,0.19110952907275672,0.50874542593246,0.3925357014280636,-0.2974918996759908,-0.16020640825632873,0.0116404656186265,-0.0012000480019204553,0.019800792031684597,-3.8278085943708913,-3.6749687216397957,4.1447548998949335,-5.4805282823045385,1.7524460244102797,0.4872735383390198,-0.14382662468967092,-0.33120403358977135,1.5266240713283696,0.11688100000000001,-0.305589,-0.9369629999999999,-0.032155000000000045,0.099673,-0.8906269999999998,0.14903600000000006,0.405262,0.046336000000000044,0.5,0.49830623478115177,flight,-0.8906269999999998
118,0.983333,step_decsent,0.17484699387975944,-0.20604824192967588,-0.2306492259690353,-0.00411238714653565,0.1505378372194126,0.5191204004109845,0.3506540261610426,-0.2841713668546774,-0.20436817472698943,0.011400456018248753,-0.0006000240009598033,0.01488059522381045,0.6624529951792739,1.238499077945012,-8.68389469767995,-5.026002072125387,1.5985278796727884,-5.299623961437719,-0.028802304137495006,0.07200576034569177,-0.5904472348342886,0.11834599999999995,-0.30624,-0.9367439999999999,-0.03351700000000002,0.101385,-0.8885809999999998,0.15186299999999997,0.407625,0.04816300000000007,0.5,0.48711111057809825,flight,-0.8885809999999998
119,0.991667,step_decsent,0.13102951763858747,-0.2723782097432231,-0.14854811615069083,-0.048068122284507256,0.1600733311453202,0.3140917049316993,0.3168946484281281,-0.254019678425725,-0.23374130069594629,0.012119030477563993,-0.0019198464122872829,0.021478281737459293,-5.257676534817881,-7.958959420872039,9.851345070595746,-4.050801263848654,3.61791317842004,-3.5244931568222975,0.0862220373548409,-0.1583660200776922,0.7916590489139527,0.11989499999999997,-0.306087,-0.937454,-0.03450799999999998,0.10363900000000001,-0.8871640000000001,0.15440299999999996,0.409726,0.050289999999999946,0.5,0.45877321204077465,flight,-0.8871640000000001
120,1.0,step_decsent,0.14784591383655415,-0.24120964838593417,-0.24888995559823865,-0.051914349500718986,-0.05895059241262643,0.30572957970005715,0.284771390855628,-0.26833073322932993,-0.20424816992679398,0.008880355214197428,0.0007200288011527632,0.029521180847236643,2.018048265686621,3.740376977953771,-12.04150239380144,-3.8549451065042515,-1.7173952722434767,3.539317264988861,-0.3886565778671008,0.316797697520705,0.9651865006333032,0.12103599999999992,-0.306313,-0.937082,-0.035666000000000087,0.105655,-0.884844,0.156702,0.411968,0.05223800000000001,0.5,0.448606116100474,flight,-0.884844
121,1.008333,step_decsent,0.13584543381734324,-0.2738509540381631,-0.22224888995559602,-0.23067090213602917,-0.11222924089784754,0.2751360581891337,0.22872914916597764,-0.20388815552622364,-0.33433337333493773,0.01104044161767585,0.008400336013440689,0.039121564862594015,-1.4401152069135998,-3.9171133628020214,3.197055759347518,-6.725338016278759,7.733418661119271,-15.61084884293111,0.25922073724690275,0.9216737324238565,1.1520921655295162,0.12181000000000008,-0.30573000000000006,-0.938016,-0.036705999999999905,0.10800699999999999,-0.882666,0.158516,0.413737,0.05535000000000001,0.5,0.4308192015731772,flight,-0.882666
122,1.016667,step_decsent,0.14686825053995603,-0.26181905447564036,-0.2440604751619695,-0.053837101781158074,-0.22962897006370964,0.1045273391637793,0.19066474682024712,-0.20278377729781094,-0.338612910967119,0.016198704103671132,0.008639308855290993,0.02639788816894604,1.3226321961378342,1.44371245050668,-2.6171808502967724,-4.567362892456232,0.13251478622662421,-0.5135034355868994,0.6189419829607923,0.0286744470662709,-1.5267190657124885,0.12217500000000003,-0.305238,-0.9388040000000001,-0.03779499999999991,0.110261,-0.8804120000000001,0.15996999999999995,0.415499,0.058392,0.5,0.44640988451642144,flight,-0.8804120000000001
123,1.025,step_decsent,0.14976599063963017,-0.21276851074043118,-0.30205208208329837,0.020308994458279096,0.049866197735688934,0.3908914604021449,0.15708628345134004,-0.20616824672987075,-0.36769470778831626,-0.015000600024006107,-0.008040321612864302,0.02544101764070466,0.3477427216697668,5.886300700253165,-6.959271201407585,-4.029576787340379,-0.4061525779502984,-3.4899552167523744,-3.744066257971622,-2.0016357216075176,-0.11482905655122867,0.12223600000000001,-0.305183,-0.939351,-0.03916799999999998,0.111967,-0.877683,0.161404,0.41715,0.061668000000000056,0.5,0.4489850198658072,flight,-0.877683
124,1.033333,step_decsent,0.12960518420736242,-0.294371774870991,-0.25921036841472483,-0.008082404923740865,-0.28324056415486976,0.25556319886366813,0.12612504500180077,-0.19296771870874477,-0.38797551902075234,0.010800432017284641,0.0034801392055683117,0.02868114724588804,-2.4193935476139927,-9.792783407003284,5.141211288680282,-3.7154972338340007,1.584126727604194,-2.4337946996802744,3.0962476948626305,1.3825105986358348,0.3888311058662335,0.12220700000000007,-0.304338,-0.940424,-0.040157999999999916,0.11444900000000001,-0.8752840000000001,0.16236499999999998,0.418787,0.06513999999999998,0.5,0.44859288559854255,flight,-0.8752840000000001
125,1.041667,step_decsent,0.21502279817615189,-0.2842572594192514,-0.35241180705543834,-0.06790581993908806,-0.3286677830395792,0.3843402839632507,0.07811375089992435,-0.21514278857691663,-0.4511639068874625,0.0046796256299510425,0.0023998080153587193,0.0188384929205689,10.24929373275631,1.2136447626277624,-11.183277974647861,-5.760894420671626,-2.660795520539031,-7.581999984006643,-0.7344380114391307,-0.12962937247535553,-1.18102403711535,0.12106600000000001,-0.303762,-0.9412470000000002,-0.04191099999999992,0.116838,-0.87219,0.16297699999999993,0.4206,0.06905700000000015,0.5,0.4674019943492875,flight,-0.87219
126,1.05,step_decsent,0.11916476659066413,-0.3324132965318548,-0.35689427577102845,-0.03805209640855529,-0.32892468781045403,0.04373729564786329,0.07920316812672296,-0.17292691707668312,-0.44617784711387665,0.005760230409208705,0.0007200288011519209,0.02412096483859393,-11.503423927215417,-5.7789556117367775,-0.5379177625813064,0.13073529662769517,5.066107224316905,0.5983511068745664,0.1296777606213421,-0.20158156896757098,0.6339219870424739,0.12073299999999998,-0.302433,-0.941991,-0.042856000000000005,0.119614,-0.8690150000000001,0.16358899999999998,0.422047,0.07297599999999993,0.5,0.4586505528524683,flight,-0.8690150000000001
127,1.058333,step_decsent,0.15468618744749746,-0.2701308052322121,-0.3681747269890914,-0.00047416226271858184,-0.3447579974422074,0.27792048815384385,0.055682227289094464,-0.14592583703348205,-0.5031801272050931,0.002640105604220172,-0.0018000720028802666,0.03096123844953592,4.262741012460537,7.474197923874146,-1.3537082944993502,-2.8226258055476667,3.2402592155527796,-6.840547232835348,-0.37442995379677924,-0.3024241934516033,0.8208656679397641,0.11990800000000001,-0.301398,-0.9431160000000001,-0.04412300000000002,0.12185,-0.8656889999999999,0.16403100000000004,0.423248,0.07742700000000013,0.5,0.44812384664880506,flight,-0.8656889999999999
128,1.066667,step_decsent,0.15154787616990695,-0.2740580753539689,-0.4130069594432348,0.1916995291109282,-0.3402402431485662,0.22123632334303667,0.040916726661871024,-0.13018958483321266,-0.5478761699063984,0.04067674586034157,-0.025317974562035186,0.0615550755939503,-0.3765672279326238,-0.47123471583354687,-5.379437539494003,-1.7717183377997754,1.8881992080956649,-5.363096076470482,4.564031708197877,-2.8219225532943053,3.6709667799872983,0.11898600000000004,-0.300199,-0.94424,-0.04504699999999995,0.12392299999999999,-0.861734,0.16403299999999998,0.424122,0.08250599999999997,0.5,0.3699933247324113,flight,-0.861734
129,1.075,step_decsent,0.15000600024000776,-0.2943717748709988,-0.4231369254770398,0.09241663964903499,0.1993053032651183,0.2773445364915887,0.02916116644665732,-0.1153246129845192,-0.5490219608784397,-0.008280331213246894,-0.0072002880115202336,0.055082203288130495,-0.18503251288841926,-2.437741451701676,-1.2156445498386053,-1.410723654771848,1.783867976562295,-0.137500416661619,-5.875084252200757,2.174209354435992,-0.7767757477282928,0.11797900000000006,-0.298707,-0.9452889999999998,-0.04636599999999991,0.126316,-0.8577489999999999,0.16434499999999996,0.425023,0.08753999999999995,0.5,0.4063924096215595,flight,-0.8577489999999999
130,1.083333,step_decsent,0.0926437057482277,-0.31105244209767813,-0.4440177607103984,0.27889284267266556,-0.6654827363534741,-0.11339383603629602,0.042841713668538874,-0.05976239049561859,-0.6390255610224326,-0.00684027361095449,-0.009360374414976638,0.06624264970599338,-6.883750689041049,-2.001760137606988,-2.505800460021389,1.6417313358791927,6.667733408004276,-10.800864051841032,0.17281382482807858,-0.2592207372442537,1.3393071424292193,0.117564,-0.296613,-0.946914,-0.04719499999999999,0.12883,-0.8534970000000001,0.164759,0.425443,0.09341699999999997,0.5,0.38791750815269765,flight,-0.8534970000000001
131,1.091667,step_decsent,0.1145908327333882,-0.3918886489080937,-0.5253179745620442,0.2965152041751588,-0.00522934229524616,-0.10435907255818339,0.014518838492925372,-0.0217182625389957,-0.6894648428125849,0.013318934485251423,-0.01043916486681047,0.0799136069114486,2.6334445626542986,-9.699568851741915,-9.755245242578278,-3.398473143222227,4.564930160382003,-6.052229636447479,2.4189114586280653,-0.1294444986601695,1.6403836339639404,0.11673,-0.293528,-0.9482820000000001,-0.04803899999999994,0.132009,-0.8484530000000001,0.16476899999999994,0.425537,0.09982899999999995,0.5,0.3638571547914104,flight,-0.8484530000000001
132,1.1,step_decsent,0.14784591383655218,-0.3026521060842393,-0.5059402376094952,0.2488966150761311,-0.3462846024531535,0.16120477715680925,0.024600984039362433,-0.025081003240130934,-0.7105484219368662,0.033361334453377606,-0.012360494419776446,0.08688347533901233,3.990769363154134,10.708813491401997,2.3254214511638813,1.2099058618068985,-0.40354502593725833,-2.5301307001417137,2.4051842035432416,-0.23056876910667737,0.8364176680143546,0.115703,-0.291215,-0.9499870000000001,-0.04899299999999995,0.134428,-0.8435130000000001,0.16469599999999995,0.425643,0.10647400000000007,0.5,0.3435240633888942,flight,-0.8435130000000001
133,1.108333,step_decsent,0.14472578903156744,-0.30769230769231015,-0.5737429497180115,0.15194403480762889,-0.22871110490097565,0.1484931941800658,0.013320532821309641,-0.001680067202689803,-0.744029761190459,0.04824192967717582,0.0024000960038400776,0.07920316812672507,-0.374429953796325,-0.6048483869039822,-8.136650919058791,-1.3537082944981274,2.8082246534791007,-4.017921427288273,1.7857428565700646,1.771341704502179,-0.9216737324237776,0.11460799999999993,-0.288665,-0.951406,-0.04979700000000009,0.137012,-0.8380719999999999,0.16440500000000002,0.425677,0.11333400000000005,0.5,0.34538411321101875,flight,-0.8380719999999999
134,1.116667,step_decsent,0.16558675305974638,-0.3327333813294908,-0.5952723782097379,0.11815631235671674,-0.21252868408934417,0.10835628351719902,0.02543796496280158,0.019558435325176746,-0.7783777297816074,0.05711543076554215,-0.0025197984161267127,0.09875209983200821,2.503115434146722,-3.004688461384746,-2.5833247530268992,1.4539755389359066,2.548416430029564,-4.1214265168164195,1.0647349518078073,-0.5903401031877552,2.345684149901967,0.11343999999999999,-0.285729,-0.9529319999999999,-0.050700999999999996,0.139764,-0.8322879999999999,0.16414099999999998,0.425493,0.12064399999999997,0.5,0.3098209977940207,flight,-0.8322879999999999
135,1.125,step_decsent,0.14112564502581024,-0.29869194767791046,-0.5683427337093357,0.6787958565019013,-0.040810027102145624,0.2609644013222581,0.02496099843993614,0.0538821552862092,-0.809192367694715,0.05100204008160478,0.0032401296051841467,0.09108364334573582,-2.935450382087647,4.085135443607424,3.2316866075125867,-0.057238272274743984,4.119011155770163,-3.697904465751585,-0.7336362275215926,0.6912190113177622,-0.9202515884162316,0.1124719999999999,-0.282791,-0.9549390000000001,-0.05145200000000005,0.14228000000000002,-0.8267930000000001,0.16392399999999996,0.425071,0.12814599999999998,0.5,0.3259315538719417,flight,-0.8267930000000001
136,1.133333,step_decsent,0.13092523700947595,-0.35653426137045824,-0.6662666506660329,0.08085831841458306,-0.3857804953541256,0.15990032844813987,0.017520700828044144,0.060002400096004445,-0.8467538701548147,0.058682347293887695,-0.008040321612864302,0.09456378255130422,-1.224097925877161,-6.941355297317689,-11.751340088407296,-0.8928714282841792,0.7344587555256568,-4.507560597635911,0.9216737324232555,-1.3537082944976062,0.41763341000461235,0.11152700000000004,-0.27932,-0.9564430000000002,-0.052054000000000045,0.145184,-0.8204530000000001,0.1635810000000001,0.424504,0.13599000000000006,0.5,0.31402976921344905,flight,-0.8204530000000001
137,1.141667,step_decsent,0.15430765538756894,-0.31785457163426667,-0.6373890088793095,0.5267943246815825,-0.6085870210207512,0.23282475053731927,0.041876649868002165,0.09815214782817125,-0.8652507799375978,0.018478521718260896,-0.0010799136069116863,0.09863210943124348,2.8056657521109685,4.641191473025111,3.4650398112218794,2.9224800863880294,4.577603519578416,-2.2194516178045265,-4.82407314322372,0.8351821461426162,0.48816017277888485,0.11058999999999997,-0.275853,-0.9583419999999999,-0.05318600000000007,0.147824,-0.8143189999999999,0.16377600000000003,0.423677,0.144023,0.5,0.33274341908689264,flight,-0.8143189999999999
138,1.15,step_decsent,0.14688587543501908,-0.3144125765030627,-0.6084243369734734,0.6499245719325139,-0.3527333378275577,0.21151550413997372,0.04368174726989491,0.14400576023041467,-0.895115804632196,0.015000600024006107,0.0007200288011519401,0.12432497299891886,-0.8906492202748025,0.4130559379819992,3.4758996646869478,0.21662035304125324,5.5026535944130375,-3.583946321204662,-0.4173672980024986,0.21600172903679862,3.0832669587994253,0.10973,-0.27203299999999997,-0.960731,-0.05428500000000003,0.15045,-0.8082130000000001,0.16401500000000002,0.422483,0.15251799999999993,0.5,0.29128544643103926,flight,-0.8082130000000001
139,1.158333,step_decsent,0.16992679707187663,-0.35869434777390535,-0.7041881675266869,0.6437702498250856,-0.7858484543942604,0.3003851303695693,0.03984159366374573,0.14844593783750948,-0.9126365054602025,0.019080763230531317,-0.014160566422656664,0.151806072242889,2.7650211972707495,-5.314025113505565,-11.492119351159461,-0.46083686621254266,0.53284262655643,-2.1025682020888263,0.48963917034983057,-1.785742856571264,3.2978638238293128,0.10864600000000002,-0.267807,-0.962468,-0.05554199999999998,0.153321,-0.80108,0.164188,0.421128,0.16138799999999998,0.5,0.2439093002649511,flight,-0.80108
140,1.166667,step_decsent,0.1372690184785284,-0.46352291816655444,-0.8015358771298472,1.1892873198694416,0.0977446490664727,-0.12710736160940939,0.035277177825776586,0.15094792416606734,-0.9743220542356783,0.03887688984881175,-0.014398848092153147,0.18022558195344754,-3.9186199416065337,-12.578422173344263,-11.68079068912433,-0.5476860856694538,0.30021434227956645,-7.4016737191597075,2.3753451665803706,-0.028591513018536956,3.4100683597983057,0.107796,-0.26268600000000003,-0.963908,-0.05636200000000002,0.15706399999999998,-0.792898,0.16415800000000003,0.41975,0.17101,0.5,0.19177930083769346,flight,-0.792898
141,1.175,step_decsent,0.13128525141004552,-0.38077523100923316,-0.6936277451097798,0.7718921360453134,0.4425164391905333,0.02960369252373537,0.019320772830908904,0.18216728669146678,-0.9721588863554369,0.07056282251290323,-0.033241329653185485,0.17856714268570303,-0.7180807714487918,9.930119663664927,12.949493822160752,-1.914845193191816,3.746473361982347,0.2595905292501336,3.8024640182516416,-2.2611882348532353,-0.19902067295625533,0.10686300000000004,-0.257995,-0.9662290000000001,-0.05686799999999992,0.15996,-0.78563,0.16373099999999996,0.41795499999999997,0.18059900000000007,0.5,0.1752337491661825,flight,-0.78563
142,1.183333,step_decsent,0.14460578423137196,-0.37213488539542167,-0.761310452418119,0.581526092705584,-0.5645686327433755,0.23454203945987842,-0.008880355214210869,0.1918876755070241,-0.9565582623305027,0.08004320172806663,-0.046201848073922955,0.1586463458538344,1.5985278796743754,1.036882948975348,-8.122249766991464,-3.3842707362438538,1.1664933175995922,1.8721497689828839,1.1376910134601566,-1.5553244234654493,-2.3905912434739984,0.10558400000000001,-0.25329499999999994,-0.9678559999999999,-0.05740599999999996,0.16267600000000002,-0.777964,0.16298999999999997,0.415971,0.18989199999999995,0.5,0.19399442651635201,flight,-0.777964
143,1.191667,step_decsent,0.15514758819294203,-0.372570194384446,-0.7739380849532058,0.565410022126826,-0.25152383899307107,0.279025554585521,-0.03503719702423287,0.23266138708902734,-0.9929205663546846,0.10775137988960254,-0.028317734581233298,0.17062634989201145,1.2649152821658245,-0.05223290005091513,-1.5151946886353145,-3.1385699316080875,4.89245399352087,-4.363127432707183,3.3247154021521115,2.145921945367113,1.437485485742377,0.10399900000000006,-0.248251,-0.9696809999999999,-0.05780099999999999,0.165545,-0.7700919999999999,0.16180000000000005,0.413796,0.19958900000000002,0.5,0.1603694603878857,flight,-0.7700919999999999
144,1.2,step_decsent,0.10416416656667453,-0.41317652706108643,-0.7867514700588103,0.8530231742744327,0.002494521938544233,0.10399347164427974,-0.05148205928237329,0.26689067562702795,-1.0098403936157512,0.09276371054842562,-0.0037201488059526618,0.18732749309972319,-6.11825532536517,-4.872954839390472,-1.5376677193813268,-1.973462409473247,4.10767893171738,-2.030460489747595,-1.7985922646318315,2.95182836616835,2.0042173536195715,0.10270199999999996,-0.242584,-0.9715399999999998,-0.05789600000000006,0.16895700000000002,-0.7619749999999998,0.16059800000000002,0.411541,0.209565,0.5,0.15154892271942583,flight,-0.7619749999999998
145,1.208333,step_decsent,0.13848553942157305,-0.3645745829833112,-0.812552502100053,0.6649196212807531,-0.38675792066800224,0.1665838783762912,-0.07404296171846489,0.27361094443777323,-1.0094803792151512,0.10776431057242886,-0.003600144005759604,0.20592823712948102,4.118729491767421,5.832466587996446,-3.096247694856868,-2.7074165889945045,0.8064645158700541,0.04320345621024306,1.8001440086407021,0.01440115206924943,2.23217857071373,0.10093099999999999,-0.237266,-0.9731810000000001,-0.05815199999999998,0.171965,-0.753488,0.15908299999999997,0.409231,0.21969300000000003,0.5,0.1125849680350367,flight,-0.753488
146,1.216667,step_decsent,0.17038636909047322,-0.404247660187194,-0.9023278137749117,-0.1408036347955189,-0.12905620288035452,0.12172474596287695,-0.08711303095752558,0.26097912167026927,-1.0086393088553136,0.09215262778977748,0.0073194144468442185,0.21538276937845274,3.82779333680115,-4.7603884333913555,-10.772175626933087,-1.568282846059628,-1.5156974763024003,0.10092036955095025,-1.8732520737523006,1.3102421949368885,1.1344531136275378,0.09878500000000001,-0.231722,-0.974067,-0.05880399999999997,0.17539500000000002,-0.7441730000000001,0.15758899999999998,0.407117,0.22989399999999993,0.5,0.10936156962985683,flight,-0.7441730000000001
147,1.225,step_decsent,0.12840513620544783,-0.3769350774030901,-0.8010320412816356,0.769012266508754,-1.204088004299468,0.29338728130814506,-0.11532461298451611,0.27001080043201614,-1.0148805952237903,0.10320412816512142,-0.012000480019200902,0.22392895715828653,-5.037949464181526,3.277641039733996,12.155978938350446,-3.3855252642493747,1.0838448052018141,-0.7489843235901286,1.3262330943650245,-2.3184800751283787,1.025583556922314,0.096754,-0.22633099999999998,-0.9758490000000001,-0.05901400000000001,0.178436,-0.7356320000000001,0.15576800000000002,0.404767,0.240217,0.5,0.0885686183678992,flight,-0.7356320000000001
148,1.233333,step_decsent,0.14340573622944403,-0.42409696387855683,-0.8900756030241299,0.3347316696443304,0.5252565264685386,0.12365728744319603,-0.13296531861274546,0.28873154926196876,-1.0532821312852618,0.13440537621505103,-0.027961118444737698,0.24264970598823793,1.8001440086399056,-5.659652763166584,-10.685654835292823,-2.1169693541617076,2.246579722783246,-4.608368662123115,3.7442995379731054,-1.9153532251934409,2.2465797227830993,0.09445100000000006,-0.22039100000000003,-0.9772090000000001,-0.05908899999999995,0.18173699999999998,-0.7261930000000001,0.15354,0.40212800000000004,0.251016,0.5,0.03534508289493793,flight,-0.7261930000000001
149,1.241667,step_decsent,0.07979361651068174,-0.4515238780897513,-0.8540916726661751,1.0222029075080756,-0.8942409817128556,0.1938966608943815,-0.13702903767698196,0.3234941204703637,-1.0562754979601525,0.16366690664747077,-0.02339812814974793,0.24598032157427174,-7.632843738752316,-3.2909664280290696,4.3177262248565516,-0.487607279126046,4.171174851019279,-0.35917526696552354,3.5111027636692493,0.5475150341960323,0.3996418989721368,0.09264400000000006,-0.21393199999999998,-0.9788940000000002,-0.05838999999999994,0.185305,-0.7170250000000001,0.151034,0.399237,0.261869,0.5,0.0060346184693875204,flight,-0.7170250000000001
150,1.25,step_decsent,0.14364574582983494,-0.38005520220808886,-0.9227169086763624,0.5130760928759954,0.37949248251078405,0.2744100497215366,-0.16188647545902518,0.3420136805472273,-1.1087243489739704,0.1990879635185385,-0.024360974438977997,0.24060962438498174,7.662562020779285,8.576584169166338,-8.235357735531963,-2.983011854319386,2.2224361066679212,-6.294113886213656,4.250696852402262,-0.11554617655467127,-0.6445094430925306,0.09009800000000001,-0.207915,-0.9804440000000001,-0.05792799999999998,0.188269,-0.707331,0.148026,0.396184,0.27311300000000005,0.5,0.0,flight,-0.707331
151,1.258333,step_decsent,0.11652466098644715,-0.4221768870754894,-1.0224408976359247,0.1926754590141964,-0.6543915144199351,-0.02316492569513339,-0.17460698427937085,0.3428537141485689,-1.125405016200658,0.3289331573262953,-0.0978039121564867,0.1772470898835977,-3.2546603676212698,-5.054804376263161,-11.96735736944237,-1.5265221193262677,0.10080806448357292,-2.001760137608021,15.582046538792511,-8.813505066303778,-7.603808292497854,0.08767199999999997,-0.20153999999999997,-0.981302,-0.05615800000000004,0.190972,-0.6973339999999999,0.14383,0.39251199999999997,0.2839680000000001,0.5,0.0,flight,-0.6973339999999999
152,1.266667,step_decsent,0.14722822174225686,-0.3990880729541601,-0.9767218622510168,0.6811713582894864,0.8603759572742934,0.3487306786288498,-0.22126229901608516,0.37784977201823056,-1.1796256299495957,0.22678185745139584,-0.030597552195824728,0.19618430525557776,3.68413256009233,2.77043605967472,5.485845378558628,-5.598189913212617,4.199191009078639,-6.5059531736186,-12.257175410954964,8.064118065834109,2.2722840619126377,0.08460099999999993,-0.19506500000000002,-0.9829929999999999,-0.05549500000000007,0.194043,-0.6875589999999999,0.140096,0.389108,0.295434,0.5,0.0,flight,-0.6875589999999999
153,1.275,step_decsent,0.15000600024000776,-0.42169686787471755,-1.065882635305402,0.3830956687536347,-0.5321534119542026,0.10371188843999274,-0.26581063242529546,0.4363374534981473,-1.1930877235089503,0.25141005640226666,0.014640585623425557,0.18732749309972319,0.3333467536002556,-2.7131639170236,-10.699720755356548,-5.346013849659271,7.01880252969126,-1.6155158477564735,2.9555020941882924,5.428793690057686,-1.0628599731014823,0.08113599999999999,-0.187915,-0.9840530000000001,-0.054649999999999976,0.197679,-0.677116,0.13578599999999996,0.385594,0.306937,0.5,0.0,flight,-0.677116
154,1.283333,step_decsent,0.15024600984039468,-0.43045721828872485,-1.110764430577222,0.36539649794543855,0.11059843043119814,-0.09596622014861586,-0.2769710788431461,0.5259810392415569,-1.2300492019680567,0.20160806432257114,0.019560782431296487,0.16788671546861383,0.028802304138595452,-1.0512841010448994,-5.386030873853248,-1.3393071424277496,10.757660595632794,-4.435554837286176,-5.976478108687705,0.5904472348338946,-2.3329866351984894,0.07757599999999998,-0.17994500000000002,-0.9850469999999999,-0.05422199999999999,0.201429,-0.666461,0.13179799999999997,0.381374,0.3185859999999999,0.5,0.06152288467147199,flight,-0.666461
155,1.291667,step_decsent,0.14362850971922564,-0.3992080633549388,-1.0887928965682985,0.6142560145396476,0.02695171316110981,0.05667004910421939,-0.2853371730261623,0.607631389488854,-1.221742260619175,0.1381089512839015,0.01499880009599262,0.17998560115191142,-0.7940364916209709,3.7495986241644643,2.6363731712171714,-1.003850993882453,9.797258249015911,0.9967532216080892,-7.619284021918749,-0.5473940887093777,1.4517501419843795,0.07400099999999998,-0.171554,-0.9861549999999999,-0.05426799999999998,0.20488099999999998,-0.6558869999999999,0.12826899999999997,0.376435,0.330268,0.5,0.12106192586286618,flight,-0.6558869999999999
156,1.3,step_decsent,0.13596543861753507,-0.41677667106683586,-1.1015240609623984,0.6993358375026666,-0.7345099000170029,0.08470869643386886,-0.12204488179527516,0.5511820472818832,-1.2726509060362188,0.13908556342252368,0.010200408016320684,0.18192727709108253,-0.9196053164155085,-2.1083172581179346,-1.5278008393255387,19.595858782057395,-6.77419203251767,-6.109281821317998,0.11719814456044256,-0.5758300827639328,0.23301043311785333,0.071851,-0.163488,-0.987581,-0.05424200000000001,0.20843899999999999,-0.6451920000000001,0.126093,0.371927,0.34238899999999994,0.5,0.11795005988877799,flight,-0.6451920000000001
157,1.308333,step_decsent,0.15168606744270424,-0.39289571582863664,-1.1268450738029636,0.8441498326440668,-0.5194697250942044,-0.0305305142779174,-0.28633145325813286,0.4311772470898891,-0.8107524300972111,0.18108724348973915,0.009120364814592628,0.21036841473659193,1.8865509210571598,2.865829261754403,-3.038643086591316,-19.71517718263041,-14.401152069122196,55.43003431405399,5.04040322419487,-0.12961036862211273,3.4130730403827747,0.06820099999999996,-0.15662099999999998,-0.9849470000000001,-0.05399700000000007,0.211789,-0.6340490000000001,0.12219800000000003,0.36840999999999996,0.35089800000000004,0.5,0.03712660499918169,flight,-0.6340490000000001
158,1.316667,step_decsent,0.14254859611230594,-0.42608591312694644,-1.1829853611711048,0.728110543611098,-0.9269803448709394,-0.06839782283173024,-0.4601631869450315,0.29085673146147867,-0.48428125749939693,0.21094312455003886,-0.03671706263498901,0.1798656107511419,-1.0964088469400324,-3.982505075391114,-6.7362955805304425,-20.858139391276374,-16.837114906216623,39.173406839190264,3.5824191337052413,-5.500051289846566,-3.660043674759994,0.06317800000000007,-0.150646,-0.979124,-0.053427,0.215034,-0.622691,0.11660500000000007,0.36568,0.356433,0.5,0.033938540013956076,flight,-0.622691
159,1.325,step_decsent,0.13800552022080823,-0.37945517820713154,-1.159726389055587,0.3409825500055186,-0.7717381233017693,-0.149476507358847,-0.48433937357495216,0.37453498139925756,-0.4509780391215687,0.24000960038401778,-0.049801992079683485,0.19980799231969126,-0.5451909146163156,5.5959120268589135,2.7911883013942247,-2.901258445928343,10.041791664200128,3.9965460671821122,3.488116624742492,-1.5702543435370933,2.393181515486564,0.057992000000000044,-0.14436300000000002,-0.9732179999999999,-0.052576999999999985,0.217781,-0.611362,0.11056900000000003,0.362144,0.36185599999999996,0.5,0.0,flight,-0.611362
160,1.333333,step_decsent,0.11508460338413853,-0.41689667586702794,-1.2029281171246413,0.7692191479839835,0.8090876274276649,0.07602583387245455,-0.6893075723028766,0.508580343213722,-0.32737309492379135,0.2658106324252884,-0.04332173286931404,0.19008760350414042,-2.750620045202123,-4.493159445565313,-5.184414744876235,-24.59716773405987,16.086086861209903,14.83318663119827,3.0962476948602156,0.7776622117327893,-1.166493317598785,0.05128900000000003,-0.136651,-0.9659220000000001,-0.05132100000000006,0.220894,-0.5997540000000001,0.10261000000000009,0.357545,0.36616799999999994,0.5,0.0,flight,-0.5997540000000001
161,1.341667,step_decsent,0.12586993040556593,-0.35829133669307,-1.1735061195104761,0.2739597915687146,-1.3106414804063184,-0.16714925381930337,-0.5230381569474544,0.4190064794816489,-0.3376529877609852,0.28953683705304106,-0.046556275497960986,0.17146628269738243,1.2941357117143752,7.032078134624316,3.5303572851170815,19.950733783948337,-10.748003807544379,-1.2334884613863717,2.846916801986214,-0.388114066312336,-2.2343797464312867,0.04588100000000006,-0.130173,-0.9589559999999999,-0.04995700000000003,0.223492,-0.588545,0.09583800000000009,0.353665,0.37041099999999993,0.5,0.0,flight,-0.588545
162,1.35,step_decsent,0.15252610104404174,-0.38773550942037144,-1.2582503300131744,0.16654986833526902,-1.721810056513639,-0.6650466081062579,-0.39217568702748007,0.26101044041761,-0.2875315012600456,0.2851314052562106,-0.03972158886355402,0.15300612024481025,3.198868431354295,-3.533442064958708,-10.169712048805572,15.704124555378856,-18.960283099008294,6.014818972871557,-0.5286729625381463,0.8201952039369788,-2.2153081066328877,0.04134199999999999,-0.12476700000000002,-0.950867,-0.048852000000000007,0.226392,-0.576785,0.090194,0.351159,0.374082,0.5,0.0,flight,-0.576785
163,1.358333,step_decsent,0.1189247569902764,-0.3426137045481846,-1.1706468258730407,0.375423298611288,-0.4561905257062445,-0.2649057438364858,-0.21732869314772874,-0.00972038881555244,-0.38041521660866773,0.3054122164886647,-0.021960878435137502,0.13284531381255002,-4.032322579355053,5.414833177989586,10.512841010456563,20.98247856471294,-32.48899906794251,-11.146491701502816,2.4337946996824975,2.131370506230251,-2.4193935476131543,0.03854000000000002,-0.12199300000000002,-0.9442820000000001,-0.04729799999999995,0.229064,-0.5659230000000001,0.08583799999999997,0.351057,0.378359,0.5,0.0,flight,-0.5659230000000001
164,1.366667,step_decsent,0.0992320614350871,-0.34221262299015737,-1.1431485481161496,0.6617296680602598,-0.002324015940301232,-0.1905372139444237,-0.1525077993760514,-0.053035757139428194,-0.38624910007199126,0.283897288216938,-0.011759059275257994,0.12443004559635255,-2.3629344318681476,0.04812593688831987,3.2995293684774243,7.7778850217994755,-5.197428404592683,-0.7000100147976345,-2.5815848658179172,1.2241203695559673,-1.0097514058312218,0.036441999999999974,-0.11958300000000002,-0.937974,-0.045758999999999994,0.231818,-0.5553589999999999,0.08220099999999997,0.351401,0.38261500000000004,0.5,0.0,flight,-0.5553589999999999
165,1.375,step_decsent,0.06948277931117262,-0.27289091563662776,-1.0094803792151748,0.30385768242143546,0.28563866075435035,-0.14690539211122666,-0.09732389295571986,-0.021600864034563197,-0.32773310932437605,0.26569062762511336,0.008160326413056848,0.12900516020640856,-3.5700566571360555,8.318937639929226,16.040821900993173,6.6223336637863985,3.7723380661064785,7.022199777704998,-2.1848866664856352,2.3904218994737816,0.5490357146353118,0.03505199999999997,-0.11748900000000004,-0.932293,-0.04412399999999994,0.23415999999999998,-0.545872,0.07917599999999991,0.35164900000000004,0.386421,0.5,0.0075558917927971425,flight,-0.545872
166,1.383333,step_decsent,0.06132245289812119,-0.26569062762511003,-0.9194767790711782,0.2191050036719303,0.6942798337194084,-0.5547876383974327,-0.10632425297011286,-0.05832233289331464,-0.15168606744269883,0.17136685467418672,0.006120244809792323,0.12840513620545124,-0.9792783406998092,0.8640691241471015,10.800864051841758,-1.0800864051833772,-4.40675253315154,21.126490085404875,-11.319305526332354,-0.24481958517515226,-0.07200576034529313,0.03365499999999999,-0.115761,-0.9258949999999999,-0.043206999999999995,0.236425,-0.53714,0.07686199999999999,0.352186,0.38875499999999996,0.6763274788548611,0.142959949019892,single,-0.53714
167,1.391667,step_decsent,0.02747780177584857,-0.2267818574514025,-0.8230141588672781,-0.09944664220911387,0.3909585467387178,-0.8762734124998552,-0.08219342452604289,-0.0197984161267062,-0.11423086153107681,0.24238060955123666,-0.009959203263738794,0.12443004559635255,-4.061033252012522,4.668678926530745,11.574588457391329,2.895467775866305,4.6225002119760195,4.494265168181154,8.520968907733309,-1.929379418470242,-0.47697271527461704,0.03274100000000002,-0.11403599999999997,-0.919988,-0.0414159999999999,0.238232,-0.529244,0.07415699999999992,0.35226799999999997,0.390744,0.7631431160983461,0.045606686940378005,single,-0.529244
168,1.4,step_decsent,-0.011760470418808637,-0.17616704668186853,-0.6555862234489435,-0.7974576174474571,-0.3643013651976241,-1.190034427036286,-0.07764310572422406,-0.03444137765511099,-0.25441017640705865,0.3355334213368457,-0.012120484819392935,0.12360494419776609,-4.7087810145994915,6.074020253154258,20.092155936437802,0.5460600986222096,-1.757225672435488,-16.822190672744885,11.178784565655814,-0.259364161244949,-0.09901612847551562,0.032192,-0.11285500000000001,-0.916645,-0.038522000000000056,0.239599,-0.522751,0.07071400000000005,0.35245400000000005,0.3938940000000001,0.5529752734257691,0.0,single,-0.522751
169,1.408333,step_decsent,-0.001800072002878553,-0.19788791551661525,-0.6331453258130284,-0.6147393539448045,0.15315273117732311,-1.1390166499276255,-0.058082323292935494,-0.02028081123244591,-0.12672506900275765,0.22848913956558065,-0.039481579263169767,0.1345253810152429,1.1952956217364588,-2.6066085245105413,2.693015436927237,2.3473877872660776,1.6993359441575462,15.322825801547914,-12.84582764565741,-3.2834626717600326,1.3105048382907247,0.031722999999999946,-0.111375,-0.9124249999999999,-0.03660300000000005,0.240919,-0.516354,0.068326,0.352294,0.39607099999999995,0.7652181231138566,0.05321158332858611,single,-0.516354
170,1.416667,step_decsent,0.0343172546196321,-0.19546436285097796,-0.5904727621790313,-0.7410437235781588,-0.03564161079059751,-1.414309237415493,-0.03755699544036641,0.010559155267576033,-0.0709143268538532,0.22918166546676308,-0.06503479721622403,0.12467002639788534,4.333732496101673,0.29080305563202985,5.120298012238767,2.462842314923143,3.700499940007503,6.696753317603253,0.08309646042505961,-3.066140863097522,-1.1825479502469087,0.03112399999999993,-0.109658,-0.908095,-0.03497900000000009,0.242006,-0.510394,0.06610300000000002,0.35166400000000003,0.39770099999999997,0.8651043055253471,0.05186690928697152,single,-0.510394
171,1.425,step_decsent,0.05724228969158062,-0.25957038281530787,-0.5869434777390967,0.06467505909494313,1.0443702295605477,-0.9638401645193307,-0.020880835233409868,0.03672146885875712,-0.0718828753150112,0.08064322572902846,-0.08028321132845166,0.1051242049682021,2.7511142532039026,-7.693030116924131,0.4235310740351072,2.0012192736056944,3.1396032150702786,-0.11623046455754031,-17.825325781559105,-1.8298828887828351,-2.345592395257758,0.030472999999999972,-0.10718899999999998,-0.903803,-0.03478400000000004,0.24350000000000002,-0.5046269999999999,0.06525700000000001,0.350689,0.3991760000000001,0.8610393409115878,0.2418020658735045,single,-0.5046269999999999
172,1.433333,step_decsent,0.02052082083283737,-0.22740909636385423,-0.4707788311532516,-0.04437707160076629,0.1801479564635016,-0.9544022536506264,-0.01656066242649379,0.04188167526700965,-0.056882275291012425,0.10584423376935767,-0.1430457218288743,0.13728549141965546,-4.406752533150557,3.8595087545246525,13.94031520290966,0.5184414744889139,0.6192495389718681,1.8001440086402145,3.0242419345169136,-7.53180253215207,3.859508754524619,0.03016399999999997,-0.10494500000000001,-0.900354,-0.03407300000000002,0.244203,-0.49956,0.06423699999999999,0.349148,0.400794,0.8790784976218726,0.12541731920671445,single,-0.49956
173,1.441667,step_decsent,0.060715142788577224,-0.2501799856011504,-0.4496040316774691,-0.3577531249611017,-0.3465019338254928,-0.8484942821541093,0.04259659227261717,0.04727621790256809,0.088792896568274,0.14854811615070218,-0.17638588912886866,0.08903287736981219,4.8229328000647405,-2.7322881254254856,2.540772675279857,7.098302699677286,0.647293332800384,17.479622253333968,5.124055961284399,-4.000500035996414,-5.789850497941313,0.030012999999999956,-0.102466,-0.895867,-0.033341000000000065,0.24481799999999998,-0.49507099999999993,0.06335400000000002,0.347284,0.40079600000000004,0.8179309583534397,0.08800829987981257,single,-0.49507099999999993
174,1.45,step_decsent,0.08004320172806663,-0.23436937477499437,-0.3657746309852355,-0.22819198394283915,-0.5442985146626841,-0.7057487854047029,0.15144605784231333,0.14028561142445534,-0.16716668666746845,0.060962438497548135,-0.208328333133327,0.1428057122284867,2.319459851132795,1.8973491931064659,10.059930480287337,13.062458366698326,11.161573685573995,-30.716378643435107,-10.51070174644844,-3.8332466103994514,6.4529983029731195,0.03060799999999997,-0.09934400000000002,-0.894212,-0.033499999999999974,0.245035,-0.490833,0.06410799999999994,0.34437900000000005,0.403379,0.5572790497010743,0.06695334887321908,single,-0.490833
175,1.458333,step_decsent,0.061562462498497145,-0.2568102724108923,-0.26749069962798483,0.16761339270810965,-0.5958843525327553,-0.3779226043571067,-0.07020280811231687,-0.05436217448697627,0.052082083283330464,0.03900156006240418,-0.20952838113524186,0.12972518900755786,-2.217777418645045,-2.6930154369251853,11.794543544611658,-26.59892787167002,-23.35866865611763,26.31090483028862,-2.635410828650375,-0.14401152069060905,-1.5697255755344548,0.029510000000000036,-0.097657,-0.8915489999999999,-0.03368799999999994,0.245429,-0.487523,0.06319799999999998,0.343086,0.40402599999999994,0.8284367327506409,0.08416119291677754,single,-0.487523
176,1.466667,step_decsent,0.049916006719460025,-0.3311735061195149,-0.2325413966882688,0.3908371336430913,0.10343044069255881,-0.14365617653642815,0.034197264218860705,0.07799376049915963,-0.04139668826493936,0.03827693784496811,-0.2060235181185544,0.13042956563475225,-1.3974628964527647,-8.922874215097671,4.193580866296701,12.52700651922001,15.88144168300197,-11.216555261371683,-0.08694771027550721,0.4205499180090617,0.08451843378862488,0.029379000000000044,-0.09424700000000003,-0.889956,-0.033784999999999954,0.246472,-0.484498,0.063164,0.340719,0.405458,0.842183603899276,0.08862464564854045,single,-0.484498
177,1.475,step_decsent,0.09492379695188807,-0.2710908436337419,-0.14040561622464706,-0.2661427707497113,-0.16465102463546627,-0.11579164300732071,0.08268330733229792,0.08832353294131784,-0.19380775231008923,0.01896075843033586,-0.2142085683427302,0.13296531861274194,5.401150873926229,7.210207906608897,11.056735925071417,5.818557915929001,1.239622277950082,-18.290059287789177,-2.318034251125875,-0.9822453167137459,0.304302529459936,0.029276999999999997,-0.091252,-0.890401,-0.03441800000000006,0.246946,-0.48222,0.06369500000000006,0.338198,0.408181,0.61921491684893,0.07861143207023397,single,-0.48222
178,1.483333,step_decsent,0.09396375855034025,-0.30889235569422974,-0.13356534261369613,0.6150146907607071,0.7707356261974535,0.2977428089792159,0.035041401656061635,0.1356054242169723,-0.07140285611424502,0.0014400576023055455,-0.2113284531381273,0.14772590903636065,-0.11520921655440153,-4.536362901774651,0.8208656679408375,-5.717257371443265,5.674053915235197,14.689175110505861,-2.1025682020917404,0.3456276496583383,1.771341704502442,0.02878599999999998,-0.08754799999999999,-0.8898830000000001,-0.035189000000000026,0.247759,-0.4798760000000001,0.063975,0.33530699999999997,0.410007,0.7379827255039701,0.07025610639633179,single,-0.4798760000000001
179,1.491667,step_decsent,0.08171346292295734,-0.26205903527717483,-0.031197504199668345,0.22298257553749945,0.9000802527811902,0.10122764512473452,0.012119030477563832,0.03971682265418379,-0.03635709143268525,0.005639548836095379,-0.20794336453083576,0.17086633069354756,-1.4699178818553904,5.619548886135655,12.283157957046676,-2.7504645042593747,-11.505711730596087,4.205155349359191,0.5038986361638831,0.4061781386238907,2.776628468584921,0.028206000000000064,-0.08503300000000003,-0.889926,-0.03582299999999994,0.24821,-0.478192,0.064029,0.333243,0.411734,0.9080136634707716,0.05133670652532424,single,-0.478192
180,1.5,step_decsent,0.11520460818433706,-0.2348493939757629,0.04896195847833525,0.5294292742686272,0.5463711988098146,0.25211655858665366,-0.013320532821322966,0.011880475219010759,0.1000840033601355,-0.04272170886835788,-0.19500780031201442,0.1796471858874336,4.019098195293416,3.265287567672168,9.619520302172607,-3.0528697106548695,-3.3404953120332754,16.373586318591382,-5.803583067857159,1.552329799450552,1.053744773057258,0.02713499999999991,-0.082977,-0.8895,-0.03713900000000003,0.248542,-0.477103,0.06427399999999994,0.331519,0.41239699999999996,0.8305614662852543,0.05239433901517809,single,-0.477103
181,1.508333,step_decsent,0.10452418096723426,-0.24948997959918595,0.019920796831873394,0.4145270108879451,0.05011786137785294,-0.08017182494676174,0.027841113644547232,0.029761190447614633,-0.0144005760230413,-0.03660146405856264,-0.20352814112564685,0.13908556342254072,-1.2817025341537138,-1.756940552432879,-3.485078800727484,4.939595159710858,2.145771658298816,-13.7386990739443,0.7344587555256568,-1.0224817969077769,-4.867589399363166,0.026495999999999964,-0.08065000000000003,-0.889786,-0.03831499999999999,0.248925,-0.47611,0.06481099999999995,0.329575,0.413676,0.9279615716821306,0.08464150238800716,single,-0.47611
