frame_id,timestamp,gait_type,root_linear_velocity_x,root_linear_velocity_y,root_linear_velocity_z,root_angular_velocity_x,root_angular_velocity_y,root_angular_velocity_z,left_linear_velocity_x,left_linear_velocity_y,left_linear_velocity_z,right_linear_velocity_x,right_linear_velocity_y,right_linear_velocity_z,root_acceleration_x,root_acceleration_y,root_acceleration_z,left_acceleration_x,left_acceleration_y,left_acceleration_z,right_acceleration_x,right_acceleration_y,right_acceleration_z,left_pos_rel_x,left_pos_rel_y,left_pos_rel_z,right_pos_rel_x,right_pos_rel_y,right_pos_rel_z,step_length,step_width,step_height,left_contact_prob,right_contact_prob,support_type,max_foot_height
1,0.008333,stand,0.009960398415916621,0.19656786271450866,-0.03672146885877109,-0.19275360033952746,0.36582008256843407,0.2500882619151348,-0.166206648265927,0.39397575903036114,-0.18396735869434855,-0.0014400576022922092,-0.044641785671426536,-0.04896195847834147,0.0,0.0,0.0,0.0,0.0,0.0,0.0,0.0,0.0,0.1138380000000001,0.157173,-0.8946649999999999,-0.08489799999999992,0.05218900000000001,-0.9096299999999999,0.19873600000000002,0.104984,0.014965000000000006,0.35034999999999994,0.8895434201463668,single,-0.8946649999999999
2,0.016667,stand,-0.007319414446828259,0.19882409407247653,-0.010199184065261664,-0.22173652495629706,0.4517538232895861,0.3424935138515046,-0.12491000719943239,0.308375329973602,-0.28641708663306603,-0.009359251259901906,-0.009719222462202751,-0.0011999040076805855,-2.0734116705957377,0.27072610486775556,3.182419581654598,4.955200511938396,-10.27122978842802,-12.292983913932982,-0.9502272207355047,4.190372355318428,5.73098805743471,0.1128579999999999,0.158086,-0.8969670000000001,-0.08491500000000007,0.050450999999999996,-0.9095550000000001,0.19777299999999998,0.107635,0.012588000000000044,0.37411999999999956,0.9774230550829557,single,-0.8969670000000001
3,0.025,stand,0.08496339853593314,0.19428777151085821,-0.06648265930636546,0.659997779308683,1.450697508824859,0.22423677955445334,-0.10824432977318593,0.2578903156126247,-0.30013200528021494,-0.005640225609013348,-0.010680427217089372,-0.00204008160326284,11.074380533152695,-0.5443804826135026,-6.754287200420472,1.999961289601159,-6.058444061079719,-1.6458560719007453,0.44630093014383276,-0.1153491845537766,-0.10082534448364987,0.11124800000000001,0.158616,-0.8989140000000001,-0.08566999999999991,0.04874300000000001,-0.9090180000000001,0.19691799999999993,0.109873,0.010104000000000002,0.39896,0.9795844827937121,single,-0.8989140000000001
4,0.033333,stand,0.00816032641305136,0.2211688467538715,-0.045121804872213366,-0.3564908834341104,0.44712296694918696,0.25146065349192775,-0.08664346573864291,0.15996639865594633,-0.2773310932437306,-0.005040201608076025,-0.005640225609025005,0.0,-9.216737324238784,3.225858063484133,2.5634050683009835,2.59220737244006,-11.751340088404941,2.736218893133844,0.07200576034289252,0.6048483869032001,0.24481958517494778,0.11045799999999995,0.158106,-0.900849,-0.08577999999999997,0.04685299999999999,-0.908642,0.1962379999999999,0.111253,0.007792999999999939,0.42207000000000006,0.9873931481184555,single,-0.900849
5,0.041667,stand,0.018598512119045743,0.23566114710823052,-0.045356371490279504,-0.20734009173769388,0.25737500798043683,0.11282051402912509,-0.09263258939284795,0.08951283897288217,-0.20266378689704773,-0.0056395488360821,-0.00575953923686015,-0.004799616030715681,1.2524820861524337,1.7389369275688775,-0.028145742508535933,-0.718637347516803,-8.453750861898746,8.959360012800921,-0.07191591408760199,-0.014316490021015638,-0.5759078510577971,0.10953099999999982,0.156888,-0.90216,-0.085982,0.044841000000000006,-0.908304,0.19551299999999983,0.11204700000000001,0.006144000000000038,0.5383310534440561,0.9843641155832534,double,-0.90216
6,0.05,stand,0.03792151686067238,0.22044881795271873,-0.04392175687025878,-0.15047988879657095,0.3809837987968478,0.20691138945720797,-0.0729629185167337,0.040441617664706234,-0.16608664346573818,-0.006120244809795182,-0.006120244809791851,-0.00816032641305802,2.318853323128122,-1.8255525207622458,0.17216064082811988,2.3604549233306433,-5.888782108265444,4.389432789068708,-0.05768582427854099,-0.043286400207812485,-0.4033013779361982,0.1086069999999999,0.155388,-0.903178,-0.08634900000000001,0.042953000000000005,-0.9080060000000001,0.1949559999999999,0.112435,0.0048280000000000545,0.6419535778923585,0.980173970516343,double,-0.903178
7,0.058333,stand,0.03000120004798529,0.23100924036961598,-0.03036121444858499,-0.46470548666304506,0.31515729935405,0.16079173451712064,-0.024600984039362863,-0.02028081123244918,-0.1460458418336695,-0.0030001200048198466,-0.0019200768030723776,-0.0006000240009573077,-0.9504760365639136,1.2673013820829537,1.6273301838082073,5.803664283855854,-7.286982946976528,2.4049923955440624,0.374429953795192,0.5040403224192336,0.9072725803552998,0.10815200000000003,0.15329399999999999,-0.904142,-0.08662400000000003,0.04101199999999999,-0.9077580000000001,0.19477600000000006,0.11228199999999999,0.0036160000000000636,0.7146975394318853,0.993979792414353,double,-0.904142
8,0.066667,stand,0.014158867290624247,0.19954403647708155,0.005999520038382945,0.002395516725306636,0.22684314831160862,0.25356722747083277,0.03695704343652207,-0.061435085193184365,-0.06683465322774533,0.00755939524839768,-0.00983921286297081,0.0009599232061444684,-1.9009278566547925,-3.7755224253101067,4.3629391033078875,7.386372387315205,-4.938117825862152,9.50458226612961,1.2670404671487312,-0.9502203095630467,0.18717869055696856,0.10834199999999994,0.151119,-0.9047489999999999,-0.08667899999999995,0.039266999999999996,-0.9077999999999999,0.1950209999999999,0.111852,0.003051000000000026,0.806131467723295,0.979258467668438,double,-0.9047489999999999
9,0.075,stand,0.016320652826102733,0.2024480979239164,0.011760470418835186,-0.19866194704171616,0.22301867047418797,0.26730777974467507,0.02076083043321479,-0.09552382095283837,-0.08892355694227676,0.001560062402500992,-0.004200168006721142,-0.0034801392055683754,0.2594246412430682,0.3485013136727304,0.6913416993222423,-1.9436233053290883,-4.09081192363543,-2.6507744767228423,-0.7199487394571814,0.6767124512480106,-0.5328288025576441,0.108379,0.148636,-0.9055880000000001,-0.08680199999999982,0.037544999999999995,-0.907927,0.19518099999999983,0.111091,0.00233899999999998,0.7563625922149458,0.9905444644557164,double,-0.9055880000000001
10,0.083333,stand,0.028441137645510924,0.20628825153006083,-0.023520940837643684,-0.2245409343635467,0.1464262203514682,0.2830172834269624,0.015720628825165384,-0.0823232929317171,-0.06204248169926668,0.0007200288011461039,-0.002520100804031349,0.005520220808831208,1.454516358983341,0.4608368662119791,-4.233938708325794,-0.6048483869014044,1.5841267276036557,3.2258580634837455,-0.1008080644851659,0.20161612896793368,1.0800864051841563,0.10827300000000006,0.146231,-0.905909,-0.08703299999999992,0.035805000000000003,-0.907685,0.19530599999999998,0.110426,0.0017759999999999998,0.8084462823569933,0.9898152909664629,double,-0.905909
11,0.091667,stand,0.031437485001198064,0.24118070554355645,-0.09323254139669165,-0.9873980460663097,-0.8593699739189798,0.41074889694624056,0.016798656107514888,-0.05279577633789294,-0.042356611471081405,0.0016798656107461602,-0.0038396928245745462,0.006959443244540741,0.35953292004885307,4.186759540856207,-8.364722889254622,0.1293529256478887,3.54301854977492,2.3621154581455834,0.11517120345573038,-0.1583383753951522,0.17269287685499568,0.10815100000000011,0.143781,-0.9054849999999999,-0.08728099999999994,0.033763,-0.9068499999999999,0.19543200000000005,0.110018,0.0013650000000000606,0.8701166214815651,0.9864600344933928,double,-0.9054849999999999
12,0.1,stand,0.02868114724590184,0.20928837153486068,-0.02412096483858101,-0.1548359715512529,0.00501462218816956,0.19170073484273206,0.01368054722188256,-0.031441257650306205,-0.026401056042241425,0.0016800672026831248,-0.0021600864034566312,0.005760230409215463,-0.33077376158600985,-3.827233170370303,8.293720935810704,-0.37418803379723087,2.562644748300338,1.9147432411904437,2.419200011574773e-05,0.20156083296746832,-0.14391129669090091,0.10802599999999996,0.141775,-0.9055040000000001,-0.08750600000000008,0.032001,-0.906601,0.19553200000000004,0.10977400000000001,0.0010969999999999036,0.9169049963399062,0.98937131064796,double,-0.9055040000000001
13,0.108333,stand,0.052562102484092016,0.20220808832353382,0.0002400096003909172,-0.2303365521180536,-0.07905065566547008,0.44271820908214515,0.0025201008040380145,-0.009600384015360647,-0.028801152046084025,0.0033601344053929014,0.0013200528021134058,0.007920316812673772,2.8658292617532934,-0.8496679720781076,2.9234338700314346,-1.3393071424270437,2.6210096765805324,-0.28802304138276763,0.20161612897033218,0.417633410004805,0.25922073724448713,0.10760900000000007,0.14001,-0.9057460000000002,-0.08791599999999988,0.030327000000000007,-0.9065370000000001,0.19552499999999995,0.10968299999999999,0.0007909999999999862,0.9413175052457164,0.9854928694701349,double,-0.9057460000000002
14,0.116667,stand,0.05915526757860286,0.2096232301415883,0.005759539236840162,-0.06280731892648367,0.11660234775389097,0.3115390665780972,-0.027597792176620138,0.012838972882169349,-0.02747780177585541,0.0016798656107461574,0.004799616030717342,0.008279337652986041,0.7911165220195386,0.8897458384994558,0.6622905731280585,-3.613858049035052,2.6925074271094283,0.15878932928109113,-0.2016161260675237,0.4175141862975682,0.04307905451311122,0.10688600000000004,0.13837,-0.9060229999999999,-0.088395,0.028620000000000007,-0.9065159999999999,0.19528100000000004,0.10974999999999999,0.0004929999999999657,0.9267263636196909,0.983806234525747,double,-0.9060229999999999
15,0.125,step_decsent,0.07344293771751559,0.21108844353774128,0.022920916836679756,-0.2171163742018667,0.10598069773997662,0.38938490259777087,-0.037801512060490275,0.02628105124204976,-0.012360494419779171,0.00012000480018213538,0.009720388815552358,0.013680547221889246,1.7145890002295383,0.17583264084399297,2.0594476898883483,-1.2244953658790525,1.6131139277427602,1.8141494487070986,-0.18719078489907875,0.5905163548343958,0.6481710751113895,0.10595899999999991,0.13683,-0.906317,-0.08900600000000014,0.026942000000000008,-0.906593,0.19496500000000005,0.109888,0.00027599999999994296,0.9177899844285724,0.9720288972445608,double,-0.906317
16,0.133333,step_decsent,0.0639625585023274,0.21288851554062285,0.005760230409222125,-0.03937645790449265,-0.09500800659680189,0.32039924952046966,-0.04224168966757562,0.023400936037441564,-0.01332053282131617,-0.0008400336013282392,0.01152046081843259,0.01668066722668908,-1.1376910134631195,0.21601728103702966,-2.0593647458847495,-0.532842626555303,-0.34562764965896936,-0.11520921655310198,-0.11520921654990685,0.21601728103686918,0.36002880172804896,0.10507400000000011,0.13525099999999998,-0.9064760000000001,-0.0895459999999999,0.025263999999999995,-0.906502,0.19462000000000002,0.109987,2.599999999997049e-05,0.916250134546429,0.9661838576906129,double,-0.9064760000000001
17,0.141667,step_decsent,0.09023278137750032,0.2114230861531082,0.04067674586031533,0.06849259725002842,-0.018861398581434624,0.3952939263391967,-0.03827693784499412,0.0022798176145910364,-0.031317494600426724,0.0004799616030589138,0.010559155267579187,0.01883849292056859,3.152174571055073,-0.17583745950499796,4.189646682396603,0.47573216013697,-2.5343314642249313,-2.159462656480753,0.15838675358617185,-0.11534743830734412,0.2589183697959579,0.10400299999999985,0.133508,-0.9070759999999999,-0.0902940000000001,0.02359,-0.9066839999999998,0.19429699999999994,0.10991799999999999,0.00039200000000005897,0.917485573530828,0.9600778805167294,double,-0.9066839999999998
18,0.15,step_decsent,0.08220328813150414,0.1946477859114361,0.023880955238216737,-0.013021491601043215,-0.04730335550866749,0.43759944835619335,-0.006600264010550363,-0.022680907236289634,-0.027361094443778444,-0.0019200768030740415,0.006720268810752484,0.020520820832830505,-0.9635777326288459,-2.0131165536627957,-2.015575497671737,3.8013529142498177,-2.9954067983776134,0.4747870102782043,-0.28801612938112964,-0.46068480221129243,0.2018874249684285,0.1032630000000001,0.131697,-0.907503,-0.09099499999999994,0.022024000000000002,-0.906712,0.19425800000000004,0.10967299999999999,0.0007909999999999862,0.9397547482914973,0.9559593422165391,double,-0.906712
19,0.158333,step_decsent,0.08592343693749674,0.21552862114484467,0.04356174246971234,0.12761252328902492,-0.07826912996539045,0.34377528463220347,0.01020040801630753,-0.008280331213248476,-0.006240249609983973,-0.0010800432017191559,0.004800192007680107,0.020760830433214757,0.44643571414767735,2.5058004600274257,2.361788939337044,2.0161612896745327,1.7281382482948693,2.534602764165901,0.10080806448516559,-0.23041843310600924,0.028802304138275756,0.10263199999999983,0.129832,-0.907918,-0.09172000000000002,0.020268000000000008,-0.9069020000000001,0.19435199999999986,0.109564,0.0010159999999999059,0.9757585683009466,0.9542801749432164,double,-0.9069020000000001
20,0.166667,step_decsent,0.09095272378210172,0.2212622990160783,0.050515958723302654,-0.07776280917882285,-0.13302039628104384,0.2739439564547353,0.018358531317502952,-0.005879529637629036,-0.005039596832258455,-0.002879769618433403,0.003839692824572875,0.021238300935929693,0.6034661440610718,0.6879863056435839,0.8344391952952134,0.9788964844246958,0.28807314322287475,0.14406680798242338,-0.2159498940141883,-0.11525068191831433,0.05729187697563425,0.10202699999999987,0.127939,-0.9083810000000001,-0.09250200000000008,0.018456,-0.907146,0.19452899999999995,0.109483,0.0012350000000000971,0.9667918150514732,0.9513602041933635,double,-0.907146
21,0.175,step_decsent,0.09564382575302276,0.20532821312852614,0.03780151206046369,0.3062791577171946,-0.018310686245366366,0.4524569031542322,0.026401056042254834,-0.0037201488059522207,-0.003600144005757178,-0.001440057602318859,0.003480139205568381,0.018000720028799214,0.5629547547007143,-1.9121667931779907,-1.5257946313259323,0.9651415726331336,0.25913606524382826,0.17274124883010689,0.1727723528278588,-0.04314816020694764,-0.388525249865653,0.10145000000000004,0.126197,-0.9087259999999999,-0.09331100000000014,0.016773999999999997,-0.907311,0.19476100000000018,0.109423,0.001414999999999944,0.955160276039515,0.9551991410151479,double,-0.907311
22,0.183333,step_decsent,0.09828393135724259,0.22644905796231826,0.048601944077761715,0.09901023088899566,-0.1296955014701901,0.2668340752554196,0.021360854434178726,-0.0012000480019200269,-0.010560422416893905,-0.002760110404402281,0.0037201488059526245,0.018480739229567663,0.3168253455202002,2.534602764165619,1.2961036862232105,-0.6048483869046086,0.3024241934516011,-0.8352668200092068,-0.15841267275692075,0.028802304138274715,0.05760460827654485,0.10080900000000015,0.1243,-0.9092189999999999,-0.09415299999999993,0.014918,-0.907562,0.19496200000000008,0.10938200000000001,0.0016569999999999085,0.9602351097425156,0.9516759346848404,double,-0.907562
23,0.191667,step_decsent,0.07115430765539538,0.2031437485001198,0.03611711063116228,0.1353968417431496,0.01814695145788091,0.3917539973287089,0.022318214542838888,0.003839692824574124,-0.012239020878335302,-0.004799616030722338,0.003959683225342598,0.018598512119032407,-3.2552944206680086,-2.7964134223900223,-1.498060168778428,0.11487402311736988,0.6047205215375745,-0.20141570211679813,-0.24472109747060902,0.028741830980318392,0.014131616206472693,0.1004020000000001,0.122639,-0.909622,-0.09478600000000004,0.013258000000000006,-0.907708,0.19518800000000014,0.10938099999999999,0.0019140000000000823,0.9570970224606341,0.9481737788829219,double,-0.907708
24,0.2,step_decsent,0.1164046561862372,0.2164886595463817,0.044281771270858444,0.1919340409611834,-0.016677909040211193,0.36037907203174396,0.05220208808351888,-0.014640585623424995,-0.013440537621504968,-0.0026401056042201455,0.003360134405376242,0.02028081123244625,5.430259034062376,1.601453383686774,0.9797984687022866,3.5862082732125247,-2.217722122644798,-0.14418777669142746,0.2591516172449527,-0.0719487363454165,0.20188396896841967,0.09986700000000015,0.120713,-0.9101030000000001,-0.09577799999999992,0.011482000000000006,-0.9079080000000002,0.19564500000000007,0.109231,0.002194999999999947,0.9069042786633117,0.9435064700916789,double,-0.9079080000000002
25,0.208333,step_decsent,0.08712348493939832,0.20904836193447712,0.03036121444855842,0.21166143230924592,0.09344506003264437,0.3261837514007097,0.02448097923915414,0.006960278411136346,-0.007440297611898613,-0.003840153606148096,0.002520100804031357,0.01824072962919013,-3.513881104864869,-0.8928714282856817,-1.6705336400216078,-3.326666127968896,2.592207372442265,0.7200576034569027,-0.1440115206921821,-0.1008080644839658,-0.2448195851741417,0.09934500000000002,0.11902900000000001,-0.910418,-0.09653599999999996,0.009761000000000006,-0.9080089999999998,0.19588099999999997,0.109268,0.0024090000000001055,0.9558059252142059,0.9445597428157588,double,-0.9080089999999998
26,0.216667,step_decsent,0.13138948884090076,0.21334293256539477,0.025077993760514224,0.11206415912969371,0.08497967612057443,0.44009796456527694,0.02135829133669442,0.0007199424046075181,-0.010919126469883328,-0.0021598272138317128,0.0025197984161275623,0.018718502519797137,5.311495548536405,0.515307251130027,-0.6339357677038866,-0.37469257288933494,-0.7487804183499907,-0.4174260688726556,0.20162303723498698,-3.628364576371369e-05,0.05732816061999108,0.09842799999999996,0.117257,-0.910718,-0.0976490000000001,0.008004000000000011,-0.908062,0.19607700000000006,0.10925299999999999,0.0026559999999999917,0.9600026997871393,0.9417559445008141,double,-0.908062
27,0.225,step_decsent,0.07188287531501449,0.19992799711988474,0.04092163686546555,0.3110560403029098,0.14480071693236088,0.32021509660471587,0.004920196807867239,0.006720268810752484,-0.01332053282131617,-0.0033601344053662495,0.00012000480019046219,0.018000720028799155,-7.141079266276998,-1.609856647727112,1.9013132251231626,-1.9726502494692388,0.7200679714562536,-0.28818028938351625,-0.14404262468913184,-0.2879867533825871,-0.08613734441353431,0.0978699999999999,0.115647,-0.91117,-0.09827600000000003,0.006338999999999997,-0.908253,0.19614599999999993,0.109308,0.0029170000000000584,0.9738165157992528,0.9403099325611726,double,-0.908253
28,0.233333,step_decsent,0.12408496339853337,0.19632785311412423,0.015600624024956603,0.10542435177044265,0.23455888724928425,0.37740142832241064,-0.005760230409195478,0.006840273610944611,-0.012360494419772489,-0.0022800912036470937,-0.0022800912036470937,0.01476059042361504,6.264501150068263,-0.4320345620737429,-3.0386430865845346,-1.281702534148891,0.014401152069137982,0.11520921655390388,0.12961036862104344,-0.2880230413821617,-0.38883110586632824,0.0967880000000001,0.114068,-0.911403,-0.099329,0.004684000000000008,-0.90826,0.1961170000000001,0.109384,0.003143000000000007,0.9745730119459203,0.9433888418407066,double,-0.90826
29,0.241667,step_decsent,0.06839452843772027,0.19198464122870265,0.06287497000239622,0.20124554229010688,0.1745924366373294,0.3540164179002063,0.009839212862960843,0.0010799136069112808,-0.006239500839932399,-0.003479721622277037,-0.004919606431485417,0.014278857691389013,-6.682317609888796,-0.5211437347518111,5.672467719875178,1.8717834499827644,-0.6911879054515652,0.7344604727429931,-0.14394413470481715,-0.3167164900213978,-0.05780330360283511,0.09630000000000005,0.112477,-0.9119789999999999,-0.09992800000000002,0.003043000000000004,-0.9086649999999998,0.19622800000000007,0.109434,0.003314000000000039,0.9804987397919631,0.9410295288155318,double,-0.9086649999999998
30,0.25,step_decsent,0.11232449297972484,0.19524780991239674,-0.011880475218990655,0.011035037565937133,0.3025989672618231,0.4359050279045036,0.009240369614797156,-0.0030001200048002754,-0.009480379215174748,-0.004680187207476322,-0.010800432017281491,0.023280931237246106,5.271806617305236,0.391595905879525,-8.9710122670571,-0.07186406434221612,-0.4896236183501204,-0.3889209618675563,-0.14406163268922167,-0.7057272993875038,1.0802920371843376,0.09544100000000011,0.11082499999999999,-0.9119590000000001,-0.10090299999999996,0.0013259999999999939,-0.9083720000000001,0.19634400000000007,0.109499,0.003587000000000007,0.9773760978949753,0.9206509104111743,double,-0.9083720000000001
31,0.258333,step_decsent,0.08364334573382327,0.18552742109684336,0.017280691227639786,0.22497317014072377,0.27339626764544867,0.32823334441585506,0.010440417616698481,-0.001080043201727903,-0.009600384015356917,-0.0021600864034649653,-0.019920796831873262,0.010920436817473655,-3.4418753445219776,-1.1664933175991115,3.4994799527937737,0.14401152068898693,0.2304184331060095,-0.014401152067943002,0.30242419344910154,-1.0944875572533055,-1.4833186631192226,0.09483100000000011,0.10927,-0.912183,-0.10161799999999999,-0.00038599999999999746,-0.908425,0.1964490000000001,0.109656,0.003757999999999928,0.9762925125182531,0.924386386943344,double,-0.908425
32,0.266667,step_decsent,0.12203023758099887,0.1913846892248634,-0.019678425725948263,-0.04345685208942217,0.33013142211903507,0.333366006055994,0.004679625629937628,0.0007199424046075181,-0.011039116870648055,0.0002399808015427777,0.00383969282457454,0.025677945764337864,4.606058536978109,0.702815950086397,-4.434739255290139,-0.6912397392321631,0.21598099428070788,-0.17263413190438406,0.287985025798865,2.851030676319628,1.7707594128706738,0.09385299999999996,0.107681,-0.9121109999999999,-0.10263299999999997,-0.0019490000000000063,-0.9080469999999999,0.19648599999999994,0.10963,0.0040639999999999565,0.979980612564445,0.9160857540521289,double,-0.9080469999999999
33,0.275,step_decsent,0.11820472818912871,0.20436817472698776,0.007200288011540955,-0.13975345549474363,0.36397802234088217,0.14877120808931607,0.002880115204611053,-0.00024000960038383804,-0.015000600024005908,0.0032401296051841034,0.006240249609983953,0.01944077763110462,-0.45907949020402616,1.5580805834782556,3.225574671485552,-0.2159498890347495,-0.11519884855290437,-0.4753969942827116,0.36003225772726666,0.2880783373826236,-0.74849011559261,0.09289199999999997,0.105976,-0.9122960000000001,-0.10359099999999999,-0.003600000000000006,-0.9079450000000001,0.19648299999999996,0.109576,0.004350999999999994,0.9745392093777121,0.9220345944429876,double,-0.9079450000000001
34,0.283333,step_decsent,0.09588383535341367,0.1864874594983804,-0.012240489619590393,-0.07554636500477203,0.3038398724998945,0.18554444336528572,0.002880115204611072,-0.002040081603264094,-0.014280571222846577,0.003360134405366261,0.010440417616705142,0.017880715228610417,-2.678614284857205,-2.145771658299222,-2.3329866352011757,2.289926585352805e-15,-0.21601728103687276,0.08640691241561654,0.014401152067941647,0.5040403224194407,-0.18721497689838065,0.092117,0.104405,-0.912313,-0.10436200000000007,-0.005067000000000002,-0.907694,0.19647900000000007,0.109472,0.00461900000000004,0.9754829021683844,0.9188491965386,double,-0.907694
35,0.291667,step_decsent,0.13294936405088886,0.15454763618910441,-0.01763858891290126,0.16639060306553544,0.41118068082511144,0.4109817773638327,0.00227981761458978,-0.005399568034557219,-0.015718742500599004,0.00863930885530021,0.02003839692824578,0.027237820974325956,4.447507643085571,-3.832472199337166,-0.6477200975894964,-0.07202994840668242,-0.4031061232653133,-0.17256674799045185,0.6334502579714355,1.1516653841541429,1.122762868456387,0.09102799999999989,0.103072,-0.9122969999999999,-0.1053980000000001,-0.006187999999999999,-0.9073199999999999,0.196426,0.10926,0.004977000000000009,0.9720401195601556,0.8920618075562905,double,-0.9073199999999999
36,0.3,step_decsent,0.1044041761670381,0.15996639865594672,-0.0129605184207365,-0.05335921047761281,0.39775850020120745,0.21757164772676654,0.0018000720028919124,-0.006360254410176539,-0.017520700828037365,0.017400696027848567,0.0129605184207365,0.029881195247809893,-3.425559568444837,0.6502775071213635,0.5613909146963606,-0.057571776274795254,-0.11528697655338083,-0.21624364903856533,1.0514085170464875,-0.8493793960769587,0.31721760152213413,0.09017300000000006,0.101686,-0.9123349999999999,-0.10612299999999997,-0.007413000000000003,-0.906963,0.19629600000000003,0.109099,0.005371999999999932,0.9687897785224778,0.8847340575977409,double,-0.906963
37,0.308333,step_decsent,0.10392415696628222,0.15012600504020124,0.004200168006721121,-0.04701041480503978,0.28696619628803954,0.3317973102012951,0.006240249609977291,-0.0044401776071041265,-0.012000480019199396,0.01308052322091855,0.006840273610944588,0.0212408496339832,-0.05760460827503664,-1.18089446966824,2.059364745884741,0.5328426265553055,0.23041843310601273,0.6624529951803606,-0.5184414744905796,-0.7344587555252473,-1.036882948977158,0.08935899999999997,0.100398,-0.9124699999999999,-0.10688000000000009,-0.008607000000000004,-0.9068209999999999,0.19623900000000005,0.109005,0.005649000000000015,0.9762731157481261,0.9003995757650238,double,-0.9068209999999999
38,0.316667,step_decsent,0.1119510439164694,0.14926805855531583,-0.017398608111331957,0.08444590454661045,0.3404419368352133,0.25529795219793616,0.006599472042226607,-0.004919606431485433,-0.011759059275256485,0.005159587233023217,-0.0008399328053747496,0.0158387329013705,0.9631493820719008,-0.10294534255884483,-2.591645802502184,0.04310324361042938,-0.05752685677721496,0.028968171819404007,-0.9504362836447536,-0.9215510458746557,-0.6482021517413882,0.08848100000000003,0.099113,-0.9124230000000001,-0.10776999999999992,-0.009857999999999992,-0.906544,0.19625099999999995,0.108971,0.005879000000000079,0.9760770313926461,0.9134115044644857,double,-0.906544
39,0.325,step_decsent,0.11124444977800532,0.14124564982599214,-0.02772110884436473,-0.04491870092565796,0.22612871857740752,0.20415895360142172,0.005400216008649055,-0.005520220808832439,-0.013800552022077974,-0.002880115204611053,-0.007800312012481606,0.013560542421693718,-0.08479468840322518,-0.962727556621104,-1.2387496379494454,-0.14391648068853322,-0.07207660834597418,-0.2449889291757447,-0.9648028846314937,-0.8352789160094597,-0.2733937933129452,0.08759899999999998,0.09789,-0.912307,-0.10872100000000007,-0.011099999999999999,-0.9062,0.19632000000000005,0.10899,0.0061069999999999736,0.9736429217375201,0.9124185642151643,double,-0.9062
40,0.333333,step_decsent,0.09504380175205879,0.11592463698548072,0.01188047521901734,0.16182234872276005,0.46693918496985626,0.2948318113501824,0.0061202448097951966,-0.0070802832113284735,-0.0129605184207365,-0.0069602784111234385,-0.009840393615744503,0.013320532821316214,-1.9441555293347623,-3.0386430865848406,4.752380182813173,0.0864069124140338,-0.1872149768986006,0.10080806448355642,-0.48963917034830146,-0.24481958517495525,-0.028802304137466053,0.0868580000000001,0.09686499999999999,-0.912514,-0.10957099999999986,-0.012148000000000006,-0.906188,0.19642899999999996,0.109013,0.006326000000000054,0.9733561115711785,0.9067995305129913,double,-0.906188
41,0.341667,step_decsent,0.11507079433647147,0.13882889368850376,-0.012598992080636145,-0.019914137593402634,0.25663490125177496,0.2413491714273677,0.008879289656816343,-0.007079433645308371,-0.012119030477563911,-0.014038876889866169,-0.011759059275258072,0.01451883849291842,2.4030468663802087,2.7482909410874754,-2.937301091871066,0.3310588969307828,0.00010193976723087718,0.10097047554266714,-0.8493638683396597,-0.23022146142471406,0.14378517777804237,0.08597299999999986,0.09564900000000001,-0.91251,-0.11064700000000016,-0.013402999999999998,-0.905962,0.19662000000000002,0.10905200000000001,0.006547999999999998,0.9723197289841417,0.8955698106354875,double,-0.905962
42,0.35,step_decsent,0.10464418576742902,0.11028441137645571,0.003960158406330232,0.015298038974778615,0.2844184733422449,0.21782824858406627,0.008880355214224133,-0.005640225609024603,-0.0129605184207365,-0.014880595223810548,-0.016560662426497008,0.01764070562822616,-1.2512430780082164,-3.4254748964416324,1.9871775455377918,0.00012787200381493018,0.1727118728289658,-0.10098259248441029,-0.10101024048294506,-0.5762154267657444,0.3746390417986018,0.085175,0.094683,-0.912651,-0.11164300000000016,-0.01446,-0.905848,0.19681800000000016,0.109143,0.0068030000000000035,0.9721787505579645,0.884627214873242,double,-0.905848
43,0.358333,step_decsent,0.10980439217568647,0.10044401776071053,0.0006000240009639668,0.11177419799703942,0.3860615578360438,0.39934967580880676,0.0075603024120873595,-0.0075603024120961025,-0.019800792031684333,-0.01692067682706662,-0.01836073442937714,0.02544101764070432,0.6192495389724494,-1.1808944696682033,-0.4032322579342675,-0.15841267276332266,-0.23041843310590324,-0.8208656679404541,-0.24481958517413446,-0.21601728103685658,0.9360748844927547,0.08432299999999993,0.093783,-0.9128210000000001,-0.1126990000000001,-0.015450000000000005,-0.905641,0.19702200000000003,0.109233,0.007180000000000075,0.962494899968783,0.8687892066561886,double,-0.905641
44,0.366667,step_decsent,0.08111351091911426,0.11387089032877257,-0.018478521718261018,-0.002534918109078971,0.2979960547587832,0.09135161465285095,0.008759299256058275,-0.007799376049916306,-0.0167986561075082,-0.017038636909057638,-0.01499880009599232,0.02999760019198131,-3.4426303403614327,1.6110958205018024,-2.2892423469192424,0.14386811182756354,-0.02868654161509514,0.36022749270171966,-0.01415407751272118,0.4033998480183368,0.5467461664599214,0.08372000000000002,0.092769,-0.912807,-0.11351700000000009,-0.016523999999999997,-0.9052370000000001,0.1972370000000001,0.109293,0.007569999999999966,0.9658536468010486,0.8616028626979008,double,-0.9052370000000001
45,0.375,step_decsent,0.08640345613825222,0.10032401296051909,-0.018720748829958642,-0.031879416668494774,0.16799144690905066,0.22450677850867926,0.009360374414979321,-0.0056402256090241866,-0.014280571222853238,-0.0152406096243836,-0.00864034561382489,0.0364814592583736,0.634818819049319,-1.625690311802894,-0.029068416140360626,0.07213190434669957,0.25910841724374467,0.302182273449534,0.21577190503708643,0.76304505966248,0.7780942117355465,0.08307799999999999,0.091886,-0.9127700000000001,-0.11436400000000013,-0.017432000000000003,-0.9047769999999999,0.19744200000000012,0.109318,0.007993000000000139,0.9700294835361171,0.8526198409591368,double,-0.9047769999999999
46,0.383333,step_decsent,0.11064442577701544,0.09228369134765484,-0.004320172806903284,0.09431869413377664,0.3408119383536176,0.2580966091112473,0.005160206408258173,-0.0038401536061443485,-0.014040561622462321,-0.014520580823210848,-0.00588023520940761,0.043921756870272215,2.9090327179603124,-0.9648771886312575,1.728138248296579,-0.5040403224194359,0.21601728103682258,0.02880230413907566,0.0864069124172272,0.33122649758997785,0.8928714282849672,0.08219900000000013,0.091085,-0.9128510000000001,-0.11540699999999982,-0.018250000000000002,-0.9043750000000002,0.19760599999999995,0.109335,0.008475999999999928,0.9742602835761556,0.83751996897459,double,-0.9043750000000002
47,0.391667,step_decsent,0.08243340532758622,0.08099352051835786,-0.006719462443011273,-0.15983213873833954,0.25304928728749476,0.35006694867188426,0.011999040076792523,-0.00275977921766243,-0.01079913606911194,-0.012239020878335302,0.0037197024238064817,0.05531557475402499,-3.385051649799519,-1.3547121225458327,-0.2878917249949588,0.8205943926727074,0.1296345558533618,0.388939951205949,0.2737652921616924,1.1519003639565732,1.3671487741483996,0.08161200000000002,0.090387,-0.912885,-0.11619599999999997,-0.018893999999999994,-0.903858,0.19780799999999998,0.10928099999999999,0.009026999999999896,0.9727045646910458,0.8151043834813841,double,-0.903858
48,0.4,step_decsent,0.10344413776550039,0.0646825873034916,0.001440057602292203,0.1841406714310873,0.7606696234218692,0.2976904374695163,0.009480379215161394,-0.0033601344053762307,-0.008880355214210751,-0.01320052802112733,0.011280451218048299,0.057842313692545354,2.5213887480996133,-1.9573902813951976,0.979181572699321,-0.3022513934514722,-0.0720455043458296,0.23026291310466582,-0.1153854725539451,0.9073261483549485,0.30322080145450087,0.08082900000000004,0.08982000000000001,-0.912971,-0.11716799999999994,-0.019338999999999995,-0.9033879999999999,0.19799699999999998,0.109159,0.00958300000000012,0.9776375313169576,0.8035160856169605,double,-0.9033879999999999
49,0.408333,step_decsent,0.09528381135247635,0.0807632305292222,-0.008880355214197487,0.018377725088672633,0.5729708817148731,0.31294527734213157,0.015600624024956655,-0.0008400336013440632,-0.007560302412094071,-0.010560422416907264,0.016800672026881264,0.060842433697345606,-0.9792783406965152,1.9297543772627663,-1.2384990779418836,0.7344587555256541,0.30242419345159893,0.15841267276091242,0.31682534552022956,0.6624529951797646,0.3600288017281003,0.08016499999999982,0.08914,-0.91296,-0.11805000000000021,-0.019872,-0.902807,0.19821500000000003,0.109012,0.010152999999999968,0.9710727301389157,0.791808713151368,double,-0.902807
50,0.416667,step_decsent,0.06539476841850193,0.1029517638588909,0.07799376049916472,0.7567853704683057,0.20013700038970747,0.49414061544652405,-0.003479721622250382,-0.005159587233021518,-0.015118790496762043,-0.013438924885995903,0.025797936165105922,0.06707463402928139,-3.5863982402177093,2.6624110066797075,10.42405996080659,-2.289458320999162,-0.5183049714035818,-0.9069460144789974,-0.3453926648774462,1.079585329760577,0.7478042154950538,0.07959100000000019,0.088239,-0.9137360000000001,-0.1187069999999999,-0.020515000000000005,-0.902898,0.19829800000000009,0.108754,0.010838000000000125,0.9727507579581204,0.7697691719966996,double,-0.902898
51,0.425,step_decsent,0.08352334093364114,0.0944437777511098,0.007200288011514356,0.010068657738994383,0.2676624555952392,0.25672242756012376,0.004680187207476338,-0.004320172806912028,-0.009240369614783863,-0.011280451218053369,0.03768150726029155,0.0710428417136665,2.1755157224456076,-1.0209991729006505,-8.495556520778896,0.9792282286963567,0.10073376048355838,0.7054387233863189,0.25902720124115436,1.4260855748452725,0.47620397028502526,0.07893400000000006,0.08741600000000001,-0.9138729999999999,-0.11949699999999996,-0.020987999999999993,-0.902366,0.19843100000000002,0.108404,0.011506999999999934,0.9812952415444902,0.7495885600966192,double,-0.902366
52,0.433333,step_decsent,0.09336373454940168,0.05976239049561939,0.0322812912516589,0.3205790511505777,0.5126779632574467,0.47267982274225007,0.004200168006721121,-0.004320172806912415,-0.0063602544101794105,-0.01488059522381045,0.05124204968198669,0.08004320172806557,1.180894469670047,-4.1619329479767515,3.0098407824486304,-0.05760460827495681,-4.642305713942474e-14,0.34562764965851916,-0.43203456207333074,1.6273301838107623,1.0800864051840922,0.0781909999999999,0.086882,-0.9141950000000001,-0.12039900000000014,-0.021058999999999994,-0.9019680000000001,0.19859000000000004,0.107941,0.012226999999999988,0.9853980461230853,0.7173996646788794,double,-0.9019680000000001
53,0.441667,step_decsent,0.08867290616748588,0.07739380849532161,0.0064794816414685385,0.12819488343961344,0.1971018740867457,0.5167505097298697,0.004199664026878744,-0.006959443244540359,-0.008879289656823063,-0.011159107271406198,0.06479481641468705,0.07847372210223748,-0.5628543774797007,2.115600911891327,-3.0959694756648073,-6.0472743265798606e-05,-0.3166871175459514,-0.30226004879333657,0.44654283086204377,1.6262019117711115,-0.1883224893002286,0.07748700000000008,0.086179,-0.914323,-0.12123099999999987,-0.021164000000000002,-0.9013680000000001,0.19871799999999995,0.107343,0.012954999999999939,0.9799367103462843,0.6998219202973341,double,-0.9013680000000001
54,0.45,step_decsent,0.08832353294132568,0.08196327853114127,-0.006480259210368207,0.24195442943926343,0.22327674667879524,0.407438690085464,0.008520340813624377,-0.005640225609024566,-0.004800192007685088,0.006600264010550342,0.08352334093363725,0.08532341293651251,-0.041926464197791946,0.5483583386319021,-1.5552311114648614,0.5185019544876533,0.158312448759845,0.48951129834848894,2.1312098022268646,2.247512842787726,0.8219957799441979,0.07682199999999995,0.085449,-0.914309,-0.12191200000000002,-0.021151000000000003,-0.900603,0.19873399999999997,0.1066,0.013705999999999996,0.981184359652166,0.6636370705958989,double,-0.900603
55,0.458333,step_decsent,0.10956438257529628,0.10512420496819753,-0.0031201248050019893,-0.11485859292678909,-0.12935532206567307,0.4513816609651614,0.003360134405392907,-0.004800192007680124,-0.007080283211325559,0.02280091203649766,0.09888395535821354,0.08328333133325688,2.5490039162331284,2.779422349340732,0.4032322579342645,-0.6192495389693367,0.10080806448391261,-0.27362188931242976,1.9441555293348565,1.8433474648477528,-0.2448195851740826,0.07593700000000014,0.08453300000000001,-0.914342,-0.12263499999999983,-0.021203,-0.899883,0.19857199999999997,0.10573600000000001,0.014459,0.9846827297103455,0.6366125829490115,double,-0.899883
56,0.466667,step_decsent,0.09467242620592152,0.08843292536597082,-0.008759299256058275,0.15723359209213314,0.34417191655669366,0.47456075592424307,-0.013438924886022547,-0.02195824334053305,-0.0221982241420675,0.047516198704084536,0.10403167746580344,0.06839452843772671,-1.7868918129799316,-2.0027933288009,-0.6766468023825631,-2.0157258569013004,-2.058801455825883,-1.8140077910657457,2.965597152338235,0.6176772387316892,-1.7865134263895075,0.07503599999999988,0.083613,-0.914454,-0.12302800000000014,-0.021072999999999995,-0.89924,0.19806400000000002,0.104686,0.01521399999999995,0.943344846567744,0.6257602315283736,double,-0.89924
57,0.475,step_decsent,0.07656306252249107,0.09624384975399172,-0.0012000480019279415,0.027288323137505396,0.3581256602586062,0.4359862783367371,0.002640105604220154,-0.005880235209408027,-0.008040321612869245,0.05976239049563311,0.11220448817952809,0.07236289451577657,-2.1732105704344775,0.9373484204993308,0.9071464363530964,1.9295608412627796,1.9294381532611378,1.699016264154361,1.4696017990577948,0.9807765167076289,0.4762229782851157,0.07441999999999993,0.082762,-0.914511,-0.12316799999999994,-0.02094,-0.898627,0.19758799999999987,0.10370199999999999,0.01588400000000001,0.9828249134437108,0.5973603384602442,double,-0.898627
58,0.483333,step_decsent,0.07200288011519637,0.06492259690387586,-0.018720748829958517,0.7018362061013136,0.4774474948374236,0.4085177448907266,0.0016800672026831191,-0.004920196807872635,-0.006600264010557003,0.04944197767908979,0.13152526101043985,0.07416296651866133,-0.5472437786265061,-3.758700690041489,-2.102568202091744,-0.11520921655310584,0.11520921655290862,0.17281382483046148,-1.2384990779483112,2.318585483128726,0.216017281037412,0.07383399999999996,0.08217999999999999,-0.91441,-0.12335600000000002,-0.020385,-0.8978529999999999,0.19718999999999998,0.10256499999999999,0.016557000000000044,0.9859965830119548,0.5696263565859285,double,-0.8978529999999999
59,0.491667,step_decsent,0.05615550755941139,0.06071514278857596,-0.001559875209961447,0.35696400205118217,-0.16652738824232627,0.2701297439824312,0.002519798416132558,-0.004559635229181642,-0.004319654427643443,0.0574754019678567,0.15130789536837017,0.062395008399330446,-1.9015325840874686,-0.5048541055075471,2.059140103191391,0.10075968483914542,0.043263928328652855,0.27365125784899896,0.9639337999480325,2.3737262248536477,-1.4120420109588283,0.07338699999999987,0.081636,-0.914433,-0.12334500000000004,-0.019629999999999995,-0.8973200000000001,0.1967319999999999,0.101266,0.017112999999999934,0.9887208314117231,0.5397591115019627,double,-0.8973200000000001
60,0.5,step_decsent,0.09084363374533763,0.13728549141965704,-0.024960998439935975,0.6422865857859984,0.393943796047134,0.6141954070073704,0.003480139205575043,-0.005760230409216315,-0.0061202448097951966,0.07416296651866182,0.1500060002400101,0.06216248649945569,4.162741651977238,9.188809388105277,-2.8082471174816495,0.11524550455328061,-0.14407718469154884,-0.21607948903777244,2.0025878496106038,-0.15623366474979877,-0.027903744134736355,0.07265900000000003,0.080444,-0.9142760000000001,-0.12348399999999993,-0.019523999999999993,-0.8965940000000001,0.19614299999999996,0.099968,0.017681999999999976,0.9848389186301401,0.5256619312739652,double,-0.8965940000000001
61,0.508333,step_decsent,0.07200288011519637,0.06948277931117253,-0.06264250570024377,-0.009026111004280453,0.12152131071945968,0.28509029221812854,0.010440417616698412,-0.00468018720748838,-0.0008400336013415596,0.08664346573861591,0.1705268210728412,0.0661226449057988,-2.2609808748519358,-8.136650919054869,-4.521961749706905,0.835266820007601,0.12961036862209652,0.6336506910420755,1.4977198151870919,2.4625970038198752,0.4752380182819034,0.07214600000000004,0.079826,-0.9137609999999999,-0.12336199999999997,-0.018682000000000004,-0.895521,0.19550800000000002,0.098508,0.018239999999999923,0.980879611757226,0.4802957727076432,single,-0.895521
62,0.516667,step_decsent,-0.0013198944084453212,0.04571634269258478,0.03923686105111208,0.8690627657298425,0.4217485526920644,0.34365336438138644,0.00779937604991386,-0.004079673626109851,-0.001439884809216711,0.0769138468922627,0.19126469882409494,0.06611471082313737,-8.798029100509012,-2.8517442546901703,12.224546046479052,-0.31689963604326454,0.0720558652962002,-0.07197638683407186,-1.1674608646932159,2.488346262449467,-0.000952013758271467,0.07222200000000001,0.079411,-0.9140999999999999,-0.12270999999999987,-0.017469000000000005,-0.8952969999999999,0.19493199999999988,0.09688000000000001,0.018803000000000014,0.9851351204430489,0.4511488691544995,single,-0.8952969999999999
63,0.525,step_decsent,0.02424096963878971,0.06516260650426012,0.031681267250694936,0.157974629080641,-0.019701319000410014,0.22271315052059687,0.006720268810759123,-0.004800192007680092,-0.0021600864034582896,0.0715228609144412,0.24396975879035143,0.03624144965798244,3.0674263827234998,2.3336450032011586,-0.9067075243510272,-0.12949804862051273,-0.0864656644150051,-0.08642764841492567,-0.6469441951063821,6.3248601903583666,-3.584934737208065,0.07207600000000003,0.078828,-0.914382,-0.12231599999999987,-0.015979,-0.895259,0.1943919999999999,0.094807,0.019123,0.985772695512788,0.3807571318428458,single,-0.895259
64,0.533333,step_decsent,0.07104284171368695,0.1032041281651275,-0.03156126245048657,-0.5012628908928554,-0.24939009915680566,0.15768061134645014,0.02184087363496078,0.006120244809792323,0.010320412816516415,0.07944317772710266,0.2680907236289476,0.033361334453378494,5.616449306959999,4.565165205912364,-7.5894071404274674,1.8145451607106438,1.3105048382902333,1.4977198151895859,0.9504760365608467,2.8946315658942012,-0.3456276496584632,0.07166600000000001,0.078019,-0.9140330000000001,-0.12224600000000008,-0.014605,-0.8947180000000001,0.19391200000000008,0.092624,0.01931499999999997,0.9584671455895245,0.3375217767211698,single,-0.8947180000000001
65,0.541667,step_decsent,-0.0019198464122889224,0.049796016318693966,0.052675785937107374,0.3523668809703919,0.12979412740262958,0.20533421520443212,0.039956803455713244,0.009959203263738794,0.01631869450443586,0.07271418286535634,0.28797696184305027,0.01763858891288782,-8.754822189341892,-6.408460744712398,10.107637195535553,2.1737376794759213,0.4606381634204994,0.7197362236524357,-0.8074147902263336,2.386157693076857,-1.8865785385757803,0.07201499999999994,0.077687,-0.9143359999999999,-0.12162400000000018,-0.01262,-0.8950099999999999,0.19363900000000012,0.090307,0.019326000000000065,0.9261752890215977,0.3108423773864206,single,-0.8950099999999999
66,0.55,step_decsent,-0.02880115204608388,0.02112084483379357,0.062282491299670714,0.4947535464226456,0.6609767307238162,0.33660514081607396,0.03264130565223195,0.008760350414016542,0.0021600864034582896,0.06912276491061198,0.312372494899794,0.0152406096243835,-3.225885711483841,-3.441158224517014,1.1528507575378977,-0.8778948522118399,-0.14386809669053738,-1.6991009361547476,-0.4309873940650848,2.9275810700520393,-0.28776902538153254,0.07252700000000001,0.077584,-0.9148370000000001,-0.12080800000000003,-0.010193000000000008,-0.895402,0.19333500000000003,0.08777700000000001,0.01943500000000009,0.9435576856100655,0.3056500000000002,single,-0.895402
67,0.558333,step_decsent,-0.00624024961000402,0.04812192487699535,0.0345613824552798,0.19387165420418467,0.19105850681844136,0.10864989916793663,-0.005880235209430965,-0.006960278411136392,-0.020880835233410427,0.09408376335052239,0.3828153126125078,-0.027361094443778718,2.707416588993168,3.2402592155528653,-3.3266661279720586,-4.62276981419216,-1.8865509210552114,-2.765021197272162,2.995439630374492,8.453476264576313,-5.112408984538894,0.07252999999999998,0.077125,-0.9152989999999999,-0.11997199999999997,-0.007404000000000008,-0.895918,0.19250199999999995,0.084529,0.01938099999999987,0.9620295465115163,0.3061900000000002,single,-0.895918
68,0.566667,step_decsent,0.021238300935936212,0.05387568994480377,-0.009479241660659903,-0.2016701885367259,-0.030146060180798406,-0.047964341158749015,0.0026397888169172505,-0.00011999040076805765,0.006239500839932337,0.05423566114712209,0.3879289656827432,0.02951763858891554,3.2971622925294004,0.6903965764108922,-5.284452137741705,1.0223210974739803,0.8207688997322152,3.2541799944015546,-4.781389753227741,0.6135892812857434,6.8249019717655175,0.07237500000000008,0.076675,-0.915168,-0.11969699999999994,-0.004619999999999999,-0.895593,0.19207200000000002,0.081295,0.01957500000000001,0.9887066571446181,0.3042499999999999,single,-0.895593
69,0.575,step_decsent,0.005640225609013399,0.04008160326413105,0.032761310452414524,-0.15164296327559576,-0.13455290708629827,0.06359616836967312,-0.008160326413078081,-0.0064802592103682935,0.0015600624024943435,0.06072242889714389,0.41293651746070215,0.026761070442814745,-1.8718439129872741,-1.655356615945379,5.069069016329631,-1.2960656702262605,-0.7632627876635418,-0.5615550746955521,0.7784432677333324,3.001026254405276,-0.33080140958848203,0.07225999999999999,0.076287,-0.9154279999999999,-0.11923799999999996,-0.0015130000000000005,-0.895643,0.19149799999999995,0.07780000000000001,0.01978499999999994,0.9824391153331854,0.30215000000000003,single,-0.895643
70,0.583333,step_decsent,0.03984159366374626,0.036601464058562155,-0.026761070442801065,-0.20597028412367588,-0.19063655258164564,-0.0563767629697262,-0.02772110884433808,-0.012000480019200645,-0.012600504020156701,0.051842073682945654,0.43621744869794604,0.019800792031684333,4.104328339701514,-0.41763341000466586,-7.142971426282892,-2.3473877872626807,-0.6624529951796867,-1.6993359441558846,-1.0656852531139083,2.793823501409312,-0.8352668200084462,0.07169700000000012,0.075882,-0.9153100000000001,-0.11913799999999997,0.0018169999999999992,-0.8952550000000001,0.1908350000000001,0.074065,0.020054999999999934,0.9454502241115497,0.2994500000000001,single,-0.8952550000000001
71,0.591667,step_decsent,0.017038636909057527,0.04691624670026392,0.0013198944084453037,-0.061348548745661806,-0.07406321365027632,-0.12120586323969679,-0.03611711063116204,-0.026277897768178397,-0.028677705783542465,0.037317014638822636,0.44288456923445785,0.018118550515960053,-2.736135919689052,1.2376749030119611,3.3694462264514224,-1.0074396192493276,-1.7131530776311066,-1.9291098828156517,-1.7428676558822782,0.799990465144199,-0.20185283366021928,0.07125399999999993,0.075272,-0.9155600000000002,-0.1189690000000001,0.0051169999999999966,-0.8951150000000001,0.19022300000000003,0.070155,0.020445000000000046,0.9115349346969561,0.29554999999999954,single,-0.8951150000000001
72,0.6,step_decsent,0.037441497659917534,0.027001080043201498,-0.021600864034569858,-0.28636492515739614,-0.05843751932013433,-0.17105775887815214,-0.044041761670467965,-0.026041041641666134,-0.0066002640105570914,0.05640225609026722,0.4366974678987203,0.020760830433214965,2.4484412277523333,-2.389915595471331,-2.750601037203333,-0.9509961645633022,0.02842387213635728,2.6493989887178175,2.290320586996851,-0.7424818595628919,0.3170862735215332,0.07057499999999983,0.07483000000000001,-0.915435,-0.118811,0.008531000000000004,-0.8947620000000001,0.18938599999999983,0.066299,0.02067299999999994,0.9140191218637289,0.29327000000000003,single,-0.8947620000000001
73,0.608333,step_decsent,0.00012000480018213478,0.010440417616705073,-0.005160206408258139,-0.20881785368848535,0.004468615463115343,-0.06813596561159146,0.020400816032641638,-0.007560302412096519,0.02580103204128403,0.04728189127565148,0.4730589223568916,0.013440537621504923,-4.478758293499969,-1.9873589855389844,1.9729578334707367,7.733418661119565,2.2177774186450905,3.888311058663265,-1.0944875572561747,4.363549076943615,-0.8784702762162501,0.07074399999999992,0.07468,-0.9151769999999999,-0.11841799999999991,0.012385999999999994,-0.8946069999999999,0.18916199999999983,0.062294,0.020569999999999977,0.9437504389707152,0.29430000000000023,single,-0.8946069999999999
74,0.616667,step_decsent,0.016078713702913278,0.027477801775858093,-0.006119510439167692,-0.08019449285692849,0.00830029295413757,-0.034349031743324675,0.033717302615788015,-0.0010799136069112843,0.019678425725941733,0.05831533477321685,0.4655627549796045,0.0007199424046083555,1.9148918769775898,2.0443225532941103,-0.11510727512713684,1.5978505619326198,0.7775844498662433,-0.734653985522238,1.3239073071232819,-0.8994681278242365,-1.5263493180821504,0.07089099999999982,0.074442,-0.9149619999999999,-0.118066,0.016036999999999996,-0.89455,0.18895699999999982,0.058405,0.020411999999999986,0.9349089708319865,0.29588000000000014,single,-0.89455
75,0.625,step_decsent,0.0075603024120873595,0.02808112324492945,0.002280091203647086,0.0958140075278256,0.16603750644856807,-0.08800630496847736,0.012480499219981228,-0.002880115204608138,0.0048001920076784265,0.06204248169925315,0.4342973718948745,-0.013800552022084635,-1.0222502449089024,0.07240147234745663,1.0079925168384425,-2.548518348230733,-0.21603283303694304,-1.7854594645701722,0.4472755221452404,-3.7519960500095824,-1.742529032364446,0.070932,0.074184,-0.914941,-0.11761200000000005,0.019422000000000002,-0.894684,0.18854400000000004,0.054762,0.02025699999999997,0.977202597145828,0.2974300000000003,single,-0.894684
76,0.633333,step_decsent,-0.008160326413051327,0.018840753630144817,0.002640105604220137,-0.21468840764712294,-0.012304740705586055,-0.07987215067281868,-0.002160086403464951,-0.0009600384015361848,-0.0013200528021100684,0.05448217928716579,0.4479779191167628,-0.02868114724588842,-1.8865509210534768,-1.1088887093225244,0.04320345620701421,-1.7569405524356316,0.23041843310595767,-0.7344587555248374,-0.9072725803536938,1.6417313358800278,-1.7857428565707096,0.07098199999999988,0.074019,-0.914974,-0.11709000000000014,0.022998000000000005,-0.8949449999999999,0.18807200000000002,0.051021,0.020029000000000075,0.9954876138354718,0.29971000000000037,single,-0.8949449999999999
77,0.641667,step_decsent,-0.015238780897526873,0.03635709143268615,-0.01571874250058579,-0.13639313937194458,-0.04554625223471767,-0.04622859790255994,-0.011879049676007891,-0.0007199424046075229,-0.008399328053757487,0.056395488360954545,0.42380609551236104,-0.03431725461963164,-0.8493465904098376,2.101792392913539,-2.202885541733385,-1.1661822981213097,0.028809214894248047,-0.8494450745917278,0.22957872255684733,-2.900386801584104,-0.6762787825465867,0.07101000000000002,0.07371,-0.9149130000000001,-0.11649299999999996,0.026226999999999997,-0.8951,0.18750299999999998,0.047483,0.01981300000000008,0.9757227329685629,0.3018700000000003,single,-0.8951
78,0.65,step_decsent,0.01212048481938153,0.04848193927757026,-0.05820232809313173,-0.09872606630081068,-0.12917903185939036,0.008762211316076227,-0.023400936037461472,-0.003960158406336451,-0.019320772830915826,0.0667226689067561,0.3880955238209513,-0.030961238449535508,3.283243215757625,1.4550399429838063,-5.09823420047351,-1.3826816706412495,-0.3888414738664243,-1.3106257982909268,1.2393112379456992,-4.285440020569973,0.40273804993353185,0.07071399999999994,0.073273,-0.914589,-0.11603799999999986,0.029057000000000003,-0.894873,0.1867519999999998,0.044216,0.019715999999999956,0.948994038343638,0.3028399999999999,single,-0.894873
79,0.658333,step_decsent,-0.05256210248409246,0.04752190087603554,0.005640225609040045,-0.10146860787197655,-0.21157530701827207,-0.035105292544948215,-0.018960758430323042,-0.0015600624024960088,-0.018600744029756647,0.07044281771269634,0.369254770190811,-0.053762150486020406,-7.762220965255561,-0.1152092165528294,7.661412900776714,0.5328426265616789,0.28802304138251095,0.0864069124155988,0.44643571414139827,-2.2609808748518527,-2.736218893133938,0.070994,0.072864,-0.9147910000000001,-0.11501300000000003,0.031738,-0.8953680000000002,0.18600700000000003,0.041125999999999996,0.019422999999999968,0.9556550192802289,0.3057700000000003,single,-0.8953680000000002
80,0.666667,step_decsent,-0.041876649868002165,0.031077513798896124,-0.007319414446854847,0.240665805131184,0.1341370229748019,0.1038652610184426,0.013798896088296656,0.009479241660666979,0.0010799136069091885,0.06959443244540683,0.32121430285576896,-0.052315814734819846,1.2821517417914823,-1.9731685957690535,-1.555032404115046,3.9308440747083577,1.3246105187380495,2.361489997200106,-0.10179808822768138,-5.76439492861071,0.17354640643155136,0.0714579999999998,0.072684,-0.914721,-0.11408400000000007,0.034156,-0.895743,0.18554199999999987,0.038528,0.01897800000000005,0.9720401195601764,0.31022000000000005,single,-0.895743
81,0.675,step_decsent,-0.07668306732269933,0.0501620064802592,0.012480499219954581,0.1520275997774891,0.015269568209871243,0.05320112700791274,0.016560662426520215,0.006720268810752461,0.0021600864034582896,0.07512300492019834,0.30589223568942664,-0.07992319692787678,-4.176937172050525,2.2902307309927994,2.376084683404458,0.3314252175955295,-0.33108998558916425,0.1296259206227165,0.6634552351843854,-1.8387216088254241,-3.313018383902174,0.07223500000000005,0.072322,-0.9148069999999999,-0.112819,0.036287,-0.8965129999999999,0.18505400000000005,0.036035,0.018294000000000032,0.9699961332971372,0.31706000000000023,single,-0.8965129999999999
82,0.683333,step_decsent,0.006360254410159511,0.08772350894035788,-0.04272170886833124,0.23336842842683067,-0.06538369869840843,0.01758335382699382,0.011520460818417717,0.003840153606144374,0.0006000240009573131,0.06744269770790311,0.21216848673947136,-0.04812192487699368,9.965597231832426,4.507560597635788,-6.6245299517924305,-0.6048483869077816,-0.34562764965896,-0.18721497689919486,-0.9216737324247335,-11.247299765985375,3.816305298317939,0.07227800000000006,0.071623,-0.9144460000000001,-0.11230999999999991,0.037324,-0.8965580000000001,0.18458799999999997,0.034298999999999996,0.017888000000000015,0.9797359221781494,0.4415013906135385,single,-0.8965580000000001
83,0.691667,step_decsent,0.005639548836108701,0.07127429805615547,-0.039476841852654335,0.08136767674274938,-0.25375374817731894,0.1873344827560805,0.004679625629964239,0.0025197984161267127,0.0,0.07343412526998468,0.1489080873530105,-0.06347492200623922,-0.08647775066604323,-1.9737474063117695,0.38935289364973336,-0.820834555849943,-0.15842994840624566,-0.07199712034524941,0.7189137943462351,-7.590640675121235,-1.8422122785271684,0.07227000000000006,0.07105,-0.9141170000000001,-0.11174499999999998,0.037971,-0.896758,0.18401500000000004,0.033079,0.017359000000000013,0.991141814818653,0.5301590977182151,double,-0.896758
84,0.7,step_decsent,-0.10176407056281864,0.0738029521180851,0.036361454458171724,-0.241946808344986,-0.3197407947880291,0.06501165487411384,-0.0009600384015370304,0.0009600384015361976,-0.0006000240009573131,0.07356294251769833,0.08508340333613437,-0.06636265450618394,-12.888949885866834,0.30345062545657703,9.100959595683038,-0.6767867552503686,-0.18717868889841946,-0.07200576034529205,0.01545868807316208,-7.659268452763317,-0.3465417616638355,0.07311000000000001,0.070443,-0.914425,-0.11028400000000005,0.038065,-0.897614,0.18339400000000006,0.032378000000000004,0.01681100000000002,0.9975260376661367,0.6142339643469759,double,-0.897614
85,0.708333,step_decsent,-0.0645625825033178,0.08736349453978116,0.037081483259317344,0.8150152878590206,-0.004522986710200461,0.11708140365286021,-0.0003600144005730508,-0.002520100804032173,-0.004800192007685088,0.06432257290292688,0.011160446417856587,-0.06108244329772946,4.464357141425739,1.6273301838108731,0.08640691241397055,0.07200576034609109,-0.4176334100046029,-0.5040403224202277,-1.1088887093209427,-8.87110967458028,0.6336506910421761,0.07364500000000018,0.069694,-0.914774,-0.10920999999999981,0.037430000000000005,-0.8984319999999999,0.182855,0.032264,0.01634200000000008,0.9909442526319612,0.6875739055280834,double,-0.8984319999999999
86,0.716667,step_decsent,-0.03695704343652179,0.09491240700743868,-0.03227741780655755,0.026342690322558822,-0.30567330749251437,0.10402030272300386,-0.0039596832253625544,-0.003359731221502284,-0.0020398368130536497,0.03647708183343624,-0.021718262538996787,-0.04607631389488751,3.312399696039812,0.9057970323563064,-8.322402335718065,-0.43192570491834364,-0.10074759028918942,0.3312161260656848,-3.341191633008211,-3.9451294644652175,1.800591481022538,0.07391999999999999,0.068875,-0.9145220000000001,-0.10859799999999997,0.036458000000000004,-0.898547,0.18251799999999996,0.032417,0.015975000000000072,0.9907012815474026,0.7358298134546957,double,-0.898547
87,0.725,step_decsent,-0.06804272170886708,0.10452418096724009,0.010200408016307632,0.18543269886981628,0.01110624608198341,0.1331251565303815,-0.0074402976119053235,-0.005760230409216353,-0.0007200288011527728,0.00216008640346498,-0.04992199687987561,-0.04104164166566808,-3.7304306099058646,1.153459013536721,5.097543000463887,-0.4176904340024962,-0.2880714253827063,0.1583832967599771,-4.1182041797637785,-3.38458350424566,0.6041848348997334,0.07442499999999996,0.067956,-0.9146129999999999,-0.10801299999999991,0.035170999999999994,-0.8989739999999999,0.18243799999999988,0.032785,0.01563899999999996,0.9842716882664595,0.7358385327345424,double,-0.8989739999999999
88,0.733333,step_decsent,-0.08556342253689676,0.10152406096243802,-0.006120244809795156,0.08333864665068971,-0.42038360418270626,0.13314051523666537,-0.0031201248049753222,-0.00936037441497676,-0.004080163206525663,-0.010920436817480244,-0.05904236169446746,-0.039121564862593494,-2.1025682020916374,-0.3600288017283161,-1.9585566813995825,0.5184414744905775,-0.43203456207373003,-0.40323225793506257,-1.5697255755364419,-1.0944875572533068,0.23041843310627358,0.07511200000000007,0.067032,-0.914596,-0.10739100000000001,0.033833,-0.899249,0.18250300000000008,0.033199,0.015347,0.9822049070606639,0.727089716779995,double,-0.899249
89,0.741667,step_decsent,-0.0691144708423222,0.08459323254139685,-0.006959443244527454,0.7330357209646478,0.01871157462703607,0.1669260298617456,-0.0023998080153745066,-0.006719462443004657,-0.0007199424046083555,-0.026277897768175,-0.058195344372450664,-0.029517638588915932,1.9737163060444758,-2.031536887573946,-0.10069575650735575,0.08643110026407724,0.31688408590978145,0.403194240690824,-1.8427478942518412,0.10163394792618173,1.1523789625243122,0.07566799999999985,0.066271,-0.914544,-0.10703400000000007,0.032643,-0.899437,0.18270199999999992,0.033628,0.015106999999999982,0.9880477139448882,0.7316871726239295,double,-0.899437
90,0.75,step_decsent,-0.023040921636888423,0.11760470418816724,-0.03900156006241802,0.05573309048187048,-0.4146310136343248,-0.004954340515049574,-0.0030001200047931873,-0.003840153606144323,-0.0016800672026897807,-0.02532101284050886,-0.031321252850113765,-0.016560662426493566,5.529047066534691,3.9615350590147904,-3.84520782645991,-0.0720403203430551,0.345530881658505,-0.11521958455315266,0.11483078455131837,3.2250199834797537,1.5548993354640959,0.0758350000000001,0.065259,-0.9142329999999999,-0.10705299999999984,0.031402,-0.8992499999999999,0.18288799999999994,0.033857,0.014982999999999969,0.9914089637205887,0.7775899654141439,double,-0.8992499999999999
91,0.758333,step_decsent,-0.08652346093843377,0.10680427217088662,-0.01392055682227343,0.032241386490035634,-0.12294184395506674,0.12200460552779567,-0.006480259210368207,-0.001200048001920023,-0.0020400816032628316,-0.04536181447257745,-0.030481219248769915,-0.01824072962919001,-7.618209444563193,-1.296103686221118,3.009840782448636,-0.4176334100054008,0.31682534552073555,-0.04320345620701421,-2.4049923955440424,0.10080806448384096,-0.2016161289687311,0.07650200000000007,0.064359,-0.9141339999999999,-0.10670999999999986,0.030257999999999997,-0.8992859999999999,0.18321199999999993,0.034101,0.014847999999999972,0.9885017141871246,0.7554944947575948,double,-0.8992859999999999
92,0.766667,step_decsent,-0.09143268538516124,0.10307175425965966,-0.00011999040075806804,0.22528061674576977,-0.1928553911004279,0.03214091111621272,-0.005639548836082133,-0.0005999520038394636,-0.0015598752099814399,-0.05387568994482197,-0.020638348932085375,-0.019198464122869498,-0.5890598088225932,-0.4478663200416344,1.6559354957421937,0.10087717474035024,0.07200575930892282,0.05762015758116085,-1.0215833300029478,1.181049954005831,-0.11491894572588114,0.07721700000000009,0.063495,-0.9141459999999999,-0.10639700000000007,0.029227,-0.899445,0.18361400000000017,0.034268,0.014700999999999853,0.990196703480719,0.7516501915672081,double,-0.899445
93,0.775,step_decsent,-0.0780031201248094,0.11208448337933438,-0.004200168006721121,0.06029008501441838,0.12320127734136721,0.04492075411012775,-0.0012000480019279335,-0.0020400816032640806,-0.001200048001921272,-0.05784231369253203,-0.019560782431297163,-0.018840753630140653,1.6116122957340437,1.0815707571912503,-0.4896408983514984,0.5327614105549239,-0.1728224648295465,0.04318099220690824,-0.4760138902808168,0.12931315262068968,0.04292697620650942,0.07785700000000007,0.062544,-0.914121,-0.1062289999999999,0.028130000000000002,-0.899567,0.18408599999999997,0.034414,0.014553999999999956,0.9955771542086624,0.7479584160266267,double,-0.899567
94,0.783333,step_decsent,-0.09012360494419214,0.11220448817952801,-0.04320172806911307,-0.15455679097294697,-0.3731530647235347,0.08088648287720158,-0.0022800912036471162,-0.0028801152046081767,-0.001800072002878601,-0.04620184807393295,-0.014880595223809398,-0.0214808592343744,-1.4545163589803016,0.014401152069318095,-4.680374422463975,-0.12961036862104797,-0.1008080644838718,-0.07200576034529396,1.396911750701931,0.5616449306957648,-0.31682534552187336,0.07858900000000002,0.061585,-0.913776,-0.10586300000000004,0.027071,-0.899386,0.18445200000000006,0.034514,0.014390000000000014,0.9931821030645009,0.7676335877749731,double,-0.899386
95,0.791667,step_decsent,-0.10859131269497561,0.0946724262059034,-0.05783537317015716,0.9491046151578026,0.04806842799619864,-0.016208824908960286,-0.002279817614589765,0.001919846412286841,0.0020398368130536497,-0.028197744180463575,-0.012598992080633148,-0.030717542596589455,-2.2159476542816576,-2.103679142503537,-1.755896940370048,3.282806063731208e-05,0.5759493180819512,0.4607521977360477,2.1603196416449766,0.2737704755431045,-1.1083133383987263,0.07947499999999996,0.060812,-0.9132769999999999,-0.10519300000000009,0.026177,-0.89916,0.18466800000000005,0.034635,0.014116999999999935,0.9939805147815031,0.7862311248654635,double,-0.89916
96,0.8,step_decsent,-0.11184447377896928,0.09852394095763733,0.00732029281172309,-0.82024377247282,-0.04568023385871251,0.1965317721921267,-0.005280211208440274,-0.0016800672026881154,-0.005280211208446935,-0.0036001440057571543,0.0021600864034562075,-0.024000960038398793,-0.3903949458770731,0.4622002582183995,7.818992677532698,-0.3600616337274086,-0.43200691407355585,-0.8784409002160752,2.9518300941685247,1.7711602645012954,0.8060221478687909,0.08036300000000018,0.059977,-0.913382,-0.10429099999999991,0.025374000000000004,-0.899421,0.1846540000000001,0.034602999999999995,0.013961000000000001,0.9872433147573196,0.8197809871492177,double,-0.899421
97,0.808333,step_decsent,-0.07560302412095454,0.1260050402016095,-0.045721828873151106,0.3086142672672604,-0.20107112576286332,-0.020513183799647998,0.003120124804975364,0.003120124804992434,0.0066002640105570914,0.0055202208088312625,0.02280091203648157,-0.036481459258373844,4.349147924878803,3.2978638238296423,-6.365309214553544,1.0080806448356792,0.5760460827649817,1.4257140548426899,1.09448755725291,2.476998155889302,-1.4977198151896274,0.08101899999999995,0.058953000000000005,-0.912946,-0.10361500000000001,0.024514,-0.8993440000000001,0.18463399999999996,0.034439,0.013601999999999892,0.9867676907820283,0.7916910101918461,double,-0.8993440000000001
98,0.816667,step_decsent,-0.14062874970001704,0.08771298296136272,-0.024958003359729346,0.04573608767554145,-0.1332454224567549,0.20113157607548698,-0.0019198464122889224,0.0007199424046075133,0.0021598272138250376,-0.010559155267589073,0.019438444924405773,-0.030837532997360844,-7.802462872457644,-4.594679294486019,2.4914597448310056,-0.6047481662184123,-0.2879988481383372,-0.5328097908245765,-1.9293707795080648,-0.4034637763469849,0.6772169739636378,0.08217499999999989,0.058228,-0.9127200000000001,-0.10253100000000015,0.023944999999999998,-0.8993930000000001,0.18470600000000004,0.034283,0.013326999999999978,0.9950365276193895,0.8034778076267637,double,-0.8993930000000001
99,0.825,step_decsent,-0.11544461778472798,0.08772350894035788,-0.0486019440777622,0.7415373872898906,0.003093067275947965,-0.0007554467387955586,-0.001800072002865278,0.002280091203647949,0.00480019200767849,0.026881075243010203,0.019200768030721453,-0.022440897635904768,3.0222167185034556,0.001263168006139464,-2.837386381619233,0.014373504071000314,0.18722534489864995,0.316856449520398,4.4930073815672165,-0.028522368136844153,1.0076365488366918,0.08312200000000014,0.057516,-0.9122750000000002,-0.10134500000000002,0.023374000000000002,-0.8991750000000001,0.18446700000000016,0.034142,0.013100000000000112,0.9906486901655684,0.802440594915037,double,-0.8991750000000001
100,0.833333,step_decsent,-0.14508580343213856,0.11928477139085536,-0.016200648025947163,-0.4369027422376971,-0.2406767277420712,0.14327313262302804,-0.004920196807893869,0.0016800672026881154,0.001200048001921272,0.012480499219981228,0.027601104044161776,-0.0244809792391673,-3.557084561071698,3.787502994179449,3.8883110586601344,-0.3744299538015814,-0.07200576034559356,-0.4320345620733473,-1.7281382482934016,1.0080806448386281,-0.2448195851749099,0.08428999999999998,0.056536,-0.9121299999999999,-0.1000319999999999,0.02261,-0.8992439999999999,0.18432199999999987,0.033926,0.012885999999999953,0.9911069506478261,0.806227619958706,double,-0.8992439999999999
101,0.841667,step_decsent,-0.14962802975761802,0.0815934725221976,-0.02879769618428055,0.5836034186372897,-0.21271614110309914,0.10881180380731885,-0.008279337652972665,0.0020398368130548987,0.0013198944084453037,0.005039596832238439,0.02615790736741034,-0.027477801775861888,-0.5450235571729571,-4.522594056714359,-1.5115248570114341,-0.4030646562369535,0.04316889973203512,0.014380418349415744,-0.8928368595803615,-0.17316974763036067,-0.3595899372083711,0.0854680000000001,0.055873,-0.9118790000000001,-0.09874300000000003,0.022148,-0.8992330000000002,0.18421100000000012,0.033725,0.012645999999999935,0.9856192173519591,0.8097551349259116,double,-0.8992330000000002
102,0.85,step_decsent,-0.15156606264250877,0.10980439217568792,-0.016200648025920732,0.1958758345758784,-0.5217159247897546,0.2163864025155161,-0.006720268810759212,0.003120124804992434,0.00480019200767849,0.008520340813651137,0.03108124324973013,-0.028441137645504547,-0.23257324911685684,3.3854457762499193,1.511706247253082,0.18709574489541186,0.1296397446222903,0.4176524180047063,0.41770598600896797,0.5908239388359338,-0.11560492855426233,0.08667500000000006,0.054984000000000005,-0.9117040000000001,-0.09740899999999986,0.021492,-0.8993350000000001,0.18408399999999991,0.033492,0.012368999999999963,0.9852861521198781,0.8046716683902122,double,-0.8993350000000001
103,0.858333,step_decsent,-0.15396615864633598,0.09732389295571772,-0.009600384015370176,-0.020529575725834914,-0.14874036600683413,0.17464395415413042,-0.009600384015343529,0.0030001200048002654,0.004800192007685088,0.011160446417844513,0.028441137645505835,-0.031201248049919764,-0.28802304138091883,-1.4977198151890254,0.7920633638006155,-0.34562764965610276,-0.014401152069142931,7.917941606717579e-13,0.3168253455170245,-0.316825345520735,-0.33122649758972816,0.08787800000000012,0.054198,-0.911584,-0.09603300000000004,0.020918000000000003,-0.8995150000000001,0.18391100000000016,0.033280000000000004,0.012068999999999885,0.9814250813822696,0.8065285204669178,double,-0.8995150000000001
104,0.866667,step_decsent,-0.17290616750660354,0.11879049676026043,0.00035997120230084735,0.08816844003735073,-0.32370949976833013,0.11613340216321934,-0.009479241660686671,0.0034797216222699715,0.005039596832251828,0.010079193664503655,0.02543796496280296,-0.03407727381809552,-2.2726192536918246,2.575786393633649,1.1951470143593808,0.014535919685248118,0.05754759028914193,0.028726280845541307,-0.1297399512048073,-0.36035189377284527,-0.34509548454232936,0.08923999999999999,0.05323699999999999,-0.911545,-0.09450800000000004,0.020139999999999998,-0.899802,0.18374800000000002,0.033097,0.011743000000000059,0.9811908694407747,0.8097318842674459,double,-0.899802
105,0.875,step_decsent,-0.159966398655949,0.12060482419296709,-0.00012000480018213478,0.04535199988428883,-0.40272350972568793,0.14627629120811114,-0.007680307212269494,0.003120124804992393,0.008160326413057988,0.006240249610003937,0.02064082563302527,-0.029041161646468135,1.552834375453556,0.21772800104483922,-0.05759942427492862,0.21588076904082207,-0.04315334420707755,0.3745025297979296,-0.4606917142085326,-0.5756797467631909,0.6043576349006796,0.09050900000000017,0.052258,-0.9114760000000001,-0.09312299999999984,0.019306999999999998,-0.9000430000000001,0.18363200000000002,0.032951,0.011432999999999915,0.9806126311995829,0.8253842575408952,double,-0.9000430000000001
106,0.883333,step_decsent,-0.18996759870393418,0.11652466098643893,-0.005640225609039971,0.23103379189505682,-0.19869247449469202,0.15268731220339837,-0.004320172806929902,0.004800192007680092,0.011520460818430887,0.006960278411123393,0.013200528021120877,-0.036001440057598186,-3.6002880172788974,-0.4896391703501904,-0.6624529951827448,0.40323225793106654,0.20161612896768175,0.4032322579350636,0.08640691241083075,-0.8928714282856547,-0.8352668200084029,0.09205599999999992,0.051327,-0.911333,-0.09148200000000006,0.018445999999999997,-0.900296,0.18353799999999998,0.032881,0.011036999999999964,0.9779882131410027,0.8246769592316967,double,-0.900296
107,0.891667,step_decsent,-0.17254619630430268,0.14134869210463225,0.0002399808015427793,-0.4101378420398936,-0.29522888879745585,0.04577872449581557,-0.005399568034539354,0.005399568034557254,0.010559155267575893,0.012479001679878162,-0.00035997120230376147,-0.030837532997361253,2.0904010558713217,2.9786454425478106,0.7055683238040297,-0.1295170659478591,0.07191936967568584,-0.11534743830753538,0.6621938167452366,-1.6271297364320514,0.6196192776862205,0.09344900000000012,0.050194,-0.911247,-0.08993999999999991,0.017265000000000003,-0.900555,0.18338900000000002,0.032929,0.010692000000000035,0.9782817006315842,0.8376321139678524,double,-0.900555
108,0.9,step_decsent,-0.2079683187327466,0.07536301452058052,-0.023400936037434827,0.9331596925679356,-0.05460148738881323,0.18535766969946554,-0.005880235209430887,0.006120244809792658,0.009840393615747768,0.006360254410159426,0.0018000720028800343,-0.0363614544581779,-4.250824724402229,-7.918598054008335,-2.8370235016173657,-0.05768236828171502,0.08648467241514468,-0.08625484841331112,-0.7342790435279865,0.25921555324418416,-0.6628970911816421,0.09513299999999991,0.049617,-0.9109700000000001,-0.08815400000000007,0.016652,-0.900663,0.18328699999999998,0.032965,0.010307000000000066,0.9783418023498623,0.8353343547333891,double,-0.900663
109,0.908333,step_decsent,-0.23760950438018852,0.08208328333133408,0.007200288011514404,-0.08241929473818448,-1.4218321380582413,-0.15781474387526218,-0.00540021600862248,0.01008040321612841,0.012960518420736587,0.006120244809795237,0.0020400816032641075,-0.036481459258373844,-3.5570845610755057,0.8064645158710698,3.6722937776250464,0.05760460828134064,0.47523801828102585,0.37442995379681354,-0.028802304135868293,0.02880230413825458,-0.014401152069596216,0.09706800000000015,0.049017,-0.910922,-0.08612299999999995,0.015985,-0.901027,0.1831910000000001,0.033032,0.009894999999999987,0.9711925983819664,0.8393041904458245,double,-0.901027
110,0.916667,step_decsent,-0.20590352771776047,0.09707223422126164,0.019078473722104514,0.35658758441145744,0.16183108453518358,0.0898992722506386,-0.002759779217675317,0.013558915286777194,0.016078713702906405,0.005879529637624834,0.004799616030717518,-0.03611711063114872,3.80441284646362,1.798530224373344,1.4252682638096976,0.31682706874815725,0.41738805743325613,0.37415350158024885,-0.028883509979649846,0.33111764188305615,0.04371833779999084,0.09876099999999988,0.048321,-0.910947,-0.08435800000000016,0.015215999999999999,-0.901487,0.18311900000000003,0.033105,0.009459999999999913,0.9646452266532375,0.8438900445468682,double,-0.901487
111,0.925,step_decsent,-0.21096843873756643,0.09984399375974991,-0.013080523220945195,0.15085549751845762,-0.08059532727301147,0.016751371824645322,0.002880115204611053,0.018840753630145233,0.021840873634940503,0.00984039361576109,0.00684027361094438,-0.04164166566662483,-0.6078136349221105,0.33262444959657445,-3.8592340025260503,0.6768144032504916,0.6338459550423637,0.6914868513181417,0.47532269028396024,0.2448887051754294,-0.6629731231820584,0.10054300000000005,0.047646,-0.9106559999999999,-0.08251799999999987,0.014440999999999999,-0.9017249999999999,0.18306099999999992,0.033205,0.008931000000000022,0.9516869921449402,0.8384702156785608,double,-0.9017249999999999
112,0.933333,step_decsent,-0.200168006720271,0.11688467538701645,-0.04908196327851739,-0.1558174722311966,-0.32712013333263684,-0.042147155015988785,0.005880235209404319,0.022200888035521345,0.027121084843394462,0.011280451218053445,0.009120364814592628,-0.045841833673346565,1.2961036862229138,2.044963593815757,-4.320345620733532,0.36002880172726426,0.40323225793545453,0.6336506910421226,0.17281382482807725,0.27362188931336484,-0.5040403224195091,0.10226000000000002,0.046856999999999996,-0.910021,-0.08075599999999983,0.013543,-0.901698,0.18301599999999985,0.033313999999999996,0.00832299999999997,0.9407685838153463,0.8366329065536764,double,-0.901698
113,0.941667,step_decsent,-0.20746340292774854,0.07619390448764042,-0.03215742740579949,0.34429325889418916,0.06639510746248757,0.030114841356467262,0.01223902087833522,0.02891768658507317,0.034917206623474806,0.012479001679851352,0.008759299256059467,-0.04679625629949586,-0.875377514696123,-4.882501907772465,2.0307818421787585,0.7629932408124374,0.8059513498382256,0.9354597768274879,0.1438145502517276,-0.04332440107189328,-0.1145215534136415,0.10409099999999993,0.046463000000000004,-0.909462,-0.07892300000000008,0.012981,-0.9018200000000001,0.183014,0.033482,0.007641999999999927,0.9217334052406762,0.84155120407322,double,-0.9018200000000001
114,0.95,step_decsent,-0.19860794431776999,0.09696387855514306,-0.08580343213728882,0.0840919393217855,-0.3650726932992601,-0.06957120911524806,0.014640585623419728,0.02988119524781009,0.03204128165126175,0.01092043681748039,0.007080283211328521,-0.050762030481220514,1.0626975410990798,2.492496587963858,-6.4377780789019345,0.28819929738203887,0.11562566455501398,-0.3451248016576361,-0.18703526489511307,-0.201489984967114,-0.47591193828449424,0.10586799999999985,0.045904,-0.9084800000000001,-0.07717700000000005,0.012232,-0.9015280000000001,0.1830449999999999,0.033672,0.006951999999999958,0.9230101682996399,0.8431401451351361,double,-0.9015280000000001
115,0.958333,step_decsent,-0.23532941317653827,0.0582023280931234,-0.018360734429385468,0.3645326109261195,0.3700292034177058,0.06746322038931944,0.016560662426493566,0.035401416056642133,0.032881315252609546,0.0159606384255296,0.006480259210368415,-0.0483619344773773,-4.406752533153502,-4.651572118327072,8.093447462846882,0.23041843310618385,0.6624529951796495,0.10080806448431434,0.6048483869013789,-0.07200576034562628,0.2880230413828399,0.10796699999999992,0.045714000000000005,-0.908053,-0.07508300000000001,0.011801,-0.901778,0.18304999999999993,0.033913,0.0062750000000000306,0.9148743299657427,0.8516863062979427,double,-0.901778
116,0.966667,step_decsent,-0.20218382529396733,0.07727381809455211,-0.07811375089992227,0.04451840729319321,0.07277458082399414,-0.037617223291568455,0.05135589152868871,0.007319414446844023,0.06743460523158179,0.017398608111358366,0.005039596832253425,-0.047036237101031976,3.9771523737185848,2.288395728513146,-7.16978839339289,4.175093484784603,-3.3695706275255453,4.146063112427644,0.17254255889473902,-0.17286565612130772,0.15907095948467884,0.11007999999999996,0.045131,-0.9068400000000001,-0.07325300000000001,0.011198999999999999,-0.901519,0.18333299999999997,0.033932,0.005321000000000131,0.8582017532108619,0.8627841023719036,double,-0.901519
117,0.975,step_decsent,-0.19224768990761046,0.07848313932557353,-0.1047641905676385,0.16811348017285035,0.05911935540193641,-0.06683519181905098,0.004440177607112096,0.04848193927757174,0.048961958478341915,0.01260050402016353,0.0013200528021121676,-0.04776191047642063,1.1923839417205049,0.14512435269668,-3.198180687353471,-5.630110875024247,4.939700567710079,-2.216806282640111,-0.5757955227642961,-0.4463631381424807,-0.08708428841817598,0.11171900000000012,0.044881000000000004,-0.9055589999999999,-0.07154599999999989,0.010556000000000001,-0.901044,0.183265,0.034325,0.004514999999999936,0.8849216813627957,0.8724938065926069,double,-0.901044
118,0.983333,step_decsent,-0.2049681987279534,0.06492259690387586,-0.07896315852631977,0.04251065856223026,0.377825266950771,-0.02594124607069889,0.0038401536061480703,0.03492139685587404,0.04728189127565148,0.013200528021100683,-0.009120364814592715,-0.05124204968198835,-1.5265221193259209,-1.6273301838110663,3.096247694866029,-0.07200576034609661,-1.6273301838110696,-0.20161612896800998,0.0720057603428717,-1.2529002300137813,-0.41763341000452514,0.1134590000000002,0.044631000000000004,-0.9045070000000001,-0.06972800000000001,0.009939,-0.9008130000000001,0.1831870000000002,0.034692,0.003693999999999975,0.9018245903626407,0.8735678735617474,double,-0.9008130000000001
119,0.991667,step_decsent,-0.18598512119029867,0.05219582433405374,-0.05975521958244688,0.24949340170031212,0.7455864197070089,0.029535129778586414,0.0025197984161059316,0.028677705783537434,0.07187425005999089,0.014038876889866263,-0.01571874250059994,-0.054235661147109496,2.2777870815520576,-1.5270905411353728,2.304768291801416,-0.1584299484091848,-0.7491829940408735,2.950846986361837,0.10059381674653038,-0.7917419829622346,-0.35920463944338377,0.11502999999999997,0.044435,-0.90341,-0.06806099999999993,0.009373,-0.900767,0.1830909999999999,0.035061999999999996,0.002643000000000062,0.8709579309041788,0.8765923984882036,double,-0.900767
120,1.0,step_decsent,-0.15972638905555808,0.08364334573382896,-0.15768630745230192,-0.33862647669422746,-0.37976493308330234,-0.24433325257801433,0.000240009600390916,0.048361934477378965,0.10560422416897201,0.01728069122763967,-0.02208088323532934,-0.053522140885635436,3.1511739031249824,3.773853522113896,-11.75220063240785,-0.2735856013098531,2.362201931338227,4.047758803429855,0.3890332818640816,-0.7634874276646311,0.08562585641114327,0.116363,0.044141,-0.9012159999999999,-0.06658600000000003,0.008492,-0.899899,0.18294900000000003,0.035649,0.0013169999999999016,0.8064140553101007,0.8861268159675418,double,-0.899899
121,1.008333,step_decsent,-0.1558862354494121,0.06324252970118859,-0.09672386895474255,0.015289427939253386,0.45939570099041116,-0.12066692906943935,-0.00900036001440633,0.06540261610464483,0.18276731069242896,0.020520820832850693,-0.0259210368414738,-0.024000960038399112,0.46083686621217024,-2.448195851750938,7.315785251117235,-1.1088887093240525,2.0449635938156754,9.259940780446136,0.3888311058695613,-0.4608368662119879,3.5426834090047516,0.11758699999999989,0.044159000000000004,-0.898887,-0.06511599999999995,0.007749000000000001,-0.8992930000000001,0.18270299999999984,0.03641,0.0004060000000001285,0.6720641727509027,0.9319099794929162,double,-0.898887
122,1.016667,step_decsent,-0.18334533237340558,0.026877849772017855,-0.07283417326614106,-0.20241151300552632,0.2213338075801855,0.038676312480359326,-0.03851691864650987,0.05291576673866055,0.202183825293974,0.017158627309788947,-0.0140388768898488,-0.028077753779698848,-3.2948280446356217,-4.363412518498975,2.866534159899366,-3.5417036995564333,-1.4983020597533219,2.3297953685559016,-0.40343094829154313,1.4257451345842223,-0.4891761148667752,0.11879399999999984,0.044376,-0.896595,-0.0634450000000002,0.007408000000000001,-0.89892,0.18223900000000004,0.036968,0.0023250000000000215,0.6225610571630413,0.9403745763397777,double,-0.896595
123,1.025,step_decsent,-0.15840633625345013,0.04620184807392337,-0.09852394095763449,0.3414750090475222,0.32017250855614904,-0.1912575928528831,-0.03180127205087749,0.05820232809312417,0.2590903636145429,0.011160446417871308,-0.012600504020160825,-0.03012120484819435,2.9927992463645365,2.3189725551308884,-3.082895438796792,0.805909827869008,0.634412739045202,6.829057760778763,-0.7198104994501013,0.17261164882851168,-0.24522393717694962,0.11984899999999987,0.044476,-0.893615,-0.06203200000000009,0.006918000000000002,-0.8983500000000001,0.18188099999999996,0.037558,0.004735000000000045,0.5069088929738923,0.9424911782778032,double,-0.893615
124,1.033333,step_decsent,-0.1431657266290626,0.012960518420736658,-0.04224168966760156,-0.35105857603634916,0.4524102661235525,0.034961625347024974,-0.040921636865464864,0.10008400336013282,0.25177007080283303,0.02820112804511954,-0.02676107044281736,0.017760710428421266,1.8289463127789827,-3.989119123147262,6.754140320416649,-1.094487557252756,5.026002072123834,-0.8784702762162179,2.0449635938135047,-1.6993359441565208,5.7460596755807964,0.12070099999999995,0.045202000000000006,-0.891165,-0.0606040000000001,0.006587000000000001,-0.8978499999999999,0.18130500000000005,0.038615000000000003,0.006684999999999941,0.47647251641641863,0.9287628890959352,single,-0.891165
125,1.041667,step_decsent,-0.14482841372692623,0.053155747540198084,-0.09791216702663108,0.15834211629686024,-0.07732455937602901,-0.32127214300467893,-0.04571634269258123,0.15706743460523429,0.2583393328533719,0.012838972882179181,-0.006119510439164859,-0.024118070554356916,-0.19950649122434144,4.823041651003383,-6.679922889252529,-0.575318673760074,6.837464752232128,0.788248386193784,-1.8433111546605052,2.4767890573137623,-5.0250517137963735,0.12152700000000016,0.046068,-0.888196,-0.05928999999999984,0.0060929999999999995,-0.897235,0.180817,0.039975,0.00903900000000002,0.40961000000000036,0.9533342571535095,single,-0.888196
126,1.05,step_decsent,-0.1383655346213776,0.01752070082803285,-0.05280211208448197,-0.1236653675272976,0.20957120913971317,-0.11000229816316455,-0.02208088323535111,0.11904476179046951,0.2595703828153112,0.0073202928116963455,0.00024000960038383484,-0.017160686427457307,0.7755765157264511,-4.276376660526174,5.4134231299829985,2.836368589611149,-4.562903253901849,0.14773190470890057,-0.662268099181896,0.7631729316630964,0.8349194920076188,0.12249599999999994,0.046914,-0.8855930000000001,-0.058076000000000016,0.005948999999999998,-0.896938,0.18057199999999995,0.040965,0.011344999999999938,0.40918453218882345,0.9689027756633969,single,-0.8855930000000001
127,1.058333,step_decsent,-0.14256570262810245,0.021840873634945374,-0.06408256330253682,0.01579997099331965,0.030289004589067196,-0.24189473565673783,-0.07140285611423336,0.13632545301812216,0.31537261490459473,0.00312012480500201,0.002040081603264316,-0.015000600024006107,-0.5040403224198831,0.5184414744884871,-1.353708294498375,-5.91887350040594,2.073765897954255,6.696535712142571,-0.5040403224162214,0.2160172810369012,0.2592207372436361,0.123089,0.047868,-0.882431,-0.05686199999999997,0.005784000000000001,-0.896529,0.17995099999999997,0.042083999999999996,0.014098000000000055,0.35902,0.9742385347624393,single,-0.882431
128,1.066667,step_decsent,-0.14818814494841465,0.002279817614591014,-0.03575713942883455,-0.06003226109348024,0.05846636655795019,-0.0882814921071578,-0.07295416366689912,0.17842572594192313,0.34617230621550327,0.003959683225335912,-0.000599952003839872,-0.013438924886002474,-0.674639107308874,-2.347138951326399,3.3987789625272447,-0.18614201495869334,5.051628620566433,3.6956673039246826,0.1007389513239615,-0.31677869055725555,0.18738602567838025,0.12371600000000016,0.049336,-0.879248,-0.05559399999999992,0.005759999999999998,-0.8963430000000001,0.17931000000000008,0.043576000000000004,0.017095000000000082,0.3290500000000003,0.976628380473583,single,-0.879248
129,1.075,step_decsent,-0.129725189007548,0.03960158406336253,-0.06072242889717054,0.394883869231442,0.038427508380086586,-0.347935075371021,-0.08964358574343693,0.21456858274331186,0.35353414136565836,-0.00048001920075519197,-0.010920436817472687,-0.013920556822273616,2.2156433386375625,4.478791125497644,-2.9959545743833216,-2.0028107616150206,4.337316308819041,0.883455556240869,-0.5327856025550395,-1.2385077179446669,-0.05779814427830869,0.12405,0.050794000000000006,-0.875796,-0.05451699999999993,0.005339000000000002,-0.895953,0.17856699999999992,0.045455,0.02015699999999998,0.2984300000000002,0.9705010235130638,single,-0.875796
130,1.083333,step_decsent,-0.12492499699988617,0.039001560062402095,-0.0774030961238444,0.13996993781774378,-0.2363879103177697,-0.3177738844670285,-0.10512420496820876,0.24168966758669905,0.3537741509660332,-0.0014400576023188305,-0.0038401536061442717,-0.009720388815552181,0.576046082762721,-0.07200576034566508,-2.001760137606332,-1.8577486169172635,3.25466036762111,0.028802304137146552,-0.11520921655629686,0.8496679720782782,0.5040403224194602,0.12421499999999996,0.052483,-0.872203,-0.05348799999999998,0.004981999999999999,-0.895389,0.17770299999999994,0.047501,0.02318600000000004,0.26814000000000016,0.9824163503707524,single,-0.872203
131,1.091667,step_decsent,-0.14158867290616525,0.012119030477562073,-0.006839452843769477,0.03273518016625874,0.19814298433544397,-0.10727453055569805,-0.13462922966161106,0.3076553875690008,0.36261099112071354,-0.0008399328053597739,0.0019198464122871003,-0.0065994720422400165,-1.999481150261507,-3.2256454985409806,8.466959836822205,-3.540319737629333,7.915253177622151,1.060335991682326,0.07200921489789631,0.691144710634927,0.37448005439311544,0.12427300000000008,0.054946,-0.869124,-0.05231499999999989,0.004896999999999999,-0.8953869999999999,0.17658799999999997,0.050049,0.026262999999999925,0.2373700000000002,0.988459692787572,single,-0.869124
132,1.1,step_decsent,-0.09936397455898673,0.07728309132365144,-0.08160326413056547,-0.020512413497051955,-0.32088722302242095,-0.38791526497156165,-0.1640465618624858,0.39829593183726597,0.36625465018600095,-0.003720148805965886,0.004680187207488319,-0.00840033601344213,5.067166488320868,7.820000101534648,-8.972016235064764,-3.5302210729478265,10.8773004042078,0.4372565780976052,-0.3456397456625539,0.33125414558996397,-0.2161123210370914,0.12373400000000001,0.057621,-0.8653919999999999,-0.05151799999999995,0.004292000000000001,-0.8947769999999999,0.17525199999999996,0.053329,0.029384999999999994,0.20615000000000006,0.9828155994047574,single,-0.8653919999999999
133,1.108333,step_decsent,-0.1144845793831643,0.05520220808832387,-0.040321612864501984,0.2923683619016531,-0.11407794023804048,-0.33812036187801975,-0.2342493699747956,0.5175807032281344,0.3974558982359375,0.01800072002881266,0.021360854434177484,-0.05820232809311918,-1.8145451607077532,-2.6498119807185607,4.953996311780135,-8.424673960435667,14.314745156710615,3.7442995379739417,2.6066085245144297,2.001760137608222,-5.976478108685647,0.12273599999999996,0.061474,-0.8617440000000001,-0.05041399999999996,0.004010000000000001,-0.8949260000000001,0.17314999999999992,0.057464,0.033182000000000045,0.1681800000000001,0.8924022018609619,single,-0.8617440000000001
134,1.116667,step_decsent,-0.10787137029037393,0.04271658267338606,-0.007319414446854847,0.12041467569248658,0.09968748709749012,-0.07968813016496966,-0.29997600191983775,0.6436285097192168,0.3772498200143936,-0.01787856971444392,-0.0122390208783296,0.033117350611950605,0.7935216094060855,-1.498155197376736,3.9599470143564774,-7.886564908212343,15.124526816784428,-2.4245354237513506,-4.3051703555623115,-4.031662504500459,10.957484845820625,0.12113499999999999,0.066482,-0.8585389999999999,-0.04966400000000015,0.0035519999999999996,-0.894589,0.17079900000000015,0.06293,0.036050000000000026,0.1395000000000003,0.9340413471549267,single,-0.8585389999999999
135,1.125,step_decsent,-0.11112444497779801,0.07692307692307754,-0.04884195367815312,0.043200941820642,-0.20824909149737694,-0.1972865371563809,-0.3663746549861995,0.7197887915516691,0.32149285971438996,-0.005040201608049424,0.026881075243009995,-0.003960158406336919,-0.39038457787400865,4.104943507703323,-4.982904023916794,-7.96815709424725,9.13959940387051,-6.691102880115705,1.5406657993993296,4.694599318533536,-4.449479061356998,0.119008,0.071839,-0.855453,-0.048780000000000046,0.0031350000000000006,-0.894215,0.16778800000000005,0.068704,0.03876199999999996,0.11238000000000037,0.9539421048789488,single,-0.855453
136,1.133333,step_decsent,-0.11616464658587408,0.08952358094323856,-0.106444257770295,-0.18976855051992464,-0.6751741841073982,-0.21953252186660666,-0.3798151926077179,0.7485899435977508,0.25477019080763963,-0.007920316812687163,0.027721108844354064,-0.0064802592103682935,-0.6048483869046101,1.5121209672580271,-6.912552993176815,-1.6129290317434952,3.456276496589698,-8.00704055043213,-0.34562764966251824,0.10080806448386853,-0.30242419345150573,0.116811,0.077331,-0.8524430000000001,-0.04787800000000009,0.002620000000000001,-0.8933820000000001,0.16468900000000009,0.074711,0.04093900000000006,0.09060999999999997,0.9507504920101445,single,-0.8524430000000001
137,1.141667,step_decsent,-0.09155267578594473,0.08447324214062808,0.04811615070792784,0.4707555423024484,0.3846900004319786,-0.053263405316598185,-0.33693304535635954,0.8268538516918577,0.24358051355891058,0.028797696184307192,0.06995440364770747,0.008159347252214599,2.9532002399723023,-0.6059921769390978,18.545765356158107,5.145446034480205,9.390917697876924,-1.3426538575388722,4.405809094911696,5.067589969204834,1.7566122465302112,0.11476600000000015,0.083518,-0.850814,-0.046875,0.0024989999999999995,-0.893715,0.16164100000000015,0.081019,0.04290100000000008,0.07098999999999978,0.8731853841799391,single,-0.850814
138,1.15,step_decsent,-0.13116524660986686,0.08952358094323856,0.026761070442828067,0.05618301565163729,0.1716177002865686,0.017450971044627502,-0.4216968678747209,0.882995319812801,0.16332653306132408,0.03984159366374679,0.006240249609984452,-0.049801992079683485,-4.753698646816573,0.6060648989092194,-2.5627121402976076,-10.172065584826846,6.737245664339836,-9.630862894226237,1.3253207103611782,-7.6460043246998195,-6.955638945385649,0.11234500000000014,0.09013,-0.8496760000000001,-0.04544999999999999,0.0018049999999999993,-0.8943530000000001,0.15779500000000013,0.088325,0.04467699999999997,0.05322999999999978,0.8931962896508159,single,-0.8496760000000001
139,1.158333,step_decsent,-0.09480379215166597,0.10908436337453309,0.06504260170407211,0.5668404292003295,0.3047834812633661,-0.0055568424548938684,-0.40045601824074006,0.90891635665425,0.14088563542541555,0.00336013440539284,0.004200168006720233,-0.009720388815552181,4.363549076947109,2.347387787266793,4.593967510049607,2.549003916234303,3.1106488469276994,-2.693015436926454,-4.3779502290115575,-0.244819585175109,4.809984791087317,0.10979799999999984,0.09679499999999999,-0.8490440000000001,-0.044632000000000005,0.0009309999999999995,-0.8949760000000001,0.15442999999999985,0.09586399999999999,0.04593199999999997,0.040679999999999716,0.9814844004783585,single,-0.8490440000000001
140,1.166667,step_decsent,-0.09743220542357216,0.11771058315334988,0.04643628509718293,0.6724956082407784,0.008992246676262316,-0.0646136906819917,-0.40916726661866787,0.9518838492920759,0.10139188864890818,0.0014398848092034085,0.0031197504199664597,-0.0009599232061444868,-0.3153843618797982,1.035063568372565,-2.2325793864758263,-1.045266184056632,5.155686661606284,-4.738870503540691,-0.23041151862124645,-0.12963973923131672,1.0511717793865925,0.10719999999999996,0.103747,-0.8485860000000001,-0.04380800000000007,-2.3999999999999716e-05,-0.895371,0.15100800000000003,0.103771,0.046784999999999966,0.03214999999999979,0.9940540481772259,single,-0.8485860000000001
141,1.175,step_decsent,-0.09540381615265658,0.10932437297491712,0.10632425297011003,0.21445674929062977,0.4721714502320429,0.15003810417890487,-0.4132965318612675,0.9816392655706048,0.06936277451098198,0.0026401056042201017,-0.001200048001920007,-0.0021600864034515992,0.24341644916783123,-1.0063854768309868,7.186843618495866,-0.49553165037796515,3.5707927851348042,-3.8436474424487743,0.14403225669226835,-0.5183965464882264,-0.1440253446906386,0.10455100000000006,0.111016,-0.8488939999999999,-0.042991,-0.0009449999999999997,-0.8962749999999999,0.14754200000000006,0.111961,0.047381000000000006,0.026189999999999936,0.993973151256732,single,-0.8488939999999999
142,1.183333,step_decsent,-0.08544341773668912,0.12372494899796113,0.05352214088562949,0.22846576592782317,0.0676306445827535,0.10628626593898075,-0.39793591743668605,1.0110404416176741,0.03348133925356729,0.0009600384015370304,-0.0021600864034562366,0.0022800912036471162,1.1952956217409763,1.7281382482952288,-6.33650691041414,1.8433474648483879,3.528282256938635,-4.305944468668549,-0.20161612896712908,-0.11520921655301074,0.532842626556913,0.10194700000000001,0.11841,-0.8490609999999998,-0.04227100000000017,-0.001994000000000001,-0.8967019999999999,0.14421800000000018,0.120404,0.047641000000000044,0.02359000000000011,0.994526208174966,single,-0.8490609999999998
143,1.191667,step_decsent,-0.0806335493160548,0.19594432445404206,0.012958963282963547,0.30361056320747626,-0.3575259998830727,-0.21455337495708787,-0.3927285817134697,1.0410367170626273,0.006959443244540683,0.0013198944084453037,-0.00755939524837993,0.0021598272138250376,0.5771380394329586,8.66563180418531,-4.867191936964919,0.6248303003619289,3.599265112185382,-3.182372931248669,0.04317926648767345,-0.6478652321722645,-0.014430524336702397,0.09934599999999993,0.125453,-0.8491110000000002,-0.04158800000000018,-0.003689999999999999,-0.896792,0.14093400000000011,0.129143,0.04768099999999986,0.023190000000000266,0.9867134747285231,single,-0.8491110000000002
144,1.2,step_decsent,-0.10572422896917553,0.16824672986919637,0.03888155526220976,0.12187443289877864,-0.09575307370730192,0.02391093931540951,-0.422056882275294,1.061202448097934,-0.024720988839551886,0.0014400576023188686,-0.00660026401056063,0.006840273610941349,-3.011001998454453,-3.3238443039536714,3.110835470928411,-3.5195368488929017,2.4199845236177735,-3.8018039222480327,0.014420160071230774,0.11510035255241916,0.5616760346953503,0.09671000000000007,0.132894,-0.8496410000000001,-0.040694999999999926,-0.0051470000000000005,-0.897059,0.137405,0.138041,0.04741799999999996,0.025819999999999843,0.9839768748730988,single,-0.8496410000000001
145,1.208333,step_decsent,-0.0943237729509108,0.14988599543981498,0.07452298091923339,0.03275286586670807,0.15222455237196691,0.1949147066102885,-0.39553582143284627,1.0937237489499367,-0.060722428897155595,0.0,-0.006960278411136207,0.011160446417857689,1.3681094465696078,-2.2033762665763903,4.277142164529342,3.1826546072779602,3.902712210728681,-4.320345620737199,-0.17281382483125446,-0.04320345620731674,0.5184414744889313,0.09420000000000006,0.140759,-0.8507680000000001,-0.03990899999999997,-0.006454,-0.8975870000000001,0.13410900000000003,0.14721299999999998,0.046819000000000055,0.031810000000000005,0.9780783567243085,single,-0.8507680000000001
146,1.216667,step_decsent,-0.10187185025199375,0.1923446124310092,0.030837532997355005,0.021924840538232494,-0.16747356374241912,0.030377413950016443,-0.39944804415649154,1.108591312695005,-0.08087353011759309,-0.010799136069105493,-0.038036957043437195,0.03659707223422192,-0.9056968203843405,5.094626468825896,-5.241834403873195,-0.4694291725036417,1.783964932213661,-2.4179387113556365,-1.2957926648794935,-3.7289031236262993,3.0521509258896944,0.09172000000000002,0.148395,-0.851699,-0.039149999999999796,-0.008374,-0.8975390000000001,0.13086999999999982,0.156769,0.0458400000000001,0.04160000000000008,0.910204288380665,single,-0.851699
147,1.225,step_decsent,-0.08448337933514984,0.2120484819392739,0.011040441617662232,0.14113140120158246,-0.2587114113442191,-0.01961575696003743,-0.3940957638305274,1.128165126605047,-0.11532461298451611,-0.019200768030740094,0.00612024480979216,0.030241209648382342,2.0866999780203535,2.364558923348656,-2.3757459954029074,0.6422993310889281,2.348951627270074,-4.134295315843325,-1.0082361648427283,5.299076185434847,-0.7627340196615225,0.08914,0.156029,-0.852752,-0.03860600000000014,-0.010090000000000002,-0.897379,0.12774600000000014,0.16611900000000002,0.04462700000000008,0.05372999999999972,0.939431910434539,single,-0.852752
148,1.233333,step_decsent,-0.11520460818433706,0.2046081843273749,0.011160446417844663,-0.006297888560353623,-0.2094815147137899,0.10850509231845028,-0.3878555142205872,1.1461658466338762,-0.14592583703348205,-0.006840273610941349,0.001920076803072187,0.017760710428421738,-3.6866949296996885,-0.8928714282850182,0.014401152067974533,0.7488599075891326,2.1601728103719435,-3.6722937776270514,1.483318663122388,-0.5040403224192981,-1.4977198151878937,0.08686799999999995,0.16387500000000002,-0.854061,-0.03770300000000004,-0.011779,-0.8973239999999999,0.12457099999999999,0.175654,0.04326299999999994,0.06737000000000004,0.9681183232298061,single,-0.854061
149,1.241667,step_decsent,-0.11567074634028768,0.2131029517638573,0.015718742500612223,-0.08054385379289872,-0.1634628267825013,0.10968041983443058,-0.38540916726661484,1.1498680105591441,-0.16750659947204197,0.03419726421887312,-0.011039116870650272,0.0201583873290137,-0.055932104145742116,1.0192905491339486,0.5469517737901998,0.2935381514245705,0.4442241331014963,-2.5894843338804594,4.92411061072884,-1.55497884253928,0.2876982122140563,0.08461999999999992,0.171682,-0.855588,-0.036453999999999986,-0.013647,-0.897287,0.1210739999999999,0.185329,0.04169899999999993,0.08301000000000014,0.9313285689143619,single,-0.855588
150,1.25,step_decsent,-0.1128045121805078,0.20616824672987108,0.011520460818417717,-0.1761805393166412,-0.21723514803156938,0.17024902915800932,-0.39385575423017366,1.1647665906636395,-0.1878075123004917,-0.03756150246009967,0.012000480019200805,-0.0022800912036471162,0.34396185764789455,-0.8321978919940333,-0.5038139544215221,-1.0136309808663027,1.7879011285846085,-2.4362069876934975,-8.611396457335108,2.7648622212710054,-2.6927251329246396,0.08227800000000007,0.17967000000000002,-0.8572489999999999,-0.03582699999999983,-0.015265,-0.8974019999999998,0.1181049999999999,0.19493500000000002,0.04015299999999988,0.09847000000000006,0.9341703206995452,single,-0.8572489999999999
151,1.258333,step_decsent,-0.09168366734669313,0.2434897395895858,0.013560542421700562,0.0751740985418351,-0.1489505400557831,0.01736071898760693,-0.3734549381975317,1.170886835473428,-0.1976479059162396,-0.0010800432017458131,0.003600144005760325,-0.001680067202689803,2.5346027641683504,4.478758293497548,0.2448195851773507,2.4481958517511244,0.7344587555248557,-1.1808944696685455,4.377950229011664,-1.0080806448386603,0.07200576034529206,0.07993000000000006,0.187398,-0.8590089999999999,-0.03507199999999999,-0.017264,-0.8975289999999999,0.11500200000000005,0.204662,0.03852,0.11480000000000001,0.9931382388101799,single,-0.8590089999999999
152,1.266667,step_decsent,-0.11639068874488936,0.24646028317734392,-0.030597552195811405,0.10558329091724745,-0.3097143694750627,0.10034992850695384,-0.3531317494600307,1.1582673386129014,-0.2583393328533717,-0.0025197984161058977,0.011999040076793692,0.003119750419962838,-2.9646053993515777,0.35643671559372325,-5.298547470303771,2.438587561495188,-1.5142184857843246,-7.282388641364486,-0.17275680517879452,1.0077869055715505,0.5759320401551001,0.07795700000000005,0.194997,-0.8609070000000001,-0.0341229999999999,-0.019218,-0.897248,0.11207999999999996,0.214215,0.03634099999999996,0.13658999999999988,0.9789142498417396,single,-0.8609070000000001
153,1.275,step_decsent,-0.10920436817472395,0.2102484099363994,0.012480499219954748,-0.3411932633775744,0.1129207343787866,0.34651204120894624,-0.3688947557902375,1.1550462018480838,-0.25609024360974303,0.0012000480019013031,0.01428057122284917,-0.0002400096003842576,0.8623929641384227,-4.345598612857897,5.169572952810098,-1.8916364250818403,-0.38655187385307105,0.2699015052956529,0.44639942613791367,0.27379468931423245,-0.40318732993485257,0.075793,0.20287,-0.8631449999999998,-0.033203000000000094,-0.020851,-0.897354,0.10899600000000009,0.223721,0.034209000000000156,0.15790999999999955,0.9761118093875044,single,-0.8631449999999998
154,1.283333,step_decsent,-0.09840393615744973,0.24672986919476353,-0.0393615744629639,0.030240612672571648,-0.33503890233618716,0.16631054705994583,-0.3906156246249791,1.1525261010440218,-0.27697107884315275,0.008640345613833042,-0.0006000240009600035,-0.006000240009599618,1.2961036862203328,4.37795022901278,-6.221297693857883,-2.6066085245099284,-0.3024241934551806,-2.505800460027524,0.8928714282889246,-1.7857428565713325,-0.6912552993178039,0.07335800000000003,0.210418,-0.865125,-0.03231099999999998,-0.022912000000000002,-0.897076,0.10566900000000001,0.23332999999999998,0.03195099999999995,0.18048999999999993,0.9824391153332017,single,-0.865125
155,1.291667,step_decsent,-0.12359011279098944,0.24754019678426184,-0.03983681305495624,-0.43100077934189995,-0.19978363353132012,0.17295512031259525,-0.38516918646508236,1.1318694504439857,-0.2942164626829921,0.0,0.01499880009599262,-0.005159587233016625,-3.022099428070577,0.09723153221722178,-0.05702406911355279,0.6535202975638186,-2.4785997840216543,-2.0692805183392964,-1.0367585329773465,1.8717091549019582,0.10087026356887559,0.07117800000000019,0.21778799999999998,-0.867245,-0.03128099999999989,-0.024849999999999997,-0.896787,0.10245900000000008,0.242638,0.029541999999999957,0.20458000000000043,0.973564263206438,single,-0.867245
156,1.3,step_decsent,-0.1105244209768311,0.24552982119284353,-0.0423616944677837,-0.09300408558956236,-0.03922215879156237,0.302821869987402,-0.4008160326413131,1.149525981039222,-0.3344533781351176,-0.009120364814588222,0.0057602304092162,-0.012120484819394694,1.5679457355283948,-0.24125472115903956,-0.302997889454868,-1.877696649013617,2.1188684261653665,-4.828622999174941,-1.0944875572528576,-1.1086727093215238,-0.835341124010314,0.06875900000000001,0.225321,-0.869679,-0.030435999999999908,-0.026848,-0.896535,0.09919499999999992,0.252169,0.02685599999999999,0.2314400000000001,0.9729574686334648,single,-0.869679
157,1.308333,step_decsent,-0.11136445457818893,0.26533061322453133,-0.07860314412577442,-0.2404081428123643,-0.3616402111325314,0.08965500449172903,-0.396015840633612,1.1512060482419424,-0.3656546261850534,0.0074402976119053235,0.0037201488059522454,-0.002520100804031374,-0.10080806448551977,2.3761900914062144,-4.349147924875921,0.5760460827674477,0.2016161289716091,-3.7442995379738484,1.9873589855386653,-0.2448195851750838,1.15209216553023,0.0663870000000002,0.23270300000000002,-0.8720709999999999,-0.02944599999999986,-0.029027999999999998,-0.8959009999999998,0.09583300000000006,0.261731,0.023829999999999907,0.2617000000000004,0.9855135653728286,single,-0.8720709999999999
158,1.316667,step_decsent,-0.10343172546195246,0.24202063834893042,-0.03071754259656947,-0.1710658291821158,0.14425920504113596,0.34787378497673693,-0.4194864410847299,1.0694744420446287,-0.37808975281976664,-0.0005999520038436186,0.0032397408207344345,-0.007199424046076798,0.9518513458407012,-2.7969732272139107,5.745812518503069,-2.816246754393772,-9.807008183022925,-1.492095828499298,-0.9647527736679723,-0.057644346678402604,-0.5614738711357558,0.06375299999999995,0.239599,-0.8749660000000001,-0.028588999999999976,-0.031018,-0.8957050000000001,0.09234199999999992,0.270617,0.020738999999999952,0.2926099999999999,0.9868040863240339,single,-0.8749660000000001
159,1.325,step_decsent,-0.0936037441497672,0.29869194767790963,-0.10212408496341834,-0.16173043624426087,-0.4650526264510666,-0.031917425846928284,-0.4281771270850892,1.0519620784831485,-0.395415816632668,0.002040081603256197,0.0010800432017279101,-0.0019200768030740608,1.1794049336595887,6.800829152643673,-8.569127849135906,-1.042924037004609,-2.10156769008525,-2.0792108259812214,0.3168167055202016,-0.25917408124403507,0.6335470110407758,0.060964999999999936,0.245876,-0.8774099999999999,-0.02779200000000004,-0.033498,-0.8948699999999999,0.08875699999999997,0.279374,0.01746000000000003,0.3253999999999997,0.9949958014307856,single,-0.8774099999999999
160,1.333333,step_decsent,-0.08808352334093358,0.2505700228009076,-0.08292331693267552,-0.22563010905096764,-0.08979724914828593,0.3156268728670268,-0.4200168006719999,1.090843633745329,-0.4496579863194449,0.002520100804037968,0.0006000240009602116,-0.004560182407294111,0.6624529951798297,-5.774861979719329,2.3041843310623404,0.9792783407043247,4.665973270392409,-6.509320735242526,0.05760460827814263,-0.05760460827645387,-0.3168253455202213,0.05819900000000011,0.252878,-0.880466,-0.027036999999999978,-0.035581,-0.8942169999999999,0.08523600000000009,0.288459,0.013750999999999958,0.36248999999999987,0.9912589410042738,single,-0.880466
161,1.341667,step_decsent,-0.09215262778976416,0.25785937125030506,-0.04487640988719481,0.048253999130763274,0.2423388369039236,0.22628272905830596,-0.40556755459565935,1.0260379169666591,-0.5043196544276568,0.0019198464122889736,-0.0005999520038398879,-0.00287976961843346,-0.4882534735817916,0.8746518417803666,4.565263624367822,1.733770827494702,-7.776063928326279,-6.558875462948515,-0.07202476502867841,-0.14398560172787644,0.20163340399096266,0.05558699999999983,0.25927999999999995,-0.884295,-0.026253000000000082,-0.037735000000000005,-0.8938670000000001,0.08183999999999991,0.297015,0.009572000000000025,0.40427999999999975,0.9941455558882013,single,-0.884295
162,1.35,step_decsent,-0.11316452658107784,0.2574102964118521,-0.06552262090485395,-0.516201015718848,0.13277439151089865,0.309580526978924,-0.3724948997959848,1.0274810992439534,-0.4819392775710968,-0.000360014400573046,-0.0008400336013440465,-0.000360014400573046,-2.521528716106242,-0.053891136259805544,-2.477644427896169,3.968877331054116,0.1731888008273377,2.685752652893272,-0.2735942413130901,-0.02881094413826406,0.3023827214521025,0.053425999999999974,0.26569699999999996,-0.8877649999999999,-0.02531299999999992,-0.039887000000000006,-0.8933239999999999,0.07873899999999989,0.30558399999999997,0.005558999999999981,0.4444100000000002,0.9983628639601876,single,-0.8877649999999999
163,1.358333,step_decsent,-0.09084363374533824,0.2492499699988021,-0.058682347293887695,0.2899280736336416,0.22264429479446457,0.28669348303070363,-0.4002160086403332,0.9897995919836924,-0.4796591863674558,-0.00216008640346498,-0.0019200768030719789,-0.00108004320173249,2.6786142848601706,-0.9792783406996344,0.8208656679426753,-3.3266661279669525,-4.521961749701347,0.27362188931249226,-0.2160172810382756,-0.12961036862209793,-0.0864069124156307,0.050848000000000004,0.271868,-0.891273,-0.024574000000000096,-0.04198,-0.892844,0.0754220000000001,0.313848,0.001570999999999989,0.48428999999999955,0.9948578102595247,single,-0.891273
164,1.366667,step_decsent,-0.09503239740822172,0.28821694264458597,-0.08855291576672664,-0.34859399605428026,0.026916113140635627,0.13177403956516492,-0.3808495320374353,0.9590832733381223,-0.4395248380129589,-0.004079673626093978,-0.0028797696184306777,-0.0002399808015361153,-0.5026114306315635,4.675662664480869,-3.584181482222068,2.3237912890446024,-3.685663384397634,4.815736543616104,-0.23033204015226577,-0.11515392552900065,0.10079942406963861,0.04846600000000012,0.277459,-0.894198,-0.023815999999999837,-0.044406,-0.8921080000000001,0.07228199999999996,0.321865,0.0020899999999999253,0.5,0.9707675999296275,single,-0.8921080000000001
165,1.375,step_decsent,-0.08172326893074977,0.3027721108844383,-0.11928477139084945,0.045662082016334905,-0.13819554914045135,0.06064972673078358,-0.40477619104765405,0.9410776431057347,-0.5053402136085448,-0.00312012480500201,-0.004200168006720136,-0.0012000480019146262,1.5971593036687959,1.7466900563845489,-3.6879701937025193,-2.8713139337836253,-2.1607620583688605,-7.898160997910293,0.11515046454961915,-0.1584541447605269,-0.11521267255232445,0.04577399999999998,0.28277800000000003,-0.8974150000000001,-0.023160999999999987,-0.046964,-0.891124,0.06893499999999997,0.329742,0.0062910000000000466,0.5,0.9281431344268318,single,-0.891124
166,1.383333,step_decsent,-0.1220448817952784,0.2624504980199234,-0.06480259210370957,-0.4944306640783259,0.3503823646192354,0.2600134310206996,-0.3613344533781234,0.918996759870403,-0.4262570502820151,-0.006120244809795237,-0.003480139205568404,-0.00108004320173249,-4.83878709522729,-4.838787095225642,6.538123039378419,5.213217049025685,-2.649811980719063,9.490359213552187,-0.36002880172725965,0.08640691241470526,0.014401152067939195,0.04378000000000015,0.288249,-0.9004269999999999,-0.022194999999999965,-0.04918,-0.890593,0.06597500000000012,0.337429,0.009833999999999898,0.5,0.8897885521406794,single,-0.890593
167,1.391667,step_decsent,-0.08795296376288302,0.30213582913366693,-0.08507319414444964,-0.09316145538609116,0.2367819188662961,0.16739634590867336,-0.34713222942164773,0.8948884089272814,-0.3965682745380342,-0.004079673626120621,-0.004799616030717518,0.00155987520998808,4.090702907654803,4.761858784946395,-2.4322776626757747,1.704130544333523,-2.8927706915192464,3.562368099829692,0.2448489541246221,-0.15832455305364823,0.3167648682170086,0.04161999999999999,0.29318900000000003,-0.903023,-0.02149600000000018,-0.051738,-0.8898710000000001,0.06311600000000017,0.34492700000000004,0.013151999999999942,0.5,0.8576642114366799,single,-0.8898710000000001
168,1.4,step_decsent,-0.10392415696628361,0.28549141965678876,-0.10296411856474658,0.03257488176011448,0.10400747234664473,0.1106640363620393,-0.3674546981879453,0.8375135005400242,-0.45277811112445226,-0.005040201608049424,-0.0060002400096004025,0.0021600864034516565,-1.9166198492020572,-1.9974090335867427,-2.1469968103080648,-2.438793803707878,-6.885264417047613,-6.7454502083785615,-0.11526796855019944,-0.14408064069157508,0.07202822434460363,0.039423999999999904,0.29778899999999997,-0.905938,-0.020672000000000024,-0.054167,-0.888995,0.06009599999999993,0.351956,0.01694300000000004,0.5,0.8170225027226254,single,-0.888995
169,1.408333,step_decsent,-0.07344293771751424,0.31393255730228664,-0.12852514100564327,-0.03613231686358073,-0.0806178723962395,0.0873055058387667,-0.324012960518406,0.8017520700827884,-0.38737549501979507,-0.006960278411149946,-0.006000240009600243,0.005640225609026572,3.657892625557283,3.413073040381301,-3.067445390723179,5.213217049026585,-4.291543316600883,7.848627877673833,-0.23041843310938293,1.9152113259313988e-14,0.41763341000538273,0.037336000000000036,0.30185399999999996,-0.908095,-0.02011800000000008,-0.056833,-0.887877,0.057454000000000116,0.358687,0.020217999999999958,0.5,0.7798493062139857,single,-0.887877
170,1.416667,step_decsent,-0.12323014158866194,0.2957763378929744,-0.1053515718742442,-0.4564539756341606,0.2089020747851246,0.2294680989530075,-0.3004559635229313,0.7846172306215672,-0.3542116630669626,-0.008639308855273737,-0.003479721622270226,0.014158867290617858,-5.9739865456141885,-2.17857204335404,2.780605847300158,2.8266135103761876,-2.0560162540462574,3.9793414870210086,-0.20146753589198743,0.3024380114386927,1.0221552293726242,0.03585899999999986,0.305928,-0.910169,-0.01916300000000004,-0.059327000000000005,-0.886881,0.055021999999999904,0.365255,0.023287999999999975,0.5,0.7388740738916486,single,-0.886881
171,1.425,step_decsent,-0.09348373934958257,0.32677307092283076,-0.11424456978279698,-0.11255208230946165,0.15765325751707968,0.019132364792469898,-0.2684507380295218,0.7436697467898595,-0.34693387735508535,-0.003840153606148019,-0.013800552022080704,0.013680547221888995,3.5697110571317476,3.7197567538528498,-1.067202437123801,3.840780690436691,-4.913894615589456,0.8733692201940637,0.5759216667617465,-1.2385491899448335,-0.057400704275633666,0.034400999999999904,0.309402,-0.9121079999999999,-0.018415999999999988,-0.062165,-0.885815,0.05281699999999989,0.371567,0.0262929999999999,0.5,0.7040565604755972,single,-0.885815
172,1.433333,step_decsent,-0.10260410416417352,0.31261250450018324,-0.1321252850114039,-0.26439261924702295,0.13499266976965332,0.21355072468191055,-0.24768990759628737,0.7093483739349639,-0.300732029281175,-0.01680067202688471,-0.014400576023041092,0.02004080163206219,-1.094487557253215,-1.6993359441554834,-2.14577165829918,2.4913993079604726,-4.118729491767189,5.544443546611159,-1.5553244234653556,-0.07200576034566097,0.7632610596631771,0.03319200000000011,0.312708,-0.913513,-0.017700999999999967,-0.06489,-0.884547,0.05089300000000008,0.377598,0.028966000000000047,0.5,0.6605830099716299,single,-0.884547
173,1.441667,step_decsent,-0.10067194624430378,0.33705303575713674,-0.151667866570665,-0.31137840128237876,-0.04851738664858935,0.004738039848183968,-0.2230621550276027,0.6627069834413196,-0.3054955603551684,-0.016438684905213906,-0.01871850251979826,0.014518838492924985,0.23184040315211482,2.9326291405031575,-2.3449221933358486,2.955093900730078,-5.59651913770625,-0.5715780026389937,0.04343497980211186,-0.5181097308323899,-0.6625825700908524,0.03217200000000009,0.315422,-0.914795,-0.016998999999999986,-0.067855,-0.883162,0.049171000000000076,0.383277,0.03163300000000002,0.5,0.6356130497228014,single,-0.883162
174,1.45,step_decsent,-0.10752430097204081,0.3109324372974951,-0.07980319212770236,-0.21610760128484743,0.6227339519308934,0.29623544429011994,-0.19620784831394072,0.6308652346093916,-0.30349213968559063,-0.020520820832824048,-0.021720868834753455,0.018840753630140906,-0.8223154599468488,-3.134597199044989,8.624105897391491,3.2226457114679263,-3.8211627063396523,0.24042009715321955,-0.48987590634947553,-0.36029836972941565,0.5186505624884149,0.031433000000000044,0.31808800000000004,-0.9166589999999999,-0.0162739999999999,-0.070627,-0.8823399999999999,0.047706999999999944,0.38871500000000003,0.03431899999999999,0.5,0.597934561149522,single,-0.8823399999999999
175,1.458333,step_decsent,-0.09024360974437186,0.34717388695547213,-0.18024720988837944,-0.3513637572555846,-0.1135874708558544,0.04314059826395543,-0.18240729629184438,0.5826233049321868,-0.28993159726388235,-0.022680907236288423,-0.021000840033601163,0.022800912036483878,2.0737658979561564,4.349147924874164,-12.053764281852313,1.6561324879510506,-5.789263131789741,1.6273301838123186,-0.2592207372452103,0.08640691241477004,0.47523801828187956,0.030664999999999942,0.32005,-0.917573,-0.01571100000000003,-0.07369500000000001,-0.880648,0.04637599999999997,0.393745,0.036924999999999986,0.5,0.5667330659366537,single,-0.880648
176,1.466667,step_decsent,-0.08507319414447854,0.34677225821934865,-0.18406527477801218,-0.3474773678240957,-0.0456904314048892,0.11563661275445211,-0.1631869450444029,0.551955843532527,-0.276217902567803,-0.021478281737452917,-0.015718742500600152,0.028317734581235716,0.620400239968012,-0.04819159300737825,-0.45813113626503615,2.306257649081095,-3.679800983880537,1.645511722591747,0.1443035155790172,0.6338009998801429,0.6619657481103843,0.030013999999999985,0.32176,-0.9183410000000001,-0.015180999999999889,-0.076716,-0.878878,0.045194999999999874,0.398476,0.039463000000000026,0.5,0.5405992602068457,single,-0.878878
177,1.475,step_decsent,-0.09768390735630364,0.33697347893915225,-0.12684507380296017,-0.1739233734206894,0.4417181936390349,0.18574997626711137,-0.14376575063002656,0.5106204248169848,-0.26917076683066793,-0.02724108964360918,-0.005160206408256196,0.032521300852029394,-1.5133461192637554,-1.1759005496455335,6.866698784957519,2.330636555187328,-4.960448663811536,0.8456901160608346,-0.6915646113231924,1.2670750140818159,0.5044481304204493,0.029630000000000045,0.323207,-0.919527,-0.014593999999999996,-0.079567,-0.87755,0.04422400000000004,0.402774,0.04197699999999993,0.5,0.509003840162808,single,-0.87755
178,1.483333,step_decsent,-0.10188407536300077,0.3337333493339754,-0.14448577943117652,-0.2014073667178064,0.5053454920350179,0.2796883031983163,-0.11832473298931243,0.48049921996880407,-0.2701308052322121,-0.03108124324973138,-0.0002400096003840494,0.04248169926797362,-0.5040403224165573,-0.3888311058654582,-2.1169693541601475,3.0530442386552696,-3.6146891693484915,-0.1152092165539652,-0.4608368662093166,0.5904472348340564,1.1952956217381876,0.02949299999999999,0.32443,-0.920574,-0.014004000000000127,-0.08234999999999999,-0.875992,0.04349700000000012,0.40678000000000003,0.04458200000000001,0.5,0.46644941399862927,flight,-0.875992
179,1.491667,step_decsent,-0.08591312694983602,0.33693304535636953,-0.1430285577153915,-0.186814331490293,0.5782477582049815,0.2953883332042296,-0.10883129349651839,0.4193664506839385,-0.3072954163666859,-0.02975761939042501,-0.004919606431485368,0.048356131509477276,1.9163605007396964,0.383932808062646,0.17485261768478666,1.1391216094065229,-7.335345486544886,-4.459396584410067,0.15882215734417549,-0.5615066991962183,0.704875478942118,0.02930199999999994,0.325117,-0.921943,-0.013535999999999992,-0.085199,-0.8743969999999999,0.04283799999999993,0.410316,0.04754600000000009,0.5,0.4295541254099684,flight,-0.8743969999999999
180,1.5,step_decsent,-0.06900276011040411,0.3678147125885067,-0.239289571582845,-0.339449355861131,-0.08414159006118863,0.12775484995108938,-0.06936277451097717,0.3964958598344005,-0.3204128165126641,-0.03360134405376942,-0.009600384015360727,0.05484219368774623,2.0293251937395973,3.7059483057887226,-11.551783735443944,4.7364117347343795,-2.7445806851719943,-1.5741509835567444,-0.46126541021774176,-0.5617157786961959,0.7783585957361113,0.029298999999999964,0.32535600000000003,-0.9226190000000001,-0.013241000000000058,-0.088344,-0.8719460000000001,0.04254000000000002,0.4137,0.05067299999999997,0.5,0.39161688446448595,flight,-0.8719460000000001
181,1.508333,step_decsent,-0.07128285131405122,0.36145445817833055,-0.2544101764070732,-0.4418835639515698,-0.08914202747268143,0.25887969903392594,-0.05784231369255945,0.3729749189967632,-0.3433337333493374,-0.033361334453378494,-0.006240249609984452,0.05328213128525189,-0.27362188931322834,-0.7632610596635285,-1.8145451607138285,1.3825105986340842,-2.822625805548722,-2.7506200452026293,0.02880230413907669,0.4032322579354741,-0.18721497689839897,0.029410999999999854,0.325452,-0.92336,-0.012925000000000075,-0.091408,-0.869382,0.04233599999999993,0.41686,0.05397799999999997,0.5,0.3947106517732641,flight,-0.869382
182,1.516667,step_decsent,-0.05651547876171186,0.3616510679145644,-0.19510439164865526,-0.12395811543237362,0.6082503168237462,0.335757610382263,-0.044876409887193616,0.34425245980320773,-0.338612910967119,-0.032637389008885034,0.019318454523637923,0.020038396928248974,1.7719429508446425,0.023591281045580084,7.1161248810196165,1.5557839939243738,-3.446419389675458,0.5664533695966404,0.08686650401889297,3.0667991521024933,-3.988929008519637,0.02950800000000009,0.32530699999999996,-0.924556,-0.012726000000000015,-0.094261,-0.867589,0.042234000000000105,0.419568,0.05696699999999999,0.5,0.4285091459238547,flight,-0.867589
