frame_id,timestamp,gait_type,root_linear_velocity_x,root_linear_velocity_y,root_linear_velocity_z,root_angular_velocity_x,root_angular_velocity_y,root_angular_velocity_z,left_linear_velocity_x,left_linear_velocity_y,left_linear_velocity_z,right_linear_velocity_x,right_linear_velocity_y,right_linear_velocity_z,root_acceleration_x,root_acceleration_y,root_acceleration_z,left_acceleration_x,left_acceleration_y,left_acceleration_z,right_acceleration_x,right_acceleration_y,right_acceleration_z,left_pos_rel_x,left_pos_rel_y,left_pos_rel_z,right_pos_rel_x,right_pos_rel_y,right_pos_rel_z,step_length,step_width,step_height,left_contact_prob,right_contact_prob,support_type,max_foot_height
1,0.008333,step_decsent,-0.16860674426975622,0.05040201608064325,-0.011520460818444258,-0.06817354190136862,0.028499055450002288,-0.01844310332251414,-0.0025201008040246892,0.0009600384015370216,0.0019200768030740432,-0.0019200768030473968,-0.0028801152046081763,-0.001200048001921277,0.0,0.0,0.0,0.0,0.0,0.0,0.0,0.0,0.0,0.14989299999999994,0.05550200000000001,-0.9060249999999999,-0.08062199999999997,-0.009262,-0.903635,0.23051499999999991,0.064764,0.002389999999999892,0.9944825336116981,0.9699940207518615,double,-0.903635
2,0.016667,step_decsent,-0.1318694504439598,0.04043676505879535,-0.03779697624188182,-0.14147087029534616,-0.13614473927696627,-0.0507162494527031,-0.0041996640268787185,0.0016798656107511545,0.007559395248377698,-0.0015598752099880916,0.0,-0.0019198464122889367,4.408122609286825,-1.1957344638646386,-3.1529296164431915,-0.20153146422534546,0.08637235531727055,0.6766640803100136,0.04322073350843593,0.3455861776587684,-0.0863688997321406,0.1509569999999999,0.055179000000000006,-0.9056470000000001,-0.07953600000000005,-0.009599,-0.9033360000000001,0.23049299999999995,0.064778,0.002310999999999952,0.9853178506975648,0.9727672241964389,double,-0.9033360000000001
3,0.025,step_decsent,-0.18936757470299764,-0.001560062402496203,-0.017280691227666387,0.4270621148420148,-0.10633104101800311,0.10622572620349759,-0.003240129605184117,0.003960158406335217,0.005880235209410926,-0.0006000240009639692,-0.00024000960038402118,-0.0018000720028785845,-6.900050913121064,-5.039820888190514,2.462052683813205,0.11514873655281431,0.27364608131334006,-0.20150726496661125,0.1151867525529968,-0.02880230413824807,0.01437350406940504,0.15250799999999998,0.055224999999999996,-0.905454,-0.077963,-0.009588,-0.9032069999999999,0.23047099999999998,0.064813,0.00224700000000011,0.9870087143973296,0.9743423970057787,double,-0.9032069999999999
4,0.033333,step_decsent,-0.1234849393975695,0.05760230409216363,-0.01968078723146897,-0.18580364934876273,0.07976320375092033,-0.012949467270420796,-0.006840273610941286,0.005160206408256494,0.008400336013442276,-0.001680067202683126,-0.00012000480019199758,-0.0022800912036470954,7.906232485950816,7.099767970077983,-0.2880230413779652,-0.4320345620733433,0.14401152069138087,0.30242419345150007,-0.12961036862104364,0.014401152069125596,-0.05760460827655237,0.15347999999999995,0.054788,-0.9052200000000001,-0.07694800000000002,-0.010069,-0.903062,0.23042799999999997,0.064857,0.0021580000000001043,0.9800012001480167,0.973695406291851,double,-0.903062
5,0.041667,step_decsent,-0.11795056395490497,0.03959683225341977,-0.012598992080636157,-0.16503904191420674,0.19290612552648348,0.07915730513645669,-0.0041996640268787185,0.0062395008399323834,0.007679385649142426,-0.0005999520038436232,-0.0011999040076793887,-0.0037197024238064848,0.6640719273655535,-2.160483781946707,0.8497474383048731,0.31684780226332704,0.12950497140339443,-0.08650712314613035,0.1296034555842936,-0.12957753869539126,-0.17273952725694613,0.15442800000000012,0.054509999999999996,-0.905051,-0.07596999999999987,-0.010409,-0.9029880000000001,0.230398,0.06491899999999999,0.002062999999999926,0.9820849603360108,0.9727796244087317,double,-0.9029880000000001
6,0.05,step_decsent,-0.1582863314532399,0.031441257650306025,-0.03528141125645223,0.21404505295087622,0.001087630260966321,0.0014537322232109256,-0.005520220808831212,0.006960278411136745,0.00816032641305802,-0.0027601104044289292,-0.0014400576023041011,-0.002400096003842554,-4.84048571922896,-0.9787081006976773,-2.7219991810651716,-0.15847315276040966,0.08649676841525997,0.057715200277882496,-0.2592293772453265,-0.028819584138331023,0.1583591047598621,0.15570099999999998,0.054306,-0.9046890000000001,-0.07467400000000013,-0.010683,-0.902714,0.2303750000000001,0.06498899999999999,0.00197500000000006,0.9798954648215852,0.9736984021944066,double,-0.902714
7,0.058333,step_decsent,-0.13560542421697772,0.03852154086163448,-0.05292211688469167,-0.21763992270108645,0.04691707891716186,0.09386059392451329,-0.0067202688107591505,0.0076803072122895106,0.0076803072122895106,-0.0024000960038292308,-0.0009600384015360587,-0.006480259210368234,2.7218177410611037,0.8496679720782977,-2.116969354162899,-0.1440115206921803,0.0864069124148285,-0.05760460827655229,0.043203456210212224,0.05760460827649615,-0.48963917034989557,0.156775,0.05404900000000001,-0.9041839999999999,-0.07356399999999996,-0.011012,-0.9023269999999999,0.23033899999999996,0.06506100000000001,0.0018569999999999975,0.9787125329882715,0.9698019813962635,double,-0.9023269999999999
8,0.066667,step_decsent,-0.12946964242861195,0.03731701463882895,-0.04115670746340079,-0.11028631013209642,0.14032233726149965,0.04358964875782974,-0.008999280057587739,0.008639308855290224,0.007079433645305463,-0.002759779217675338,-0.0015598752099832,-0.0041996640268787185,0.7362349158106273,-0.1445315842099266,1.4117361916595728,-0.2734594728616016,0.11507099148076715,-0.07209906011327662,-0.04315853297889453,-0.07197465904093367,0.27364953005633724,0.1577790000000001,0.05381,-0.903782,-0.07250800000000002,-0.011336,-0.9020189999999999,0.23028700000000013,0.065146,0.00176300000000007,0.9760937548959903,0.9736002967965316,double,-0.9020189999999999
9,0.075,step_decsent,-0.14844593783750554,0.022560902436097333,-0.03288131525259638,0.12261680663354642,0.3269234141102261,0.03088582725647146,0.0025201008040246914,0.012960518420738145,0.007200288011521006,-0.005640225609013352,-0.0034801392055682193,-0.00852034081363108,-2.27724653892879,-1.7708042964996555,0.9930867887680805,1.382380998633438,0.5185658904893705,0.014503104070028002,-0.3456673936563083,-0.23044089710608676,-0.5185019544884634,0.15903699999999998,0.05373000000000001,-0.903448,-0.07131799999999999,-0.011552999999999999,-0.9018160000000001,0.23035499999999998,0.06528300000000001,0.0016319999999999668,0.9749350791141178,0.9656892831506594,double,-0.9018160000000001
10,0.083333,step_decsent,-0.13776551062041592,0.05004200168006724,-0.03516140645627007,0.022290176563705386,0.22915609809429563,-0.0772834518811829,0.010560422416893905,0.015960638425536317,0.0020400816032695,-0.003840153606148083,-0.0022800912036481475,-0.008160326413058016,1.2817025341521189,3.2978638238293394,-0.27362188931641485,0.96487718863185,0.3600288017278495,-0.6192495389717391,0.21601728103507356,0.14401152069123613,0.043203456207016024,0.1602729999999999,0.053446,-0.903138,-0.0702020000000001,-0.011989,-0.901591,0.23047499999999999,0.06543500000000001,0.001546999999999965,0.967922557531207,0.9690258318522429,double,-0.901591
11,0.091667,step_decsent,-0.09695224382051146,0.02639788816894647,-0.04847612191025573,-0.27067764968618424,0.3670024715878088,0.02958937131672934,0.0044396448284215,0.01739860811135185,0.006599472042233235,-0.0017998560115042278,-0.0008399328053755649,-0.009239260859130525,4.897200239969341,-2.8370666560020146,-1.5976380434348054,-0.7344345558522208,0.1725425588931527,0.5470830860287663,0.2448161260671774,0.1728051833780398,-0.12946177658657423,0.1611180000000001,0.05337100000000001,-0.9026789999999999,-0.06940899999999983,-0.012216,-0.9012639999999998,0.23052699999999993,0.065587,0.001415000000000055,0.9681158763971809,0.970099434754168,double,-0.9012639999999998
12,0.1,step_decsent,-0.19644785791430303,0.03372134885395413,-0.0733229329173067,0.09540221467370286,-0.2893471894764981,-0.06102599626399061,0.0043201728069032705,0.015960638425536317,0.013200528021120712,-0.003240129605184114,-0.002400096003840158,-0.01236049441977915,-11.939951289306551,0.878850436218367,-2.981736590309726,-0.014337216070830387,-0.17256326482845702,0.7921584038026488,-0.17283974483137948,-0.18722707289866694,-0.3745630097982267,0.1627909999999999,0.053223,-0.901958,-0.06779899999999994,-0.012517,-0.900756,0.23058999999999985,0.06574,0.0012020000000000364,0.9647367120369024,0.9663107230426586,double,-0.900756
13,0.108333,step_decsent,-0.10896435857435878,-0.003000120004800072,-0.06288251530060834,-0.09094213724641025,0.2722176014140597,0.0999164097150028,-0.0012000480019146163,0.015240609624385242,0.01824072962918344,-0.000840033601354887,-0.0034801392055682323,-0.012360494419772508,10.498439858387654,-4.406752533151834,1.2529002300130039,-0.6624529951779541,-0.0864069124146257,0.6048483869030038,0.28802304138116275,-0.12961036862211392,7.971026268468978e-13,0.16368900000000008,0.053375000000000006,-0.901282,-0.0668979999999999,-0.012521000000000001,-0.900335,0.230587,0.065896,0.0009470000000000312,0.9603333153244167,0.9690824640341205,double,-0.900335
14,0.116667,step_decsent,-0.1519078473722088,0.0448764098872089,-0.07607391408687579,0.25915406445396016,-0.10134278276143649,-0.24249067814024527,-0.014278857691382303,0.01679865610751153,0.018838492920568526,0.0011999040076872453,-0.004439644828413713,-0.013198944084473108,-5.1528064312275,5.7447240091203415,-1.5828412270539278,-1.5693316162068243,0.1869506219254003,0.0717258568976586,0.24477293125055558,-0.11513146422431964,-0.1006059112911686,0.1648360000000001,0.05314100000000001,-0.9004909999999999,-0.06562199999999985,-0.012932,-0.8998109999999999,0.23045799999999994,0.066073,0.0006800000000000139,0.9516675448497167,0.969904653494315,double,-0.8998109999999999
15,0.125,step_decsent,-0.11220448817951625,-0.00816032641305657,-0.011880475219017321,-0.2525993473524581,0.5813809614452109,0.1021947934798459,-0.02328093123725281,0.019440777631104716,0.023640945637825858,0.0015600624024743456,-0.0037201488059522407,-0.014400576023042013,4.764593686870585,-6.364662942549564,7.703520804975222,-1.080292037185949,0.3170672655218036,0.576317378766031,0.04322073620390023,0.08634297641443334,-0.14420160069229637,0.16557699999999997,0.053371,-0.9001949999999999,-0.06467400000000012,-0.012895,-0.899832,0.2302510000000001,0.066266,0.0003629999999998912,0.9359071874191984,0.9714451188772781,double,-0.899832
16,0.133333,step_decsent,-0.17472698907955125,0.03264130565222602,-0.08508340333611521,0.3030098546849166,-0.3313919136964725,-0.23806949488327406,-0.029641185647425537,0.027961118444737417,0.010200408016320854,0.0008400336013548856,-0.004560182407296295,-0.01428057122284653,-7.503000228013314,4.896391703502046,-8.784702762162226,-0.7632610596631133,1.0224817969077995,-1.6129290317418687,-0.08640691241083157,-0.1008080644838658,0.014401152069540698,0.16678599999999988,0.053332,-0.8994010000000001,-0.06321100000000013,-0.013205,-0.8992420000000001,0.229997,0.066537,0.00015900000000002024,0.9299906285049954,0.9733858097872159,double,-0.8992420000000001
17,0.141667,step_decsent,-0.15790736741061892,-0.021598272138228944,-0.05699544036477134,0.09643789735715556,-0.4062977807098741,0.005880239159765128,-0.028437724982006633,0.023878089752820398,0.05867530597552416,0.0009599232061444707,-0.00239980801535877,-0.014518838492925129,2.018193144820299,-6.508228676560486,3.370285933686577,0.14440372755206465,-0.4899242490901162,5.816522433309745,0.014385601726612122,0.2592241890973758,-0.028589785226613783,0.16786499999999993,0.053711,-0.898437,-0.061887000000000025,-0.013045,-0.8988880000000001,0.22975199999999996,0.066756,0.0004510000000000902,0.8797597232580404,0.9754214862206891,double,-0.898437
18,0.15,step_decsent,-0.16560662426496287,-0.0014400576023040738,-0.016320652826129354,0.41139157406803206,0.1085401691095307,-0.10567389225175719,-0.03528141125643888,0.04404176167046586,0.10440417616704442,0.0002400096003909168,-0.001680067202688108,-0.011520460818430925,-0.9239477804324898,2.4190825076112867,4.881169751427091,-0.8212752039400268,2.419737419614238,5.4876839303396405,-0.08639308841396295,0.08637235241457596,0.3598197137278532,0.16895099999999996,0.05408999999999999,-0.8974309999999999,-0.06050500000000003,-0.013047,-0.8988479999999999,0.229456,0.06713699999999999,0.0014170000000000016,0.7880317950845179,0.9805920085272107,double,-0.8974309999999999
19,0.158333,step_decsent,-0.1504860194407881,-0.026401056042241633,-0.010320412816516312,0.10854573528642067,0.1692775091237823,0.09711139025085908,-0.038281531261258724,0.04608184327373203,0.13308532341293294,0.0012000480019012912,-0.002160086403456137,-0.00936037441497929,1.8145451607073986,-2.99543963037772,0.7200576034577028,-0.3600288017304498,0.24481958517534663,3.4418753445204007,0.11520921654990683,-0.057604608276494475,0.2592207372436858,0.16988599999999998,0.054694000000000007,-0.8962359999999999,-0.0592410000000001,-0.012845,-0.8988399999999999,0.22912700000000008,0.067539,0.0026039999999999397,0.7307139241886904,0.9838649193726955,double,-0.8962359999999999
20,0.166667,step_decsent,-0.11087113030956611,-0.005399568034557219,-0.004919606431480405,0.02083698179431134,0.545674576035717,0.02694665467755653,-0.03899688024958236,0.04451643868490472,0.14410847132229498,0.0022798176146164232,-0.0034797216222702218,-0.009479241660666627,4.753406423232776,2.519976962765106,0.6480449226104994,-0.08583501179789238,-0.1878335239773583,1.322671935368614,0.12956198856673037,-0.1583435587729882,-0.014262928448204537,0.1704849999999999,0.05511,-0.894994,-0.05829799999999996,-0.012829,-0.898878,0.22878299999999985,0.067939,0.0038839999999999986,0.7015142932655054,0.982746815641282,double,-0.894994
21,0.175,step_decsent,-0.15600624024961984,-0.008640345613824681,-0.03420136805470651,0.10790006170243924,-0.16101511904430654,-0.0806743213909493,-0.02508100324011811,0.054482179287171154,0.1333253330133243,0.001200048001901295,-0.0039601584063362555,-0.006960278411136762,-5.416429850000462,-0.3889088658667311,-3.513951952865256,1.6699720400173148,1.1959367097403644,-1.2940283582108132,-0.1295775366272808,-0.057654720276735266,0.30228768145084256,0.17157600000000006,0.055636,-0.8935980000000001,-0.05698800000000004,-0.01279,-0.8986510000000001,0.2285640000000001,0.068426,0.005052999999999974,0.7058114900674162,0.9865042758447681,double,-0.8935980000000001
22,0.183333,step_decsent,-0.14208568342734584,-0.0036001440057600808,-0.010680427217089363,0.1521128328030452,0.009303960120928314,-0.06947482347620874,-0.07920316812672427,0.07800312012480466,0.14508580343213903,0.0016800672026831248,-0.005400216008640342,-0.006720268810752484,1.6705336400184794,0.6048483869032276,2.8226258055462776,-6.4949195831760616,2.8226258055482405,1.411312902773877,0.057604608278150636,-0.17281382482948343,0.02880230413827888,0.17210000000000014,0.05631599999999999,-0.8923000000000001,-0.055790000000000006,-0.012805,-0.8986180000000001,0.22789000000000015,0.06912099999999999,0.006318000000000046,0.632191269009926,0.9853611085314307,double,-0.8923000000000001
23,0.191667,step_decsent,-0.11195104391646865,-0.016438684905207564,0.01619870410367124,0.5840527360287356,0.17179215131269027,-0.18171328457272487,-0.0709143268538526,0.08195344372450232,0.15922726181905036,-0.00023998080151613449,-0.004319654427645785,-0.0038396928245712095,3.615867471907507,-1.5405016678002723,3.2252377394721115,0.9945813862337013,0.47400091189076726,1.696839259288615,-0.23038732951754948,0.12965701715797406,0.34564146702439064,0.17244199999999998,0.05713599999999999,-0.891108,-0.05485899999999999,-0.012704,-0.8987850000000001,0.22730099999999998,0.06984,0.007677000000000045,0.6022136902818012,0.9903591946298789,double,-0.891108
24,0.2,step_decsent,-0.1308052322092925,-0.0056402256090243765,0.02112084483378781,0.2701734768667851,0.18728304121910014,-0.13605415600798973,-0.057002280091203984,0.13200528021120878,0.17388695547822303,-0.0002400096003909168,-0.0018000720028801185,-0.004560182407294187,-2.262593098862814,1.2958669502199902,0.5906805148345813,1.6695123920135129,6.0064606368302424,1.7592336084450557,-3.456003214005234e-06,0.3023619854512978,-0.08646220841509387,0.17305700000000002,0.058283,-0.8898349999999999,-0.05377100000000001,-0.012672000000000001,-0.898999,0.22682800000000003,0.070955,0.009164000000000061,0.5323010240374473,0.9918192082338451,double,-0.8898349999999999
25,0.208333,step_decsent,-0.12000480019202141,-0.004440177607104364,0.0030001200047932073,0.06441089759559149,0.02295992436076951,-0.11795917352922045,-0.08868354734189932,0.10008400336013483,0.22080883235328902,-0.0020400816032561833,-0.004800192007680319,-0.003960158406336893,1.2961036862199824,0.1440115206912295,-2.1745739624378553,-3.8019041462492993,-3.8307064503868986,5.630850459026294,-0.2160172810350739,-0.36002880172809404,0.07200576034528931,0.17331800000000008,0.059154,-0.88802,-0.052787999999999835,-0.012675,-0.899057,0.22610599999999992,0.071829,0.011036999999999964,0.4593906617533899,0.9890853524943894,single,-0.88802
26,0.216667,step_decsent,-0.1417086633069205,-0.018718502519798386,0.0011999040076872453,0.6256052843105243,0.15357171454573024,-0.22186009712343005,-0.11327093832492728,0.07607391408687246,0.26385889128869744,-0.0008399328053864003,-0.0034797216222702087,-0.004079673626113988,-2.6042552333692193,-1.7132619285689956,-0.2160086389615983,-2.9502508978915216,-2.8809802343727315,5.165593824743026,0.14400633523755482,0.15844377074755328,-0.014340679118921834,0.17355500000000001,0.059944,-0.885831,-0.05161400000000005,-0.012548,-0.899101,0.22516900000000006,0.072492,0.013270000000000004,0.3722156626683384,0.9909541773634841,single,-0.885831
27,0.225,step_decsent,-0.13896555862234386,-0.016320652826113113,0.01368054722188256,0.008623849669625124,-0.03655877900064299,-0.11040172267119801,-0.10548421936878356,0.13692547701908103,0.25609024360974714,-0.0014400576022922079,-0.0032401296051842053,-0.0028801152046044006,0.3291857295783798,0.28775347338116775,1.4977370951872442,0.9344436524833447,7.302479651051065,-0.9322750124745345,-0.07201785634295056,0.02875219213800591,0.143952768691898,0.17383399999999993,0.061221,-0.8838109999999999,-0.05046799999999996,-0.012438999999999999,-0.8992389999999999,0.2243019999999999,0.07366,0.015427999999999997,0.34572,0.992386548937698,single,-0.8838109999999999
28,0.233333,step_decsent,-0.1010440417616715,-0.03396135845433797,0.0405616224648925,0.42626787878916106,0.20127152277901092,-0.10185628086981953,-0.1282851314052545,0.18756750270010725,0.2676107044281781,0.0012000480019012912,-0.004080163206528259,-0.0037201488059526245,4.5507640538428324,-2.116969354161147,3.225858063483729,-2.7362188931322344,6.077286173170068,1.3825105986356576,0.31682534551704034,-0.10080806448386574,-0.10080806448436615,0.17360699999999996,0.063067,-0.8819189999999999,-0.049616000000000104,-0.012190000000000001,-0.899608,0.22322300000000006,0.07525699999999999,0.017689000000000066,0.3231099999999999,0.9905826174111079,single,-0.8819189999999999
29,0.241667,step_decsent,-0.15610751139908804,-0.010199184065274803,-0.014758819294441264,0.10005729756490568,-0.2789598321711214,-0.20154024681582036,-0.14050875929926038,0.2408207343412543,0.2742980561555028,0.001799856011530874,-0.004079673626109922,-0.005279577633787929,-6.607087789466843,2.8512328280613417,-6.637921977361878,-1.4667180098399224,6.389876606809118,0.8024180138378599,0.07197120345927337,5.874495060437684e-05,-0.1871164900210353,0.17373699999999992,0.06515900000000001,-0.87951,-0.04830000000000001,-0.012139,-0.899529,0.22203699999999993,0.077298,0.02001900000000001,0.29981000000000047,0.9884822409407358,single,-0.87951
30,0.25,step_decsent,-0.13056522260890158,-0.016440657626305033,-0.006720268810759145,0.04921411465910598,-0.33122422067327434,-0.24713970219903159,-0.15336613464538584,0.27781111244449724,0.28249129965198855,-0.00036001440057305197,-0.0012000480019200724,-0.003600144005763828,3.065197262712882,-0.7490067875951307,0.9646646446276386,-1.542946759405431,4.439022933306481,0.9832285487202389,-0.2591948172451607,0.3455688976586881,0.20154009696677064,0.1735469999999999,0.067611,-0.8771,-0.04721500000000001,-0.012012,-0.8995029999999999,0.2207619999999999,0.079623,0.02240299999999995,0.27596999999999994,0.9936467938020395,single,-0.8771
31,0.258333,step_decsent,-0.1318852754110121,-0.02244089763590566,0.017640705628239484,0.3878811642933108,-0.07642510473470893,-0.22523599763030905,-0.1791671666866639,0.31213248529941184,0.2754110164406573,-0.000960038401537024,0.0009600384015360611,-0.003000120004799869,-0.15841267276017473,-0.7200576034562152,2.923433870034644,-3.09624769486117,4.118729491769433,-0.8496679720786353,-0.07200576034609066,0.2592207372442264,0.07200576034608908,0.1731529999999999,0.07039899999999999,-0.8749520000000002,-0.046124000000000054,-0.011817,-0.8996750000000001,0.21927699999999994,0.082216,0.02472299999999994,0.25277000000000005,0.99451161137085,single,-0.8749520000000002
32,0.266667,step_decsent,-0.12203023758099887,-0.03719702423806086,0.010199184065261655,0.2815911841664808,-0.19040053398957998,-0.13909987137449836,-0.19534437245019934,0.33021358291336717,0.30213582913367143,0.0004799616030589122,0.0,-0.002879769618426742,1.1825099388064826,-1.77059354477504,-0.8929111546649654,-1.94110940287202,2.1695581490227145,3.2067209854828542,0.1727861776572996,-0.11519539255292299,0.014440891093487751,0.17254199999999997,0.073461,-0.872519,-0.045103000000000115,-0.011507,-0.8997839999999999,0.2176450000000001,0.084968,0.027264999999999873,0.22735000000000016,0.9951341792414319,single,-0.872519
33,0.275,step_decsent,-0.10932437297493128,-0.013800552022080888,0.01488059522381045,0.15831514659247375,-0.048586585436174425,-0.2928931521351706,-0.20484819392775794,0.2961718468738735,0.3484939397575843,-0.0009600384015370176,-0.0014400576023040886,-0.0018000720028852387,1.524764743317838,2.807688973476524,0.5617918106982809,-1.1405041974749262,-4.085171731608488,5.56319580270163,-0.172806912828024,-0.1728138248294831,0.1295688966208447,0.17174600000000007,0.076044,-0.869739,-0.04420000000000002,-0.011404,-0.899923,0.21594600000000008,0.087448,0.03018399999999999,0.1981600000000001,0.9958381031147809,single,-0.869739
34,0.283333,step_decsent,-0.16368654746188938,-0.008280331213248504,0.004080163206539014,0.6508144891083526,-0.11188918040406949,-0.35055359818632786,-0.2300492019680862,0.30997239889595685,0.35989439577583543,0.011040441617662452,-0.026401056042241754,0.006360254410179453,-6.52372188731048,0.6624529951796949,-1.2961036862200244,-3.02424193451678,1.656132487949525,1.3681094465680013,1.4401152069122163,-2.995439630377742,0.9792783407013936,0.17119299999999993,0.078696,-0.8667740000000002,-0.042744000000000115,-0.011555,-0.899904,0.21393700000000004,0.090251,0.03312999999999988,0.16870000000000007,0.9511419303998019,single,-0.8667740000000002
35,0.291667,step_decsent,-0.0851931845452349,-0.02207823374130069,0.006359491240683785,0.07989459463472005,-0.1016715501184228,-0.14980825607902654,-0.25629949604030644,0.3198944084473241,0.3812095032397387,0.02567794576435785,0.022918166546676243,0.023998080153585045,9.418450073992608,-1.6556158540979329,0.27349748429862836,-3.1497833060019453,1.190545902491868,2.557608287005427,1.7563599888043415,5.917833284007433,2.1163697796262992,0.169767,0.08154600000000001,-0.86365,-0.04181999999999997,-0.011179999999999999,-0.8997569999999999,0.21158699999999997,0.092726,0.03610699999999989,0.13893,0.9300693377616008,single,-0.86365
36,0.3,step_decsent,-0.15924636985480395,-0.019560782431297295,-0.0069602784111234385,0.36184866731698967,-0.1673711078655494,-0.2504311256545488,-0.2529701188047527,0.39217568702748123,0.36469458778351393,-0.01728069122766643,-0.015600624024961032,0.01536061442457906,-8.886737706656573,0.30210624145006615,-1.5984362956686975,0.3995412499164495,8.674100393634625,-1.9818691295121547,-5.155242648748876,-4.622439766187132,-1.0365373489746799,0.16898600000000008,0.084977,-0.8605530000000001,-0.040637000000000034,-0.011146999999999999,-0.8995710000000001,0.20962300000000011,0.09612399999999999,0.039018,0.10982000000000003,0.953513734561978,single,-0.8605530000000001
37,0.308333,step_decsent,-0.06708268330732915,-0.027601104044161568,0.03912156486257351,0.026017206553878843,0.08582554076450942,-0.013715719927480989,-0.2822512900516034,0.3578543141725669,0.3888155526221057,-0.02004080163206859,0.0050402016080643005,-0.0628825153006147,11.060084789088492,-0.9648771886312539,5.530042394539393,-3.513881104866264,-4.118729491769372,2.8946315658936363,-0.33122649758816103,2.476998155889265,-9.389551149069176,0.16719300000000004,0.088189,-0.8576389999999998,-0.040245000000000086,-0.010875000000000001,-0.9004209999999999,0.20743800000000012,0.099064,0.0427820000000001,0.07217999999999958,0.889681671553561,single,-0.8576389999999998
38,0.316667,step_decsent,-0.15370770338374068,0.012359011279097614,-0.029877609791210118,0.2763453216400505,-0.311812200897071,-0.3187588140094999,-0.3129349652027921,0.3028557715382785,0.376049916006718,-0.034557235421147775,0.006719462443004599,-0.022678185745139884,-10.394170875499402,4.794830252370939,-8.279238619364534,-3.681746478424397,-6.599297172340863,-1.5317538535382509,-1.7418327080728664,0.2014951805783907,4.824133615967728,0.16586600000000007,0.09061000000000001,-0.8542559999999999,-0.03925199999999984,-0.010922,-0.900361,0.2051179999999999,0.101532,0.04610500000000006,0.03894999999999993,0.9302055835533416,single,-0.8542559999999999
39,0.325,step_decsent,-0.10908436337451372,0.0022800912036481267,0.0163206528261293,0.18824101142817895,0.20372324146631152,-0.17012094939239367,-0.32545301812071586,0.37117484699387804,0.3142925717028647,-0.015840633625347468,-0.0009600384015360612,-0.01776071042841484,5.355015001707281,-1.2095187898055257,5.544013274611691,-1.5022264392084108,8.198616999351888,-7.411177763572911,2.2460820587783785,-0.9215769644234523,0.590120642832716,0.16406299999999996,0.093684,-0.8517730000000001,-0.03847500000000004,-0.010948999999999999,-0.9006450000000001,0.202538,0.104633,0.04887200000000003,0.01128000000000029,0.9603035762068715,single,-0.8517730000000001
40,0.333333,step_decsent,-0.08388335533421419,0.010680427217088775,-0.001080043201745806,0.3095613761483754,-0.07103563491787401,-0.09153170761061404,-0.34633385335414163,0.41113644545781913,0.2938917556702317,-0.004680187207502984,-0.004560182407296304,-0.007440297611905274,3.024241934513331,1.0080806448386739,-2.088167050027019,-2.505800460029499,4.795583639018504,-2.4481958517500355,1.3393071424270384,-0.4320345620737131,1.2384990779442688,0.1618759999999999,0.097021,-0.8493149999999999,-0.037815000000000154,-0.011075999999999999,-0.900698,0.19969100000000006,0.108097,0.05138300000000007,0.0,0.9834960068435601,single,-0.8493149999999999
41,0.341667,step_decsent,-0.12646988240942036,0.02195824334053284,-0.04211663066954522,0.08168369633498408,-0.1258224803648906,-0.17723478593262593,-0.3868490520758341,0.47312215022798154,0.2577393808495298,0.004799616030722338,-0.009239260859131258,-0.0038396928245712095,-5.10997445106865,1.3532296764391714,-4.923996576409812,-4.861434931808546,7.4376895572549016,-4.337937943448746,1.1374853897558572,-0.5614444986603012,0.4320380114391722,0.15970600000000001,0.10078100000000001,-0.846816,-0.036721000000000004,-0.011336,-0.9003789999999999,0.19642700000000002,0.11211700000000001,0.053562999999999916,0.0,0.9815049934477419,single,-0.846816
42,0.35,step_decsent,-0.06888275531019487,0.010560422416896647,0.029761190447621096,0.2742094802296047,0.2347457902644394,0.013678796291513647,-0.4430577223088836,0.5217808712348496,0.21444857794311623,0.019320772830922615,0.015360614424577024,0.024840993639740516,6.910731681174323,-1.3677932225652492,8.625683561402434,-6.74531024037557,5.839280092027865,-5.195104152935759,1.7426085203648523,2.952103118169728,3.4418200485193564,0.15658799999999995,0.105041,-0.8452770000000001,-0.035986000000000073,-0.011296,-0.90042,0.19257400000000002,0.116337,0.05514299999999994,0.0,0.9416353488046854,single,-0.8452770000000001
43,0.358333,step_decsent,-0.12996519860796382,0.06480259210368394,-0.02460098403936276,0.199034543556779,-0.08324681998350264,-0.25959626590592044,-0.4701788071522947,0.6096243849753966,0.20580823232929496,-0.02208088323532476,-0.01968078723148918,-0.003000120004799849,-7.330186403188371,6.509320735243858,-6.523721887313528,-3.2546603676240276,10.54164331459818,-1.0368829489765066,-4.968397463848219,-4.205136404184094,-3.3410672800360315,0.15375300000000003,0.109581,-0.8433569999999999,-0.03508699999999987,-0.012,-0.9002399999999999,0.1888399999999999,0.121581,0.05688300000000002,0.0,0.9504492541107157,single,-0.8433569999999999
44,0.366667,step_decsent,-0.06491480681544302,0.035277177825773796,-0.016678665706730152,0.10828379801970606,-0.013929551708075392,0.08501383270532692,-0.48548116150707826,0.6310295176385899,0.13558915286777284,-0.07439404847612963,-0.047516198704103625,-0.07475401967842381,7.805422581295985,-3.5427662920458505,0.9506021517437724,-1.8361356317234867,2.568410446747457,-8.425615486143755,-6.277077662683563,-3.339982178139479,-8.609779178500586,0.15024799999999994,0.11454600000000001,-0.8420880000000001,-0.03516600000000003,-0.01269,-0.9007240000000001,0.18541399999999997,0.12723600000000002,0.05863600000000002,0.0,0.807210340252224,single,-0.8420880000000001
45,0.375,step_decsent,-0.10332413296531895,0.05532221288851563,0.00588023520940428,0.12492827969541276,0.028289633612831322,-0.04235856158461074,-0.5169806792271678,0.6789871594863807,0.07932317292691334,0.0381615264610634,-0.016800672026881118,0.01008040321613209,-4.609303510125527,2.4055004275461283,2.7071763969920184,-3.780093330143964,5.755147227624006,-6.752187680410374,13.507209280834429,3.686010641692378,10.180537968865487,0.14680099999999996,0.119743,-0.8414760000000001,-0.03398699999999999,-0.013290999999999999,-0.9006890000000001,0.18078799999999995,0.133034,0.05921299999999996,0.0,0.9285044832137265,single,-0.8414760000000001
46,0.383333,step_decsent,-0.08412336493460512,0.05340213608544366,-0.00480019200768512,0.1657839171329605,-0.10787848969523395,0.08902929090518863,-0.5293411736469403,0.7212288491539665,0.042361694467777884,-0.045961838473541725,0.033601344053762236,-0.003240129605184125,2.304184331058907,-0.2304184331059612,-1.2817025341520971,-1.4833186631192277,5.069205528331441,-4.435554837289756,-10.095207600456657,6.048483869031979,-1.5985278796731366,0.14309100000000008,0.125308,-0.841083,-0.03366899999999995,-0.013456000000000001,-0.900676,0.17676000000000003,0.138764,0.05959300000000001,0.0,0.9049555753294277,single,-0.841083
47,0.391667,step_decsent,-0.12586993040557676,0.10907127429805606,-0.026757859371260382,0.02390087935088805,-0.112527105452051,-0.14738776979636486,-0.553275737940968,0.7638588912886974,0.007319414446848235,-0.021238300935936354,0.006839452843772491,-0.020158387329013837,-5.0091871215468675,6.679762204537118,-2.634709306884478,-2.8719179618463646,5.115195840500473,-4.204737223533671,2.9665871775384387,-3.2111700515946384,-2.030028524577597,0.13952900000000013,0.130765,-0.8407989999999999,-0.032796999999999965,-0.014308000000000001,-0.9006209999999999,0.1723260000000001,0.145073,0.05982200000000004,0.0,0.9498833549064971,single,-0.8407989999999999
48,0.4,step_decsent,-0.08160326413053991,0.07356294251770028,0.0037201488059659354,0.12772846299087723,-0.05665105621423815,0.1432330203654602,-0.5545421816872635,0.7923916956678231,-0.024720988839551556,-0.008400336013442242,-0.0032401296051841936,-0.006600264010563665,5.3122124415020595,-4.2611702604530945,3.6575072815584053,-0.15197932872861894,3.4240734884346002,-3.845002194455737,1.540617415395903,-1.2095982778059093,1.627039879809206,0.13558799999999993,0.13675500000000002,-0.841036,-0.03218700000000019,-0.014948,-0.900707,0.16777500000000012,0.151703,0.05967100000000003,0.0,0.9813938801879099,single,-0.841036
49,0.408333,step_decsent,-0.11148445937839697,0.08184327373094948,-0.001920076803074048,0.026527838279320343,0.09592658618331715,0.11577455883913473,-0.5405016200648115,0.8155526221048858,-0.06132245289812078,-0.01632065282610276,0.012240489619584814,0.01056042241689394,-3.5858868652174656,0.993679492769617,-0.6768541472506898,1.6849347920859326,2.7794223493415036,-4.392351381083561,-0.9504760365607271,1.8577486169169624,2.059364745884753,0.13201300000000005,0.142869,-0.841531,-0.03139399999999992,-0.015528,-0.900603,0.16340699999999997,0.158397,0.05907200000000001,0.0,0.9617132233292625,single,-0.841531
50,0.416667,step_decsent,-0.09107271418285978,0.08567314614830818,-0.006119510439167651,0.1668304742014537,-0.02837115228566849,0.13555486709818984,-0.5673146148308075,0.8575713942884579,-0.08375329973601821,0.005039596832265116,-0.015238780897528182,-0.003959683225335938,2.44921348638555,0.4595479262489438,-0.5038917249932324,-3.217301987760492,5.041849314083518,-2.6914863016435575,2.5630249170107815,-3.2972486821589837,-1.7422732952039672,0.12804400000000005,0.14930200000000002,-0.842178,-0.03059299999999987,-0.016369,-0.900585,0.15863699999999992,0.165671,0.05840699999999999,0.0,0.9724471683891326,single,-0.842178
51,0.425,step_decsent,-0.10776431057243101,0.09420376815072597,-0.003720148805939314,-0.031125680226640272,-0.07003282461168289,0.0599208274802598,-0.5514220568822785,0.8838353534141367,-0.11040441617665117,-0.013200528021127417,0.009000360014400598,0.016080643225725166,-2.0030716896161365,1.023715588913694,0.2879349133839365,1.907183241153125,3.1518011671281494,-3.1982619033520976,-2.18890253850865,2.9088132619619396,2.4049353715421997,0.1243470000000001,0.155882,-0.8430670000000001,-0.02980499999999986,-0.017078999999999997,-0.9004200000000001,0.15415199999999996,0.172961,0.05735299999999999,0.0,0.9622196587356433,single,-0.8430670000000001
52,0.433333,step_decsent,-0.07428297131884347,0.1410056402256087,-0.026041041641681608,-0.1540644289792132,-0.24382267633708735,0.0057305001741303555,-0.5361814472578914,0.9165966638665516,-0.16368654746189495,0.005160206408258139,-0.002640105604224158,0.015480619224767754,4.017921427287579,5.6164493069581845,-2.6786142848604584,1.8289463127789571,3.9315145148703694,-6.394111518689975,2.2033762665769205,-1.3969117507049928,-0.07200576034530298,0.120498,0.162345,-0.844214,-0.02914299999999992,-0.018276,-0.900074,0.1496409999999999,0.180621,0.05586000000000002,0.0,0.9724496693224356,single,-0.844214
53,0.441667,step_decsent,-0.11999040076792604,0.10775137988960938,-0.0015598752099881005,-0.0010410129567461014,0.04718030082693436,0.13216398576871166,-0.5477561795056343,1.0275977921766304,-0.11891048716103016,-0.006239500839952402,-0.001439884809215271,0.022558195344375156,-5.484452777667726,-3.990192024957946,2.937504971405525,-1.3888567611882559,13.319069871619803,5.372697420310182,-1.3678554413499646,0.144014974203131,0.8492411950572886,0.11693299999999995,0.170011,-0.8451919999999999,-0.028195000000000192,-0.019186,-0.8998729999999999,0.14512800000000015,0.18919699999999998,0.05468099999999998,0.0,0.960917579392656,single,-0.8451919999999999
54,0.45,step_decsent,-0.12564502580103393,0.12276491059642329,0.002880115204611053,0.2143700727476978,-0.18249658626504814,0.25130418301360147,-0.5270610824433031,0.9366374654986168,-0.1987279491179628,0.013320532821336111,-0.02376095043801742,0.004560182407294172,-0.678582147258834,1.8016957526477675,0.5328201625583985,2.4835109879192494,-10.915675828394718,-9.578478573974836,2.347297931271863,-2.6786350208570813,-2.1598479463675635,0.11358799999999991,0.176793,-0.846872,-0.027036999999999978,-0.020407,-0.899859,0.1406249999999999,0.1972,0.052987000000000006,0.0,0.9539681685029561,single,-0.846872
55,0.458333,step_decsent,-0.09084363374536428,0.15672626905076262,-0.018840753630140778,-0.2752640306539928,-0.1330620508708505,0.031033715960970803,-0.5048601944077729,0.9704788191527698,-0.20184807392295945,0.0028801152045844253,-0.0105604224168967,0.007800312012484989,4.17633410004437,4.075526035562151,-2.6066085245112065,2.6642131327889444,4.061124883493706,-0.3744299537977514,-1.2529002300194063,1.5841267276035946,0.3888311058671337,0.11013800000000007,0.18357400000000001,-0.8483970000000001,-0.026256000000000057,-0.021801,-0.899637,0.13639400000000013,0.205375,0.05123999999999995,0.0,0.9775982110890986,single,-0.8483970000000001
56,0.466667,step_decsent,-0.08555315574753575,0.11231101511879031,-0.019798416126706332,-0.049631513214030094,-0.08655728026247586,0.2059190686584929,-0.5158387329013737,0.9457643388528909,-0.24298056155507525,-0.005639548836082095,-0.006719462443004554,0.011039116870648055,0.6348065752134059,-5.329404119507111,-0.11491030676332531,-1.317319233693407,-2.9655003959537867,-4.935503675559846,-1.0222779026477695,0.4608783266009289,0.3886254929401324,0.10655199999999998,0.19052,-0.850257,-0.02559,-0.022793,-0.8993800000000001,0.13214199999999998,0.213313,0.04912300000000003,0.008770000000000278,0.9764995397278331,single,-0.850257
57,0.475,step_decsent,-0.0891635665426545,0.15240609624385018,-0.01836073442938559,-0.05813904681566851,-0.01564570886193692,0.07425840117622673,-0.5124204968198736,0.9733589343573775,-0.23736949477978936,-0.005640225609013362,-0.00840033601344056,-0.0008400336013415652,-0.43326662607929506,4.8116021990951605,0.1725287048266826,0.4102047379695389,3.311483919895198,0.6733549472321976,-8.12160003920001e-05,-0.20171289696820005,-1.4255550788419118,0.10302499999999992,0.197361,-0.852082,-0.02489399999999997,-0.024133,-0.8992339999999999,0.1279189999999999,0.22149400000000002,0.04715199999999986,0.028480000000000283,0.9830783302545507,single,-0.852082
58,0.483333,step_decsent,-0.13164526581064695,0.1312852514100556,-0.02460098403936276,0.03389570517250606,0.10448838679086332,0.11556819786217794,-0.4972998919956688,0.9764790591623598,-0.26821072842913446,-0.01104044161766238,0.010920436817472652,0.007320292811709766,-5.098007832472371,-2.5346027641659066,-0.7488599075935609,1.81454516071099,0.37442995379602023,-3.701096081764667,-0.6480518431116039,2.318585483128901,0.9792783406997837,0.09997800000000012,0.204404,-0.854112,-0.023888999999999827,-0.025136,-0.898968,0.12386699999999995,0.22954,0.04485600000000001,0.05143999999999993,0.9713869698366386,single,-0.854112
59,0.491667,step_decsent,-0.08027357811372786,0.18826493880489553,-0.03587712982959286,-0.12643748237038904,-0.13367341261099924,0.1135629340549967,-0.489680825533957,0.9860811135109185,-0.27957763378929645,-0.009359251259901898,-0.004679625629949597,-0.009479241660666627,6.164109394878695,6.837015526138695,-1.353029252487412,0.9142148382183628,1.1521543494790922,-1.3639195296570654,0.20172670479487403,-1.8718577450710625,-2.015782874055241,0.09656599999999993,0.211053,-0.8561430000000001,-0.02329800000000004,-0.026744,-0.8987480000000001,0.11986399999999997,0.23779699999999998,0.042605000000000004,0.07394999999999996,0.9764680770817022,single,-0.8561430000000001
60,0.5,step_decsent,-0.12864514580585462,0.1578063122524905,-0.025561022440899948,-0.17588157139448737,-0.10214683624582599,0.2696733128717593,-0.49525981039241596,0.9918396735869452,-0.30205208208328305,-0.01548061922477452,0.0043201728069122885,0.002040081603262845,-5.804820315867861,-3.6551813935443542,1.2379824059393902,-0.6695049632136078,0.6910548513172594,-2.6970416769454757,-0.7345935395262975,1.0800190131839562,1.3823740866350054,0.09351100000000012,0.218003,-0.8584470000000001,-0.022354999999999903,-0.028023,-0.8985180000000001,0.11586600000000002,0.246026,0.04007100000000008,0.09928999999999977,0.9729981791965794,single,-0.8584470000000001
61,0.508333,step_decsent,-0.10140405616224422,0.17160686427457036,-0.034201368054732936,-0.24483929805494925,0.0395806277793216,0.2253722108410082,-0.4918996759870464,0.9927997119884757,-0.316452658106323,-0.010920436817480244,-0.001200048001920075,-0.0013200528021100684,3.269061519694022,1.6561324879490942,-1.0368829489779134,0.40323225793465933,0.11520921655231824,-1.7281382482947194,0.5472437786264559,-0.662452995179688,-0.40323225793506534,0.09025700000000003,0.224846,-0.860799,-0.02160099999999998,-0.029463,-0.898244,0.11185800000000001,0.254309,0.03744500000000006,0.12554999999999994,0.9815580042285843,single,-0.860799
62,0.516667,step_decsent,-0.11615070794334814,0.17638588912887057,-0.031077513798897373,0.10393279254573914,-0.0692642404578522,0.27326786923415214,-0.48404127669785146,0.9845212383009436,-0.3335733141348717,-0.009839212862960876,-0.007079433645308418,-0.002519798416125914,-1.7694566571999042,0.5734371075474243,0.3748325240983419,0.9429324801049924,-0.993337375513816,-2.0543143782755906,0.129736495622675,-0.7054698396194357,-0.14395795704533865,0.08719100000000002,0.231581,-0.86332,-0.02071500000000004,-0.030992,-0.898006,0.10790600000000006,0.262573,0.034685999999999995,0.15314000000000005,0.9793657596753673,single,-0.86332
63,0.525,step_decsent,-0.11964478579144756,0.2066482659306365,-0.05124204968198169,-0.1992232574553541,-0.012195513012765842,0.1755393160710793,-0.48313932557303113,0.9788791551661989,-0.34849393975759096,0.02412096483858093,-0.016200648025920965,0.02424096963878305,-0.4193061140164896,3.631630481431155,-2.4198410996140924,0.10823846451702016,-0.6770770592517288,-1.7905466965941705,4.075384339558582,-1.0945895092538713,3.2114206234139986,0.08416200000000007,0.23801599999999998,-0.865797,-0.019517000000000007,-0.032849,-0.8973770000000001,0.10367900000000008,0.27086499999999997,0.03158000000000005,0.18420000000000003,0.9369324315111995,single,-0.865797
64,0.533333,step_decsent,-0.11772470898834844,0.1798871954878212,-0.04248169926796696,0.04666023916065407,-0.02394349041498374,0.36932140166257066,-0.5087003480139377,0.9955598223929079,-0.38797551902076266,-0.011880475218990773,-0.008040321612864589,-0.007080283211325606,0.23041843310922108,-3.211456911414323,1.0512841010458194,-3.0674453907244463,2.0017601376105922,-4.737979030741877,-4.320345620733473,0.9792783407004021,-3.758700690040675,0.08090399999999986,0.244813,-0.868676,-0.018634999999999957,-0.034415,-0.897082,0.09953899999999982,0.27922800000000003,0.028406000000000042,0.21594000000000013,0.9733373506453143,single,-0.868676
65,0.541667,step_decsent,-0.10775137988961586,0.18910487161026987,-0.05351571874252041,-0.3000194955807608,-0.052686497115147495,0.3409709721179077,-0.4866810655147356,0.9692824574033972,-0.3906887449004094,-0.008399328053757375,-0.0073194144468441925,0.004439644828408142,1.1967037555474567,1.1060326520816655,-1.3239764188328975,2.6421025317016955,-3.1530315562167517,-0.3255610606727513,0.4177042434885256,0.08650193976726549,1.3822807823054548,0.07774600000000009,0.25131499999999996,-0.871486,-0.017806999999999906,-0.036052,-0.8965989999999999,0.095553,0.287367,0.02511299999999994,0.24887000000000004,0.9800116015731265,single,-0.871486
66,0.55,step_decsent,-0.11952478099123878,0.2140885635425409,-0.05364214568581091,-0.09218750648379695,0.12892231285522954,0.2940010510289255,-0.4734189367574788,0.9649585983439322,-0.42037681507259855,-0.00804032161286919,-0.005280211208448314,0.0016800672026897807,-1.4128646467806159,2.998162958390848,-0.015171840068462698,1.5915191116352745,-0.5188838424895076,-3.5627109290998487,0.04308249620643014,0.24471417717459137,-0.3311625615886655,0.074797,0.257572,-0.874542,-0.01687799999999995,-0.037880000000000004,-0.8961380000000001,0.09167499999999995,0.295452,0.02159600000000006,0.28403999999999996,0.9837254435245835,single,-0.874542
67,0.558333,step_decsent,-0.09576383055323218,0.20832833313332658,-0.04560182407296897,-0.04742796170476524,0.11836409759647505,0.31858392966627413,-0.4861394455778308,0.9480379215168715,-0.42145685827433665,-0.012000480019199556,-0.0057602304092164314,0.0,2.851428109685206,-0.6912552993176991,0.9648771886285867,-1.5265221193270238,-2.0305624417449684,-0.12961036862331826,-0.47523801828037937,-0.05760460827650567,-0.20161612896793424,0.07154400000000005,0.263736,-0.8776740000000001,-0.01617999999999986,-0.039664,-0.895758,0.08772399999999991,0.3034,0.01808399999999999,0.3191600000000001,0.9778144331791496,single,-0.8776740000000001
68,0.566667,step_decsent,-0.13714902807774002,0.21406287497000087,-0.09131269498440195,-0.228353227391651,-0.0445992640699634,0.29184816669256014,-0.4556035517158653,0.9533237341012623,-0.4706023518118492,-0.016198704103671132,-0.005999520038396872,-0.0056395488360887185,-4.965826436825957,0.6880899732030539,-5.484865720114306,3.6640141423044454,0.6342467703852555,-5.896987465504217,-0.5037465904093525,-0.02871245850497225,-0.6766917249926416,0.0688899999999999,0.269897,-0.880835,-0.015171999999999963,-0.041498,-0.895044,0.08406199999999986,0.311395,0.014208999999999916,0.3579100000000003,0.9697144714424324,single,-0.880835
69,0.575,step_decsent,-0.09060362414497397,0.2281291251650087,-0.051962078483128483,-0.11447821141375315,0.06854557876978168,0.2893629395038382,-0.46105844233768584,0.9379575183007394,-0.44629785191407734,-0.009480379215188166,-0.00480019200768035,0.0034801392055617427,5.585671898807929,1.6880175441027176,4.722262870667686,-0.6546130591408351,-1.8440196568490372,2.916656653998807,0.806231235867398,0.14392512069081156,1.0944063412517155,0.06580300000000006,0.275812,-0.884121,-0.014496000000000064,-0.043439,-0.8945820000000001,0.08029900000000012,0.319251,0.010461000000000054,0.39538999999999946,0.9813638044636803,single,-0.884121
70,0.583333,step_decsent,-0.12972518900754626,0.2139685587423488,-0.08016320652827436,-0.25752502677608813,-0.03209268511034063,0.3107086056742516,-0.4678987159486476,0.9313572542901699,-0.43645745829833027,-0.005280211208440274,-0.007800312012480474,0.005640225609026647,-4.694775574531636,-1.6993359441569462,-3.38427073624694,-0.8208656679421289,-0.7920633638028836,1.1808944696684298,0.504040322422642,-0.3600288017280825,0.2592207372452773,0.06298499999999985,0.28179,-0.8870899999999999,-0.01345900000000011,-0.045287,-0.893867,0.07644399999999996,0.327077,0.006777000000000033,0.43222999999999967,0.9817017272507222,single,-0.8870899999999999
71,0.591667,step_decsent,-0.10775137988961586,0.24238060955123417,-0.08627309815213687,-0.1736423870545507,0.11156600530448886,0.28155763177894616,-0.44372450203983094,0.8840892728581629,-0.44960403167746243,-0.008279337652972665,-0.014758819294456339,-0.0019198464122889224,2.636646162458631,3.4091733631971626,-0.7331283445959279,2.900673615168767,-5.671704035517962,-1.5774626084871688,-0.35986638403316157,-0.8349540775108966,-0.9071360716721277,0.06018499999999993,0.287138,-0.890118,-0.012629999999999919,-0.04743,-0.8931640000000001,0.07281499999999985,0.334568,0.003046000000000104,0.4695399999999995,0.9716149496905537,single,-0.890118
72,0.6,step_decsent,-0.08772350894036288,0.2386895475819052,-0.08772350894036288,-0.1461381564472467,0.1374810188127675,0.31686009440504403,-0.443537741509655,0.8856354254170244,-0.4198967958718423,-0.008040321612869298,-0.010800432017280792,0.0004800192007685152,2.4034406515364415,-0.4429451541256459,-0.17405625683739645,0.022412160107513852,0.1855457288925483,3.565010897110332,0.028683072135289676,0.4750254742800412,0.2879953933826304,0.05722000000000005,0.292529,-0.8928860000000001,-0.011965999999999921,-0.049509,-0.892429,0.06918599999999997,0.342038,0.0004570000000000407,0.5,0.9729747035552745,single,-0.892429
73,0.608333,step_decsent,-0.14484579383174764,0.22080883235329338,-0.08424336973478669,-0.2615627730604246,0.14823312225027493,0.43217649336746494,-0.4240969638785445,0.8489139565582617,-0.4281771270850835,-0.010680427217089328,-0.008760350414016516,0.004080163206532325,-6.854948384901539,-2.145771658299741,0.41763341000554105,2.3329866351986603,-4.406752533152832,-0.9936794927686478,-0.3168253455202231,0.24481958517511912,0.4320345620741383,0.05489300000000008,0.297763,-0.8957520000000001,-0.010847999999999969,-0.051421999999999995,-0.8916930000000001,0.06574100000000005,0.349185,0.004059000000000035,0.5,0.9354040402823331,single,-0.8916930000000001
74,0.616667,step_decsent,-0.09335253179745018,0.26097912167026827,-0.095032397408223,-0.13086501467065798,0.047705372723556204,0.22379103495901184,-0.4176865850732046,0.8460523158147365,-0.42092632589392553,-0.009119270458359181,-0.00659947204223665,0.006839452843769386,6.178697148343864,4.820049114107886,-1.2945797544320103,0.7691839219270382,-0.3433694196694572,0.8700265408156939,0.18732382514160742,0.2592846618406381,0.33108826940689673,0.05218999999999996,0.302639,-0.8984679999999998,-0.010145999999999988,-0.053652000000000005,-0.890844,0.06233599999999995,0.35629099999999997,0.007623999999999853,0.5,0.9018072578192822,single,-0.890844
75,0.625,step_decsent,-0.12684507380296187,0.2374894995799824,-0.08676347053879804,-0.06558879119774294,0.09036819230995327,0.34459312676160314,-0.3986559462378535,0.8103924156966256,-0.40897635905436314,-0.01116044641787116,-0.007440297611904444,0.0076803072122894785,-4.019265811293837,-2.818867405530515,0.9923109167676616,2.283768010962562,-4.279359188540836,1.434053382882797,-0.24495091317796364,-0.10090310448431421,0.10090656048483004,0.049925,0.307413,-0.9011530000000001,-0.009182000000000023,-0.055693000000000006,-0.8900570000000001,0.05910700000000002,0.363106,0.011095999999999995,0.5,0.8632793111896016,single,-0.8900570000000001
76,0.633333,step_decsent,-0.1359654386175502,0.26989079563182344,-0.14592583703349343,-0.47620108483791634,-0.002011468397768728,0.24751932488606299,-0.3876155046201911,0.7776311052442048,-0.4035761430457207,-0.013320532821309464,-0.006240249609984369,0.004200168006721121,-1.0944875572528856,3.8883110586632568,-7.099767970082221,1.324905990359094,-3.931514514871076,0.6480518431108138,-0.25922073724208505,0.14401152069123602,-0.41763341000460136,0.04782799999999998,0.311644,-0.9033,-0.008159999999999945,-0.057994,-0.888806,0.05598799999999993,0.36963799999999997,0.014494000000000007,0.5,0.829563882587344,single,-0.888806
77,0.641667,step_decsent,-0.08579313654907911,0.25329973602111994,-0.10295176385889493,-0.05448130488423549,0.24031137347133763,0.4511920209880406,-0.3640508759299254,0.7829373650108039,-0.37688984881209775,-0.010079193664503655,-0.008519318454523698,0.0027597792176620325,6.0201946326459534,-1.990767891853084,5.156476262850822,2.827529240492662,0.6367002359730242,3.2020991401035643,0.3889295844499433,-0.27346638403399826,-0.1728328280608467,0.04550900000000002,0.316058,-0.905583,-0.007528999999999897,-0.060176,-0.887925,0.05303799999999992,0.37623399999999996,0.017658000000000063,0.5,0.8009487026788493,single,-0.887925
78,0.65,step_decsent,-0.13572542901715928,0.27781111244449636,-0.12324492979717806,-0.10513052367856876,0.037012680717137515,0.2543307777757019,-0.35077403096123805,0.7425897035881437,-0.37525501020040536,-0.01008040321612536,-0.007800312012480461,0.00804032161286253,-5.992114780760827,2.9414828301183626,-2.4352773236869134,1.5932851276475828,-4.841913047241095,0.19618848094232377,-0.00014515200068464964,0.0862842244141646,0.6336904350414586,0.043717000000000006,0.319931,-0.907683,-0.006481999999999877,-0.062556,-0.8868310000000001,0.05019899999999988,0.382487,0.02085199999999987,0.5,0.766363263209013,single,-0.8868310000000001
79,0.658333,step_decsent,-0.12276491059642451,0.2694107764310602,-0.11916476659066731,-0.0576719348174083,0.1585457664133322,0.32458026207226487,-0.3362534501380051,0.7207488299532061,-0.35005400216008997,-0.009120364814588465,-0.008400336013440611,0.009360374414979384,1.5553244234651253,-1.0080806448381407,0.4896391703481085,1.7425394003639822,-2.6210096765795976,3.0242419345152545,0.11520921655309065,-0.07200576034563246,0.1584126727609344,0.04193800000000003,0.32369200000000004,-0.909607,-0.005534999999999846,-0.064871,-0.8857600000000001,0.047472999999999876,0.38856300000000005,0.02384699999999995,0.5,0.7356368805429312,single,-0.8857600000000001
80,0.666667,step_decsent,-0.06803455723541875,0.318574514038875,-0.1526277897768361,-0.3135588568758561,0.24246128600281616,0.296043899392365,-0.3204943604511456,0.7129829613630858,-0.32229421646268314,-0.012718982481420772,-0.01139908807295408,0.009119270458365721,6.567117033957925,5.899176578811424,-4.015241563015183,1.8909394872641465,-0.9318296844396732,3.3309078110639097,-0.43179957605378916,-0.35982146142469956,-0.028930160380808843,0.03983400000000015,0.326979,-0.9110209999999999,-0.005074000000000023,-0.067621,-0.8844119999999999,0.04490800000000017,0.3946,0.026608999999999994,0.5,0.701640612289729,single,-0.8844119999999999
81,0.675,step_decsent,-0.14304572182885575,0.30613224528981003,-0.15288611544461683,-0.24871982777542515,-0.06193589698923989,0.23126796496646604,-0.2956918276731083,0.639865594623776,-0.3067322692907707,-0.015720628825138687,-0.008760350414016542,0.007560302412094021,-9.00169981920517,-1.493131975166795,-0.031000320146492528,2.9764229902840738,-8.774434986116583,1.8675083609639247,-0.36021196972493735,0.3166611855199241,-0.18708364889855916,0.038561999999999985,0.32975999999999994,-0.9123029999999999,-0.004013000000000044,-0.070245,-0.8830749999999998,0.04257500000000003,0.400005,0.02922800000000003,0.5,0.6751862533070803,single,-0.8830749999999998
82,0.683333,step_decsent,-0.12864514580582884,0.2844113764550605,-0.13608544341773415,-0.07089872523778742,0.12700046465179582,0.32954703069215074,-0.2846513860554497,0.6253450138005603,-0.3096123844953792,-0.014880595223810647,-0.007800312012480565,0.007320292811709864,1.7281382482931769,-2.6066085245109503,2.016161289677527,1.3249059903586589,-1.7425394003619172,-0.3456276496590111,0.10080806448194499,0.11520921655298032,-0.028802304138264595,0.037261999999999906,0.332601,-0.9137489999999999,-0.0030650000000000954,-0.07268,-0.88188,0.040327,0.405281,0.031868999999999925,0.5,0.6507656939041319,single,-0.88188
83,0.691667,step_decsent,-0.11999040076795107,0.29889608831293185,-0.1659467242620472,-0.13309382301257586,0.05897582311329042,0.3238062303364424,-0.27021838252938607,0.6534677225821892,-0.259659227261817,-0.015478761699069445,-0.0037197024238060663,0.014998800095997215,1.0384863256392725,1.7380263808340843,-3.583067055953063,1.731821877377433,3.374455097387654,5.9938993560789315,-0.07177423509224787,0.4896339799225423,0.9213471663411678,0.0360100000000001,0.335556,-0.9145300000000001,-0.0021940000000000293,-0.07520199999999999,-0.8803719999999999,0.03820400000000013,0.410758,0.03415800000000013,0.5,0.6219663668104742,single,-0.8803719999999999
84,0.7,step_decsent,-0.1362054482179163,0.3180127205088249,-0.19128765150607344,-0.10248485383608362,-0.004460656982384936,0.2099890527410634,-0.2469698787951679,0.5664226569062817,-0.2736109444377805,-0.015120604824201566,-0.0009600384015360675,0.022680907236289027,-1.9458835293370187,2.294087627012267,-3.0410329105995992,2.7899320453880203,-10.445825714137564,-1.6742730320369164,0.042980544205914184,0.33117292958958644,0.9218897324243228,0.03508699999999987,0.337626,-0.9152159999999999,-0.0011850000000002137,-0.07786000000000001,-0.8785889999999998,0.03627200000000008,0.415486,0.036627000000000076,0.5,0.5882700690154491,single,-0.8785889999999998
85,0.708333,step_decsent,-0.10212408496341698,0.3205328213128503,-0.17856714268569873,-0.15728536816923414,0.19484349840988363,0.3067557655105343,-0.2368894755790126,0.5676227049081954,-0.266770670826829,-0.014280571222846481,0.0010800432017280778,0.024600984039356098,4.089927187627407,0.30242419345078797,1.5265221193297314,1.2096967738095838,0.14401152069047773,0.8208656679408965,0.1008080644851891,0.2448195851751034,0.23041843310537177,0.033964000000000105,0.339685,-0.915951,-0.0004530000000000367,-0.080522,-0.876896,0.03441700000000014,0.420207,0.03905499999999995,0.5,0.5620067700804123,single,-0.876896
86,0.716667,step_decsent,-0.07991360691145313,0.28653707703383524,-0.1648668106551447,0.07908046199562496,0.4686668613513626,0.6125405714269111,-0.2296616270698292,0.49892008639308416,-0.27789776817854844,-0.0141588672905975,0.0045596352291816114,0.02627789776818131,2.6650441627026247,-4.079162980443344,1.6439083309999925,0.8672724393068567,-8.243654729434937,-1.335144870616676,0.014603303605589271,0.41751764188307017,0.20121355037499417,0.03271600000000019,0.341455,-0.916893,9.500000000017828e-05,-0.082872,-0.8753029999999999,0.03262100000000001,0.424327,0.041590000000000016,0.5,0.5337735184715802,single,-0.8753029999999999
87,0.725,step_decsent,-0.10776431057240508,0.32809312372495203,-0.2185287411496567,-0.3314762771041032,0.12583552249013882,0.3613967854640431,-0.20880835233410425,0.48697947917917234,-0.27529101164046366,-0.012240489619590475,0.009000360014400657,0.027961118444736033,-3.342218128039386,4.986925079937258,-6.439689246911377,2.502493068009738,-1.4329301828767471,0.3128232975020774,0.23021452910200918,0.5329082905579127,0.20199456096900714,0.03187399999999996,0.342779,-0.9173659999999999,0.0008909999999999751,-0.085531,-0.8732489999999999,0.030982999999999983,0.42831,0.04411699999999996,0.5,0.5057927957835082,single,-0.8732489999999999
88,0.733333,step_decsent,-0.06708268330732915,0.3250930037201478,-0.20292811712467057,-0.14182242917407478,0.40371044444739146,0.4688290963495945,-0.20820832833313752,0.46549861994479175,-0.28357134285371344,-0.01140045601823543,0.013800552022080836,0.033121324852993794,4.881990551431149,-0.36002880172857255,1.8721497689890876,0.07200576034642131,-2.577806220374475,-0.9936794927696804,0.10080806448518431,0.5760460827649297,0.6192495389724877,0.030697999999999892,0.34394899999999995,-0.918038,0.001354999999999995,-0.08812500000000001,-0.8712820000000001,0.029342999999999897,0.43207399999999996,0.04675599999999991,0.5,0.4696916535508835,flight,-0.8712820000000001
89,0.741667,step_decsent,-0.1271898248140229,0.32781377489800984,-0.24658027357813195,-0.345659783292702,-0.03684495221635843,0.3157638223846015,-0.20842332613389578,0.44600431965443327,-0.3168946484281281,-0.011879049676034535,0.01703863690904737,0.03827693784497427,-7.21227999840342,0.32646642402952114,-5.237839747235617,-0.025797672277209145,-2.3391289045306682,-3.998476790786518,-0.05742664480430852,0.38853910330772184,0.6186240691121314,0.030021000000000075,0.344934,-0.9186239999999999,0.0023159999999999847,-0.090715,-0.8689079999999999,0.02770500000000009,0.435649,0.04971599999999998,0.5,0.43025765328431625,flight,-0.8689079999999999
90,0.75,step_decsent,-0.09480379215169388,0.30685227409096283,-0.24732989319571103,-0.09022491827498143,0.17736659519099998,0.46681105405599405,-0.2065282611304544,0.3796951878075107,-0.3558142325693007,-0.016680667226702348,0.020160806432257202,0.04428177127085164,3.886479378654614,-2.5154807160742734,-0.0899579524275861,0.2274168970888491,-7.957414118195401,-4.670536918417434,-0.5762171547663257,0.37467532979837004,0.7206088354586997,0.02909000000000006,0.345541,-0.919528,0.002966999999999942,-0.093104,-0.8664780000000001,0.02612300000000012,0.438645,0.05304999999999993,0.5,0.41427469513338055,flight,-0.8664780000000001
91,0.758333,step_decsent,-0.11268450738029752,0.32389295571822657,-0.2719308772351004,-0.24115263795059527,0.160520093858773,0.3379507161696757,-0.1984879395175852,0.3310932437297492,-0.3891755670226788,-0.016800672026857838,0.024600984039361486,0.03864154566182499,-2.14577165829876,2.0449635938153934,-2.9522361741736796,0.9648771886318439,-5.832466587994879,-4.003520275216362,-0.01440115206474138,0.5328426265575741,-0.6768541472490848,0.02837500000000004,0.34560100000000005,-0.9205049999999999,0.003766000000000158,-0.095598,-0.8638899999999999,0.02460899999999988,0.441199,0.05661499999999997,0.5,0.4186803282068937,flight,-0.8638899999999999
92,0.766667,step_decsent,-0.09527237820973913,0.35181185505159834,-0.3197744180465482,-0.21951596811833948,0.16250758134111326,0.40427608294186723,-0.20230381569472808,0.3326133909287272,-0.4184065274778063,-0.01595872330215521,0.03299736021118329,0.039476841852654855,2.089288357398426,3.349999920011031,-5.740765636122881,-0.4578685117762061,0.18240307163163386,-3.5074346598425348,0.1010257649031235,1.0074845418552738,0.10022752469760857,0.027483000000000146,0.345441,-0.921327,0.004426999999999959,-0.09825500000000001,-0.860896,0.023056000000000187,0.44369600000000003,0.06043100000000001,0.5,0.41021742817907164,flight,-0.860896
93,0.775,step_decsent,-0.11592463698548162,0.31537261490459384,-0.31477259090363985,-0.3185959772482607,0.11924957174932072,0.37812366166596134,-0.20760830433217353,0.2938917556702231,-0.4634585383415289,-0.01380055202206465,0.03120124804992187,0.045121804872193194,-2.4783701878966045,-4.372883732989842,0.6002432668796766,-0.6365640990574141,-4.646782102304569,-5.406457561949163,0.25899091324739626,-0.21554208103461087,0.6774226592509679,0.02671900000000016,0.345262,-0.922566,0.005278000000000116,-0.10062299999999999,-0.8578969999999999,0.021441000000000043,0.445885,0.06466900000000009,0.5,0.40571982665553075,flight,-0.8578969999999999
94,0.783333,step_decsent,-0.07608304332173638,0.3150126005040233,-0.3332533301332119,-0.17368893907517025,0.09201275824735165,0.4325472198452635,-0.2133685347413985,0.2379695187807549,-0.48793951758070936,0.004320172806903313,0.054722188887556,0.1374054962198509,4.781182486948952,-0.04320345620671356,-2.2177774186454124,-0.6912552993189748,-6.710936864210812,-2.937835022102567,2.1745739624346725,2.822625805548343,11.074485941156672,0.025575000000000125,0.34462000000000004,-0.9238549999999999,0.005948000000000064,-0.102792,-0.8539749999999999,0.01962700000000006,0.44741200000000003,0.06987999999999994,0.5,0.25339273101892057,flight,-0.8539749999999999
95,0.791667,step_decsent,-0.10691144708422946,0.3342932565394739,-0.39956803455721235,-0.49845015283392724,0.03080342466869706,0.42057697214080036,-0.21598272138229063,0.2007439404847573,-0.5344372450203959,0.006239500839925676,0.02147828173746084,0.048356131509477276,-3.6991125224973422,2.3134936447624725,-7.957127960643142,-0.31367730272283606,-4.466712058554993,-5.5792809502863205,0.2303009398874908,-3.9889497420320263,-10.685068959727975,0.024666000000000077,0.343507,-0.9249790000000001,0.0068909999999999805,-0.10539899999999999,-0.8502420000000002,0.017775000000000096,0.44890599999999997,0.07473699999999994,0.5,0.41120304979450406,flight,-0.8502420000000002
96,0.8,step_decsent,-0.05892235689427783,0.32857314292571616,-0.36553462138486637,-0.12768323037752485,0.5403199937887808,0.5308385472716619,-0.2112084483379307,0.17280691227648995,-0.5671426857074269,0.01320052802112733,0.0200408016320652,0.057842313692545354,5.758921179641358,-0.6864410912945774,4.084172947599405,0.572935682750499,-3.3525774880915917,-3.924809874838693,0.8353566760112354,-0.17250451282798937,1.138387397464063,0.023397000000000112,0.342209,-0.926659,0.007492000000000054,-0.10797,-0.846714,0.015905000000000058,0.450179,0.07994500000000004,0.5,0.3956285889053588,flight,-0.846714
97,0.808333,step_decsent,-0.06012240489617992,0.32497299891996,-0.420856834273366,-0.4940130210580209,0.348714852187028,0.5605988331416321,-0.22812912516500036,0.14112564502580358,-0.6191047641905696,0.010320412816516415,0.017760710428417294,0.07332293291732074,-0.14401152068907988,-0.43203456207322427,-6.638931103864173,-2.0305624417460475,-3.8019041462482495,-6.23569884593102,-0.34562764965929943,-0.2736218893133237,1.8577486169177402,0.021997000000000044,0.340677,-0.9283110000000001,0.008078999999999947,-0.11053,-0.8425960000000001,0.013918000000000097,0.45120699999999997,0.08571499999999999,0.5,0.3730900773599273,flight,-0.8425960000000001
98,0.816667,step_decsent,-0.0740340772738283,0.3897288216942616,-0.47372210223182537,-0.39843673504422056,0.22050546820851966,0.20857604025421142,-0.2231821454283874,0.109431245500362,-0.6591072714182846,0.006359491240710386,0.00971922246220295,0.07199424046076132,-1.669267143946277,7.770077126745991,-6.343324689039952,0.5935900811870551,-3.8030237011568677,-4.7999168739758495,-0.47527256729133655,-0.9649013638366069,-0.15943034035990059,0.02075399999999994,0.338341,-0.929856,0.008749000000000118,-0.113697,-0.838048,0.012004999999999821,0.452038,0.091808,0.5,0.37845808823436455,flight,-0.838048
99,0.825,step_decsent,-0.08304332173285986,0.33829353174127297,-0.47269890795631236,-0.3719175885474618,0.4002751613903598,0.48789205414262304,-0.23316932677304977,0.08736349453978316,-0.6852274090963693,-0.008520340813651137,0.031921276851074334,0.09684387375495135,-1.0811525811870448,-6.172481693626437,0.1227882245905455,-1.1985097017475648,-2.648236044711273,-3.134541903046306,-1.7856512725743021,2.664353100788622,2.9820752783139635,0.019503000000000048,0.33625000000000005,-0.9316270000000001,0.009369999999999878,-0.11625,-0.8333020000000001,0.01013300000000017,0.4525,0.098325,0.5,0.32945919348495556,flight,-0.8333020000000001
100,0.833333,step_decsent,-0.05712228489141258,0.3614544581783257,-0.48925957038282625,-0.33322491075944266,0.6154839617889818,0.44893299648746104,-0.2478099123965195,0.04788191527660879,-0.7178687147485854,-0.019200768030713706,0.06048241929677162,0.12984519380775505,3.1106488469275377,2.7794223493402925,-1.9873589855410794,-1.756940552438458,-4.737979030742134,-3.9171133628004307,-1.2817025341488688,3.4274741924513576,3.9603168190091886,0.017913999999999985,0.333637,-0.933532,0.009686000000000083,-0.118758,-0.828143,0.008227999999999902,0.452395,0.10538900000000007,0.5,0.2591302398255828,flight,-0.828143
101,0.841667,step_decsent,-0.07355411567074274,0.3491720662346981,-0.5161987041036711,-0.3310298078238125,0.5575593546309539,0.43093533486239144,-0.25509959203261745,0.016438684905207245,-0.7854571634269194,-0.021118310535151504,0.05087592992560555,0.13234941204703105,-1.9716619605627597,-1.4737691317047672,-3.232437451505235,-0.8746915810052663,-3.77288581370306,-8.109965044196485,-0.23008669359704628,-1.1526865096191496,0.30048215014110524,0.01640100000000011,0.330864,-0.9357759999999999,0.010123000000000104,-0.121244,-0.822738,0.006278000000000006,0.452108,0.11303799999999997,0.5,0.26107468533934763,flight,-0.822738
102,0.85,step_decsent,-0.056042241689667524,0.36421456858274615,-0.5280211208448338,-0.35324824715984865,0.6637799571936026,0.4526766772873569,-0.27049081963278515,-0.01644065762630499,-0.8004320172806997,-0.03528141125645256,0.057122284891396216,0.16164646585863426,2.101508938086569,1.8051724886653289,-1.418746758809888,-1.8470211928678557,-3.945678930938742,-1.797054344627435,-1.6996400721590286,0.7495925795980706,3.5157870888759732,0.014614000000000127,0.327692,-0.9380459999999999,0.010296000000000083,-0.123803,-0.816991,0.004318000000000044,0.451495,0.12105499999999991,0.5,0.20827470429239908,flight,-0.816991
103,0.858333,step_decsent,-0.046201848073905684,0.3763350534021345,-0.5641425657026337,-0.11845723686714683,0.6226515005237353,0.3673729909648282,-0.2194887795511908,-0.028201128045119914,-0.8028321132845282,-0.03096123844954883,0.051602064082563064,0.17064682587303834,1.1808944696702026,1.4545163589809584,-4.334746772806881,6.12048962937647,-1.4113129027738958,-0.2880230413810754,0.5184414744874247,-0.6624529951797827,1.0800864051846917,0.013169999999999904,0.324321,-0.940035,0.010422999999999849,-0.12650899999999998,-0.8108679999999999,0.002747000000000055,0.45083,0.12916700000000003,0.5,0.19842215633414056,flight,-0.8108679999999999
104,0.866667,step_decsent,-0.04811615070795512,0.36885049196064446,-0.5851931845452422,-0.2817614540580822,0.7008432240761129,0.44432796879010655,-0.20386369090471618,-0.06239500839933086,-0.838252939764826,-0.035637149028076964,0.05747540196784288,0.1943844492440628,-0.22969794025071377,-0.8980755269366583,-2.525872191337728,1.8748606487250685,-4.102937407512736,-4.250159164902564,-0.5610643842726374,0.7047441667002456,2.8482869415676277,0.011872000000000105,0.320727,-0.9421439999999999,0.010526999999999953,-0.129104,-0.804371,0.0013450000000001516,0.449831,0.13777299999999992,0.5,0.156979340069354,flight,-0.804371
105,0.875,step_decsent,-0.04908196327851674,0.37957518300731863,-0.5954638185527289,-0.3404567501577386,0.6282345112218749,0.3328946040389715,-0.23760950438018535,-0.05076203048121984,-0.8467538701548001,-0.05736229449177684,0.0765630625225006,0.21480859234368785,-0.11590214455317548,1.2870144061771425,-1.2325253819136794,-4.049659603440422,1.3960131907009448,-1.0201524528950068,-2.607121740513595,2.290610890994557,2.450995211763465,0.010300999999999894,0.317141,-0.944238,0.010457999999999856,-0.131629,-0.7976190000000001,0.00015699999999996272,0.44877,0.14661899999999994,0.5,0.10808494855793066,flight,-0.7976190000000001
106,0.883333,step_decsent,-0.02820112804514656,0.39061562462498434,-0.6097443897756021,-0.2322223968010662,0.7387807232467263,0.3602919751953067,-0.2546501860074341,-0.030241209648382745,-0.8665546621864845,-0.07176287051480545,0.08988359534381339,0.23424936997479912,2.5058004600228116,1.3249059903594937,-1.713737096228624,-2.0449635938135944,2.462597003820594,-2.376190091405773,-1.728138248293358,1.5985278796727151,2.33298663519875,0.008414000000000144,0.313634,-0.9463779999999999,0.010095000000000187,-0.134135,-0.7905859999999999,0.0016810000000000436,0.44776900000000003,0.15579200000000004,0.5,0.06506150616806416,flight,-0.7905859999999999
107,0.891667,step_decsent,-0.06707463402927519,0.46940244780417817,-0.6391888648907955,0.04811258425749421,0.7438636945153924,0.9377005640357957,-0.24670026397889003,-0.0771538276937855,-0.9194864410847189,-0.09443244540437937,0.10811135109191325,0.27165826733861304,-4.664447562290479,9.453662488504234,-3.5330543694736747,0.953914330278873,-5.629063840341135,-6.3513053633590975,-2.7201313762387858,2.18715571731461,4.488708586970739,0.006917000000000062,0.309079,-0.9487140000000001,0.00986700000000007,-0.137146,-0.7829950000000001,0.002950000000000008,0.44622500000000004,0.16571899999999995,0.5,0.0,flight,-0.7829950000000001
108,0.9,step_decsent,-0.018240729629176687,0.5681027241089639,-0.6512660506420315,-0.5797754170306723,0.1388215350146864,1.20045497627468,-0.22692907716309602,-0.10488419536781925,-0.9327973118924721,-0.11796471858873779,0.11412456498259888,0.28681147245889754,5.860302940129401,11.844506936851712,-1.4493202629588267,2.372637323388207,-3.327777231973315,-1.5973683916660406,-2.823985741552661,0.7216145314635306,1.8184573527282424,0.005177999999999905,0.30347099999999994,-0.95106,0.009036000000000044,-0.140929,-0.7751779999999999,0.003858000000000139,0.44439999999999996,0.1758820000000001,0.5,0.0,flight,-0.7751779999999999
109,0.908333,step_decsent,-0.04776191047640731,0.3998559942397734,-0.6585863434537367,-0.006453754895565058,0.5986029460699219,0.5406839350535484,-0.2248889955598162,-0.0902436097443876,-0.9907596303852261,-0.14256570262810245,0.12372494899796102,0.279011160446423,-3.542683409004067,-20.19041520091108,-0.8784702762156817,0.24481958517698701,1.7569405524339115,-6.955756449388521,-2.9522361741707526,1.1520921655300893,-0.9360748844923346,0.003701999999999872,0.29938699999999996,-0.953828,0.008245999999999976,-0.14323000000000002,-0.7673650000000001,0.0045440000000001035,0.442617,0.18646299999999993,0.5,0.0,flight,-0.7673650000000001
110,0.916667,step_decsent,0.020038396928222332,0.5159587233021317,-0.7928965682745257,-0.38384649635955337,0.9666012689712057,0.6818545972274122,-0.2127429805615564,-0.1748260139188835,-1.0043196544276367,-0.16390688744900023,0.14014878809695114,0.2715382769378447,8.135386057670882,13.931212990443647,-16.11593770347828,1.4574052073745738,-10.149076574813446,-1.627072719271722,-2.5607373195221523,1.970703035635948,-0.8966742870864194,0.0017620000000000413,0.29363,-0.95559,0.006713000000000191,-0.14636200000000002,-0.758494,0.00495100000000015,0.439992,0.19709600000000005,0.5,0.0,flight,-0.758494
111,0.925,step_decsent,-0.028921156846266016,0.4549381975278979,-0.7548301932077406,-0.24117393239603863,0.7076124711867329,0.28114642141535323,-0.21312852514100472,-0.21684867394695734,-1.0513620544821738,-0.17388695547822244,0.14640585623424884,0.2506900276011039,-5.875381468197306,-7.322756003148149,4.568147733923552,-0.046267200221805915,-5.042920920205647,-5.64531381909719,-1.197656069749451,0.7508782116041857,-2.501889996008724,0.00022699999999997722,0.288032,-0.9580609999999999,0.005505000000000093,-0.148933,-0.7501149999999999,0.005278000000000116,0.436965,0.20794600000000008,0.5,0.0,flight,-0.7501149999999999
112,0.933333,step_decsent,-0.04188167526700299,0.4540981639265624,-0.7859114364574554,-0.19860963508771834,0.6776753317842998,0.36476442043980817,-0.20064802592102618,-0.2691707668306751,-1.0963638545541927,-0.17208688347535947,0.12300492019680898,0.23364934597383827,-1.5553244234653898,-0.10080806448284015,-3.729898385901251,1.4977198151900462,-6.278902302138273,-5.400432025923357,0.2160172810348002,-2.808224653478949,-2.04496359381565,-0.0010959999999999859,0.282005,-0.9606480000000001,0.0044199999999998685,-0.15169200000000002,-0.741619,0.005515999999999854,0.433697,0.21902900000000003,0.5,0.0,flight,-0.741619
113,0.941667,step_decsent,-0.07127429805615297,0.47432205423565565,-0.8249340052795671,-0.51341193045201,0.4909395518592974,0.34690191321463953,-0.26097912167026893,-0.13870890328773477,-1.0301175905927458,-0.17710583153345327,0.11303095752339729,0.22798176145908308,-3.5268325880909237,2.4266727032749125,-4.682333671959604,-7.2391523577204575,15.654171291449403,7.9489157621126045,-0.6022255889241378,-1.1967797784271195,-0.6800557373116323,-0.0026770000000000405,0.27689600000000003,-0.962358,0.003538000000000041,-0.15470299999999998,-0.732844,0.006215000000000082,0.431599,0.229514,0.5,0.0,flight,-0.732844
114,0.95,step_decsent,-0.03768150726030846,0.49609984399376417,-0.8832353294131886,-0.5960788097642893,0.6341536218838624,0.21465247965028061,-0.2738509540381781,-0.13500540021601498,-1.0272410896435933,-0.17016680667228543,0.1006840273610953,0.21372854914196487,4.031296147347272,2.613439308545387,-6.996438753584793,-1.5446816714159717,0.4444381461322246,0.3451939216551673,0.832716291991829,-1.481690887111736,-1.710453896210049,-0.00464500000000001,0.271637,-0.963558,0.0024340000000000472,-0.157998,-0.723703,0.0070790000000000575,0.429635,0.23985500000000004,0.5,0.01473401286561854,flight,-0.723703
115,0.958333,step_decsent,-0.04104164166564755,0.5165006600263992,-0.9111964478579058,0.42139702460785206,0.9892687565602454,0.42539192214053745,-0.26869074762988965,-0.12840513620544286,-1.023400936037438,-0.17664706588262472,0.09804392175686986,0.21180847233889466,-0.4032322579310063,2.448195851750259,-3.3554684321033292,0.6192495389761715,0.7920633638032033,0.4608368662132699,-0.7776622117291807,-0.316825345520872,-0.23041843310574897,-0.006542000000000048,0.266263,-0.964493,0.0013039999999999718,-0.161485,-0.714345,0.00784600000000002,0.427748,0.25014800000000004,0.5,0.01214862966682645,flight,-0.714345
116,0.966667,step_decsent,-0.052435805135591235,0.4745620350371951,-0.8741300695944241,-0.0997754185940786,0.7298415152088128,0.10028080412846037,-0.24982001439883625,-0.11147108231341565,-1.0723542116630589,-0.18334533237340558,0.11531077513798808,0.20902327813774327,-1.367190241173938,-5.0322324201108435,4.447609582851141,2.2643068431789364,2.031923913130199,-5.873923161221553,-0.8037276806792437,2.0718566572015944,-0.33419656841269146,-0.008186999999999944,0.26137900000000003,-0.966145,0.00021300000000001873,-0.16447900000000001,-0.7053180000000001,0.008399999999999963,0.425858,0.2608269999999999,0.5,0.0,flight,-0.7053180000000001
117,0.975,step_decsent,-0.06744269770790311,0.49309972398896423,-0.9674786991479764,-0.6965288515790975,0.3228387442672437,0.18470350461171164,-0.23916956678268952,-0.16536661466458694,-1.1159246369854898,-0.19788791551662385,0.14028561142445825,0.2227289091563712,-1.800899144643227,2.2246116586786666,-11.202283637771886,1.278104838131144,-6.467722591044255,-5.228660185099164,-1.7451797843775834,2.997100238385983,1.6447415118958424,-0.009618000000000126,0.255892,-0.9673820000000001,-0.0008740000000000414,-0.167419,-0.6954,0.008744000000000085,0.423311,0.27198200000000006,0.5,0.0,flight,-0.6954
118,0.983333,step_decsent,-0.03204128165126798,0.4898595943837736,-0.9690387615504645,-0.1846984809853626,0.6423480565439885,0.12141617503120963,-0.24396975879034477,-0.13332533301332342,-1.07080283211328,-0.1770070802832244,0.13920556822272828,0.21948877955118415,4.248339860390613,-0.3888311058671118,-0.18721497689765704,-0.5760460827619376,3.8451076024557045,5.414833177992265,2.505800460026325,-0.1296103686223406,-0.38883110586667874,-0.01138400000000006,0.250699,-0.96823,-0.0020820000000001393,-0.17034100000000002,-0.685496,0.009301999999999921,0.42103999999999997,0.28273400000000004,0.5,0.0,flight,-0.685496
119,0.991667,step_decsent,-0.06731461483081796,0.5380369570434381,-1.1594672426205943,2.178697111944991,0.29929762578617075,-0.3530194175471644,-0.09299256059514933,-0.368610511159105,-1.0676745860331238,-0.20638348932084877,0.17686585073194241,0.22606191504679715,-4.2324613846352515,5.7808210534755,-22.849589761234803,18.115814518262095,-28.23196282046831,0.375359500858686,-3.5248870935474605,4.518872391314416,0.7887131624205712,-0.011597999999999997,0.24314300000000003,-0.967465,-0.0032410000000000494,-0.173351,-0.673949,0.008356999999999948,0.41649400000000003,0.293516,0.5,0.0,flight,-0.673949
120,1.0,step_decsent,-0.043921756870285246,0.5179407176287014,-1.1110044401776011,-0.20075347231089366,0.1250402200926666,0.0865279578934555,-0.12108484339373976,-0.6581063242529727,-1.223808952358089,-0.20928837153485666,0.1904476179047156,0.21684867394695734,2.8072552454737334,-2.4116451955762175,5.815768923916113,-3.3712087841822043,-34.74088720675225,-18.73687343393311,-0.34859980967333254,1.6298772558230077,-1.1056331573070652,-0.012240999999999946,0.233343,-0.9684050000000001,-0.004618999999999929,-0.17608,-0.662884,0.007622000000000018,0.409423,0.30552100000000004,0.5,0.0,flight,-0.662884
121,1.008333,step_decsent,-0.05760230409216853,0.5198607944317823,-1.1261250450018174,-0.47024985543261993,-0.008256726720789625,0.08536084869197275,0.15348613944558284,-0.908796351854082,-1.5418216728669285,-0.31537261490460805,0.23652946117844936,0.14244569782791366,-1.6417313358794443,0.23041843310703775,-1.8145451607123997,32.949835934156376,-30.084006672400296,-38.16305298318041,-12.730618429107448,5.530042394543885,-8.928714282856637,-0.01048199999999988,0.221438,-0.971869,-0.0067669999999999675,-0.178441,-0.6523129999999999,0.003714999999999913,0.399879,0.31955600000000006,0.5,0.0,flight,-0.6523129999999999
122,1.016667,step_decsent,-0.019558435325163423,0.5253179745620336,-1.2679385649147963,-0.3269517597030549,0.872053146650486,0.1205682577094419,0.03395728341733034,-0.4852411807055389,-0.9260859131269431,-0.23818094552434466,0.2060235181185489,0.18166546676265277,4.564899060115769,0.6548092308916682,-17.01626108867024,-14.342315338163138,50.82255473344611,73.88238057835142,9.262259344883946,-3.6604203335613414,4.705995792505257,-0.010035999999999934,0.21301599999999998,-0.96902,-0.008588999999999958,-0.181102,-0.640232,0.001446999999999976,0.39411799999999997,0.32878799999999997,0.5,0.0,flight,-0.640232
123,1.025,step_decsent,-0.04464178567143194,0.5239409576383081,-1.2913716548662089,-0.242977329834483,0.4677974698460511,0.009885158540517915,-1.013560542421727,-0.26725069002760105,-0.8321132845313883,-0.25225009000360826,0.20556822272891095,0.16272650906036676,-3.0101224464501075,-0.16524864079269247,-2.8120832775006352,-125.70716738738354,26.159905277563883,11.277166518127402,-1.6883648721065325,-0.0546376322618456,-2.2727658349077386,-0.01811000000000007,0.20642300000000002,-0.965193,-0.010318999999999967,-0.183755,-0.628115,0.007791000000000103,0.390178,0.337078,0.5,0.0,flight,-0.628115
124,1.033333,step_decsent,-0.03396135845434157,0.5077403096123771,-1.2160086403455863,-0.4334244732704162,0.66214413769329,0.13728050736215455,0.9467178687147362,-1.5258610344413548,-1.614424576983051,-0.20796831873274382,0.1741269650786002,0.18048721948877702,1.2817025341521884,-1.9441555293328483,9.043923499414525,235.24281904913343,-151.03928290096385,-93.88111033861142,5.31402511350818,-3.7731018421109086,2.1313705062294437,-0.009938000000000002,0.18947699999999998,-0.9685130000000001,-0.011768999999999918,-0.186535,-0.6164780000000001,0.001830999999999916,0.37601199999999996,0.352035,0.5,0.0,flight,-0.6164780000000001
125,1.041667,step_decsent,-0.05087592992560451,0.45440364770819014,-1.3437724982001646,0.1820127136114705,0.14223397744879085,0.07297301345991981,0.14770818334533303,-0.7660187185025344,-0.36021118310535816,-0.22798176145908913,0.17614590832733681,0.13210943124550512,-2.0295862096548194,-6.399887437507562,-15.33043650762908,-95.873492364941,91.17378400993938,150.4935677799036,-2.4014210134804044,0.24225380954363432,-5.804870199576773,-0.00828300000000004,0.179306,-0.9603160000000001,-0.013244999999999951,-0.188854,-0.6041780000000001,0.004961999999999911,0.36816,0.35613799999999995,0.5,0.0,flight,-0.6041780000000001
126,1.05,step_decsent,-0.03684147365895258,0.5187807512300426,-1.2356894275770816,-0.7004336537212333,0.7014852655487517,-0.000861836844064184,0.027481099243973444,-0.5869434777390967,-0.5321012840513528,-0.22608904356173812,0.15696627865114332,0.14556582263289847,1.6842021200830055,7.7255614450799674,12.970487294261513,-14.427827205251107,21.48988848715164,-20.62763721900776,0.22713523309144149,-2.301647627048261,1.614831559749564,-0.007746999999999948,0.170092,-0.9544530000000001,-0.01482199999999989,-0.191869,-0.5926680000000001,0.0070749999999999424,0.361961,0.361785,0.5,0.0,flight,-0.5926680000000001
127,1.058333,step_decsent,-0.05808232329292372,0.41629665186607845,-1.3375735029401419,0.3946317006383816,0.1239488048499347,0.026630403620085726,-0.09936397455898938,-0.5240609624385035,-0.6258250330013263,-0.2622104884195516,0.15444617784711528,0.14124564982599236,-2.549003916233209,-12.298583867030496,-12.226578106691617,-15.222017737065158,7.546203684218621,-11.247299765987561,-4.334746772808567,-0.3024241934511051,-0.5184414744877173,-0.00809100000000007,0.16225599999999998,-0.948522,-0.016523000000000065,-0.194051,-0.580345,0.008431999999999995,0.356307,0.368177,0.5,0.0,flight,-0.580345
128,1.066667,step_decsent,-0.0197984161267062,0.4090472762178989,-1.1213102951763698,-0.4551843750082756,0.7680500801737404,0.029707461987962043,-0.13426925845930665,-0.2654187664986771,-0.7447804175665886,-0.2622990160786876,0.1481881449484034,0.1381089512838978,4.59370136383696,-0.8698554893423941,25.949508970934776,-4.188299004117711,31.034580746319232,-14.273504267489972,-0.01062246929877943,-0.750903875535377,-0.37637371515413165,-0.00904499999999997,0.156635,-0.945384,-0.018543999999999894,-0.196225,-0.569849,0.009498999999999924,0.35286,0.37553499999999995,0.5,0.0,flight,-0.569849
129,1.075,step_decsent,-0.05808232329292372,0.34669386775471367,-1.229209168366746,0.5606490396965016,0.39777994229666286,-0.1388285676704964,0.12996519860793893,-0.26701068042721676,-0.6679467178687211,-0.24000960038401778,0.16920676827073255,0.06564262570503117,-4.594252630051346,-7.482708323915251,-12.948382718153997,31.709403224198727,-0.19103731291728124,9.220412780255403,2.674836876835477,2.5223356921072053,-8.696306921740945,-0.007478000000000096,0.15152100000000002,-0.9407070000000001,-0.020059999999999967,-0.197704,-0.559059,0.012581999999999871,0.349225,0.3816480000000001,0.5,0.0,flight,-0.559059
130,1.083333,step_decsent,-0.036241449657988624,0.31201248049921343,-1.109564382575294,0.03232885429211843,0.18669489158809083,-0.23516640138919484,0.004560182407294111,-0.2888515540621632,-0.5101404056162154,-0.21540861634464895,0.17544701788071193,0.11484459378374762,2.6210096765792286,-4.161932947977875,14.357948612918504,-15.049203912233605,-2.6210096765805866,18.93751497089918,2.9522361741711753,0.7488599075938157,5.904472348339804,-0.007138000000000089,0.14651399999999998,-0.935712,-0.021552999999999933,-0.198842,-0.548856,0.014414999999999845,0.345356,0.386856,0.5,0.0,flight,-0.548856
131,1.091667,step_decsent,-0.08759299256061115,0.29817614590833147,-1.211783057355431,-2.0105516086785125,-1.4244454185567381,-0.009873867966752483,-0.1870650347972037,-0.23410127189825025,-0.3689704823614183,-0.18202543796499177,0.16630669546436583,0.1100311975042019,-6.161692212937785,-1.6602273327192492,-12.265259752836423,-22.993186609611406,6.569508299005755,16.939035667722564,4.005660952682724,-1.0967509498855623,-0.5775613486376061,-0.007966999999999835,0.142078,-0.928688,-0.022340000000000027,-0.19994099999999998,-0.53784,0.014373000000000191,0.342019,0.390848,0.5,0.050006044957783546,flight,-0.53784
132,1.1,step_decsent,-0.11208448337933206,0.20052802112084203,-0.9611184447377646,0.9407959259607671,-0.8455615032522297,-0.8112861291589746,0.0724828993159506,-0.03468138725548766,-0.20136805472218525,-0.1564862594503719,0.16296651866074335,0.11472458898355882,-2.9390964621049425,-11.718243704246698,30.080956752389522,31.146997973496912,23.931343410867527,20.113095840541234,3.0648240147149193,-0.4008372499246869,0.5632295067030887,-0.006429000000000018,0.14011800000000002,-0.9223570000000001,-0.022710000000000008,-0.200254,-0.528875,0.01628099999999999,0.340372,0.3934820000000001,0.6386535104724109,0.07767914080965371,single,-0.528875
133,1.108333,step_decsent,-0.12576503060121774,0.20220808832353718,-0.9269170766830835,-0.37223375301295764,-1.646024597340034,-0.9152275243742836,-0.007680307212269596,-0.08484339373575178,-0.204848193927759,-0.22908916356653738,0.20964838593544,0.04164166566662539,-1.6417313358797316,0.20161612896857808,4.104328339695358,-9.6199695821698,-6.019681564894346,-0.4176334100052535,-8.712697001820011,5.602048154889844,-8.770301610096496,-0.005444999999999922,0.137726,-0.9163399999999999,-0.02357100000000001,-0.200192,-0.520804,0.018126000000000086,0.337918,0.3955359999999999,0.6302396754692928,0.0,single,-0.520804
134,1.116667,step_decsent,-0.08507319414447627,0.18670506359490788,-0.7438204943604401,0.7724802120672606,-0.8514541332292934,-1.2721635818209593,0.021478281737452348,-0.14674826013918463,-0.09491240700743868,-0.18586513078953812,0.09059275257979277,0.08303335733141597,4.882629764427786,-1.8602141503034775,21.969832292133677,3.498750773904694,-7.427989729233546,13.191239131307832,5.186469015718615,-14.285533160024757,4.966605671321126,-0.004556999999999922,0.13494700000000004,-0.9109320000000001,-0.02441099999999996,-0.20099299999999998,-0.5139130000000001,0.01985400000000004,0.33594,0.397019,0.7065306496969929,0.12863827123408866,single,-0.5139130000000001
135,1.125,step_decsent,-0.06372254890193711,0.20208808352334504,-0.75855034201369,0.7635394098118135,-0.544367947554357,-1.373136856023455,-0.0907236289451561,-0.1792871714868672,-0.08736349453978233,-0.15096603864154481,0.14076563062522635,0.1106444257770295,2.5621799163013743,1.8460362328617903,-1.7676524244869856,-13.464767872628043,-3.9048255547441353,0.905905732348064,4.188058580102439,6.0209862049002805,3.3134607519037305,-0.004782000000000064,0.13176899999999997,-0.905339,-0.025138000000000105,-0.20150400000000002,-0.50667,0.02035600000000004,0.333273,0.39866900000000005,0.6348248255709541,0.10967287030276107,single,-0.50667
136,1.133333,step_decsent,-0.05292211688469216,0.18240729629185257,-0.5304212168486764,0.6356321387100484,-0.5597373930806785,-1.4515774826850505,-0.11292451698068993,0.09744389775591532,0.012840513620544874,-0.1248049921996807,0.14484579383175455,0.11028441137645645,1.2961036862168551,-2.3617889393366913,27.37659008340522,-2.664213132789395,33.20905667140106,12.024961977718483,3.1394511510697645,0.48963917035020355,-0.043203456207015,-0.005282000000000009,0.131061,-0.9008120000000001,-0.0257369999999999,-0.201817,-0.501331,0.02045499999999989,0.332878,0.3994810000000001,0.7504885967022148,0.132126072843468,single,-0.501331
137,1.141667,step_decsent,-0.0073194144468282036,0.2325413966882626,-0.5967122630189545,-0.6412799217032131,-0.4706630086807939,-1.1539492848266832,-0.05735541156707161,-0.00863930885529349,0.04319654427645746,-0.14722822174227018,0.1640268778497708,0.10283177345812217,5.471886541620303,6.015610798705262,-7.954289197297533,6.667759228895837,-12.728966476026878,3.6424322841267522,-2.6905722993267704,2.301545958485253,-0.8942450105992591,-0.005699000000000121,0.129051,-0.895479,-0.02690300000000012,-0.20238799999999998,-0.495501,0.021204,0.331439,0.399978,0.8794662065487064,0.09463548787995052,single,-0.495501
138,1.15,step_decsent,-0.006360254410186157,0.2359294371774887,-0.5315012600504089,-0.6602427725243915,-0.26871669905753415,-1.093952672167822,-0.07692307692306463,0.07044281771270966,0.03132125285011439,-0.1189247569902764,0.18036721468858888,0.10548421936877796,0.11510380854938863,0.40658112195201535,7.825633381560812,-2.3482137712700353,9.490234797552366,-1.425091974840175,3.3965516323045777,1.9609188574124843,0.31830624152835885,-0.0062869999999999315,0.127672,-0.890789,-0.027841000000000005,-0.202851,-0.490193,0.021554000000000073,0.330523,0.40059600000000006,0.8184911143075102,0.09929801009992656,single,-0.490193
139,1.158333,step_decsent,-0.04032161286450091,0.20352814112564183,-0.3722548901956072,-0.1372226205710676,-0.5817272581469433,-1.1016237120406884,-0.024360974438998165,0.044521780871235296,0.05928237129485092,-0.09612384495380268,0.19056762270490477,0.11580463218528463,-4.075526035559121,-3.8883110586639047,19.110328795727696,6.307704606272116,-3.1106488469307463,3.355468432105609,2.7362188931325235,1.22409792587492,1.2384990779438962,-0.006154000000000215,0.12634700000000001,-0.8871929999999999,-0.028306000000000164,-0.202959,-0.48612599999999995,0.02215199999999995,0.329306,0.40106699999999995,0.869935426359054,0.0952829341253369,single,-0.48612599999999995
140,1.166667,step_decsent,-0.07487401007921668,0.19150467962563528,-0.48716102711783416,-0.566823605350003,-1.8197899333396725,-0.9419401549554025,-0.07403407727380362,0.11027117830573802,0.029757619390449117,-0.05519558435324138,0.16066714662827278,0.1132709383249362,-4.145955989286828,-1.442699964003693,-13.787633419993897,-5.960295516535445,7.8892965484166035,-3.5426868135831975,4.910998392196073,-3.5877701075873,-0.3040189417264782,-0.0061469999999999025,0.12567,-0.882885,-0.02814199999999989,-0.203216,-0.481122,0.021994999999999987,0.328886,0.40176300000000004,0.773147788720239,0.15969462240683246,single,-0.481122
141,1.175,step_decsent,-0.06360254410175328,0.1902076083043292,-0.43165726629063944,0.9083095895834428,-1.0378401783996454,-1.017983372972609,-0.07236289451579511,0.08508340333613378,0.03696147845913763,-0.055082203288129024,0.17784711388455277,0.13356534261369923,1.3526300224964838,-0.1556547847481163,6.660717727972368,0.2005499529591361,-3.0226539025085564,0.8644976681493324,0.013606272064365018,2.0616785378950784,2.4354259316887883,-0.006220000000000114,0.12479400000000002,-0.8789800000000001,-0.028070999999999957,-0.203319,-0.47641200000000006,0.021850999999999843,0.32811300000000004,0.40256800000000004,0.8039152329288243,0.11810652378337405,single,-0.47641200000000006
142,1.183333,step_decsent,-0.07080283211329604,0.24804992199688042,-0.21312852514100755,0.5138166323012425,-0.051474923637940914,-1.0606478958220178,-0.06336253450136406,0.05256210248409912,0.0448817952718112,-0.03576143045723439,0.16836673466938765,0.14940597623905047,-0.8640691241501042,6.941355297318102,26.22449791787278,1.0800864051879437,-3.9027122107326235,0.9504760365622997,2.318585483126702,-1.137691013460363,1.9009520731250906,-0.006157999999999886,0.12316500000000002,-0.87683,-0.027778999999999998,-0.203983,-0.47339100000000006,0.021621000000000112,0.327148,0.40343899999999994,0.8437242381876914,0.12013020144498004,single,-0.47339100000000006
143,1.191667,step_decsent,-0.04847612191022868,0.30381569474441555,0.13594912407006612,-0.564806265039678,1.2589813695978258,-0.9841566811328127,-0.05039596832254425,0.030117590592752496,0.04235661147108231,-0.030837532997354183,0.17362610991120625,0.15334773218142447,2.6789909050956546,6.691357421110476,41.88596702796628,1.555863472380575,-2.6931259768834237,-0.3029978162621639,0.5908204295512566,0.6310745430547833,0.47297287525485643,-0.006174000000000124,0.12088400000000005,-0.87761,-0.0276320000000001,-0.20506799999999997,-0.473246,0.021457999999999977,0.325952,0.404364,0.8793431700419215,0.11051135215000213,single,-0.473246
144,1.2,step_decsent,-0.14448577943117652,0.25285011400456553,0.27877115084603205,2.4729510116916997,0.7184112740666315,-0.5040236938731177,-0.07092283691347817,0.04116164646585688,0.0013200528021121676,-0.18252730109203139,0.09924396975879142,0.2690507620304863,-11.521619767304538,-6.116114333355394,17.13932878626752,-2.4633227638226463,1.3253397183612723,-4.924584023637407,-18.203500311373887,-8.926213866844535,13.88491897864669,-0.005561000000000149,0.11912,-0.879922,-0.027949,-0.206348,-0.47332699999999994,0.022387999999999852,0.325468,0.40659500000000004,0.8633122732178239,0.0,single,-0.47332699999999994
145,1.208333,step_decsent,-0.14100564022562434,0.30901236049441366,-0.057482299291958215,-1.0032265537924652,-1.354536054017106,-0.516148447531687,-0.0757230289211613,0.03000120004799809,0.010560422416896227,-0.2804512180487211,0.12804512180486977,0.15012600504019924,0.41763341000265436,6.739739168348392,-40.35202809768203,-0.5760460827652757,-1.3393071424287282,1.1088887093224407,-11.751340088406094,3.4562764965892048,-14.271541700502215,-0.005017000000000049,0.11679499999999998,-0.879355,-0.029110999999999887,-0.20785599999999999,-0.47159700000000004,0.024093999999999838,0.32465099999999997,0.40775799999999995,0.8631142849456535,0.0,single,-0.47159700000000004
146,1.216667,step_decsent,-0.08795296376288536,0.242740580753544,0.2756179505639593,1.1210171389979475,1.2259702317564916,-0.5920421968402713,-0.07223422126229936,0.009239260859137354,-0.0023998080153587193,-0.17362610991120753,0.24754019678426142,0.21826253899688622,6.365811910575952,-7.951977410711655,39.96883247611277,0.4186234291891049,-2.4912334039910164,-1.5551032436111343,12.81798753749887,14.338261936572346,8.17573001640128,-0.004886000000000168,0.11484900000000003,-0.881672,-0.02982499999999999,-0.207816,-0.472075,0.024938999999999822,0.32266500000000004,0.409597,0.87856293649813,0.0,single,-0.472075
147,1.225,step_decsent,-0.10560422416896394,0.25849033961357876,0.2617304692187628,0.10450548668016929,0.4286192310167091,-0.552892322016687,-0.05148205928234527,0.010440417616698273,-0.004320172806912358,-0.04380175207010253,0.19500780031200923,0.26677067082682543,-2.118235978168519,1.890046665070742,-1.6665644240005129,2.490359051956526,0.14414457669037534,-0.23045299310615683,15.579546122777238,-6.304139742259843,5.821208667939321,-0.004434999999999967,0.112782,-0.883889,-0.02931000000000017,-0.20834499999999997,-0.47203300000000004,0.024875000000000203,0.321127,0.411856,0.9121543550525576,0.0,single,-0.47203300000000004
148,1.233333,step_decsent,-0.09660386415458708,0.2378495139805661,0.27673106924276253,0.01439277578457786,0.5004997785171369,-0.4580357675384891,-0.048481939277580065,-0.013680547221882697,-0.026281051242049977,-0.0012000480019013031,0.26185047401896355,0.32161286451458543,1.0800864051814403,-2.4769981558877756,1.8001440086403286,0.36002880172389673,-2.8946315658923787,-2.6354108286496847,5.112408984543576,8.021441702502692,6.5813264955910835,-0.004033999999999871,0.110686,-0.8864139999999999,-0.028514999999999846,-0.20814500000000002,-0.47165899999999994,0.024480999999999975,0.31883100000000003,0.414755,0.9053023896993937,0.0,single,-0.47165899999999994
149,1.241667,step_decsent,-0.10367170626349524,0.2139428845692303,0.218862491000724,-0.3278974433970786,0.016882965295335263,-0.48564642225633764,-0.02783777297816273,-0.005759539236866767,-0.041876649868010075,-0.16378689704824217,0.30081593472521995,0.3184545236381053,-0.8480732072123963,-2.8685660440767493,-6.94367389513296,2.477101787787038,0.9504449226080958,-1.8713221293448499,-19.508861176666624,4.675481246251032,-0.3789705875306124,-0.003401999999999905,0.10885499999999998,-0.888587,-0.02901599999999993,-0.207421,-0.470829,0.025614000000000026,0.316276,0.417758,0.9156434863745833,0.0,single,-0.470829
150,1.25,step_decsent,-0.07632305292210065,0.1916476659066398,0.2035281411256506,-0.38400868277390304,0.21131339116543935,-0.5281523823176828,-0.02796111844472937,-0.02124084963398348,-0.02280091203648157,-0.06792271690868494,0.30985239409576676,0.32077283091323716,3.2819696797545714,-2.6755332608413167,-1.8401955928325382,-0.01480204806991972,-1.857831560916459,2.289180106987721,11.504161783218303,1.0844185012056755,0.2782080013358817,-0.002998999999999974,0.10708099999999998,-0.8904730000000001,-0.02894600000000014,-0.206436,-0.46985200000000005,0.025947000000000164,0.313517,0.420621,0.930220995127692,0.0,single,-0.46985200000000005
151,1.258333,step_decsent,-0.10416416656667453,0.15984639385575566,0.2470898835953367,-0.7442693402649713,-0.17986080706569357,-0.568808763389036,-0.016320652826129517,-0.020760830433214965,-0.034921396855874504,-0.07164286571462428,0.347653906156249,0.35761430457219073,-3.341067280040098,-3.8163052983180656,5.227618201090425,1.3969117507020234,0.05760460827655334,-1.4545163589815244,-0.44643571414129,4.536362901773985,4.421153685221878,-0.002267000000000019,0.105576,-0.8928229999999999,-0.028675000000000006,-0.20487100000000003,-0.46893099999999993,0.026407999999999987,0.31044700000000003,0.423892,0.9270296912110207,0.0,single,-0.46893099999999993
152,1.266667,step_decsent,-0.08303335733140264,0.1695464362850956,0.30729541636669255,-1.2714218911503896,-0.36594336575633285,-0.6751780946733583,-0.0071994240460701376,-0.022198224142067353,-0.029277657787376926,-0.1545476361890984,0.368370530357569,0.4688024958003317,2.5354942686911115,1.1639119785624994,7.224086005682192,1.094459896815372,-0.1724734471865104,0.6771945126586915,-9.947776634806033,2.4857960404751402,13.341515626126721,-0.001635000000000053,0.10397800000000001,-0.895628,-0.029271000000000047,-0.203214,-0.467585,0.027635999999999994,0.307192,0.428043,0.9375995435564382,0.0,single,-0.467585
153,1.275,step_decsent,-0.09552382095284126,0.1638065522620926,0.35257410296412134,-1.6218556484831703,-0.41226164855982705,-0.7754698899166549,0.007800312012478379,-0.0196807872314958,-0.012960518420737003,-0.05388215528620254,0.4291371654866229,0.4044161766470677,-1.4989155911962955,-0.6888136353057805,5.433659738081027,1.8000403286389839,0.30210451344912714,1.9581350493987844,12.08034092198449,7.292287907002814,-7.726667365086352,-0.0007740000000000524,0.10244899999999996,-0.898674,-0.02892399999999995,-0.20100300000000001,-0.467153,0.028149999999999897,0.30345199999999994,0.431521,0.9586292745988689,0.0,single,-0.467153
154,1.283333,step_decsent,-0.09276371054843648,0.1761670466818605,0.23808952358093735,-1.7398165368514527,-0.7786442818440213,-0.844288732669327,0.021000840033605327,-0.017760710428414605,0.004680187207488319,-0.11748469938798105,0.5027001080043112,0.39313572542901043,0.3312264975884718,1.4833186631186486,-13.738699073944796,1.58412672760431,0.23041843310706364,2.116969354161168,-7.632610596637154,8.827906218371176,-1.3537082944986278,0.0001740000000001185,0.100833,-0.900619,-0.029129999999999878,-0.19828199999999999,-0.46586099999999997,0.029303999999999997,0.299115,0.434758,0.9535008282828783,0.0,single,-0.46586099999999997
155,1.291667,step_decsent,-0.08459323254139298,0.15706743460523512,0.26157907367411953,-1.281602260662328,-0.6219601367755804,-0.9089848563961878,0.09743220542357216,0.050635949124075055,0.1141108711303118,-0.07331413486922857,0.4892008639308945,0.4332853371730314,0.9803789305307962,-2.2917701075864834,2.818520529539552,9.171030164383044,8.206942590891645,13.130631620209451,5.300043738751298,-1.619779706433518,4.817568003842302,0.001691000000000109,0.09994600000000003,-0.901848,-0.029036000000000062,-0.195514,-0.46443000000000006,0.03072700000000017,0.29546000000000006,0.4374179999999999,0.7360643759702225,0.0,single,-0.46443000000000006
156,1.3,step_decsent,-0.10116404656185196,0.14244569782790986,0.3613344533781271,-1.3132332303427616,-0.4715696377393622,-0.9753164288291725,0.06324252970118024,0.021840873634940212,0.033361334453377606,-0.08568342733707775,0.4915396615864551,0.4188167526701053,-1.9885772255440652,-1.7546786004230168,11.971124409457074,-4.102925203695105,-3.455547280587344,-9.690332014512515,-1.4843744711207205,0.280666945345082,-1.7362995923347946,0.0030609999999999804,0.098941,-0.9045810000000001,-0.028907000000000016,-0.19260499999999997,-0.463951,0.031967999999999996,0.29154599999999997,0.4406300000000001,0.8753937316467474,0.0,single,-0.463951
157,1.308333,step_decsent,-0.09012360494419214,0.11100444017760921,0.5058202328093132,-0.2624913910245403,0.5805086316544367,-0.9995913780861957,0.04992199687987228,0.023880955238210315,0.017400696027841188,-0.13056522260890288,0.5214208568342783,0.3853354134165359,1.3249059903588054,-3.7731018421097966,17.33898709122614,-1.598527879672157,0.24481958517582164,-1.9153532251933953,-5.386030873854019,3.5858868652134226,-4.0179214272854615,0.0042279999999998985,0.098215,-0.908651,-0.029244000000000048,-0.189185,-0.464955,0.033471999999999946,0.2874,0.443696,0.90331480037116,0.0,single,-0.464955
158,1.316667,step_decsent,-0.07955363570915229,0.10907127429805451,0.39224862011038414,0.09508347211616144,0.2364127075659499,-0.9325789181760609,0.06575473962082898,0.035637149028076485,0.04535637149028041,-0.038876889848810714,0.5213582913366893,0.3713702903767688,1.2682948446172027,-0.23196134863867202,-13.627503323605495,1.8997771467430495,1.4106304043515816,3.354412702476483,11.001719793627485,-0.00750725912994768,-1.6756807103152143,0.005438999999999972,0.097603,-0.911542,-0.02890499999999996,-0.185749,-0.46512899999999996,0.03434399999999993,0.283352,0.446413,0.8542176983743619,0.0,single,-0.46512899999999996
159,1.325,step_decsent,-0.07788311532460165,0.12768510740429848,0.3896555862234525,0.08377435558614489,0.4973150495640893,-1.0289897161067751,0.07524300972038149,-0.03984159366374679,0.042121684867395155,-0.1422056882275294,0.575183007320297,0.2737309492379693,0.20047046496467674,2.2337493227222054,-0.31117651349234193,1.1386379574646104,-9.057811435476296,-0.388177921863109,-12.399951803518498,6.459224287004465,-11.717189624241012,0.0067149999999998045,0.09620699999999999,-0.914438,-0.02944100000000005,-0.18202000000000002,-0.466095,0.036155999999999855,0.278227,0.448343,0.8416833391802938,0.0,single,-0.466095
160,1.333333,step_decsent,-0.08424336973481221,0.12972518900755786,0.38701548061922203,-0.3857043195400717,0.25108778896200307,-0.9056184460069584,0.07872314892595444,0.009360374414979136,0.04896195847833811,-0.1882875315012752,0.5945037801511956,0.21768870754830266,-0.76326105966764,0.244819585174529,-0.31682534552146896,0.4176334100051475,5.904472348340941,0.820865667939858,-5.5300423945451795,2.318585483127118,-6.725338016280531,0.008072999999999997,0.09520400000000001,-0.917255,-0.030308,-0.178147,-0.467506,0.038381,0.273351,0.44974900000000007,0.8447025777916497,0.0,single,-0.467506
161,1.341667,step_decsent,-0.0910727141828616,0.13702903767699226,0.3586513078953775,-0.3287589630979368,0.10804939758861602,-0.8958781111016021,0.07055435565155317,0.0038396928245712863,0.0361171106311501,-0.25281977441803444,0.6867050635949261,0.12718982481401794,-0.8194557773037581,0.876391728993825,-3.4034284525851985,-0.9801767787858685,-0.6624287965452308,-1.541258440987312,-7.743249690036054,11.063268951731727,-10.858997208337707,0.009419999999999984,0.09409399999999996,-0.9199430000000001,-0.031655999999999906,-0.17356600000000003,-0.469435,0.04107599999999989,0.26766,0.4505080000000001,0.8677428218421938,0.0,single,-0.469435
162,1.35,step_decsent,-0.08328333133324856,0.1285251410056366,0.297851914076556,0.3520322720987888,0.47065898840257986,-0.8709099598712524,0.04044161766470969,-0.016560662426493348,-0.014400576023040498,-0.19680787231489946,0.6344653786151335,0.04416176647065559,0.9347633324868484,-1.020508420899496,-7.296219107022739,-3.6136731053453683,-2.448140555749943,-6.062364893098489,6.72169712026089,-6.269012958093325,-9.96376555182538,0.010450999999999988,0.092885,-0.922545,-0.03260200000000002,-0.16935,-0.471549,0.04305300000000001,0.262235,0.45099599999999995,0.923312383856138,0.0,single,-0.471549
163,1.358333,step_decsent,-0.09708388335534227,0.1340453618144713,0.369374774991006,-0.41953287201046213,0.40247375239022015,-0.7496793904977079,0.03792151686067273,-0.026521060842437147,-0.01536061442457708,-0.20340813632545512,0.5741029641185695,-0.10248409936397807,-1.6561324879507784,0.6624529951799756,8.583086633199411,-0.30242419345217597,-1.1952956217381363,-0.11520921655305297,-0.7920633638012388,-7.243779490767375,-17.598207828469338,0.01157600000000003,0.09154699999999999,-0.925751,-0.03348799999999996,-0.165683,-0.47548100000000004,0.04506399999999999,0.25722999999999996,0.45026999999999995,0.9187364270358643,0.0,single,-0.47548100000000004
164,1.366667,step_decsent,-0.08387329013678904,0.10883129349651839,0.232661387089034,0.8498804796609114,0.7248736577648252,-0.7497018954495728,0.04283657307417327,-0.01739860811135171,0.009239260859131281,-0.2954163666906582,0.733861291096708,-0.17626589872810017,1.5851443746764007,-3.025446162461329,-16.40429420470014,0.5897595648548716,1.094606759189509,2.95174889413345,-11.040104435469445,19.16946568012205,-8.853107675080578,0.012632000000000199,0.09049499999999999,-0.927613,-0.03525099999999992,-0.16047399999999998,-0.47888900000000006,0.04788300000000012,0.250969,0.44872399999999996,0.921417992266846,0.0,single,-0.47888900000000006
165,1.375,step_decsent,-0.09372374894994934,0.10140405616225223,0.23304932197288097,1.3647108651181121,1.161281436869102,-0.8946040296739305,0.04368174726986827,-0.023640945637826056,0.02640105604224169,-0.27409096363854235,0.7490699627985185,-0.2875315012600541,-1.1821023416729133,-0.8913041322772384,0.046554048223566284,0.10142496048182008,-0.7491104675956324,2.0594978018853434,2.5591507322832148,1.8251136087616278,-13.352406400090599,0.013776999999999928,0.08945299999999995,-0.929335,-0.03675399999999995,-0.15507700000000002,-0.4832270000000001,0.05053099999999988,0.24452999999999997,0.44610799999999995,0.9062508501468935,0.0,single,-0.4832270000000001
166,1.383333,step_decsent,-0.09852394095763449,0.1257650306012244,0.22068882755309502,0.19895461536237155,0.9972150293061443,-0.6787007903540055,0.03324132965319636,-0.023040921636862083,0.018480739229569516,-0.6554662186487613,0.7916716668666809,-0.5762630505220229,-0.5760460827655343,2.923433870031489,-1.483318663120853,-1.2529002300098409,0.07200576034609127,-0.9504760365621319,-45.76686127567772,5.112408984538921,-34.6491718783117,0.014874999999999972,0.08821299999999999,-0.93102,-0.04139500000000007,-0.14952800000000002,-0.48986799999999997,0.05627000000000004,0.237741,0.441152,0.9258865773616801,0.0,single,-0.48986799999999997
167,1.391667,step_decsent,-0.1292296616270682,0.12215022798175613,0.06143508519319223,0.633906262248724,-0.021202046648244717,-0.6968299910607869,0.020878329733608727,-0.023158147348211814,0.011159107271418122,-0.4268058555315581,0.8032157427405753,-0.624070074394045,-3.6843917289936976,-0.4337416150069884,-19.10892036955862,-1.4834413150453007,-0.01406596008516082,-0.8785255529339259,27.437048610175363,1.3851782906040677,-5.736383953926304,0.016125999999999863,0.08700200000000002,-0.931439,-0.04387500000000011,-0.14385199999999998,-0.49558100000000005,0.06000099999999997,0.230854,0.43585799999999997,0.9448051402312327,0.0,single,-0.49558100000000005
168,1.4,step_decsent,-0.11964478579144915,0.11208448337934171,0.15756630265210855,0.6578541793590654,0.6218701618888458,-0.7606949080477761,0.017520700828057467,-0.018960758430336365,0.004680187207488443,-0.4767790711628514,0.7997119884795468,-0.7448697947917939,1.1502311095186777,-1.207937669796534,11.536207543371798,-0.4029315859295921,0.5037068184177952,-0.7775015077318779,-5.997025756785524,-0.4204673300166181,-14.496546309582383,0.0172690000000002,0.08590999999999999,-0.932713,-0.046850999999999976,-0.13812200000000002,-0.503101,0.06412000000000018,0.224032,0.429612,0.9562713712497114,0.0,single,-0.503101
169,1.408333,step_decsent,-0.11964478579141932,0.10572422896915273,0.07044281771270777,0.03003983658464086,-0.5987755512439014,-0.514995572506035,0.010320412816489493,-0.01488059522381025,-0.00564022560902449,-0.5489019560782162,0.8382335293411579,-0.8245529821192723,3.57894707776224e-12,-0.7632610596650503,-10.455236402183997,-0.8640691241531078,0.48963917034993926,-1.238499077944648,-8.65509239353937,4.6227698141858165,-9.562364973896193,0.018351999999999924,0.08490500000000001,-0.933347,-0.05042799999999992,-0.132018,-0.510559,0.06877999999999984,0.216923,0.42278800000000005,0.9683879778565909,0.0,single,-0.510559
170,1.416667,step_decsent,-0.10955123590112299,0.12287017038637442,0.08951283897287347,-0.09483079758646105,0.5920163541092344,-0.7468669872403043,0.005879529637651633,-0.018118550515960535,-0.007079433645308513,-0.5403167746580552,0.7357811375090131,-0.955363570914348,1.211129096507862,2.0573483821960656,2.288219493660435,-0.5328633523923619,-0.38852355317378773,-0.17269114906216101,1.0301393592706063,-12.293303555573168,-15.696014974211442,0.019314000000000053,0.08372999999999997,-0.934152,-0.05401800000000012,-0.12691000000000002,-0.5192669999999999,0.07333200000000017,0.21064,0.41488500000000006,0.966130597129162,0.0,single,-0.5192669999999999
171,1.425,step_decsent,-0.10656426257050094,0.11856474258970018,0.08508340333614044,-0.0007481792859469185,0.545758112640907,-0.7648448578579664,0.006360254410159341,-0.02436097443897818,-0.006600264010560246,-0.5575423016920493,0.8606744269770654,-1.0524420976838889,0.35845113772014825,-0.5166720024809991,-0.531553538549497,0.05768928027213474,-0.7491208355955281,0.05750265627604204,-2.0671459299164594,14.987794247935936,-11.649889207913018,0.020254999999999912,0.08253899999999997,-0.9349160000000001,-0.05777600000000005,-0.120726,-0.528746,0.07803099999999996,0.20326499999999997,0.40617000000000003,0.9566194681149227,0.0,single,-0.528746
172,1.433333,step_decsent,-0.1059642385695398,0.09132365294612008,0.01860074402976331,0.3037331992443741,0.5708173763124257,-0.6931894087945957,0.003600144005757202,-0.014880595223803986,-0.005400216008640383,-0.8271930877235211,0.9743189727589178,-1.3672146885875545,0.07200576034575111,-3.2690615196904296,-7.978238246295181,-0.3312264975881632,1.1376910134614522,0.14401152069121254,-32.35938869932488,13.637891009462784,-37.77422187731531,0.021167999999999854,0.081654,-0.9351160000000001,-0.06378600000000012,-0.11336800000000002,-0.540294,0.08495399999999997,0.19502200000000003,0.394822,0.9729426799790979,0.0,single,-0.540294
173,1.441667,step_decsent,-0.12419006479482976,0.06299496040316699,0.012958963282936905,0.20378105437129543,0.33507086908261646,-0.6936068102463233,-0.0029997600191914503,-0.011759059275262988,-0.0068394528437722086,-0.6304295656347289,0.8970482361411031,-1.1816654667626527,-2.1869241930993297,-3.399171171460628,-0.6769595328565348,-0.7919251289835136,0.3745543494769587,-0.17269460464744596,23.60973387194513,-9.27174665440534,22.264125488948924,0.02217800000000003,0.08103099999999996,-0.935281,-0.06800499999999987,-0.10641700000000001,-0.5502500000000001,0.0901829999999999,0.18744799999999998,0.3850309999999999,0.9767828995964138,0.0,single,-0.5502500000000001
174,1.45,step_decsent,-0.13044521780872076,0.07920316812672507,0.017520700828030818,0.0286551067897639,0.4977410001543122,-0.6832634019863928,-0.006240249609977374,-0.007320292811709864,-0.01404056162246533,-0.6523460938437593,0.918996759870403,-1.3724948997960014,-0.7506483876024308,1.9450627293361604,0.5474304026273796,-0.3888743058665491,0.5326732825576821,-0.8641676201479883,-2.630088588627223,2.633928204644197,-22.900447981921324,0.02321300000000015,0.08030999999999999,-0.935544,-0.07235399999999981,-0.09941900000000001,-0.561833,0.09556699999999996,0.179729,0.373711,0.971634098486708,0.0,single,-0.561833
175,1.458333,step_decsent,-0.1477259090363567,0.07656306252249619,-0.01596063842554271,-0.06777920551382167,0.06849792168506647,-0.6279938785989251,-0.00516020640825807,-0.006120244809795074,0.0022800912036483045,-0.5610224408976242,0.8491539661586314,-1.4152166086643216,-2.073765897952196,-0.3168253455212808,-4.017921427285844,0.129610368621059,0.1440115206905999,1.958556681400858,10.959276724605003,-8.381470504232615,-5.126810136603807,0.024401000000000117,0.079621,-0.935392,-0.07579799999999981,-0.09298099999999998,-0.573493,0.10019899999999993,0.17260199999999998,0.36189899999999997,0.9861271705797301,0.0,single,-0.573493
176,1.466667,step_decsent,-0.1303095752339742,0.06911447084233643,-0.00287976961843346,0.14108354434423526,0.13080686340334155,-0.6734037541485295,-0.008399328053757598,-0.005879529637624991,-0.0021598272138230136,-0.7854571634269604,1.0687544996400489,-1.411807055435592,2.089792872856111,-0.8937595008591186,1.5695786905578955,-0.3886635043796004,0.028883509979612212,-0.5327475902893452,-26.93001230253665,26.3499560212889,0.40911365835490476,0.025417000000000023,0.07899600000000001,-0.9353859999999999,-0.08125800000000005,-0.08465,-0.585235,0.10667500000000008,0.163646,0.350151,0.9825371478316016,0.0,single,-0.585235
177,1.475,step_decsent,-0.14280571222848956,0.06456258250329695,-0.019080763230517994,-0.12594637753926913,-0.02814919952185139,-0.5519971668406584,-0.007080283211332079,-0.0033601344053795167,-0.0008400336013440465,-0.8172326893075559,1.0426017040681446,-1.4645385815432352,-1.4995964231987438,-0.5462484506227531,-1.944197001330163,0.1582917127595699,0.30233952145030957,0.15838156876022366,-3.8132156342967667,-3.1384610070687446,-6.3280362543672615,0.026548000000000016,0.07843,-0.935234,-0.08687800000000001,-0.07649999999999998,-0.59728,0.11342600000000003,0.15492999999999998,0.337954,0.9868632650316551,0.0,single,-0.59728
178,1.483333,step_decsent,-0.3061322452898108,-0.009120364814588465,-0.13044521780872076,-1.756997879384988,-3.5622042856826037,0.9493003225871707,-0.009360374414979384,-0.0021600864034516565,-0.006840273610944679,-0.8353534141365725,1.188167526701078,-1.6866674666986814,-19.599967966077372,-8.842307370441148,-13.36426912014926,-0.27362188931325154,0.14401152069217224,-0.7200576034562208,-2.174573962440511,17.468597459850574,-26.65653247995298,0.029020999999999963,0.078488,-0.934204,-0.09128800000000004,-0.06652300000000003,-0.6102479999999999,0.120309,0.14501100000000003,0.32395600000000013,0.9803452065832697,0.0,single,-0.6102479999999999
179,1.491667,step_decsent,-0.15694744420447287,0.07403407727381497,-0.06683465322774483,-0.6254493451060554,-0.6933918174533994,-0.4492264337237221,-0.009839212862960744,0.001559875209981419,0.005759539236861355,-0.9542836573073934,1.03335733141348,-1.573794096472272,17.900744070714758,9.977734831821792,7.632657137146081,-0.05745601727638076,0.4463596848371787,1.511856593209256,-14.27048754149508,-18.575737375521573,13.543720929494654,0.030247000000000135,0.07788400000000001,-0.933599,-0.09793299999999983,-0.058528,-0.6228069999999999,0.12817999999999996,0.136412,0.31079200000000007,0.9808213361710995,0.0,single,-0.6228069999999999
180,1.5,step_decsent,-0.14076563062521052,0.054722188887557435,-0.0658826353054021,-0.019482055016466934,-0.08626385135793044,-0.5611844376700118,-0.008520340813651137,0.005280211208447005,-0.004320172806912473,-0.8565942637705694,1.0378015120604906,-1.654866194647804,1.9418953053237127,-2.3175193071232107,0.11424672054995057,0.15827097675622456,0.44645817814300015,-1.2096138298060628,11.723196152265084,0.5333230105616965,-9.729040942701632,0.03134899999999985,0.07747199999999999,-0.9330860000000001,-0.10389800000000005,-0.05033600000000002,-0.6360480000000001,0.1352469999999999,0.127808,0.297038,0.9818080656556444,0.0,single,-0.6360480000000001
181,1.508333,step_decsent,-0.14280571222849336,0.06384255370214591,-0.03144125765031776,-0.2814273174331286,-0.12179756993469334,-0.5627303018302972,-0.01920076803071396,-0.006000240009599778,-0.005760230409216353,-0.9683187327493313,1.0915636625465144,-1.7038281531261392,-0.24481958517735009,1.0944875572529167,4.133130643835912,-1.2817025341489163,-1.3537082944974062,-0.17281382482946037,-13.407472576354614,6.451716126967986,-5.875670044202043,0.032378999999999936,0.07689000000000001,-0.9328719999999999,-0.11077700000000013,-0.041771999999999976,-0.6499839999999999,0.14315600000000006,0.11866199999999999,0.28288800000000003,0.965125119374583,0.0,single,-0.6499839999999999
182,1.516667,step_decsent,-0.15130789536836417,0.07151427885768909,-0.08495320374369157,-0.6794967580216763,-0.49565239200871136,-0.5027529002402169,-0.059155267578575824,-0.038156947444202366,-0.053515718742500426,-0.8906887449003961,1.1251499880009477,-1.8208543316534531,-1.0201803623555006,0.920533375995095,-6.420919857616199,-4.794156413230329,-3.858496212455285,-5.730200183979327,9.314853353603873,4.030036651599837,-14.042018061832614,0.03314700000000004,0.07597600000000004,-0.93261,-0.11693900000000013,-0.03299099999999999,-0.664451,0.15008600000000016,0.10896700000000004,0.26815900000000004,0.8526226454049284,0.0,single,-0.664451
183,1.525,step_decsent,-0.16188647545902518,0.058682347293894356,-0.014520580823237591,-0.5552415106365279,-0.46358361723796787,-0.5627526347474339,-0.037921516860699375,-0.02208088323533171,-0.01776071042841716,-0.9437177487099415,1.0894035761430594,-1.7539901596064025,-1.2694803900949367,-1.5398933833907174,8.452252840568176,2.548152012225686,1.9292048732594265,4.290772628595175,-6.363735006545774,-4.289741012587138,8.024021606510411,0.03417999999999988,0.07530300000000001,-0.9326369999999999,-0.12345399999999995,-0.02440199999999998,-0.678946,0.15763399999999983,0.09970499999999999,0.2536909999999999,0.9211004562682051,0.0,single,-0.678946
184,1.533333,step_decsent,-0.15780631225248196,0.05952238089523434,-0.04440177607103984,-0.20063777059250387,-0.3436640937495883,-0.6596637021840809,-0.04008160326410999,-0.025801032041283686,-0.03132125285011356,-0.9378375135005389,1.151806072242869,-1.7632305292211394,0.4896391703519925,0.10080806448337538,-3.5858868652108153,-0.25922073723875894,-0.44643571414279487,-1.6273301838108918,0.7056564513863572,7.48859907594005,-1.1088887093167878,0.035161,0.07459199999999999,-0.932528,-0.12995400000000012,-0.01529999999999998,-0.693269,0.16511500000000012,0.08989199999999997,0.239259,0.9049378996141411,0.0,single,-0.693269
185,1.541667,step_decsent,-0.17218622510200413,0.03287736981041537,-0.07547396208303367,-0.17408552695262577,-0.5155283736156815,-0.4294244008926429,-0.032757379409643975,-0.01883849292056224,-0.02051835853131759,-0.923206143508521,1.0278377729781834,-1.7824574034077554,-1.7254515058222273,-3.1971455585336543,-3.7283640523151456,0.8788365556114898,0.8354378594578329,1.2962436187660393,1.7556239491262466,-14.875005911289646,-2.3070403391668246,0.036323000000000105,0.07416100000000003,-0.93207,-0.13621299999999992,-0.007007999999999959,-0.707495,0.17253600000000002,0.08116899999999999,0.22457499999999997,0.9283345395813697,0.0,single,-0.707495
186,1.55,step_decsent,-0.27037081483259584,0.11112444497780172,-0.0766830673226983,-1.1431149072807234,-0.4067214598399544,-0.6613315348067852,-0.032761310452440295,-0.013080523220931697,-0.033721348853953566,-0.9542781711268234,1.1779671186847258,-1.7632305292211394,-11.782622072553702,9.39002462107104,-0.14509843269706182,-0.0004717440053186918,0.6909840033157857,-1.5844222156049135,-3.72879246589486,18.016242134470158,2.307317195081677,0.038302999999999976,0.07312599999999997,-0.931712,-0.14191199999999982,0.0018819999999999948,-0.721549,0.1802149999999998,0.07124399999999997,0.210163,0.9186650799535829,0.0,single,-0.721549
