frame_id,timestamp,gait_type,root_linear_velocity_x,root_linear_velocity_y,root_linear_velocity_z,root_angular_velocity_x,root_angular_velocity_y,root_angular_velocity_z,left_linear_velocity_x,left_linear_velocity_y,left_linear_velocity_z,right_linear_velocity_x,right_linear_velocity_y,right_linear_velocity_z,root_acceleration_x,root_acceleration_y,root_acceleration_z,left_acceleration_x,left_acceleration_y,left_acceleration_z,right_acceleration_x,right_acceleration_y,right_acceleration_z,left_pos_rel_x,left_pos_rel_y,left_pos_rel_z,right_pos_rel_x,right_pos_rel_y,right_pos_rel_z,step_length,step_width,step_height,left_contact_prob,right_contact_prob,support_type,max_foot_height
<<<<<<< HEAD
<<<<<<< HEAD
1,0.008333,step_acsent,-0.054722188887556936,0.04248169926797989,-0.01080043201728483,-0.08423501415552587,-0.1532568553777287,0.5875865499767391,0.007440297611905255,-0.06588263530541481,-0.04104164166566603,0.0037201488059526275,0.0,0.0019200768030723776,0.0,0.0,0.0,0.0,0.0,0.0,0.0,0.0,0.0,-0.148661,0.18545999999999996,-0.900094,0.03678200000000001,-0.054561000000000026,-0.907368,0.185443,0.24002099999999998,0.007274000000000003,0.7972995785253476,0.9930226154876138,double,-0.900094
2,0.016667,step_acsent,-0.05831533477321651,0.02219822414206752,-0.01463882889368316,-0.10423359104101163,-0.05408502048274855,0.610359944363366,0.025077993760500922,-0.017038636909044332,-0.05531557475402004,-0.0089992800575944,-0.0031197504199695224,0.0020398368130553303,-0.4311430148379616,-2.4338223093247384,-0.46057077950543907,2.1163542294931204,5.860810942689041,-1.7127349518063362,-1.5262093668762928,-0.3743401031880876,0.014370051593826807,-0.147966,0.185133,-0.900433,0.037193000000000004,-0.05477200000000004,-0.9072290000000001,0.185159,0.23990500000000003,0.006796000000000024,0.826907362489917,0.9837655357630568,double,-0.900433
3,0.025,step_acsent,-0.0676827073082934,0.043201728069126,-0.006600264010563692,-0.10212306206888089,-0.03771241253801945,0.6128829519867839,0.026761070442814498,0.024360974438971946,-0.054122164886595464,0.0025201008040313506,0.004320172806916597,-0.004800192007680944,-1.1241296693960028,2.5205212920987012,0.9646663726292413,0.20197728096886786,4.968152087845467,0.14321491268745662,1.3823809986350355,0.8928265002863457,-0.8208362919400306,-0.147179,0.18497599999999992,-0.900829,0.037778000000000006,-0.055096000000000034,-0.907214,0.184957,0.24007199999999995,0.006384999999999974,0.827639622886496,0.9884461833561006,double,-0.900829
4,0.033333,step_acsent,-0.07752310092403789,0.036721468858744444,0.0030001200047932,-0.12908352527445208,-0.06248715606890944,0.7266727494224783,0.019800792031684417,0.04944197767911664,-0.04704188167526659,0.002400096003839223,0.005520220808831212,-0.004560182407295856,-1.180894469668125,-0.7776622117342559,1.1520921655294483,-0.8352668200084101,3.0098407824486615,0.8496679720783477,-0.014401152069138046,0.14401152069058148,0.02880230413837612,-0.14636799999999997,0.18508200000000008,-0.901246,0.038444000000000006,-0.05535599999999996,-0.9072769999999999,0.18481199999999998,0.24043800000000004,0.0060309999999998976,0.8212567188121178,0.9874137903735755,double,-0.901246
5,0.041667,step_acsent,-0.0848332133429308,0.025557955363573158,-0.02051835853130804,-0.06541364784725479,0.02395620338403671,0.6495338564970492,0.011159107271419454,0.05015598752098853,-0.049436045116391,0.0007199424046083513,-0.0037197024238064848,0.006359491240700442,-0.8771433188016454,-1.339514458263893,-2.8219916649989485,-1.0369192176943798,0.08567432707846007,-0.28727663080446425,-0.20160230372340673,-1.1087020917491837,1.3102560172781734,-0.14556799999999998,0.18528699999999998,-0.901487,0.039157,-0.05559999999999998,-0.907053,0.18472499999999997,0.24088699999999996,0.00556599999999996,0.8255022100409033,0.9876624295534859,double,-0.901487
6,0.05,step_acsent,-0.07056282251290114,0.046561862474505576,-0.011880475219017311,-0.05089106296239355,-0.035667594675925056,0.5766115798954115,-0.02472098883955832,0.04956198247929878,-0.02316092643705733,-0.0037201488059526275,-0.0033601344053795753,0.002400096003840056,1.7125154002195684,2.5205696760989342,1.0365874609733263,-4.30578376466792,-0.0712834563410237,3.153140367134726,-0.5328322585576597,0.043149888206757414,-0.4751464342806176,-0.145186,0.18531199999999992,-0.901581,0.039714,-0.056016000000000066,-0.9069339999999999,0.1849,0.241328,0.005352999999999941,0.8464152107050749,0.99073680053049,double,-0.901581
7,0.058333,step_acsent,-0.0691227649105956,0.04008160326412402,-0.006840273610941286,-0.08407854972516056,-0.12824590817527332,0.6507555733140254,-0.012600504020156753,0.02568102724109534,-0.0266410656426257,0.001200048001921277,0.0016800672026897876,-0.0025201008040321837,0.17281382482965718,-0.7776622117342559,0.6048483869045992,1.4545163589825474,-2.865829261754883,-0.41763341000460474,0.590447234834262,0.6048483869037997,-0.5904472348340621,-0.14471499999999998,0.18519200000000002,-0.9017459999999999,0.0403,-0.056336,-0.906898,0.18501499999999999,0.24152800000000002,0.005152000000000045,0.8833298690993351,0.9945702340251594,double,-0.9017459999999999
8,0.066667,step_acsent,-0.077033837293017,0.030837532997367734,-0.01547876169905624,0.014695587970791506,-0.07512073895007247,0.6385383798415609,-0.011999040076799194,0.024358051355885913,-0.02519798416126732,0.0,0.002639788816897288,-0.001799856011519213,-0.9492527456709131,-1.1091996960350716,-1.0365356477219767,0.07216989961093816,-0.15874440667259743,0.17315592528898277,-0.1439942406912979,0.1151573811144109,0.0864224613046521,-0.14417300000000002,0.1851379999999999,-0.901827,0.040942000000000006,-0.05657100000000004,-0.906784,0.18511500000000003,0.24170899999999995,0.004956999999999989,0.888690627670917,0.9946750152165011,double,-0.901827
9,0.075,step_acsent,-0.07116284651386183,0.05232209288371443,0.00024000960037759398,-0.07340410156606418,-0.1847899846772079,0.7554971791556875,-0.01440057602303535,0.033001320052805164,-0.020880835233409417,0.002400096003839225,-0.002400096003842556,0.007080283211328879,0.7045470753816354,2.5782503163742603,1.8863280090524237,-0.2881958413819941,1.0372337329796302,0.5180785944867281,0.2880230413823625,-0.6048103709036179,1.0656593331150963,-0.14369999999999997,0.18497699999999995,-0.902003,0.04155500000000001,-0.05702700000000005,-0.906727,0.18525499999999998,0.242004,0.0047239999999999505,0.8833883560357754,0.9869136063018862,double,-0.902003
10,0.083333,step_acsent,-0.06900276011040342,0.050282011280444835,-0.006000240009599718,0.017192246029194776,-0.12898829710322687,0.653736543771628,-0.005160206408258156,0.027481099243973902,-0.015480619224768639,0.00048001920076851036,0.0,-0.0015600624024959932,0.2592207372444989,-0.244819585175758,-0.7488599075935806,1.108888709321635,-0.662452995179558,0.6480518431106173,-0.2304184331058098,0.2880230413827618,-1.0368829489769429,-0.143168,0.18478700000000003,-0.902082,0.042134000000000005,-0.057446,-0.90669,0.185302,0.24223300000000003,0.0046079999999999455,0.9006521204399862,0.9972795970821362,double,-0.902082
11,0.091667,step_acsent,-0.0779937604991582,0.048716102711785184,0.0028797696184334077,0.027639110286390205,0.021044687725582083,0.6307491094505396,-0.00011999040077138905,0.017398608111345193,-0.014998800095992344,-0.0008399328053764106,0.0027597792176620186,-0.0028797696184309097,-1.0788337399513779,-0.1878939967194208,1.0655159140908488,0.6047775386953169,-1.2098021517433064,0.057813670359526656,-0.15838157021177368,0.3311470143582938,-0.1583521977363712,-0.14251900000000003,0.18452599999999997,-0.902231,0.04277699999999998,-0.05782900000000002,-0.906738,0.18529600000000002,0.242355,0.004507000000000039,0.9166441610808329,0.9932064283851438,double,-0.902231
12,0.1,step_acsent,-0.054842193687749015,0.03996159846394185,0.00036001440057305197,-0.08965994679578893,0.1018853556409126,0.5254256958947302,-0.00012000480018879679,0.009480379215174748,-0.014400576023041156,-0.002160086403454966,0.0028801152046110624,-0.0003600144005755501,2.778299149335073,-1.0505825330425207,-0.30238272145210054,-1.727999208896517e-06,-0.950225476559515,0.0717897603445563,-0.15842476876017692,0.014440896069728036,0.3023827214515009,-0.142063,0.184272,-0.902354,0.043216000000000004,-0.05813800000000002,-0.906744,0.185279,0.24241000000000001,0.004390000000000005,0.9273642024929911,0.9939698334206617,double,-0.902354
13,0.108333,step_acsent,-0.06336253450138019,0.0844833793351647,0.02592103684147296,0.03550972532161056,-0.20929473789098338,0.6932079592565982,-0.0025201008040313527,0.004680187207489653,-0.009720388815552358,0.001320052802110075,-0.0013200528021167365,0.006720268810752495,-1.0224817969076176,5.342827417643452,3.0674453907236203,-0.28802304138276225,-0.5760460827655226,0.561644930695884,0.4176334100042054,-0.5040403224202331,0.8496679720782492,-0.141556,0.18360700000000008,-0.902651,0.04375499999999999,-0.05885299999999999,-0.9069039999999999,0.18531099999999998,0.24246000000000006,0.004252999999999951,0.9390052423455786,0.9883754221475087,double,-0.902651
14,0.116667,step_acsent,-0.027117830573554567,0.05951523878090371,0.008999280057601053,0.08332406689097267,0.07838500004391566,0.7626515063369254,-0.0009599232061444676,0.00011999040075806724,-0.007319414446844905,-0.0009599232061411372,0.0021598272138250523,-0.0020398368130553285,4.349016550015069,-2.9959371915359934,-2.0304483781943716,0.1872063352396069,-0.5471798424203962,0.2880938767347554,-0.2735752349713475,0.4175521977371953,-1.0511285845701723,-0.141338,0.18311199999999994,-0.902787,0.04397300000000001,-0.05933100000000002,-0.906996,0.185311,0.24244299999999996,0.004209000000000018,0.9456048883585981,0.9947965715417719,double,-0.902787
15,0.125,step_acsent,-0.05340213608544358,0.06504260170405998,0.0048001920076717886,0.07309937482931926,-0.10281900647543538,0.44712888801747963,0.0008400336013415638,-0.0008400336013415638,-0.007440297611904429,-0.0021600864034583005,0.0033601344053795783,-0.0009600384015361897,-3.1542428311399293,0.6633100831820807,-0.5039107224204089,0.2160034570366054,-0.11520748855149789,-0.014506560069545753,-0.14402534469184738,0.1440426246915309,0.12958099262200165,-0.140886,0.18256300000000003,-0.9028889999999999,0.044399999999999995,-0.059844999999999926,-0.907044,0.185286,0.24240799999999996,0.00415500000000002,0.9458924279752463,0.9931528290057042,double,-0.9028889999999999
16,0.133333,step_acsent,-0.09180367214688434,0.08244329773192172,0.0226809072362888,0.17620271240712734,0.018404328840760834,0.5794978396486848,-0.00012000480018879679,-0.0016800672026831248,-0.006120244809791846,-0.0019200768030707108,0.0034801392055683693,-0.0012000480019196105,-4.608368662119372,2.0881670500254073,2.145771658300372,-0.11520921655230526,-0.10080806448356658,0.1584126727604203,0.028802304138676287,0.014401152068737662,-0.028802304138176003,-0.140122,0.18186199999999997,-0.903129,0.045148999999999995,-0.06050300000000003,-0.9072429999999999,0.185271,0.242365,0.004113999999999951,0.9482803518897283,0.9930801856506246,double,-0.903129
17,0.141667,step_acsent,-0.07091432685385284,0.09083273338131731,0.013318934485251201,0.2131199395735858,-0.1481284809722599,0.5542642727401218,-0.004199664026878729,0.00035997120230084616,-0.005999520038397114,-0.005399568034555988,0.0029997600191981407,0.0031197504199661995,2.506520913490707,1.0066517457878106,-1.1233468623755245,-0.4895199456071444,0.2447850257960134,0.014485813702271687,-0.4175055473344475,-0.05764089109314013,0.5183343438787881,-0.139566,0.18110800000000005,-0.90329,0.04569500000000001,-0.06123499999999993,-0.907328,0.185261,0.24234299999999998,0.004037999999999986,0.9473996847312589,0.9884666259856862,double,-0.90329
18,0.15,step_acsent,-0.06072242889715661,0.07860314412577363,0.0070802832113188744,0.23027254962836108,-0.07420753297687976,0.5133994087651887,-0.003600144005763828,0.00036001440057305197,-0.003600144005760497,-0.0020400816032661692,0.0034801392055683693,-0.0018000720028802486,1.223076677870661,-1.4676094150418424,-0.7486680995958624,0.07194528034500187,5.1840000246980686e-06,0.28793664138204905,0.40315449793469527,0.057647808276758465,-0.5904023068338466,-0.13909000000000002,0.18045599999999995,-0.9033789999999999,0.046184,-0.061861,-0.9074019999999999,0.18527400000000002,0.24231699999999995,0.004022999999999999,0.9512631916004051,0.9926376405778989,double,-0.9033789999999999
19,0.158333,step_acsent,-0.0670826833073327,0.09792391695666953,0.01632065282611603,0.1285208116926638,-0.14869268326521073,0.4837996410104219,-0.00192007680306738,0.0013200528021100728,-0.00468018720748798,-0.003240129605184114,0.0028801152046044006,0.002640105604224309,-0.7632610596635175,2.318585483126832,1.1088887093240307,0.20161612896873232,0.11520921655310451,-0.12961036862204267,-0.14401152069098092,-0.07200576034609003,0.5328426265576087,-0.13854699999999998,0.179651,-0.903554,0.04671600000000001,-0.06265299999999996,-0.907516,0.18526299999999998,0.24230399999999996,0.003962000000000021,0.9516664430934112,0.9915403472208697,double,-0.903554
20,0.166667,step_acsent,-0.10319174466042702,0.0932325413966915,0.028557715382764606,0.13951672945891827,-0.08528271064467537,0.5896410423095519,0.00011999040076472805,0.002039836813060324,-0.004559635229182058,-0.0015598752099814294,0.0014398848092167015,-0.00011999040076805845,-4.332740743111865,-0.5629200335946759,1.468330040394596,0.2447884813813422,0.08636717194027485,0.014465080190295344,0.20161439827246017,-0.17281382234073647,-0.33118502579701997,-0.137686,0.17889100000000002,-0.9038299999999999,0.04756300000000002,-0.06341799999999997,-0.907755,0.18524900000000002,0.242309,0.003925000000000067,0.9524224010824465,0.9964562744687091,double,-0.9038299999999999
21,0.175,step_acsent,-0.0656426257050274,0.07440297611905274,0.018000720028812537,-0.019572144690778757,0.01916300253599545,0.34509043900419,-0.001560062402494333,0.002280091203647101,-0.006000240009599738,-0.000480019200768512,0.002280091203647101,-0.0006000240009598073,4.506074517628671,-2.2596382188454114,-1.2668901180789744,-0.20161440096712652,0.028831680137618814,-0.17287948882967522,0.12958790462173528,0.10082880048366755,-0.05760633627646107,-0.137152,0.17828999999999995,-0.90403,0.04810600000000001,-0.06401900000000005,-0.90791,0.185258,0.242309,0.0038799999999999946,0.9501904724632825,0.9959898520629314,double,-0.90403
22,0.183333,step_acsent,-0.07908316332653215,0.10236409456378158,0.032521300852023274,0.012483272802905421,-0.09519954881959136,0.5136819245003273,-0.00024000960038425518,0.002760110404415604,-0.0054002160086407455,-0.00024000960038425518,0.0024000960038425517,-0.0006000240009606379,-1.6129290317418385,3.3554684321047428,1.7425394003613015,0.15841267276011964,0.05760460827655136,0.07200576034549287,0.028802304138276325,0.014401152069536847,-9.967686119538512e-14,-0.136495,0.17745999999999995,-0.904346,0.048763,-0.06485200000000002,-0.9081859999999999,0.185258,0.24231199999999997,0.0038399999999999546,0.9514842604772975,0.9958573712594047,double,-0.904346
23,0.191667,step_acsent,-0.0439164866810661,0.08663306935445161,-0.014878809695212604,0.042807187640404885,-0.17319319236794462,0.3674495984167084,-0.0009599232061444676,0.002519798416132558,-0.005279577633789576,-0.0002399808015361169,0.0019198464122822743,0.0020398368130553285,4.219663624365973,-1.8875720193580454,-5.687558261007419,-0.08638272207345953,-0.02883513178342283,0.0144754469463846,3.455585329767359e-06,-0.05762534095995644,0.31675795704535203,-0.136137,0.176759,-0.904266,0.049127000000000004,-0.06555800000000006,-0.9080450000000001,0.185264,0.24231700000000006,0.003779000000000088,0.9523294949787684,0.9953142250564564,double,-0.904266
24,0.2,step_acsent,-0.09156366254650009,0.12264490579622783,0.010920436817466957,0.2093226156714206,-0.14405177197629998,0.657720502264478,-0.00036001440057305197,0.0012000480019146143,-0.004560182407295853,0.0,0.0024000960038425517,0.00024000960038425518,-5.717889819444852,4.321593236742612,3.096033422858459,0.07199193634602366,-0.15837638476154356,0.08633088041446331,0.028798848138259534,0.05763225627748434,-0.2159879050367301,-0.135377,0.175747,-0.9043950000000001,0.04988999999999999,-0.06656000000000001,-0.908134,0.185267,0.242307,0.003738999999999937,0.9547280605243291,0.9959798889471054,double,-0.9043950000000001
25,0.208333,step_acsent,-0.056282251290054736,0.09444377775110814,-0.00036001440057305316,-0.0925670504405598,-0.08266851027367854,0.2936981951182067,0.00120004800192128,0.000480019200768512,-0.004200168006720316,0.000840033601344896,0.002280091203647101,0.000120004800192128,4.233938708321785,-3.3842707362438214,-1.3537082944965844,0.18721497689839625,-0.08640691241402905,0.043203456207312814,0.10080806448396713,-0.014401152069536894,-0.014401152069138064,-0.13489799999999996,0.174964,-0.904427,0.05036600000000002,-0.067328,-0.90813,0.18526399999999998,0.242292,0.003703000000000012,0.9556457736615055,0.9959452108218914,double,-0.904427
26,0.216667,step_acsent,-0.06647468202543777,0.11195104391648197,-0.006719462443011273,-0.10767132651368262,-0.16088012935667204,0.43879608978510254,0.00035997120230084497,-0.0013198944084453126,-0.002399808015358671,0.0011999040076772541,0.00311975041996952,0.00011999040076722585,-1.2229938487380638,2.1007038835341754,-0.7630727192750436,-0.10080115186230312,-0.21597235531723336,0.21602591689004597,0.04318099428034051,0.10075104587502015,-1.7277927648364129e-06,-0.134341,0.17402000000000006,-0.904391,0.05093,-0.06823499999999993,-0.908073,0.185271,0.242255,0.003682000000000074,0.9585760225449103,0.9944255020139288,double,-0.904391
27,0.225,step_acsent,-0.08544341773670824,0.10860434417377222,0.005400216008649072,0.06467692401087875,-0.021456197804083484,0.560542471723043,0.00024000960038425518,-0.001800072002878583,-0.0038401536061447522,0.0012000480019212759,0.0031201248049886558,-0.0008400336013440605,-2.276339338926012,-0.4016200339265267,1.4544195909828797,-0.014395968068713511,-0.05762361627664347,-0.17284838482972278,1.728000048262601e-05,4.492799941629242e-05,-0.11520748855289638,-0.133627,0.17310000000000003,-0.904468,0.051652,-0.06911400000000001,-0.9081250000000001,0.185279,0.24221400000000004,0.0036570000000000213,0.9563501687985811,0.9942552075617691,double,-0.904468
28,0.233333,step_acsent,-0.09120364814592705,0.1033241329653186,0.015120604824188092,0.07194469744409576,-0.08776259537028695,0.5583593292951691,0.002760110404415604,-0.0015600624025009894,-0.003360134405376242,0.00012000480019212759,0.0021600864034582966,0.0019200768030723761,-0.6912552993182285,-0.6336506910420758,1.1664933175973853,0.3024241934514997,0.028802304137476704,0.05760460827655224,-0.12961036862224257,-0.1152092165523051,0.3312264975898757,-0.132844,0.172226,-0.904622,0.052413000000000015,-0.06995699999999999,-0.908235,0.185257,0.24218299999999998,0.0036129999999999773,0.9561703413916853,0.9951790188434733,double,-0.904622
29,0.241667,step_acsent,-0.06083513318934256,0.11111111111110926,0.01355891528678066,-0.06786290260900013,-0.05866410159414933,0.6182873280168311,0.0011999040076805885,-0.002279817614589788,-0.004199664026877897,0.002279817614589788,0.0021598272138250592,0.0005999520038394617,3.643930280367717,0.9343626284846023,-0.18738775346861486,-0.1872097908249363,-0.08636371635334775,-0.10073549574053961,0.25915680518330514,-3.110026796704446e-05,-0.15840230372365222,-0.132327,0.17128100000000002,-0.9047700000000001,0.052938999999999986,-0.07086499999999996,-0.908343,0.185266,0.24214599999999997,0.0035729999999999373,0.9560584708552727,0.9946712612613082,double,-0.9047700000000001
30,0.25,step_acsent,-0.08592343693747675,0.1154446177847135,-0.008160326413064677,0.04533413706196009,-0.18944926129920014,0.554291937039481,0.0012000480019212759,-0.0012000480019146143,-0.004080163206528174,0.00012000480019212759,0.002760110404415604,0.001560062402496826,-3.010716878451239,0.5200416024966086,-2.6064132605118586,1.7280000082487362e-05,0.1295775366224856,0.014340672068849486,-0.25918790524392876,0.07203686434543913,0.11521785655314576,-0.131601,0.17030900000000004,-0.904736,0.05365599999999998,-0.07180399999999998,-0.908262,0.18525699999999998,0.24211300000000002,0.003526000000000029,0.9573749243411669,0.9947120668561136,double,-0.904736
31,0.258333,step_acsent,-0.12756510260410547,0.0770430817232729,0.01824072962919013,0.25358941169384125,-0.1131518470131287,0.7981468163470351,0.001080043201725821,-0.0007200288011594295,-0.004200168006720316,0.002160086403458304,0.000960038401537024,0.0014400576023038704,-4.997199767986178,-4.608368662119369,3.1682534552087933,-0.014401152069537388,0.05760460827495331,-0.0144011520691398,0.24481958517534877,-0.2160172810366716,-0.014401152069237486,-0.130529,0.16966099999999995,-0.904923,0.05473700000000001,-0.072438,-0.908402,0.18526600000000001,0.24209899999999995,0.00347900000000001,0.9578830432881247,0.9953867904337459,double,-0.904923
32,0.266667,step_acsent,-0.07175425965922902,0.10835133189344688,0.005399568034552639,0.09513781856420878,-0.16280114289888364,0.6934852479871333,0.0011999040076805846,0.0,-0.0038396928245737075,0.0035997120230350926,0.00035997120230084497,-0.0008399328053755765,6.696765412152196,3.7566894852620534,-1.5408161260664122,0.014382146142880175,0.08639654441557822,0.04325356157266715,0.17274125504881058,-0.07200230372404348,-0.2735769627645122,-0.12992099999999998,0.16875799999999996,-0.905,0.055365,-0.07333800000000001,-0.908454,0.18528599999999998,0.24209599999999998,0.003453999999999957,0.9587553145291414,0.9938101801693751,double,-0.905
33,0.275,step_acsent,-0.08892355694227631,0.09912396495859714,0.00816032641306465,0.023142825938117343,-0.07800751600227916,0.6928367420615951,0.0008400336013415596,0.000240009600390916,-0.004680187207487964,0.0021600864034582896,0.001200048001921272,0.0016800672026881154,-2.0603980898892624,-1.1073283253149768,0.33130425759174353,-0.04318617620773113,0.028802304139075363,-0.10086336048412972,-0.17276198482860877,0.10081324848439019,0.3024120974515398,-0.129173,0.16793400000000003,-0.905107,0.05612400000000001,-0.074154,-0.9085080000000001,0.18529700000000002,0.24208800000000003,0.0034010000000000984,0.9580549488280029,0.9950198409544393,double,-0.905107
34,0.283333,step_acsent,-0.08940357614304542,0.0861634465378613,0.0034801392055617193,0.10723125772071113,-0.15143217715864876,0.5725673647893487,0.00120004800192128,0.00024000960037759439,-0.003480139205568381,0.001080043201725821,0.001320052802110077,0.0013200528021117424,-0.05760460827662415,-1.5553244234652432,-0.5616449306975809,0.04320345620781487,-1.598658250136054e-12,0.14401152069117795,-0.12961036862264144,0.014401152068739402,-0.04320345620741316,-0.128418,0.16721799999999998,-0.905165,0.056877999999999984,-0.07486100000000001,-0.908526,0.185296,0.242079,0.0033609999999999474,0.9602415836037681,0.9964054160655247,double,-0.905165
35,0.291667,step_acsent,-0.10751139908807379,0.11015118790496442,0.007919366450685196,0.09853311601791444,-0.2134525894960123,0.8118568030334293,0.0014398848092167015,0.0017998560115175463,-0.004439644828413999,0.0011999040076805846,0.0015598752099814294,0.0,-2.1727649322088256,2.878298700156359,0.5326646562423174,0.028778114626280448,0.1871665960091133,-0.11513146422433612,0.014382146142880175,0.028776386833615566,-0.15839366476022812,-0.12750999999999998,0.166315,-0.905268,0.057784,-0.075766,-0.908592,0.185294,0.242081,0.0033239999999999936,0.9584228015416062,0.9967200185051494,double,-0.905268
36,0.3,step_acsent,-0.09312372494899807,0.07764310572423687,0.00888035521421081,0.04304247998537888,-0.042838720308139955,0.6901617285016256,0.000240009600384256,-0.001440057602305536,-0.003120124804991997,0.011520460818434296,-0.0009600384015303623,0.00396015840633606,1.726589960287503,-3.9011259067235846,0.11532326455365607,-0.14399078469128146,-0.3888051858662055,0.15834873676011108,1.2385163579447662,-0.3024017294505938,0.47523801828105966,-0.12673199999999998,0.16565599999999991,-0.9053680000000001,0.058656000000000014,-0.07642100000000002,-0.908633,0.185388,0.24207699999999993,0.0032649999999999624,0.9616086903098486,0.9796335279738728,double,-0.9053680000000001
37,0.308333,step_acsent,-0.10404416176647102,0.09612384495379063,0.006360254410172749,0.017124739607765036,-0.1153917694696962,0.6975020562403769,0.0015600624024943227,0.0006000240009639668,-0.004320172806912415,-0.003960158406336867,0.0001200048001887964,0.0022800912036487512,-1.3105048382902809,2.2177774186431876,-0.30242419345230415,0.15841267276011775,0.24481958517574637,-0.14401152069127723,-1.8577486169172084,0.12961036862104333,-0.20161612896763495,-0.125852,0.16486,-0.905457,0.059490000000000015,-0.07722099999999998,-0.908667,0.185342,0.242081,0.003210000000000046,0.9601795875572547,0.9923812964699612,double,-0.905457
38,0.316667,step_acsent,-0.050515958723299656,0.12359011279097447,-0.0064794816414685385,-0.21492986583655166,-0.086189161648125,0.4300119818359436,0.0002399808015361185,0.000959923206144474,-0.0020398368130545093,0.004439644828414861,0.004079673626107353,0.001559875209983105,6.422870535537758,3.295688485383249,-1.540645074590996,-0.15839712034535777,0.04318444986567186,0.27361842978856715,1.0078957565096924,0.47512224933028313,-0.08641900571942049,-0.125429,0.16383800000000004,-0.90542,0.059948,-0.07821699999999998,-0.9086,0.18537700000000001,0.24205500000000002,0.0031799999999999606,0.9644214135613767,0.9896200789757946,double,-0.90542
39,0.325,step_acsent,-0.08304332173286876,0.10380415216608677,0.014640585623432857,-0.04042659846347898,-0.1790251484173546,0.7054502758493241,0.0020400816032628316,0.0008400336013415596,-0.004200168006720288,-0.0027601104044189255,-0.0008400336013415596,0.0018000720028802425,-3.903439698736225,-2.3744102513965704,2.5345094521662435,0.21602073703668612,-0.01438732806947245,-0.25925011324442215,-0.8640051881475768,-0.5903884828331804,0.028824768138381918,-0.12472000000000003,0.16298,-0.9055770000000001,0.060616999999999976,-0.07908899999999996,-0.908707,0.185337,0.24206899999999998,0.003129999999999966,0.9607927247486833,0.9943323223667699,double,-0.9055770000000001
40,0.333333,step_acsent,-0.10236409456378526,0.09252370094804742,0.015360614424565737,0.1472892783270261,-0.03740778185003574,0.7126933253895668,-0.001080043201725821,0.000960038401537024,-0.002640105604224318,0.00060002400096064,0.001080043201725821,0.002640105604224318,-2.3185854831293113,-1.3537082944965049,0.08640691241244229,-0.3744299537967911,0.014401152069538547,0.18721497689859284,0.4032322579358663,0.23041843310541046,0.10080806448386866,-0.12387599999999999,0.16221699999999994,-0.905727,0.061475,-0.07985100000000006,-0.908813,0.185351,0.242068,0.003086000000000033,0.9641238248714017,0.9951418225523065,double,-0.905727
41,0.341667,step_acsent,-0.08855291576673721,0.10115190784736337,0.004919606431493727,0.08008959023645515,-0.09156938774046701,0.6732787229672305,0.002039836813053663,0.0015598752099880903,-0.004559635229182058,0.0,0.0009599232061444676,0.002039836813054496,1.657208878935449,1.0353020037576128,-1.252820733509959,0.3743556533212721,0.07197465904140458,-0.23032512898460983,-0.07199712034564908,-0.014413246410049601,-0.0720264928209529,-0.12312100000000001,0.16138700000000006,-0.905806,0.06221299999999999,-0.08068599999999998,-0.908837,0.185334,0.24207300000000004,0.003031000000000006,0.960968312740036,0.9962426417430494,double,-0.905806
42,0.35,step_acsent,-0.10704428177127158,0.10116404656186731,0.013440537621505011,-0.053653367209262705,-0.1474463957627015,0.6154033797174914,0.000480019200768512,0.0010800432017191595,-0.004680187207487995,0.00768030721228953,0.003240129605184125,-0.0006000240009598073,-2.219052682651436,0.0014567040086327888,1.022552644907153,-0.18718560089825453,-0.057582144278042965,-0.014466816069355265,0.9216737324240428,0.2736357133132921,-0.316795969520498,-0.122225,0.16055299999999995,-0.905957,0.063169,-0.08150200000000002,-0.908954,0.185394,0.24205499999999996,0.0029970000000000274,0.9619848040477181,0.986071054564997,double,-0.905957
43,0.358333,step_acsent,-0.07740309612384544,0.10440417616705074,0.012840513620540955,-0.04249076966517295,-0.15489820380482458,0.6736873022271966,0.0001200048001887964,0.002520100804038002,-0.0034801392055683576,-0.007320292811713097,-0.001200048001921272,0.0036001440057596523,3.557084561073565,0.3888311058662441,-0.0720057603461003,-0.043203456207814,0.17281382483125363,0.14401152069118356,-1.8001440086406533,-0.5328426265577078,0.5040403224192298,-0.12157900000000002,0.15970399999999996,-0.906093,0.063753,-0.08238200000000007,-0.909031,0.18533200000000002,0.24208600000000002,0.002937999999999996,0.9634559155611877,0.9862575435927015,double,-0.906093
44,0.366667,step_acsent,-0.1041516678665715,0.09647228221741241,-0.0007199424046016899,0.08906216699002492,-0.0951728810980582,0.6594730477112349,0.0009599232061444676,0.002399808015361169,-0.004079673626109824,0.005519558435324028,0.00311975041996952,-0.0002399808015352843,-3.2095718433796536,-0.9517511338658884,-1.6271245530528715,0.10078214614298901,-0.01443397992282609,-0.07193837539494434,1.5406588969326989,0.5183343438793842,-0.4607781146262218,-0.120703,0.15892000000000006,-0.9061210000000001,0.064667,-0.08315999999999996,-0.909027,0.18537,0.24208000000000002,0.002905999999999964,0.9628907992170612,0.9894254027146601,double,-0.9061210000000001
45,0.375,step_acsent,-0.08556342253690066,0.11196447857915216,0.002280091203647101,-0.040203514091619076,-0.14211802997671472,0.5496602662690726,0.0008400336013482268,0.002280091203647101,-0.004200168006720316,-0.007440297611901943,-0.001080043201725821,0.0045601824072958675,2.230678666707174,1.8591379289259315,0.3600184337272049,-0.014387328068671684,-0.014366592069370982,-0.014459904069421797,-1.555244935464539,-0.5039953944192189,0.5760426267648102,-0.11998299999999998,0.15800599999999998,-0.9061750000000001,0.06531800000000001,-0.08410200000000001,-0.909008,0.185301,0.242108,0.0028329999999999744,0.9635826498583315,0.9853447217074949,double,-0.9061750000000001
46,0.383333,step_acsent,-0.09588383535341367,0.09840393615743837,0.024240969638776547,-0.27292005931984414,0.04598542634116896,0.6394398433763151,0.002280091203647101,0.001800072002878589,-0.004680187207487995,0.007200288011517687,0.003480139205568381,-0.0015600624024959984,-1.2384990779446823,-1.6273301838130123,2.635410828648686,0.1728138248288585,-0.057604608276552643,-0.057604608276452716,1.7569405524324573,0.5472437786264507,-0.7344587555252468,-0.119165,0.15720100000000004,-0.906416,0.06617699999999999,-0.08489299999999994,-0.909223,0.18534199999999998,0.24209399999999998,0.002807000000000004,0.9627492188347325,0.9864200606450154,double,-0.906416
47,0.391667,step_acsent,-0.09011279097672198,0.09839212862971468,0.011039116870661378,-0.2923039706945125,-0.22271247057309657,0.6446808553363546,0.0016798656107528183,0.0019198464122889352,-0.004559635229182058,-0.0002399808015327865,0.0016798656107461574,0.00191984641228727,0.692469927608794,-0.0014167899836437185,-1.5840956045254566,-0.07202130944255845,0.014371779386890571,0.014465080190297217,-0.89276083669912,-0.21601555013465584,0.41755565332172606,-0.11839999999999998,0.156397,-0.9065460000000001,0.06692600000000001,-0.08569900000000003,-0.9092990000000001,0.185326,0.24209600000000003,0.0027530000000000054,0.9637620802107496,0.9957295103383661,double,-0.9065460000000001
48,0.4,step_acsent,-0.09168366734669191,0.11916476659066573,0.0003600144005730508,0.16498159596899825,-0.13724397591173837,0.5269699444129414,0.0016800672026831191,0.0015600624025009842,-0.0038401536061439066,-0.008760350414018623,-0.002280091203647086,0.005880235209408404,-0.18851270490458683,2.4928162679648342,-1.28154355815292,2.419199931606886e-05,-0.04317580820688221,0.0863412484145144,-1.0224852529084123,-0.47521382628023845,0.4752656662811853,-0.11762200000000003,0.15541700000000003,-0.9065810000000001,0.06761699999999998,-0.08671100000000004,-0.909253,0.18523900000000001,0.24212800000000007,0.0026719999999998967,0.965825843772318,0.9820092831506456,double,-0.9065810000000001
49,0.408333,step_acsent,-0.09840393615744836,0.08112324492979858,-0.027481099243973996,-0.04140252649474864,-0.07718275509623394,0.6435067397601867,0.0010800432017324826,0.0015600624024876715,-0.003840153606144765,0.00648025921036825,0.004320172806916608,-0.0014400576023038704,-0.8064645158714108,-4.565165205912305,-3.3410672800368553,-0.07200576034449034,-1.5975880997857967e-12,-1.0299465255484549e-13,1.8289463127789407,0.7920633638021973,-0.8784702762165238,-0.11679299999999998,0.15475399999999995,-0.906384,0.068491,-0.08735100000000001,-0.909036,0.18528399999999998,0.24210499999999996,0.0026519999999999877,0.9663410871244577,0.9867994719788755,double,-0.906384
50,0.416667,step_acsent,-0.10127189824813809,0.10967122630189219,-0.005279577633794572,0.11280958372020367,0.050832337425063545,0.5136636945001486,0.0009599232061444676,0.0014398848092167015,-0.0039596832253417655,-0.0010799136069091957,0.0009599232061378068,0.0029997600191981307,-0.34412792064911596,3.425483725953153,2.663969475663475,-0.014413246410848924,-0.014420157579910001,-0.014342406911087182,-0.9071481662199951,-0.4031976962777535,0.5327354957405804,-0.11594099999999999,0.153852,-0.906373,0.069326,-0.08825700000000003,-0.908967,0.185267,0.24210900000000002,0.002593999999999985,0.9668577989339369,0.9944506691762658,double,-0.906373
51,0.425,step_acsent,-0.09252370094804076,0.09588383535341367,0.026761070442827887,-0.34361141287226904,-0.14900418748673877,0.6197211060656043,0.0014400576022988744,0.0008400336013415652,-0.004200168006720316,-0.000480019200768512,0.0015600624025009946,0.0022800912036479337,1.0498256690384444,-1.6545530959412635,3.8450315704575226,0.057618432275819996,-0.07198502434599037,-0.028859328138551663,0.07199020834521604,0.0720195843469566,-0.08636371241452043,-0.11515800000000001,0.15305999999999997,-0.9066310000000001,0.07009300000000002,-0.08904299999999998,-0.9091710000000001,0.18525100000000003,0.24210299999999996,0.0025399999999999867,0.9670684305837218,0.9953264844811557,double,-0.9066310000000001
52,0.433333,step_acsent,-0.08724348973958987,0.11148445937836958,0.004200168006721121,0.00507057129861247,-0.13058083995887346,0.5366515765782609,0.0003600144005797124,0.0,-0.004560182407295837,-0.0016800672026897807,0.0014400576022988647,0.002400096003840046,0.6336506910417457,1.8721497689854603,-2.7074165889963604,-0.12961036862104372,-0.10080806448356674,-0.043203456207310656,-0.1440115206913793,-0.01440115207033835,0.014401152069136166,-0.11442799999999997,0.15213100000000002,-0.9067040000000001,0.07080600000000001,-0.08995999999999998,-0.909186,0.18523399999999998,0.242091,0.0024819999999999842,0.9675560476208867,0.9945591941642749,double,-0.9067040000000001
53,0.441667,step_acsent,-0.08339332853371459,0.11123110151188102,-0.016438684905214124,-0.004101766632200568,0.030412843539074152,0.5024310063813999,0.001439884809216711,0.001919846412288948,-0.004679625629950147,-0.0015598752099814399,0.0013198944084519821,0.0021598272138234013,0.4619823861141471,-0.03040051193767202,-2.47646423229366,0.12957408310979177,0.2303631404234412,-0.014332040155304886,0.014421885374171049,-0.014418429787243003,-0.02882994840612503,-0.11372099999999999,0.15122000000000002,-0.906606,0.071488,-0.09087599999999996,-0.909031,0.18520899999999998,0.24209599999999998,0.0024250000000000105,0.966984858411,0.9950445917553115,double,-0.906606
54,0.45,step_acsent,-0.09000360014400546,0.10128405136206209,0.013440537621504923,-0.10873657842710376,-0.15340904822673077,0.5872483009957322,-0.0007200288011527632,0.002400096003842544,-0.0034801392055683576,-0.0016800672026897807,0.0003600144005730508,0.002520100804032173,-0.7932643238078539,-1.1936937657288962,3.585650129211439,-0.2592000012443856,0.057632256276682337,0.1439441286909618,-0.014423616069643626,-0.11519020855381344,0.0432345602074607,-0.112977,0.15039599999999997,-0.906747,0.07222399999999998,-0.09171700000000005,-0.909122,0.18520099999999998,0.24211300000000002,0.002375000000000016,0.9691026867533854,0.9949164906487695,double,-0.906747
55,0.458333,step_acsent,-0.10692427697107945,0.09780391215648772,-0.02004080163206872,0.11107280666695342,-0.09221682937826849,0.4760786201376579,-0.000240009600384256,0.0012000480019146184,-0.0034801392055675484,-0.00936037441497599,-0.000480019200768512,0.002160086403455806,-2.0305624417465533,-0.41763341000532567,-4.017921427285939,0.057604608276552074,-0.1440115206921791,9.711370473337123e-14,-0.9216737324236445,-0.10080806448356712,-0.04320345620741243,-0.112088,0.14959099999999992,-0.906609,0.07303699999999999,-0.09253600000000006,-0.908937,0.18512499999999998,0.24212699999999998,0.0023279999999999967,0.9705715836037724,0.9839693868478638,double,-0.906609
56,0.466667,step_acsent,-0.09863210943124746,0.0967122630189552,0.005999520038396261,-0.08603007413738019,-0.1750582413144373,0.49657825189533233,-0.0007199424046083507,0.0015598752099880903,-0.0035997120230384233,-0.004559635229182891,0.0009599232061444676,0.0029997600191981307,0.9949805063393304,-0.13098741751050064,3.1245886333651254,-0.05758732952052967,0.043175810903944276,-0.014347590289281835,0.5760426188856606,0.17277926648823833,0.10075277366718549,-0.11127199999999998,0.14879799999999999,-0.906689,0.073821,-0.09333400000000003,-0.9089619999999999,0.18509299999999998,0.24213200000000001,0.0022729999999999695,0.970622223766657,0.9907638563004899,double,-0.906689
57,0.475,step_acsent,-0.09900396015840567,0.0975639025560968,0.005760230409222144,-0.11058157434868857,-0.07618663319501372,0.4912586086929899,-0.00120004800192128,0.0016800672026831304,-0.003720148805952637,-0.002280091203647101,0.001320052802110077,0.0010800432017283193,-0.044623872213872866,0.10220083249029142,-0.028715904137059652,-0.05761497627660272,0.014423616068047566,-0.01445299206938846,0.273556225313308,0.04321728020708153,-0.23037523310570215,-0.110457,0.147999,-0.906768,0.074627,-0.094136,-0.909001,0.185084,0.242135,0.0022329999999999295,0.9705788771945956,0.9952542859643595,double,-0.906768
58,0.483333,step_acsent,-0.08664346573862923,0.09948397935918352,0.023400936037434827,-0.20087020988308488,-0.11264086319230017,0.49859305794392766,-0.0001200048001887964,0.0010800432017324755,-0.0028801152046077218,-0.0033601344053762307,0.0003600144005797124,0.0032401296051841034,1.4833186631196909,0.23041843310772914,2.1169693541596795,0.12961036862264239,-0.07200576034449208,0.10080806448396877,-0.1296103686222399,-0.11520921655230537,0.25922073724418276,-0.10973599999999997,0.14717899999999995,-0.906987,0.075321,-0.09496200000000005,-0.9091689999999999,0.18505699999999997,0.242141,0.0021819999999999062,0.9730494926443518,0.9921971242037153,double,-0.906987
59,0.491667,step_acsent,-0.09407247420206458,0.09947204223661721,-0.0227981761458978,0.12560606443678146,-0.1265396285368888,0.408016262679032,-0.0005999520038436226,0.0005999520038436226,-0.002879769618430905,-0.0032397408207342476,0.0013198944084453126,0.0014398848092158688,-0.8914097028360138,-0.0014323401207472816,-5.54344998600103,-0.057589057313993976,-0.0576063352398431,4.146702385611237e-05,0.014446074471080279,0.11517638683292528,-0.21601209454862405,-0.108957,0.146355,-0.906821,0.076078,-0.09578000000000003,-0.9089670000000001,0.185035,0.24213500000000004,0.0021460000000000923,0.9735364018865672,0.9936949512957235,double,-0.906821
60,0.5,step_acsent,-0.10872434897395805,0.09036361454458244,0.001320052802110077,-0.055122842065364185,-0.00680039342334479,0.45912353468796124,-0.00036001440057305316,-0.0008400336013415652,-0.002640105604224318,-0.002880115204607741,0.001800072002878589,0.0025201008040321897,-1.758295304439399,-1.0930550452459844,2.8943032458907885,0.02879366413903397,-0.17280518482961615,0.02876083213807603,0.0431568002071892,0.05762361627664439,0.12963110462214372,-0.10805399999999998,0.14559500000000003,-0.906854,0.07696,-0.09651800000000005,-0.908957,0.18501399999999998,0.24211300000000008,0.002102999999999966,0.9743136350546748,0.9929513139778783,double,-0.906854
61,0.508333,step_acsent,-0.08592343693747646,0.10116404656185331,0.006240249609977291,-0.16985221356798258,0.03924794592774999,0.42205248985056626,0.0003600144005730508,0.0002400096003775928,-0.0028801152046077218,-0.003600144005760485,0.0004800192007685088,0.001920076803071537,2.7362188931335045,1.296103686219947,0.5904472348334565,0.08640691241402867,0.12961036862104328,-0.028802304138173866,-0.08640691241482552,-0.1584126727601194,-0.07200576034569187,-0.10733500000000001,0.14475400000000005,-0.90693,0.07764599999999999,-0.09735699999999997,-0.9089929999999999,0.184981,0.24211100000000002,0.002062999999999926,0.9745159413978535,0.9931528290057108,double,-0.90693
62,0.516667,step_acsent,-0.09191264698824346,0.09551235901128191,0.011639068874491756,-0.07614487106146037,-0.12961817876557302,0.4212397286961944,-0.00035997120230084735,-0.0007199424046016947,-0.0016798656107511643,-0.0029997600191981506,0.001919846412288948,0.002639788816894806,-0.7186477142749017,-0.6781482542082348,0.6478064872227617,-0.0863913610359854,-0.11518502579545152,0.14401842978840465,0.07204031516226755,0.17276544414692194,0.08635853297615466,-0.10657199999999997,0.14395200000000008,-0.907041,0.07838700000000001,-0.09813699999999997,-0.909068,0.18495899999999998,0.24208900000000005,0.002027000000000001,0.9766254134276785,0.9926114098064498,double,-0.907041
63,0.525,step_acsent,-0.08736349453977867,0.09384375375015687,-0.010320412816502953,-0.009662833026035697,0.06057317366570934,0.3678160477259283,-0.0008400336013482211,-0.0015600624025009842,-0.003600144005760485,-0.004320172806913249,0.002280091203647086,0.0015600624024959882,0.5459201306209979,-0.20024064096064262,-2.6352432126478598,-0.057609792277375706,-0.10081843248521373,-0.23044262510612176,-0.1584558727607215,0.043231104207144655,-0.12957235262196246,-0.10585100000000003,0.14315699999999998,-0.906985,0.07907899999999998,-0.09890000000000004,-0.908969,0.18493,0.24205700000000002,0.0019839999999999858,0.9734724310983187,0.9914533138848662,double,-0.906985
64,0.533333,step_acsent,-0.09060362414496731,0.09684387375495135,0.007920316812660515,-0.12121276062799538,-0.05027836395957162,0.3979399254494963,-0.0003600144005730556,-0.00108004320173249,-0.0025201008040322066,-0.004440177607102104,0.0013200528021167475,0.0016800672026881377,-0.38883110586687547,0.3600288017274099,2.1889751145042164,0.057604608277351484,0.057604608276550895,0.12961036862213948,-0.014401152068745508,-0.11520921655230375,0.014401152069140832,-0.105099,0.14234099999999994,-0.907072,0.079797,-0.099696,-0.909021,0.184896,0.24203699999999995,0.0019489999999999785,0.9759011281964044,0.9917874854323594,double,-0.907072
65,0.541667,step_acsent,-0.10163186945044492,0.10559155267578416,-0.0037197024238064566,-0.058205756730500414,-0.2146771308495626,0.42538246079705117,-0.00011999040077138805,-0.002159827213818377,-0.0031197504199661683,-0.0037197024238064566,0.0013198944084453037,0.001679865610751142,-1.323283573971385,1.0496374994999689,-1.3966905731301755,0.028800575930125475,-0.1295637163529972,-0.07195219773625595,0.08645010598699805,-1.9005720115653006e-05,-2.4189097311705004e-05,-0.10425300000000001,0.14144299999999999,-0.907067,0.08061300000000002,-0.10056500000000002,-0.908976,0.18486600000000003,0.242008,0.0019090000000000495,0.9745827893690324,0.9928507467675713,double,-0.907067
66,0.55,step_acsent,-0.07056282251290084,0.09384375375014355,0.0,-0.05141159045256644,-0.0350504774489263,0.35941870947158927,-0.0003600144005730508,-0.002280091203647086,-0.0019200768030723696,-0.004080163206528994,0.0009600384015370176,0.0030001200048006818,3.728434769896069,-1.409792262767378,0.4463821461426186,-0.028804032137484906,-0.014432256069687784,0.14396659269096287,-0.043257024207672606,-0.04318444820692243,0.15843686476053453,-0.10366799999999998,0.14064200000000004,-0.907083,0.08116700000000002,-0.10133899999999996,-0.908951,0.184835,0.241981,0.0018679999999999808,0.9763158014307802,0.9914089637205813,double,-0.907083
67,0.558333,step_acsent,-0.08112324492979579,0.0837633505340193,-0.005160206408244884,-0.05448714508722589,0.12758580722442564,0.4066514512236286,-0.0014400576023055455,-0.002880115204611091,-0.002040081603263691,-0.0033601344053762754,0.001320052802110086,0.0,-1.2673013820826888,-1.2096967738058728,-0.6192495389709506,-0.12961036862264547,-0.07200576034609511,-0.014401152069041481,0.08640691241482361,0.043203456207016884,-0.3600288017281542,-0.10300400000000001,0.13992000000000004,-0.907057,0.081815,-0.10202599999999995,-0.908908,0.184819,0.241946,0.001851000000000047,0.9751367938020405,0.9939831157420342,double,-0.907057
68,0.566667,step_acsent,-0.08903287736980886,0.09287257019439003,0.009959203263732133,-0.07588461839134182,-0.1132219146406574,0.3995928684352876,-0.00011999040076472725,-0.002279817614589765,-0.0020398368130553146,0.00011999040076805765,0.0019198464122889224,-0.0029997600191989434,-0.9490799664042485,1.093018917731061,1.814184025915155,0.1583953925534927,0.07202994840668606,2.9372475207167578e-05,0.41758157021169984,0.07196947566340675,-0.35994240691131757,-0.10226299999999999,0.139127,-0.907157,0.08255799999999999,-0.10278399999999999,-0.909016,0.18482099999999999,0.241911,0.001859000000000055,0.976307467873702,0.9940607781757765,double,-0.907157
69,0.575,step_acsent,-0.08868354734189658,0.09516380655226821,-0.018720748829958767,0.16519741161693963,-0.02740161653541003,0.32705013888018747,0.0,-0.0012000480019146262,-0.002280091203647949,-0.0044401776071054345,0.0,0.0030001200048007217,0.04192128020068183,0.2749593613198361,-3.4417319205197603,0.014399424068730151,0.12957753662248273,-0.028831680138321908,-0.5472420506268492,-0.23039078510607705,0.7200144034561047,-0.10152399999999998,0.138324,-0.9070199999999999,0.08326,-0.10357700000000003,-0.908835,0.18478399999999998,0.24190100000000003,0.001815000000000011,0.9775556461151323,0.9910687973271846,double,-0.9070199999999999
70,0.583333,step_acsent,-0.09456378255129963,0.08484339373573734,0.009600384015370176,-0.03530738066407101,-0.12252512753800886,0.3963147287881721,-0.0002400096003842544,-0.0013200528021233915,-0.0012000480019204393,-0.0034801392055683576,0.0002400096003842544,0.0028801152046077218,-0.7056564513864183,-1.2384990779468172,3.3986718883149916,-0.028802304138275937,-0.014401152071134621,0.1296103686220455,0.11520921655311087,0.028802304138275937,-0.014401152069242699,-0.100738,0.137606,-0.9071100000000001,0.08401899999999998,-0.10428199999999993,-0.908891,0.18475699999999998,0.24188799999999994,0.0017809999999999215,0.9791898799951855,0.9924604676887195,double,-0.9071100000000001
71,0.591667,step_acsent,-0.081713462922964,0.08651307895369297,0.02435805135588573,-0.15235574446327094,-0.07784420746912155,0.35120806240687846,0.0004799616030722306,-0.0015598752099747583,-0.002879769618430053,-0.0002399808015361153,-0.0013198944084519646,0.0040796736261097975,1.541915002200088,0.20034619845879734,1.770778418588366,0.08638963324411801,-0.0287763868312173,-0.20155046994355663,0.38878790545143,-0.18717350717977047,0.14393549574058875,-0.100053,0.136872,-0.907337,0.08469799999999997,-0.10501400000000005,-0.90906,0.18475099999999997,0.24188600000000005,0.00172300000000003,0.9772531956547013,0.992842360543885,double,-0.907337
72,0.6,step_acsent,-0.08232329293172042,0.08364334573382384,-0.01860074402976331,0.13566973165923346,-0.008937747078700028,0.352252044306806,-0.0002400096003842576,-0.0009600384015370304,-0.0014400576023038802,0.0008400336013449015,0.004200168006721177,0.005040201608064413,-0.07318252835190489,-0.34438176165476403,-5.155261656744201,-0.08640000041479597,0.07198329634438179,0.17277235282925552,0.1296069126222281,0.6624339871802702,0.11526796855329709,-0.09936899999999999,0.13616700000000004,-0.907194,0.085391,-0.10567599999999999,-0.908863,0.18475999999999998,0.24184300000000003,0.0016690000000000316,0.9803978395578694,0.9889759480143028,double,-0.907194
73,0.608333,step_acsent,-0.08400336013440243,0.09564382575303544,-0.011160446417857836,0.11852327955936973,-0.17681898650069153,0.3093208608047337,0.0008400336013415596,-0.0016800672026964422,-0.0009600384015361848,-0.0021600864034549585,0.0020400816032628316,0.0004800192007685088,-0.20161612896699993,1.4401152069136622,0.8928714282857845,0.1296103686218424,-0.08640691241562569,0.057604608276454264,-0.3600288017280508,-0.2592207372444902,-0.5472437786266513,-0.09866200000000003,0.13535599999999992,-0.9071089999999999,0.08607299999999998,-0.10645600000000005,-0.908766,0.184735,0.24181199999999997,0.0016570000000000196,0.9799141802009492,0.9949838248714038,double,-0.9071089999999999
74,0.616667,step_acsent,-0.06527477801776428,0.0902327813774873,0.0035997120230484383,-0.07280220817776932,-0.04310411921575447,0.34991093643901117,0.000479961603072237,-0.0019198464122756264,-0.001559875209983105,-0.003599712023038447,0.0,0.0020398368130545093,2.2472500739906716,-0.6492733831951246,1.7710773267226252,-0.04320518337764874,-0.028771203453226004,-0.07197465904090755,-0.17274125504961566,-0.2447902091748072,0.1871631404230873,-0.09811399999999998,0.13458800000000004,-0.9071520000000001,0.08658700000000003,-0.10720800000000003,-0.908779,0.184701,0.24179600000000007,0.001626999999999934,0.9795303359731365,0.9931041758061088,double,-0.9071520000000001
75,0.625,step_acsent,-0.06720268810752461,0.08580343213728768,0.017400696027835127,-0.20305903359655625,0.07266834575617077,0.30017978602692946,-0.0003600144005730508,-0.002280091203647086,-0.0013200528021125664,-0.0032401296051841034,0.000120004800195458,0.0018000720028802425,-0.23135846510984293,-0.5315431705507746,1.6561843279475137,-0.10080115248353344,-0.04323110420874331,0.02877984013807003,0.04315161620716936,0.014401152069537682,-0.028772928138037418,-0.09755699999999995,0.13385400000000003,-0.907308,0.08712000000000003,-0.10792200000000002,-0.908909,0.18467699999999998,0.24177600000000005,0.0016009999999999636,0.9795581187635203,0.9938191379093713,double,-0.907308
76,0.633333,step_acsent,-0.0993639745589814,0.08664346573862923,0.002040081603269493,0.1680043840233511,-0.2834838836678873,0.28922454968441624,0.0003600144005730508,-0.002040081603269493,-0.0018000720028802425,-0.004080163206528994,-0.0007200288011527632,0.0013200528021117337,-3.8595087545249793,0.10080806448356491,-1.8433474648464623,0.08640691241402838,0.02880230413747653,-0.057604608276451946,-0.1008080644839658,-0.1008080644843655,-0.05760460827655187,-0.09672599999999998,0.13311499999999998,-0.90734,0.08791400000000002,-0.10865000000000002,-0.908915,0.18464,0.241765,0.001574999999999993,0.9796759783887177,0.9927526417328707,double,-0.90734
77,0.641667,step_acsent,-0.07103431725461781,0.08975281977441507,-0.01727861771058721,0.03320259704456664,0.13284712827902603,0.27205901009246947,-0.00035997120230084735,-0.000959923206144474,-0.0008399328053755821,-0.0038396928245745658,-0.00011999040076472885,0.0005999520038402962,3.399286933568964,0.3730926368833524,-2.318058472984979,-0.0863913610359854,0.1296086389638859,0.11520748710159177,0.02885413750353126,0.07199884813871343,-0.08640518337790276,-0.09613699999999997,0.132359,-0.907203,0.088474,-0.10939899999999997,-0.908766,0.18461099999999997,0.24175799999999997,0.001562999999999981,0.9821611045082022,0.9935197777193737,double,-0.907203
78,0.65,step_acsent,-0.06744269770790887,0.09132365294611887,0.013680547221882515,-0.14338182022729284,-0.05710645158933005,0.24524168698880666,-0.000120004800195458,-0.0007200288011461016,-0.0009600384015353521,-0.003000120004799849,-0.0014400576023055264,0.0026401056042234675,0.4310115860685145,0.18850752090529113,3.7152484018324246,0.028797120137452097,0.028788480139010135,-0.014413248069095105,0.10075276848370493,-0.15841440076092547,0.24482822517498654,-0.095576,0.13159200000000004,-0.9073249999999999,0.089011,-0.11017199999999999,-0.9088579999999999,0.184587,0.24176400000000003,0.0015330000000000066,0.982659944473561,0.9929201687985811,double,-0.9073249999999999
79,0.658333,step_acsent,-0.07656306252249823,0.08220328813153162,0.004920196807880611,0.049919830265061686,-0.1383243086003962,0.28763562285105443,0.0002400096003842576,-0.0004800192007685152,-0.0009600384015361976,-0.004680187207489692,-0.001560062402501005,0.0025201008040322066,-1.0944875572530233,-1.0944875572527701,-1.05128410104428,0.04320345620781458,0.028802304137476125,-1.0145936086693917e-13,-0.20161612896794168,-0.014401152069540348,-0.014401152069034195,-0.09493600000000002,0.130903,-0.907374,0.08960999999999997,-0.11087000000000008,-0.9088780000000001,0.184546,0.24177300000000007,0.0015040000000000608,0.9831268963978729,0.9907670795731116,double,-0.907374
80,0.666667,step_acsent,-0.07307415406767717,0.0915526757859314,-0.01583873290137029,0.1522108874841543,-0.06700396627522018,0.28438040633164663,-0.0008399328053730732,-0.00011999040077138805,-0.0009599232061436286,-0.0005999520038369578,0.0011999040076805766,0.0020398368130553146,0.41863552373662444,1.1218367715862387,-2.490872295326463,-0.12958272207311283,0.04319999999965495,1.3822341320968712e-05,0.48958905731373925,0.3311694756637341,-0.05762706875172646,-0.09433399999999997,0.130139,-0.90725,0.09021400000000002,-0.11162300000000003,-0.908729,0.184548,0.24176200000000003,0.001479000000000008,0.9830747551691822,0.9959309275359216,double,-0.90725
81,0.675,step_acsent,-0.06876275051001894,0.09204368174726496,0.015840633625347468,-0.040998158065662794,0.04014139095844298,0.2623364095109751,0.0006000240009573052,-0.0014400576023055264,-0.0007200288011519304,-0.005160206408258139,-0.0013200528021100684,0.0015600624024959882,0.5173891224838848,0.058923072282917925,3.8016760502481244,0.17280172882879782,-0.15841440076012636,0.028788480138209192,-0.5472524186272846,-0.3024069134514142,-0.05757523227640999,-0.093756,0.12936000000000003,-0.907388,0.09074399999999999,-0.11240099999999997,-0.908848,0.1845,0.241761,0.0014600000000000168,0.982536321240194,0.9907497651267254,double,-0.907388
82,0.683333,step_acsent,-0.06600264010560422,0.09120364814592462,0.003360134405379606,-0.03384380564172393,0.05617430388001154,0.23618483564994455,0.0,-0.0014400576023055455,-0.0002400096003842576,-0.000600024000960644,-0.0003600144005730556,0.0024000960038400776,0.33122649758967304,-0.10080806448342136,-1.4977198151887647,-0.07200576034529109,-2.2899265853528203e-15,0.05760460827645232,0.5472437786268495,0.11520921655310472,0.100808064483871,-0.09320600000000001,0.12858800000000004,-0.9074180000000001,0.09128899999999998,-0.11316399999999993,-0.908856,0.184495,0.24175199999999997,0.0014379999999999393,0.9831867976597846,0.9958333000008006,double,-0.9074180000000001
83,0.691667,step_acsent,-0.07547396208303166,0.08723302135829465,-0.010319174466046297,0.15302928839788396,-0.10011785048368693,0.2603356353228483,0.00011999040077138805,-0.0009599232061444612,-0.0003599712023041729,-0.0040796736261072995,-0.0005999520038436186,0.002879769618430886,-1.1364677198736937,-0.4764370995476285,-1.641385753710799,0.014397696276864307,0.05761151861784025,-0.014394240691134439,-0.4175245530533512,-0.028790209175733286,0.05755622925255635,-0.09257599999999999,0.127853,-0.907335,0.091884,-0.113896,-0.908746,0.18445999999999999,0.241749,0.001411000000000051,0.9841696725727833,0.9916173538456409,double,-0.907335
84,0.7,step_acsent,-0.06648265930637273,0.08484339373575178,0.019800792031677936,-0.08889651567850478,-0.2358143395834365,0.20856179471615893,-0.0004800192007685152,-0.0012000480019146262,-0.00036001440057555366,-0.003600144005760533,-0.001320052802110086,0.003480139205568404,1.0789994931788078,-0.28676678537656203,3.6145405613493953,-0.0720040323460829,-0.02881612813754557,-5.183999925684817e-06,0.057545856275863526,-0.08641555241407343,0.07204723234579667,-0.092026,0.12713600000000003,-0.907503,0.09240799999999999,-0.114614,-0.908882,0.184434,0.24175000000000002,0.001379000000000019,0.9839738425762113,0.9913694751748507,double,-0.907503
85,0.708333,step_acsent,-0.0780031201248094,0.09576383055321758,-0.009360374414979259,0.06487920031114826,0.09715636163777479,0.3147562121405116,-0.000120004800195458,-0.0019200768030740352,0.0,-0.0021600864034582896,-0.0006000240009639668,0.0007200288011519304,-1.382510598636339,1.3105048382894215,-3.4994799527969604,0.04320345620701496,-0.08640691241562534,0.04320345620731455,0.17281382482926166,0.0864069124140305,-0.33122649758987904,-0.09137699999999999,0.12632200000000005,-0.9074249999999999,0.09304000000000001,-0.11541699999999999,-0.908798,0.184417,0.24173900000000004,0.0013730000000000686,0.9830636278367336,0.9960755596483113,double,-0.9074249999999999
86,0.716667,step_acsent,-0.08999280057594998,0.0752339812815022,0.03479721622270342,-0.015601499552783855,-0.25814005757182007,0.20726583438208138,0.0009599232061444612,-0.002279817614589765,-0.0013198944084478015,-0.0023998080153578225,-0.0009599232061378004,0.0019198464122864246,-1.4386465624118663,-2.4633848418184807,5.298486997562075,0.1295809942812468,-0.04316544414635553,-0.1583746590410117,-0.02876429228456095,-0.04318444986487052,0.14396659600845754,-0.090619,0.125676,-0.907726,0.09376999999999999,-0.11605199999999999,-0.909072,0.184389,0.241728,0.0013459999999999583,0.9818670452581606,0.9946338661447136,double,-0.907726
87,0.725,step_acsent,-0.052922116884678835,0.088443537741509,-0.014880595223810647,-0.004930689880163881,0.19553852144081132,0.2571372804191364,0.0,-0.0022800912036471162,-0.0009600384015353649,-0.002520100804031374,-0.001200048001921288,0.0016800672026881377,4.448659989352152,1.585210183608174,-5.961575836615207,-0.11519539255303853,-3.28320001621701e-05,0.043184448207421074,-0.014435712069309086,-0.02881612813914434,-0.028774656138040217,-0.09017799999999998,0.12492000000000003,-0.9076099999999999,0.09419000000000002,-0.11679899999999999,-0.9089339999999999,0.184368,0.24171900000000002,0.0013239999999999919,0.9826367294435621,0.994570234025162,double,-0.9076099999999999
88,0.733333,step_acsent,-0.06816272650905497,0.08664346573862923,-0.009360374414965936,0.13975081364859435,0.005864029538697671,0.2696101212680633,0.0008400336013415596,-0.0032401296051841034,0.00048001920076767607,-0.0015600624024976536,-0.00132005280211673,0.0033601344053762307,-1.8289463127776397,-0.21601728103681245,0.6624529951811698,0.10080806448356606,-0.1152092165531001,0.17281382482935737,0.11520921655270808,-0.014401152069535758,0.20161612896772904,-0.08960300000000004,0.12417100000000003,-0.907528,0.09474499999999997,-0.11753200000000003,-0.9088280000000001,0.184348,0.24170300000000006,0.0013000000000000789,0.981364173445497,0.9934453499707256,double,-0.907528
89,0.741667,step_acsent,-0.07583393328534017,0.07919366450683918,-0.012359011279106772,0.2401121591489558,-0.19730809249452907,0.22908021606467482,0.000479961603072237,-0.0025197984161325748,-0.0013198944084469866,-0.002159827213821736,-0.0013198944084453212,0.0021598272138234013,-0.9204711754601927,-0.8939046354439757,-0.3598076390857755,-0.04320518337764874,0.08643282805993913,-0.21597235531733536,-0.07196602007728412,1.900572011143822e-05,-0.14402534095906364,-0.08896700000000002,0.12348999999999999,-0.907436,0.095359,-0.118203,-0.9087069999999999,0.18432600000000002,0.241693,0.001270999999999911,0.9824820585232412,0.9944542738085524,double,-0.907436
90,0.75,step_acsent,-0.08268330733229237,0.09492379695187601,0.008880355214210751,0.11161205208397218,-0.30107289569545864,0.17053136268969374,0.001200048001921272,-0.002640105604220137,-0.0010800432017283122,-0.000600024000960636,-0.0021600864034582896,0.001920076803071537,-0.821957763944818,1.8876914010604546,2.5488259322353812,0.08641382441486042,-0.014437440068110112,0.028783296138086334,0.18718387289824714,-0.10082707248445516,-0.028771200138229126,-0.08826800000000001,0.12267700000000004,-0.907519,0.09604299999999999,-0.119012,-0.908765,0.184311,0.24168900000000004,0.0012460000000000804,0.98238227490771,0.995080453667645,double,-0.907519
91,0.758333,step_acsent,-0.07080283211328843,0.08928357134284937,0.018840753630140653,-0.14961046988251622,-0.13117274476236945,0.22538021341833478,0.001080043201725814,-0.002760110404415595,-0.0001200048001921272,-0.000600024000960636,-0.002880115204604391,0.0018000720028802425,1.4257140548426608,-0.6768541472490848,1.1952956217364528,-0.014401152069537683,-0.014401152069537683,0.11520921655300383,0.0,-0.08640691241402837,-0.014401152069038036,-0.087669,0.12191000000000007,-0.907677,0.09662800000000002,-0.11977999999999994,-0.9089069999999999,0.18429700000000002,0.24169000000000002,0.0012299999999999534,0.9827561194070552,0.994251726923802,double,-0.907677
92,0.766667,step_acsent,-0.05267578593712139,0.08915286777058476,0.0035997120230484383,-0.19519149651210146,0.15018996346077718,0.3210123714764729,0.000959923206144474,-0.0031197504199628797,0.0,0.0007199424046083555,-0.0022798176145897952,0.001559875209983105,2.175071535417224,-0.015683174017831456,-1.8287786905558319,-0.014413246410048071,-0.043153349597706614,0.014399424069129816,0.1583832980044395,0.07202994840587944,-0.028821309442901233,-0.08722200000000002,0.12114100000000005,-0.907707,0.09707299999999999,-0.12054199999999998,-0.9089240000000001,0.18429500000000001,0.24168300000000004,0.0012170000000000236,0.9823898470087502,0.9952422297202754,double,-0.907707
93,0.775,step_acsent,-0.0847233889355552,0.08136325453017564,0.01896075843033611,0.23160954059798525,-0.5204470151013582,0.2312028331750803,0.0003600144005797124,-0.0018000720028919003,-0.00048001920076767607,0.0003600144005763816,-0.002640105604226798,0.0022800912036487512,-3.8458661944598194,-0.9347909804883106,1.843399304846707,-0.0719919363452249,0.1583677447583072,-0.057604608276451946,-0.043193088207364984,-0.04323628820796849,0.08642937641493378,-0.086513,0.120448,-0.907869,0.09778199999999998,-0.12124199999999996,-0.9090630000000001,0.184295,0.24168999999999996,0.0011940000000000284,0.9848975958436457,0.9941551105259361,double,-0.907869
94,0.783333,step_acsent,-0.05928237129485833,0.09252370094804803,-0.005040201608062748,-0.15497753835713393,0.3079243162400667,0.2897147275222244,0.0,-0.001560062402487682,0.00012000480019129609,0.001800072002878601,-0.0022800912036471162,0.0010800432017274938,3.053044238653198,1.3393071424303968,-2.8802304138244423,-0.04320345620781419,0.02880230414067209,0.07200576034549114,0.17281382482926108,0.04320345620781054,-0.14401152069137987,-0.08601899999999996,0.11966399999999999,-0.907826,0.09829100000000002,-0.12203200000000003,-0.909012,0.18430999999999997,0.24169600000000002,0.0011860000000000204,0.9855322147265221,0.9948345247529352,double,-0.907826
95,0.791667,step_acsent,-0.06443484521237702,0.09083273338132972,-0.008039356851456533,0.0847645931709003,0.046150148765408676,0.27188529815231566,0.001559875209981419,-0.0014398848092166917,-0.000839932805375571,0.0008399328053764035,-0.002279817614589765,0.0004799616030722306,-0.6182474103094134,-0.2028998760161147,-0.35986983962008184,0.18717005159364136,0.014420157579912326,-0.11518329800418284,-0.11520748710129472,3.282806063731208e-05,-0.07200403151610975,-0.08546900000000002,0.11889499999999997,-0.907766,0.09883499999999998,-0.12280800000000003,-0.908941,0.184304,0.241703,0.0011750000000000371,0.9844450448783222,0.9958723767217532,double,-0.907766
96,0.8,step_acsent,-0.08196327853114627,0.09168366734669191,0.007680307212282817,0.21483758431431932,-0.45405280901383377,0.19067948296497694,0.0014400576023055264,-0.0018000720028785772,-0.0015600624024959882,-0.0007200288011527632,-0.004080163206532325,0.0027601104044164275,-2.103496138097824,0.1021161604898821,1.886435145054516,-0.014378688068629799,-0.043224192207114355,-0.0864190084147863,-0.18720288089873516,-0.21605011303762778,0.273628801313355,-0.08477399999999996,0.118116,-0.907843,0.09951200000000002,-0.12360600000000005,-0.908982,0.18428599999999998,0.24172200000000005,0.0011390000000000011,0.9839708490320646,0.9917026807021455,double,-0.907843
97,0.808333,step_acsent,-0.0603624144965775,0.1041641665666612,-0.017760710428408415,-0.05489612646699969,0.41242690993466347,0.33726999872931607,0.0014400576023055455,-0.0009600384015370304,-0.00012000480019129609,0.0031201248049920177,-0.003720148805946,0.0024000960038400776,2.592207372443174,1.497719815188937,-3.053044238652522,2.2899265853528203e-15,0.10080806448356587,0.17281382482955782,0.4608368662120264,0.043203456208607695,-0.04320345620741069,-0.08425899999999997,0.11724000000000001,-0.9076960000000001,0.10004099999999999,-0.12450499999999998,-0.908814,0.18429999999999996,0.241745,0.0011179999999999524,0.9859285178817523,0.9909730116433557,double,-0.9076960000000001
98,0.816667,step_acsent,-0.05003599712023008,0.08963282937364249,0.010079193664503522,-0.167604664530775,-0.14562811094464218,0.2640653700596234,0.0007199424046016851,0.00011999040077138805,-0.0007199424046083459,0.0015598752099847495,-0.003119750419969499,0.000959923206142796,1.2390709594849216,-1.743620973484354,3.340521249449451,-0.08640691117156887,0.12959308882990284,-0.07198675358975824,-0.1872149742029345,0.07204204295374327,-0.1728069111707788,-0.08383600000000002,0.1164940000000001,-0.907786,0.100471,-0.12527799999999994,-0.90889,0.18430700000000003,0.24177200000000004,0.0011039999999999939,0.9872513359440664,0.9939705569827636,double,-0.907786
99,0.825,step_acsent,-0.08568342733709336,0.09804392175687929,0.015600624024956758,0.19163365664688667,-0.5137296028943683,0.19948560430934914,0.0006000240009639748,0.0,0.0,0.0026401056042235026,-0.0022800912036471162,0.000600024000960644,-4.277862740533254,1.009371460846859,0.6625981471802815,-0.01439078406788808,-0.014399424069529479,0.08639654441477888,0.12963283262195643,0.10076313648414621,-0.043189632207146916,-0.083117,0.11567700000000003,-0.907916,0.10120699999999999,-0.126114,-0.909015,0.184324,0.24179100000000003,0.0010990000000000721,0.9880099599983934,0.9941006115429625,double,-0.907916
100,0.833333,step_acsent,-0.06804272170886617,0.09588383535341304,-0.002400096003842544,-0.016814689896873014,-0.03707708152656812,0.32249171102928664,0.0004800192007685088,0.0004800192007685088,-0.0013200528021117337,0.0024000960038392132,-0.002880115204611053,0.0020400816032636643,2.11696935416142,-0.259220737245439,-2.160172810368322,-0.01440115206953864,0.05760460827655187,-0.1584126727603178,-0.028802304138280138,-0.07200576034608594,0.17281382482935487,-0.08254600000000001,0.11488200000000004,-0.9079069999999999,0.10179399999999997,-0.12693700000000002,-0.908978,0.18433999999999998,0.24181900000000006,0.0010710000000000441,0.9868160376661361,0.9928863477563967,double,-0.9079069999999999
101,0.841667,step_acsent,-0.05207583393329039,0.0979121670266418,-0.0015598752099747583,-0.16676023967534323,0.12380218168553296,0.3150589365806084,0.0005999520038369578,0.0011999040076739157,0.0,0.0021598272138250376,-0.001559875209981419,0.0002399808015361153,1.9158732632080226,0.2433803303610203,0.10081842978975032,0.014390785105405342,0.08637926648732919,0.158393664760226,-0.028829948405828396,0.15841612606546962,-0.21599481662197448,-0.08210699999999999,0.11407599999999996,-0.907894,0.10224600000000003,-0.12776600000000005,-0.908963,0.18435300000000002,0.241842,0.0010689999999999866,0.987074110893639,0.9955416573054927,double,-0.907894
102,0.85,step_acsent,-0.06360254410176164,0.10272410896435566,-0.014280571222846672,0.14194133044790985,-0.1023929167439721,0.2201370479114802,0.0014400576023055455,0.0014400576023055455,-0.0001200048001921288,0.0021600864034549876,-0.0026401056042268333,0.0013200528021117513,-1.3832605506385878,0.5774561307709,-1.5265445833279767,0.10081670448441082,0.028819584139161414,-0.014401152069138353,3.110399975399608e-05,-0.1296328326227558,0.1296138246220624,-0.081565,0.113232,-0.907776,0.102794,-0.12864400000000004,-0.908833,0.184359,0.24187600000000004,0.0010569999999999746,0.9860298639945564,0.9939038558925826,double,-0.907776
103,0.858333,step_acsent,-0.051122044881792894,0.10104404176167117,0.00552022080883119,-0.04258851617461894,-0.021530936445994124,0.36968094103659566,0.0014400576023055264,0.0010800432017324755,-0.0003600144005755489,0.0020400816032661623,-0.002400096003835882,0.0,1.4977198151888504,-0.20161612896729636,2.3761900914049896,-2.28992658535279e-15,-0.0432034562070165,-0.028802304138175815,-0.014401152068741726,0.028802304139079582,-0.1584126727603199,-0.081127,0.11239900000000003,-0.907825,0.103237,-0.129506,-0.908879,0.184364,0.24190500000000004,0.0010539999999999994,0.9864004659104746,0.9947500281017646,double,-0.907825
104,0.866667,step_acsent,-0.06635469162467349,0.09575233981281137,-0.00947924166067335,0.1180379559303862,-0.07013098784054236,0.3189184532465925,0.0011999040076805924,0.0013198944084453212,-0.0002399808015361185,0.002159827213821736,-0.0015598752099881005,0.0010799136069117006,-1.8277713874346868,-0.6349534375881732,-1.7997915130195137,-0.028816126064907056,0.028779842418148203,0.01440287965435938,0.014368323800764858,0.10081842978735138,0.12957926648808576,-0.08056399999999997,0.11161200000000004,-0.907748,0.10380800000000001,-0.13031700000000002,-0.908791,0.18437199999999998,0.24192900000000006,0.0010430000000000161,0.9865702399808025,0.9952087238818019,double,-0.907748
105,0.875,step_acsent,-0.08292331693267663,0.09060362414497276,0.006840273610941258,0.09219640311822672,-0.29217351492589655,0.2816762862842373,0.001080043201725814,0.002160086403451628,-0.0001200048001921272,0.00168006720268645,-0.002880115204604391,0.0008400336013440577,-1.9883145695431503,-0.6178705949644282,1.958420169400521,-0.014383872069456132,0.10082707248365572,0.014397696069121661,-0.057573504276405126,-0.15843513675942458,-0.028786752138202563,-0.07986399999999999,0.11087499999999995,-0.907806,0.104513,-0.13109600000000005,-0.908841,0.18437699999999999,0.241971,0.0010350000000000081,0.9856199504621048,0.9942691512532991,double,-0.907806
106,0.883333,step_acsent,-0.05844233769350932,0.1039241569662689,-0.0018000720028785772,-0.01495820965547456,-0.09360262889363681,0.33852800411433354,0.002280091203647086,0.0016800672026831191,-0.0008400336013440577,0.0004800192007685088,-0.0015600624024943227,0.0006000240009598033,2.9378350221009484,1.5985278796707167,-1.036882948976335,0.14401152069137968,-0.05760460827655187,-0.08640691241472788,-0.14401152069098,0.15841267276011795,-0.028802304138275937,-0.07935799999999998,0.11002299999999998,-0.907798,0.10500400000000001,-0.13197499999999995,-0.908821,0.184362,0.24199799999999994,0.0010229999999999961,0.9848463896055538,0.9971016087151132,double,-0.907798
107,0.891667,step_acsent,-0.06599472042236598,0.10499160067195526,0.010439164866817825,-0.007987797629399506,-0.2662935581499873,0.31887662184316007,0.000959923206144474,0.0016798656107594903,-0.0002399808015361185,0.0005999520038402962,-0.001919846412288948,0.00035997120230417775,-0.9062134303883732,0.12808299804252027,1.4685909370886094,-0.15840748710134622,-2.418909570780423e-05,0.07200057593087864,0.014390785105806107,-0.04317062752515327,-0.02880403151615394,-0.07879999999999998,0.10916199999999998,-0.907887,0.10555900000000001,-0.13286600000000004,-0.9089050000000001,0.184359,0.24202800000000002,0.0010180000000000744,0.9865706445865658,0.9965943951751972,double,-0.907887
108,0.9,step_acsent,-0.07020280811232446,0.10944437777510009,0.0018000720028785772,-0.05962435965587648,0.0009375986583316478,0.2792106756737764,0.0018000720028785772,0.002520100804024679,0.0014400576023046935,0.0019200768030707043,-0.0014400576023055264,0.0018000720028802425,-0.5049907224239123,0.53435462656244,-1.0367326129772245,0.1008218884836313,0.10083225648208148,0.2016126729678153,0.15842131276015872,0.0575769602764214,0.17281900882948023,-0.07819999999999999,0.108271,-0.90789,0.10616,-0.13378999999999996,-0.908905,0.18436,0.24206099999999997,0.0010149999999999881,0.9841576725186079,0.994999799992,double,-0.90789
109,0.908333,step_acsent,-0.05772230889235733,0.10536421456858916,-0.004680187207489692,-0.12125081269414678,0.16696585846159603,0.2953534839881819,0.001800072002878601,0.0020400816032695203,-0.0014400576023047128,-0.0001200048001921288,-0.0020400816032628585,0.002040081603263691,1.4977198151886773,-0.48963917034813015,-0.7776622117326687,2.8624082316910253e-15,-0.05760460827495055,-0.3456276496591183,-0.2448195851749492,-0.07200576034529432,0.028802304138179635,-0.077704,0.10741,-0.907863,0.10664000000000001,-0.134685,-0.908849,0.184344,0.242095,0.0009860000000000424,0.9850094926443486,0.9951873237267447,double,-0.907863
110,0.916667,step_acsent,-0.0628749700023956,0.10355171586272385,0.00011999040077138805,0.006608506247639321,0.06655055065376017,0.3706739835577316,0.00155987520998808,0.002519798416132541,-0.000479961603071398,0.0005999520038402883,-0.0013198944084453037,0.001679865610751142,-0.6182698716148588,-0.21748244610814646,0.5759752349725273,-0.028821309442106938,0.057561412630551596,0.115202303723699,0.08638790545145326,0.08641555013409519,-0.04322246130460121,-0.07716699999999999,0.10656800000000011,-0.907868,0.10716899999999999,-0.13555899999999993,-0.908836,0.18433599999999997,0.24212700000000004,0.0009679999999999689,0.9853164018865581,0.996301647466423,double,-0.907868
111,0.925,step_acsent,-0.08880355214208752,0.10464418576744165,0.016560662426493566,0.17272429530378047,-0.6534341918137682,0.30987477205840636,0.0015600624024943227,0.0009600384015236944,0.0002400096003842544,0.0007200288011527632,-0.001200048001921272,0.0019200768030723696,-3.1115543189357746,0.13110163263144065,1.9729595614691118,2.2463999309100406e-05,-0.18717868890061684,0.08640000041469452,0.0144097920691797,0.014382144068646492,0.028826496138392735,-0.07641399999999998,0.10570399999999991,-0.908004,0.10791500000000001,-0.13644100000000003,-0.908958,0.184329,0.24214499999999994,0.0009540000000000104,0.9873809159729838,0.9960400436270986,double,-0.908004
112,0.933333,step_acsent,-0.06108244329773027,0.09468378735148636,-0.010800432017284929,-0.02150798133141991,0.1868204389259282,0.34306877668051383,0.0019200768030740608,0.0019200768030740608,-0.0001200048001921288,0.0007200288011527728,-0.001800072002878601,0.0018000720028802666,3.3266661279680187,-1.1952956217395156,-3.28346267176032,0.04320345620781728,0.11520921655470721,-0.04320345620741467,1.1449632926764102e-15,-0.07200576034529396,-0.014401152069135264,-0.07588899999999998,0.104931,-0.9079149999999999,0.10843,-0.13724499999999995,-0.9088529999999999,0.18431899999999998,0.24217599999999995,0.0009379999999999944,0.9860899181355585,0.9955907420926752,double,-0.9079149999999999
113,0.941667,step_acsent,-0.061795056395486415,0.1136309095272407,-0.00455963522917953,-0.27698673864184487,0.261469024671744,0.31947712564572245,0.0025197984161258805,0.0013198944084453037,-0.001199904007679744,-0.00011999040076805765,-0.0011999040076805766,0.0027597792176628283,-0.08550673119224128,2.2734727832678416,0.7488357077160249,0.07196083669928187,-0.07201612606536507,-0.1295775386954172,-0.10079424069124358,0.07201439827190063,0.1151556533216408,-0.075353,0.10399499999999995,-0.907887,0.10894399999999999,-0.138202,-0.9087919999999999,0.184297,0.24219699999999994,0.0009049999999999336,0.9858045395047346,0.9949804414054819,double,-0.907887
114,0.95,step_acsent,-0.09072362894516277,0.11568462738509225,-0.0003600144005730556,0.06696824218511056,-0.47275176014105663,0.22277355255226283,0.001920076803067399,0.002640105604233495,-0.0006000240009598112,0.000600024000960644,-0.0008400336013482324,0.0025201008040322066,-3.4715675686639407,0.24645600118223557,0.5039746584191183,-0.07196947234591228,0.15843168076181488,0.0719884803456064,0.08640518441482159,0.04318617620692997,-0.02876256013808038,-0.07458100000000001,0.10305300000000006,-0.9078890000000001,0.10970500000000002,-0.139173,-0.908768,0.18428600000000003,0.24222600000000005,0.0008789999999999631,0.9856780520476984,0.9954610961566797,double,-0.9078890000000001
115,0.958333,step_acsent,-0.05364214568582423,0.11388455538221214,-0.008400336013442242,-0.19985036696532174,0.22246397891747627,0.32875559983430347,0.0022800912036537477,0.002760110404415595,-0.0002400096003842544,0.0013200528021100684,-0.0013200528021100684,0.0014400576023038609,4.44995598936018,-0.21601728103685408,-0.9648771886318435,0.043203456208610005,0.01440115206793463,0.04320345620731494,0.08640691241442715,-0.05760460827575111,-0.12961036862214584,-0.07411499999999999,0.10212700000000008,-0.907821,0.11016299999999998,-0.14013299999999995,-0.908686,0.18427799999999997,0.24226000000000003,0.0008650000000000047,0.9853697942366739,0.9960704662777774,double,-0.907821
116,0.966667,step_acsent,-0.0731941444684419,0.09431245500360673,-0.0020398368130603107,0.050263947948114195,0.068114468387427,0.3421390696407203,0.003839692824571184,0.0016798656107461464,-0.000479961603071398,0.0003599712023041729,0.0002399808015361153,0.0026397888168947707,-2.3460521697405228,-2.348464168299167,0.7631988481379749,0.18713722353220835,-0.12961900571987522,-0.028791936967499612,-0.11520057593063213,0.1871890573129556,0.14395622925256787,-0.07347300000000001,0.10135499999999997,-0.907808,0.11077599999999999,-0.14091700000000001,-0.908647,0.184249,0.242272,0.0008390000000000342,0.9845792041311785,0.9955416573054936,double,-0.907808
117,0.975,step_acsent,-0.08628345133805733,0.11556462258489679,0.001320052802123409,0.071285805106888,-0.3769695187611079,0.27300888117197675,0.001800072002878601,0.001320052802110086,-0.0012000480019204553,0.001680067202689803,-0.001680067202689803,0.0016800672026881377,-1.5707796555400877,2.5503621242398,0.4032028819373275,-0.24476428917467916,-0.04317926420689592,-0.08641382441486425,0.15841785676054748,-0.23041497710619657,-0.11517120055281913,-0.072739,0.10040300000000002,-0.907829,0.11150900000000002,-0.14189399999999996,-0.908644,0.18424800000000002,0.24229699999999998,0.0008150000000000102,0.9876260886271597,0.9951500637413535,double,-0.907829
118,0.983333,step_acsent,-0.08592343693747646,0.10812432497300335,-0.0019200768030740352,-0.15382841852529644,0.06277885930033063,0.21765918677587742,0.002880115204611053,0.00264010560423346,-0.0013200528021117337,-0.0001200048001921272,-0.0012000480019146104,0.003480139205567525,0.04320345620795204,-0.8928714282843401,-0.3888311058679264,0.12961036862263858,0.15841267276171467,-0.01440115206903611,-0.2160172810370722,0.05760460827735397,0.21601728103676704,-0.07199899999999998,0.09952400000000006,-0.9078240000000001,0.11222400000000002,-0.14280499999999996,-0.908599,0.184223,0.24232900000000002,0.0007749999999999702,0.9853765889525692,0.9938613507527451,double,-0.9078240000000001
119,0.991667,step_acsent,-0.06599472042236598,0.11675065994720508,-0.016918646508286363,0.04671082303171541,-0.14535608065436895,0.28460031739717495,0.0033597312214989983,0.0028797696184201,-0.0008399328053755821,0.0008399328053764147,-0.0008399328053797451,0.0025197984161267465,2.391254681438756,1.0350773907129567,-1.7996843898742996,0.0575493180811073,0.02875738111190804,0.05760979082507252,0.11518329800438534,0.04321036675484369,-0.11523167619879816,-0.07142100000000001,0.09857499999999997,-0.90769,0.11278100000000002,-0.143785,-0.9084369999999999,0.18420200000000003,0.24235999999999996,0.0007469999999999422,0.9850232707867028,0.9953570967257618,double,-0.90769
120,1.0,step_acsent,-0.09084363374535036,0.0972038881555231,0.007080283211332174,0.05805294496605569,-0.13708084824575797,0.25405865737314004,0.0037201488059526123,0.002760110404415595,-0.0015600624024959882,0.0003600144005730508,-0.0008400336013415596,0.0016800672026881154,-2.981988878313245,-2.345706443259559,2.8799867658248455,0.04325184020804182,-0.014359680067743292,-0.08641900841478496,-0.057592512276894506,-1.2095999257700616e-05,-0.10077177648369466,-0.070633,0.09778799999999999,-0.907762,0.113541,-0.14460199999999995,-0.908482,0.184174,0.24238999999999994,0.0007200000000000539,0.9846535093986095,0.9968123970057812,double,-0.907762
121,1.008333,step_acsent,-0.06816272650906254,0.10656426257050378,0.003960158406330258,-0.17928920658363118,0.17400606572533053,0.27826924060824393,0.0037201488059526618,0.002880115204611091,-0.0015600624024960088,-0.0012000480019179571,-0.006960278411136808,0.004440177607104602,2.721817741064206,1.1232898613921476,-0.3744299537983853,5.932991607505035e-15,0.014401152069542456,-2.472079836460431e-15,-0.18721497689799857,-0.7344587555256575,0.331226497589885,-0.07003399999999999,0.09692400000000001,-0.907808,0.11409900000000003,-0.14554799999999996,-0.9084779999999999,0.18413300000000002,0.24247199999999997,0.0006699999999999484,0.9850389189855308,0.9860954875479939,double,-0.907808
122,1.016667,step_acsent,-0.08975281977441388,0.12862970962323791,-0.016318694504429198,-0.12877659078764378,-0.19070295174544014,0.17160363142573412,0.012958963282936905,0.02387808975282682,-0.007199424046076798,0.003359731221502284,-0.003359731221505614,0.004919606431485368,-2.5906039435266592,2.647641834981278,-2.4332676878760857,1.1085690517139637,2.5195553813553597,-0.6766692636885945,0.5471297364315102,0.43203110026771857,0.05752685677714936,-0.06917800000000002,0.096051,-0.907732,0.114875,-0.14664800000000006,-0.908301,0.18405300000000002,0.24269900000000005,0.0005690000000000417,0.9474671893869214,0.9886009119270432,double,-0.907732
=======
=======
>>>>>>> 3b0d06690e55fb02323d988053aa126fb7c3a6e7
1,0.008333,stand,-0.054722188887556936,0.04248169926797989,-0.01080043201728483,-0.08423501415552587,-0.1532568553777287,0.5875865499767391,0.007440297611905255,-0.06588263530541481,-0.04104164166566603,0.0037201488059526275,0.0,0.0019200768030723776,0.0,0.0,0.0,0.0,0.0,0.0,0.0,0.0,0.0,-0.148661,0.18545999999999996,-0.900094,0.03678200000000001,-0.054561000000000026,-0.907368,0.185443,0.24002099999999998,0.007274000000000003,0.7972995785253476,0.9930226154876138,double,-0.900094
2,0.016667,stand,-0.05831533477321651,0.02219822414206752,-0.01463882889368316,-0.10423359104101163,-0.05408502048274855,0.610359944363366,0.025077993760500922,-0.017038636909044332,-0.05531557475402004,-0.0089992800575944,-0.0031197504199695224,0.0020398368130553303,-0.4311430148379616,-2.4338223093247384,-0.46057077950543907,2.1163542294931204,5.860810942689041,-1.7127349518063362,-1.5262093668762928,-0.3743401031880876,0.014370051593826807,-0.147966,0.185133,-0.900433,0.037193000000000004,-0.05477200000000004,-0.9072290000000001,0.185159,0.23990500000000003,0.006796000000000024,0.826907362489917,0.9837655357630568,double,-0.900433
3,0.025,stand,-0.0676827073082934,0.043201728069126,-0.006600264010563692,-0.10212306206888089,-0.03771241253801945,0.6128829519867839,0.026761070442814498,0.024360974438971946,-0.054122164886595464,0.0025201008040313506,0.004320172806916597,-0.004800192007680944,-1.1241296693960028,2.5205212920987012,0.9646663726292413,0.20197728096886786,4.968152087845467,0.14321491268745662,1.3823809986350355,0.8928265002863457,-0.8208362919400306,-0.147179,0.18497599999999992,-0.900829,0.037778000000000006,-0.055096000000000034,-0.907214,0.184957,0.24007199999999995,0.006384999999999974,0.827639622886496,0.9884461833561006,double,-0.900829
4,0.033333,stand,-0.07752310092403789,0.036721468858744444,0.0030001200047932,-0.12908352527445208,-0.06248715606890944,0.7266727494224783,0.019800792031684417,0.04944197767911664,-0.04704188167526659,0.002400096003839223,0.005520220808831212,-0.004560182407295856,-1.180894469668125,-0.7776622117342559,1.1520921655294483,-0.8352668200084101,3.0098407824486615,0.8496679720783477,-0.014401152069138046,0.14401152069058148,0.02880230413837612,-0.14636799999999997,0.18508200000000008,-0.901246,0.038444000000000006,-0.05535599999999996,-0.9072769999999999,0.18481199999999998,0.24043800000000004,0.0060309999999998976,0.8212567188121178,0.9874137903735755,double,-0.901246
5,0.041667,stand,-0.0848332133429308,0.025557955363573158,-0.02051835853130804,-0.06541364784725479,0.02395620338403671,0.6495338564970492,0.011159107271419454,0.05015598752098853,-0.049436045116391,0.0007199424046083513,-0.0037197024238064848,0.006359491240700442,-0.8771433188016454,-1.339514458263893,-2.8219916649989485,-1.0369192176943798,0.08567432707846007,-0.28727663080446425,-0.20160230372340673,-1.1087020917491837,1.3102560172781734,-0.14556799999999998,0.18528699999999998,-0.901487,0.039157,-0.05559999999999998,-0.907053,0.18472499999999997,0.24088699999999996,0.00556599999999996,0.8255022100409033,0.9876624295534859,double,-0.901487
6,0.05,stand,-0.07056282251290114,0.046561862474505576,-0.011880475219017311,-0.05089106296239355,-0.035667594675925056,0.5766115798954115,-0.02472098883955832,0.04956198247929878,-0.02316092643705733,-0.0037201488059526275,-0.0033601344053795753,0.002400096003840056,1.7125154002195684,2.5205696760989342,1.0365874609733263,-4.30578376466792,-0.0712834563410237,3.153140367134726,-0.5328322585576597,0.043149888206757414,-0.4751464342806176,-0.145186,0.18531199999999992,-0.901581,0.039714,-0.056016000000000066,-0.9069339999999999,0.1849,0.241328,0.005352999999999941,0.8464152107050749,0.99073680053049,double,-0.901581
7,0.058333,stand,-0.0691227649105956,0.04008160326412402,-0.006840273610941286,-0.08407854972516056,-0.12824590817527332,0.6507555733140254,-0.012600504020156753,0.02568102724109534,-0.0266410656426257,0.001200048001921277,0.0016800672026897876,-0.0025201008040321837,0.17281382482965718,-0.7776622117342559,0.6048483869045992,1.4545163589825474,-2.865829261754883,-0.41763341000460474,0.590447234834262,0.6048483869037997,-0.5904472348340621,-0.14471499999999998,0.18519200000000002,-0.9017459999999999,0.0403,-0.056336,-0.906898,0.18501499999999999,0.24152800000000002,0.005152000000000045,0.8833298690993351,0.9945702340251594,double,-0.9017459999999999
8,0.066667,stand,-0.077033837293017,0.030837532997367734,-0.01547876169905624,0.014695587970791506,-0.07512073895007247,0.6385383798415609,-0.011999040076799194,0.024358051355885913,-0.02519798416126732,0.0,0.002639788816897288,-0.001799856011519213,-0.9492527456709131,-1.1091996960350716,-1.0365356477219767,0.07216989961093816,-0.15874440667259743,0.17315592528898277,-0.1439942406912979,0.1151573811144109,0.0864224613046521,-0.14417300000000002,0.1851379999999999,-0.901827,0.040942000000000006,-0.05657100000000004,-0.906784,0.18511500000000003,0.24170899999999995,0.004956999999999989,0.888690627670917,0.9946750152165011,double,-0.901827
9,0.075,stand,-0.07116284651386183,0.05232209288371443,0.00024000960037759398,-0.07340410156606418,-0.1847899846772079,0.7554971791556875,-0.01440057602303535,0.033001320052805164,-0.020880835233409417,0.002400096003839225,-0.002400096003842556,0.007080283211328879,0.7045470753816354,2.5782503163742603,1.8863280090524237,-0.2881958413819941,1.0372337329796302,0.5180785944867281,0.2880230413823625,-0.6048103709036179,1.0656593331150963,-0.14369999999999997,0.18497699999999995,-0.902003,0.04155500000000001,-0.05702700000000005,-0.906727,0.18525499999999998,0.242004,0.0047239999999999505,0.8833883560357754,0.9869136063018862,double,-0.902003
10,0.083333,stand,-0.06900276011040342,0.050282011280444835,-0.006000240009599718,0.017192246029194776,-0.12898829710322687,0.653736543771628,-0.005160206408258156,0.027481099243973902,-0.015480619224768639,0.00048001920076851036,0.0,-0.0015600624024959932,0.2592207372444989,-0.244819585175758,-0.7488599075935806,1.108888709321635,-0.662452995179558,0.6480518431106173,-0.2304184331058098,0.2880230413827618,-1.0368829489769429,-0.143168,0.18478700000000003,-0.902082,0.042134000000000005,-0.057446,-0.90669,0.185302,0.24223300000000003,0.0046079999999999455,0.9006521204399862,0.9972795970821362,double,-0.902082
11,0.091667,stand,-0.0779937604991582,0.048716102711785184,0.0028797696184334077,0.027639110286390205,0.021044687725582083,0.6307491094505396,-0.00011999040077138905,0.017398608111345193,-0.014998800095992344,-0.0008399328053764106,0.0027597792176620186,-0.0028797696184309097,-1.0788337399513779,-0.1878939967194208,1.0655159140908488,0.6047775386953169,-1.2098021517433064,0.057813670359526656,-0.15838157021177368,0.3311470143582938,-0.1583521977363712,-0.14251900000000003,0.18452599999999997,-0.902231,0.04277699999999998,-0.05782900000000002,-0.906738,0.18529600000000002,0.242355,0.004507000000000039,0.9166441610808329,0.9932064283851438,double,-0.902231
12,0.1,stand,-0.054842193687749015,0.03996159846394185,0.00036001440057305197,-0.08965994679578893,0.1018853556409126,0.5254256958947302,-0.00012000480018879679,0.009480379215174748,-0.014400576023041156,-0.002160086403454966,0.0028801152046110624,-0.0003600144005755501,2.778299149335073,-1.0505825330425207,-0.30238272145210054,-1.727999208896517e-06,-0.950225476559515,0.0717897603445563,-0.15842476876017692,0.014440896069728036,0.3023827214515009,-0.142063,0.184272,-0.902354,0.043216000000000004,-0.05813800000000002,-0.906744,0.185279,0.24241000000000001,0.004390000000000005,0.9273642024929911,0.9939698334206617,double,-0.902354
13,0.108333,stand,-0.06336253450138019,0.0844833793351647,0.02592103684147296,0.03550972532161056,-0.20929473789098338,0.6932079592565982,-0.0025201008040313527,0.004680187207489653,-0.009720388815552358,0.001320052802110075,-0.0013200528021167365,0.006720268810752495,-1.0224817969076176,5.342827417643452,3.0674453907236203,-0.28802304138276225,-0.5760460827655226,0.561644930695884,0.4176334100042054,-0.5040403224202331,0.8496679720782492,-0.141556,0.18360700000000008,-0.902651,0.04375499999999999,-0.05885299999999999,-0.9069039999999999,0.18531099999999998,0.24246000000000006,0.004252999999999951,0.9390052423455786,0.9883754221475087,double,-0.902651
14,0.116667,stand,-0.027117830573554567,0.05951523878090371,0.008999280057601053,0.08332406689097267,0.07838500004391566,0.7626515063369254,-0.0009599232061444676,0.00011999040075806724,-0.007319414446844905,-0.0009599232061411372,0.0021598272138250523,-0.0020398368130553285,4.349016550015069,-2.9959371915359934,-2.0304483781943716,0.1872063352396069,-0.5471798424203962,0.2880938767347554,-0.2735752349713475,0.4175521977371953,-1.0511285845701723,-0.141338,0.18311199999999994,-0.902787,0.04397300000000001,-0.05933100000000002,-0.906996,0.185311,0.24244299999999996,0.004209000000000018,0.9456048883585981,0.9947965715417719,double,-0.902787
15,0.125,stand,-0.05340213608544358,0.06504260170405998,0.0048001920076717886,0.07309937482931926,-0.10281900647543538,0.44712888801747963,0.0008400336013415638,-0.0008400336013415638,-0.007440297611904429,-0.0021600864034583005,0.0033601344053795783,-0.0009600384015361897,-3.1542428311399293,0.6633100831820807,-0.5039107224204089,0.2160034570366054,-0.11520748855149789,-0.014506560069545753,-0.14402534469184738,0.1440426246915309,0.12958099262200165,-0.140886,0.18256300000000003,-0.9028889999999999,0.044399999999999995,-0.059844999999999926,-0.907044,0.185286,0.24240799999999996,0.00415500000000002,0.9458924279752463,0.9931528290057042,double,-0.9028889999999999
16,0.133333,stand,-0.09180367214688434,0.08244329773192172,0.0226809072362888,0.17620271240712734,0.018404328840760834,0.5794978396486848,-0.00012000480018879679,-0.0016800672026831248,-0.006120244809791846,-0.0019200768030707108,0.0034801392055683693,-0.0012000480019196105,-4.608368662119372,2.0881670500254073,2.145771658300372,-0.11520921655230526,-0.10080806448356658,0.1584126727604203,0.028802304138676287,0.014401152068737662,-0.028802304138176003,-0.140122,0.18186199999999997,-0.903129,0.045148999999999995,-0.06050300000000003,-0.9072429999999999,0.185271,0.242365,0.004113999999999951,0.9482803518897283,0.9930801856506246,double,-0.903129
17,0.141667,stand,-0.07091432685385284,0.09083273338131731,0.013318934485251201,0.2131199395735858,-0.1481284809722599,0.5542642727401218,-0.004199664026878729,0.00035997120230084616,-0.005999520038397114,-0.005399568034555988,0.0029997600191981407,0.0031197504199661995,2.506520913490707,1.0066517457878106,-1.1233468623755245,-0.4895199456071444,0.2447850257960134,0.014485813702271687,-0.4175055473344475,-0.05764089109314013,0.5183343438787881,-0.139566,0.18110800000000005,-0.90329,0.04569500000000001,-0.06123499999999993,-0.907328,0.185261,0.24234299999999998,0.004037999999999986,0.9473996847312589,0.9884666259856862,double,-0.90329
18,0.15,stand,-0.06072242889715661,0.07860314412577363,0.0070802832113188744,0.23027254962836108,-0.07420753297687976,0.5133994087651887,-0.003600144005763828,0.00036001440057305197,-0.003600144005760497,-0.0020400816032661692,0.0034801392055683693,-0.0018000720028802486,1.223076677870661,-1.4676094150418424,-0.7486680995958624,0.07194528034500187,5.1840000246980686e-06,0.28793664138204905,0.40315449793469527,0.057647808276758465,-0.5904023068338466,-0.13909000000000002,0.18045599999999995,-0.9033789999999999,0.046184,-0.061861,-0.9074019999999999,0.18527400000000002,0.24231699999999995,0.004022999999999999,0.9512631916004051,0.9926376405778989,double,-0.9033789999999999
19,0.158333,stand,-0.0670826833073327,0.09792391695666953,0.01632065282611603,0.1285208116926638,-0.14869268326521073,0.4837996410104219,-0.00192007680306738,0.0013200528021100728,-0.00468018720748798,-0.003240129605184114,0.0028801152046044006,0.002640105604224309,-0.7632610596635175,2.318585483126832,1.1088887093240307,0.20161612896873232,0.11520921655310451,-0.12961036862204267,-0.14401152069098092,-0.07200576034609003,0.5328426265576087,-0.13854699999999998,0.179651,-0.903554,0.04671600000000001,-0.06265299999999996,-0.907516,0.18526299999999998,0.24230399999999996,0.003962000000000021,0.9516664430934112,0.9915403472208697,double,-0.903554
20,0.166667,stand,-0.10319174466042702,0.0932325413966915,0.028557715382764606,0.13951672945891827,-0.08528271064467537,0.5896410423095519,0.00011999040076472805,0.002039836813060324,-0.004559635229182058,-0.0015598752099814294,0.0014398848092167015,-0.00011999040076805845,-4.332740743111865,-0.5629200335946759,1.468330040394596,0.2447884813813422,0.08636717194027485,0.014465080190295344,0.20161439827246017,-0.17281382234073647,-0.33118502579701997,-0.137686,0.17889100000000002,-0.9038299999999999,0.04756300000000002,-0.06341799999999997,-0.907755,0.18524900000000002,0.242309,0.003925000000000067,0.9524224010824465,0.9964562744687091,double,-0.9038299999999999
21,0.175,stand,-0.0656426257050274,0.07440297611905274,0.018000720028812537,-0.019572144690778757,0.01916300253599545,0.34509043900419,-0.001560062402494333,0.002280091203647101,-0.006000240009599738,-0.000480019200768512,0.002280091203647101,-0.0006000240009598073,4.506074517628671,-2.2596382188454114,-1.2668901180789744,-0.20161440096712652,0.028831680137618814,-0.17287948882967522,0.12958790462173528,0.10082880048366755,-0.05760633627646107,-0.137152,0.17828999999999995,-0.90403,0.04810600000000001,-0.06401900000000005,-0.90791,0.185258,0.242309,0.0038799999999999946,0.9501904724632825,0.9959898520629314,double,-0.90403
22,0.183333,stand,-0.07908316332653215,0.10236409456378158,0.032521300852023274,0.012483272802905421,-0.09519954881959136,0.5136819245003273,-0.00024000960038425518,0.002760110404415604,-0.0054002160086407455,-0.00024000960038425518,0.0024000960038425517,-0.0006000240009606379,-1.6129290317418385,3.3554684321047428,1.7425394003613015,0.15841267276011964,0.05760460827655136,0.07200576034549287,0.028802304138276325,0.014401152069536847,-9.967686119538512e-14,-0.136495,0.17745999999999995,-0.904346,0.048763,-0.06485200000000002,-0.9081859999999999,0.185258,0.24231199999999997,0.0038399999999999546,0.9514842604772975,0.9958573712594047,double,-0.904346
23,0.191667,stand,-0.0439164866810661,0.08663306935445161,-0.014878809695212604,0.042807187640404885,-0.17319319236794462,0.3674495984167084,-0.0009599232061444676,0.002519798416132558,-0.005279577633789576,-0.0002399808015361169,0.0019198464122822743,0.0020398368130553285,4.219663624365973,-1.8875720193580454,-5.687558261007419,-0.08638272207345953,-0.02883513178342283,0.0144754469463846,3.455585329767359e-06,-0.05762534095995644,0.31675795704535203,-0.136137,0.176759,-0.904266,0.049127000000000004,-0.06555800000000006,-0.9080450000000001,0.185264,0.24231700000000006,0.003779000000000088,0.9523294949787684,0.9953142250564564,double,-0.904266
24,0.2,stand,-0.09156366254650009,0.12264490579622783,0.010920436817466957,0.2093226156714206,-0.14405177197629998,0.657720502264478,-0.00036001440057305197,0.0012000480019146143,-0.004560182407295853,0.0,0.0024000960038425517,0.00024000960038425518,-5.717889819444852,4.321593236742612,3.096033422858459,0.07199193634602366,-0.15837638476154356,0.08633088041446331,0.028798848138259534,0.05763225627748434,-0.2159879050367301,-0.135377,0.175747,-0.9043950000000001,0.04988999999999999,-0.06656000000000001,-0.908134,0.185267,0.242307,0.003738999999999937,0.9547280605243291,0.9959798889471054,double,-0.9043950000000001
25,0.208333,stand,-0.056282251290054736,0.09444377775110814,-0.00036001440057305316,-0.0925670504405598,-0.08266851027367854,0.2936981951182067,0.00120004800192128,0.000480019200768512,-0.004200168006720316,0.000840033601344896,0.002280091203647101,0.000120004800192128,4.233938708321785,-3.3842707362438214,-1.3537082944965844,0.18721497689839625,-0.08640691241402905,0.043203456207312814,0.10080806448396713,-0.014401152069536894,-0.014401152069138064,-0.13489799999999996,0.174964,-0.904427,0.05036600000000002,-0.067328,-0.90813,0.18526399999999998,0.242292,0.003703000000000012,0.9556457736615055,0.9959452108218914,double,-0.904427
26,0.216667,stand,-0.06647468202543777,0.11195104391648197,-0.006719462443011273,-0.10767132651368262,-0.16088012935667204,0.43879608978510254,0.00035997120230084497,-0.0013198944084453126,-0.002399808015358671,0.0011999040076772541,0.00311975041996952,0.00011999040076722585,-1.2229938487380638,2.1007038835341754,-0.7630727192750436,-0.10080115186230312,-0.21597235531723336,0.21602591689004597,0.04318099428034051,0.10075104587502015,-1.7277927648364129e-06,-0.134341,0.17402000000000006,-0.904391,0.05093,-0.06823499999999993,-0.908073,0.185271,0.242255,0.003682000000000074,0.9585760225449103,0.9944255020139288,double,-0.904391
27,0.225,stand,-0.08544341773670824,0.10860434417377222,0.005400216008649072,0.06467692401087875,-0.021456197804083484,0.560542471723043,0.00024000960038425518,-0.001800072002878583,-0.0038401536061447522,0.0012000480019212759,0.0031201248049886558,-0.0008400336013440605,-2.276339338926012,-0.4016200339265267,1.4544195909828797,-0.014395968068713511,-0.05762361627664347,-0.17284838482972278,1.728000048262601e-05,4.492799941629242e-05,-0.11520748855289638,-0.133627,0.17310000000000003,-0.904468,0.051652,-0.06911400000000001,-0.9081250000000001,0.185279,0.24221400000000004,0.0036570000000000213,0.9563501687985811,0.9942552075617691,double,-0.904468
28,0.233333,stand,-0.09120364814592705,0.1033241329653186,0.015120604824188092,0.07194469744409576,-0.08776259537028695,0.5583593292951691,0.002760110404415604,-0.0015600624025009894,-0.003360134405376242,0.00012000480019212759,0.0021600864034582966,0.0019200768030723761,-0.6912552993182285,-0.6336506910420758,1.1664933175973853,0.3024241934514997,0.028802304137476704,0.05760460827655224,-0.12961036862224257,-0.1152092165523051,0.3312264975898757,-0.132844,0.172226,-0.904622,0.052413000000000015,-0.06995699999999999,-0.908235,0.185257,0.24218299999999998,0.0036129999999999773,0.9561703413916853,0.9951790188434733,double,-0.904622
29,0.241667,stand,-0.06083513318934256,0.11111111111110926,0.01355891528678066,-0.06786290260900013,-0.05866410159414933,0.6182873280168311,0.0011999040076805885,-0.002279817614589788,-0.004199664026877897,0.002279817614589788,0.0021598272138250592,0.0005999520038394617,3.643930280367717,0.9343626284846023,-0.18738775346861486,-0.1872097908249363,-0.08636371635334775,-0.10073549574053961,0.25915680518330514,-3.110026796704446e-05,-0.15840230372365222,-0.132327,0.17128100000000002,-0.9047700000000001,0.052938999999999986,-0.07086499999999996,-0.908343,0.185266,0.24214599999999997,0.0035729999999999373,0.9560584708552727,0.9946712612613082,double,-0.9047700000000001
30,0.25,stand,-0.08592343693747675,0.1154446177847135,-0.008160326413064677,0.04533413706196009,-0.18944926129920014,0.554291937039481,0.0012000480019212759,-0.0012000480019146143,-0.004080163206528174,0.00012000480019212759,0.002760110404415604,0.001560062402496826,-3.010716878451239,0.5200416024966086,-2.6064132605118586,1.7280000082487362e-05,0.1295775366224856,0.014340672068849486,-0.25918790524392876,0.07203686434543913,0.11521785655314576,-0.131601,0.17030900000000004,-0.904736,0.05365599999999998,-0.07180399999999998,-0.908262,0.18525699999999998,0.24211300000000002,0.003526000000000029,0.9573749243411669,0.9947120668561136,double,-0.904736
31,0.258333,stand,-0.12756510260410547,0.0770430817232729,0.01824072962919013,0.25358941169384125,-0.1131518470131287,0.7981468163470351,0.001080043201725821,-0.0007200288011594295,-0.004200168006720316,0.002160086403458304,0.000960038401537024,0.0014400576023038704,-4.997199767986178,-4.608368662119369,3.1682534552087933,-0.014401152069537388,0.05760460827495331,-0.0144011520691398,0.24481958517534877,-0.2160172810366716,-0.014401152069237486,-0.130529,0.16966099999999995,-0.904923,0.05473700000000001,-0.072438,-0.908402,0.18526600000000001,0.24209899999999995,0.00347900000000001,0.9578830432881247,0.9953867904337459,double,-0.904923
32,0.266667,stand,-0.07175425965922902,0.10835133189344688,0.005399568034552639,0.09513781856420878,-0.16280114289888364,0.6934852479871333,0.0011999040076805846,0.0,-0.0038396928245737075,0.0035997120230350926,0.00035997120230084497,-0.0008399328053755765,6.696765412152196,3.7566894852620534,-1.5408161260664122,0.014382146142880175,0.08639654441557822,0.04325356157266715,0.17274125504881058,-0.07200230372404348,-0.2735769627645122,-0.12992099999999998,0.16875799999999996,-0.905,0.055365,-0.07333800000000001,-0.908454,0.18528599999999998,0.24209599999999998,0.003453999999999957,0.9587553145291414,0.9938101801693751,double,-0.905
33,0.275,stand,-0.08892355694227631,0.09912396495859714,0.00816032641306465,0.023142825938117343,-0.07800751600227916,0.6928367420615951,0.0008400336013415596,0.000240009600390916,-0.004680187207487964,0.0021600864034582896,0.001200048001921272,0.0016800672026881154,-2.0603980898892624,-1.1073283253149768,0.33130425759174353,-0.04318617620773113,0.028802304139075363,-0.10086336048412972,-0.17276198482860877,0.10081324848439019,0.3024120974515398,-0.129173,0.16793400000000003,-0.905107,0.05612400000000001,-0.074154,-0.9085080000000001,0.18529700000000002,0.24208800000000003,0.0034010000000000984,0.9580549488280029,0.9950198409544393,double,-0.905107
34,0.283333,stand,-0.08940357614304542,0.0861634465378613,0.0034801392055617193,0.10723125772071113,-0.15143217715864876,0.5725673647893487,0.00120004800192128,0.00024000960037759439,-0.003480139205568381,0.001080043201725821,0.001320052802110077,0.0013200528021117424,-0.05760460827662415,-1.5553244234652432,-0.5616449306975809,0.04320345620781487,-1.598658250136054e-12,0.14401152069117795,-0.12961036862264144,0.014401152068739402,-0.04320345620741316,-0.128418,0.16721799999999998,-0.905165,0.056877999999999984,-0.07486100000000001,-0.908526,0.185296,0.242079,0.0033609999999999474,0.9602415836037681,0.9964054160655247,double,-0.905165
35,0.291667,stand,-0.10751139908807379,0.11015118790496442,0.007919366450685196,0.09853311601791444,-0.2134525894960123,0.8118568030334293,0.0014398848092167015,0.0017998560115175463,-0.004439644828413999,0.0011999040076805846,0.0015598752099814294,0.0,-2.1727649322088256,2.878298700156359,0.5326646562423174,0.028778114626280448,0.1871665960091133,-0.11513146422433612,0.014382146142880175,0.028776386833615566,-0.15839366476022812,-0.12750999999999998,0.166315,-0.905268,0.057784,-0.075766,-0.908592,0.185294,0.242081,0.0033239999999999936,0.9584228015416062,0.9967200185051494,double,-0.905268
36,0.3,stand,-0.09312372494899807,0.07764310572423687,0.00888035521421081,0.04304247998537888,-0.042838720308139955,0.6901617285016256,0.000240009600384256,-0.001440057602305536,-0.003120124804991997,0.011520460818434296,-0.0009600384015303623,0.00396015840633606,1.726589960287503,-3.9011259067235846,0.11532326455365607,-0.14399078469128146,-0.3888051858662055,0.15834873676011108,1.2385163579447662,-0.3024017294505938,0.47523801828105966,-0.12673199999999998,0.16565599999999991,-0.9053680000000001,0.058656000000000014,-0.07642100000000002,-0.908633,0.185388,0.24207699999999993,0.0032649999999999624,0.9616086903098486,0.9796335279738728,double,-0.9053680000000001
37,0.308333,stand,-0.10404416176647102,0.09612384495379063,0.006360254410172749,0.017124739607765036,-0.1153917694696962,0.6975020562403769,0.0015600624024943227,0.0006000240009639668,-0.004320172806912415,-0.003960158406336867,0.0001200048001887964,0.0022800912036487512,-1.3105048382902809,2.2177774186431876,-0.30242419345230415,0.15841267276011775,0.24481958517574637,-0.14401152069127723,-1.8577486169172084,0.12961036862104333,-0.20161612896763495,-0.125852,0.16486,-0.905457,0.059490000000000015,-0.07722099999999998,-0.908667,0.185342,0.242081,0.003210000000000046,0.9601795875572547,0.9923812964699612,double,-0.905457
38,0.316667,stand,-0.050515958723299656,0.12359011279097447,-0.0064794816414685385,-0.21492986583655166,-0.086189161648125,0.4300119818359436,0.0002399808015361185,0.000959923206144474,-0.0020398368130545093,0.004439644828414861,0.004079673626107353,0.001559875209983105,6.422870535537758,3.295688485383249,-1.540645074590996,-0.15839712034535777,0.04318444986567186,0.27361842978856715,1.0078957565096924,0.47512224933028313,-0.08641900571942049,-0.125429,0.16383800000000004,-0.90542,0.059948,-0.07821699999999998,-0.9086,0.18537700000000001,0.24205500000000002,0.0031799999999999606,0.9644214135613767,0.9896200789757946,double,-0.90542
39,0.325,stand,-0.08304332173286876,0.10380415216608677,0.014640585623432857,-0.04042659846347898,-0.1790251484173546,0.7054502758493241,0.0020400816032628316,0.0008400336013415596,-0.004200168006720288,-0.0027601104044189255,-0.0008400336013415596,0.0018000720028802425,-3.903439698736225,-2.3744102513965704,2.5345094521662435,0.21602073703668612,-0.01438732806947245,-0.25925011324442215,-0.8640051881475768,-0.5903884828331804,0.028824768138381918,-0.12472000000000003,0.16298,-0.9055770000000001,0.060616999999999976,-0.07908899999999996,-0.908707,0.185337,0.24206899999999998,0.003129999999999966,0.9607927247486833,0.9943323223667699,double,-0.9055770000000001
40,0.333333,stand,-0.10236409456378526,0.09252370094804742,0.015360614424565737,0.1472892783270261,-0.03740778185003574,0.7126933253895668,-0.001080043201725821,0.000960038401537024,-0.002640105604224318,0.00060002400096064,0.001080043201725821,0.002640105604224318,-2.3185854831293113,-1.3537082944965049,0.08640691241244229,-0.3744299537967911,0.014401152069538547,0.18721497689859284,0.4032322579358663,0.23041843310541046,0.10080806448386866,-0.12387599999999999,0.16221699999999994,-0.905727,0.061475,-0.07985100000000006,-0.908813,0.185351,0.242068,0.003086000000000033,0.9641238248714017,0.9951418225523065,double,-0.905727
41,0.341667,stand,-0.08855291576673721,0.10115190784736337,0.004919606431493727,0.08008959023645515,-0.09156938774046701,0.6732787229672305,0.002039836813053663,0.0015598752099880903,-0.004559635229182058,0.0,0.0009599232061444676,0.002039836813054496,1.657208878935449,1.0353020037576128,-1.252820733509959,0.3743556533212721,0.07197465904140458,-0.23032512898460983,-0.07199712034564908,-0.014413246410049601,-0.0720264928209529,-0.12312100000000001,0.16138700000000006,-0.905806,0.06221299999999999,-0.08068599999999998,-0.908837,0.185334,0.24207300000000004,0.003031000000000006,0.960968312740036,0.9962426417430494,double,-0.905806
42,0.35,stand,-0.10704428177127158,0.10116404656186731,0.013440537621505011,-0.053653367209262705,-0.1474463957627015,0.6154033797174914,0.000480019200768512,0.0010800432017191595,-0.004680187207487995,0.00768030721228953,0.003240129605184125,-0.0006000240009598073,-2.219052682651436,0.0014567040086327888,1.022552644907153,-0.18718560089825453,-0.057582144278042965,-0.014466816069355265,0.9216737324240428,0.2736357133132921,-0.316795969520498,-0.122225,0.16055299999999995,-0.905957,0.063169,-0.08150200000000002,-0.908954,0.185394,0.24205499999999996,0.0029970000000000274,0.9619848040477181,0.986071054564997,double,-0.905957
43,0.358333,stand,-0.07740309612384544,0.10440417616705074,0.012840513620540955,-0.04249076966517295,-0.15489820380482458,0.6736873022271966,0.0001200048001887964,0.002520100804038002,-0.0034801392055683576,-0.007320292811713097,-0.001200048001921272,0.0036001440057596523,3.557084561073565,0.3888311058662441,-0.0720057603461003,-0.043203456207814,0.17281382483125363,0.14401152069118356,-1.8001440086406533,-0.5328426265577078,0.5040403224192298,-0.12157900000000002,0.15970399999999996,-0.906093,0.063753,-0.08238200000000007,-0.909031,0.18533200000000002,0.24208600000000002,0.002937999999999996,0.9634559155611877,0.9862575435927015,double,-0.906093
44,0.366667,stand,-0.1041516678665715,0.09647228221741241,-0.0007199424046016899,0.08906216699002492,-0.0951728810980582,0.6594730477112349,0.0009599232061444676,0.002399808015361169,-0.004079673626109824,0.005519558435324028,0.00311975041996952,-0.0002399808015352843,-3.2095718433796536,-0.9517511338658884,-1.6271245530528715,0.10078214614298901,-0.01443397992282609,-0.07193837539494434,1.5406588969326989,0.5183343438793842,-0.4607781146262218,-0.120703,0.15892000000000006,-0.9061210000000001,0.064667,-0.08315999999999996,-0.909027,0.18537,0.24208000000000002,0.002905999999999964,0.9628907992170612,0.9894254027146601,double,-0.9061210000000001
45,0.375,stand,-0.08556342253690066,0.11196447857915216,0.002280091203647101,-0.040203514091619076,-0.14211802997671472,0.5496602662690726,0.0008400336013482268,0.002280091203647101,-0.004200168006720316,-0.007440297611901943,-0.001080043201725821,0.0045601824072958675,2.230678666707174,1.8591379289259315,0.3600184337272049,-0.014387328068671684,-0.014366592069370982,-0.014459904069421797,-1.555244935464539,-0.5039953944192189,0.5760426267648102,-0.11998299999999998,0.15800599999999998,-0.9061750000000001,0.06531800000000001,-0.08410200000000001,-0.909008,0.185301,0.242108,0.0028329999999999744,0.9635826498583315,0.9853447217074949,double,-0.9061750000000001
46,0.383333,stand,-0.09588383535341367,0.09840393615743837,0.024240969638776547,-0.27292005931984414,0.04598542634116896,0.6394398433763151,0.002280091203647101,0.001800072002878589,-0.004680187207487995,0.007200288011517687,0.003480139205568381,-0.0015600624024959984,-1.2384990779446823,-1.6273301838130123,2.635410828648686,0.1728138248288585,-0.057604608276552643,-0.057604608276452716,1.7569405524324573,0.5472437786264507,-0.7344587555252468,-0.119165,0.15720100000000004,-0.906416,0.06617699999999999,-0.08489299999999994,-0.909223,0.18534199999999998,0.24209399999999998,0.002807000000000004,0.9627492188347325,0.9864200606450154,double,-0.906416
47,0.391667,stand,-0.09011279097672198,0.09839212862971468,0.011039116870661378,-0.2923039706945125,-0.22271247057309657,0.6446808553363546,0.0016798656107528183,0.0019198464122889352,-0.004559635229182058,-0.0002399808015327865,0.0016798656107461574,0.00191984641228727,0.692469927608794,-0.0014167899836437185,-1.5840956045254566,-0.07202130944255845,0.014371779386890571,0.014465080190297217,-0.89276083669912,-0.21601555013465584,0.41755565332172606,-0.11839999999999998,0.156397,-0.9065460000000001,0.06692600000000001,-0.08569900000000003,-0.9092990000000001,0.185326,0.24209600000000003,0.0027530000000000054,0.9637620802107496,0.9957295103383661,double,-0.9065460000000001
48,0.4,stand,-0.09168366734669191,0.11916476659066573,0.0003600144005730508,0.16498159596899825,-0.13724397591173837,0.5269699444129414,0.0016800672026831191,0.0015600624025009842,-0.0038401536061439066,-0.008760350414018623,-0.002280091203647086,0.005880235209408404,-0.18851270490458683,2.4928162679648342,-1.28154355815292,2.419199931606886e-05,-0.04317580820688221,0.0863412484145144,-1.0224852529084123,-0.47521382628023845,0.4752656662811853,-0.11762200000000003,0.15541700000000003,-0.9065810000000001,0.06761699999999998,-0.08671100000000004,-0.909253,0.18523900000000001,0.24212800000000007,0.0026719999999998967,0.965825843772318,0.9820092831506456,double,-0.9065810000000001
49,0.408333,stand,-0.09840393615744836,0.08112324492979858,-0.027481099243973996,-0.04140252649474864,-0.07718275509623394,0.6435067397601867,0.0010800432017324826,0.0015600624024876715,-0.003840153606144765,0.00648025921036825,0.004320172806916608,-0.0014400576023038704,-0.8064645158714108,-4.565165205912305,-3.3410672800368553,-0.07200576034449034,-1.5975880997857967e-12,-1.0299465255484549e-13,1.8289463127789407,0.7920633638021973,-0.8784702762165238,-0.11679299999999998,0.15475399999999995,-0.906384,0.068491,-0.08735100000000001,-0.909036,0.18528399999999998,0.24210499999999996,0.0026519999999999877,0.9663410871244577,0.9867994719788755,double,-0.906384
50,0.416667,stand,-0.10127189824813809,0.10967122630189219,-0.005279577633794572,0.11280958372020367,0.050832337425063545,0.5136636945001486,0.0009599232061444676,0.0014398848092167015,-0.0039596832253417655,-0.0010799136069091957,0.0009599232061378068,0.0029997600191981307,-0.34412792064911596,3.425483725953153,2.663969475663475,-0.014413246410848924,-0.014420157579910001,-0.014342406911087182,-0.9071481662199951,-0.4031976962777535,0.5327354957405804,-0.11594099999999999,0.153852,-0.906373,0.069326,-0.08825700000000003,-0.908967,0.185267,0.24210900000000002,0.002593999999999985,0.9668577989339369,0.9944506691762658,double,-0.906373
51,0.425,stand,-0.09252370094804076,0.09588383535341367,0.026761070442827887,-0.34361141287226904,-0.14900418748673877,0.6197211060656043,0.0014400576022988744,0.0008400336013415652,-0.004200168006720316,-0.000480019200768512,0.0015600624025009946,0.0022800912036479337,1.0498256690384444,-1.6545530959412635,3.8450315704575226,0.057618432275819996,-0.07198502434599037,-0.028859328138551663,0.07199020834521604,0.0720195843469566,-0.08636371241452043,-0.11515800000000001,0.15305999999999997,-0.9066310000000001,0.07009300000000002,-0.08904299999999998,-0.9091710000000001,0.18525100000000003,0.24210299999999996,0.0025399999999999867,0.9670684305837218,0.9953264844811557,double,-0.9066310000000001
52,0.433333,stand,-0.08724348973958987,0.11148445937836958,0.004200168006721121,0.00507057129861247,-0.13058083995887346,0.5366515765782609,0.0003600144005797124,0.0,-0.004560182407295837,-0.0016800672026897807,0.0014400576022988647,0.002400096003840046,0.6336506910417457,1.8721497689854603,-2.7074165889963604,-0.12961036862104372,-0.10080806448356674,-0.043203456207310656,-0.1440115206913793,-0.01440115207033835,0.014401152069136166,-0.11442799999999997,0.15213100000000002,-0.9067040000000001,0.07080600000000001,-0.08995999999999998,-0.909186,0.18523399999999998,0.242091,0.0024819999999999842,0.9675560476208867,0.9945591941642749,double,-0.9067040000000001
53,0.441667,stand,-0.08339332853371459,0.11123110151188102,-0.016438684905214124,-0.004101766632200568,0.030412843539074152,0.5024310063813999,0.001439884809216711,0.001919846412288948,-0.004679625629950147,-0.0015598752099814399,0.0013198944084519821,0.0021598272138234013,0.4619823861141471,-0.03040051193767202,-2.47646423229366,0.12957408310979177,0.2303631404234412,-0.014332040155304886,0.014421885374171049,-0.014418429787243003,-0.02882994840612503,-0.11372099999999999,0.15122000000000002,-0.906606,0.071488,-0.09087599999999996,-0.909031,0.18520899999999998,0.24209599999999998,0.0024250000000000105,0.966984858411,0.9950445917553115,double,-0.906606
54,0.45,stand,-0.09000360014400546,0.10128405136206209,0.013440537621504923,-0.10873657842710376,-0.15340904822673077,0.5872483009957322,-0.0007200288011527632,0.002400096003842544,-0.0034801392055683576,-0.0016800672026897807,0.0003600144005730508,0.002520100804032173,-0.7932643238078539,-1.1936937657288962,3.585650129211439,-0.2592000012443856,0.057632256276682337,0.1439441286909618,-0.014423616069643626,-0.11519020855381344,0.0432345602074607,-0.112977,0.15039599999999997,-0.906747,0.07222399999999998,-0.09171700000000005,-0.909122,0.18520099999999998,0.24211300000000002,0.002375000000000016,0.9691026867533854,0.9949164906487695,double,-0.906747
55,0.458333,stand,-0.10692427697107945,0.09780391215648772,-0.02004080163206872,0.11107280666695342,-0.09221682937826849,0.4760786201376579,-0.000240009600384256,0.0012000480019146184,-0.0034801392055675484,-0.00936037441497599,-0.000480019200768512,0.002160086403455806,-2.0305624417465533,-0.41763341000532567,-4.017921427285939,0.057604608276552074,-0.1440115206921791,9.711370473337123e-14,-0.9216737324236445,-0.10080806448356712,-0.04320345620741243,-0.112088,0.14959099999999992,-0.906609,0.07303699999999999,-0.09253600000000006,-0.908937,0.18512499999999998,0.24212699999999998,0.0023279999999999967,0.9705715836037724,0.9839693868478638,double,-0.906609
56,0.466667,stand,-0.09863210943124746,0.0967122630189552,0.005999520038396261,-0.08603007413738019,-0.1750582413144373,0.49657825189533233,-0.0007199424046083507,0.0015598752099880903,-0.0035997120230384233,-0.004559635229182891,0.0009599232061444676,0.0029997600191981307,0.9949805063393304,-0.13098741751050064,3.1245886333651254,-0.05758732952052967,0.043175810903944276,-0.014347590289281835,0.5760426188856606,0.17277926648823833,0.10075277366718549,-0.11127199999999998,0.14879799999999999,-0.906689,0.073821,-0.09333400000000003,-0.9089619999999999,0.18509299999999998,0.24213200000000001,0.0022729999999999695,0.970622223766657,0.9907638563004899,double,-0.906689
57,0.475,stand,-0.09900396015840567,0.0975639025560968,0.005760230409222144,-0.11058157434868857,-0.07618663319501372,0.4912586086929899,-0.00120004800192128,0.0016800672026831304,-0.003720148805952637,-0.002280091203647101,0.001320052802110077,0.0010800432017283193,-0.044623872213872866,0.10220083249029142,-0.028715904137059652,-0.05761497627660272,0.014423616068047566,-0.01445299206938846,0.273556225313308,0.04321728020708153,-0.23037523310570215,-0.110457,0.147999,-0.906768,0.074627,-0.094136,-0.909001,0.185084,0.242135,0.0022329999999999295,0.9705788771945956,0.9952542859643595,double,-0.906768
58,0.483333,stand,-0.08664346573862923,0.09948397935918352,0.023400936037434827,-0.20087020988308488,-0.11264086319230017,0.49859305794392766,-0.0001200048001887964,0.0010800432017324755,-0.0028801152046077218,-0.0033601344053762307,0.0003600144005797124,0.0032401296051841034,1.4833186631196909,0.23041843310772914,2.1169693541596795,0.12961036862264239,-0.07200576034449208,0.10080806448396877,-0.1296103686222399,-0.11520921655230537,0.25922073724418276,-0.10973599999999997,0.14717899999999995,-0.906987,0.075321,-0.09496200000000005,-0.9091689999999999,0.18505699999999997,0.242141,0.0021819999999999062,0.9730494926443518,0.9921971242037153,double,-0.906987
59,0.491667,stand,-0.09407247420206458,0.09947204223661721,-0.0227981761458978,0.12560606443678146,-0.1265396285368888,0.408016262679032,-0.0005999520038436226,0.0005999520038436226,-0.002879769618430905,-0.0032397408207342476,0.0013198944084453126,0.0014398848092158688,-0.8914097028360138,-0.0014323401207472816,-5.54344998600103,-0.057589057313993976,-0.0576063352398431,4.146702385611237e-05,0.014446074471080279,0.11517638683292528,-0.21601209454862405,-0.108957,0.146355,-0.906821,0.076078,-0.09578000000000003,-0.9089670000000001,0.185035,0.24213500000000004,0.0021460000000000923,0.9735364018865672,0.9936949512957235,double,-0.906821
60,0.5,stand,-0.10872434897395805,0.09036361454458244,0.001320052802110077,-0.055122842065364185,-0.00680039342334479,0.45912353468796124,-0.00036001440057305316,-0.0008400336013415652,-0.002640105604224318,-0.002880115204607741,0.001800072002878589,0.0025201008040321897,-1.758295304439399,-1.0930550452459844,2.8943032458907885,0.02879366413903397,-0.17280518482961615,0.02876083213807603,0.0431568002071892,0.05762361627664439,0.12963110462214372,-0.10805399999999998,0.14559500000000003,-0.906854,0.07696,-0.09651800000000005,-0.908957,0.18501399999999998,0.24211300000000008,0.002102999999999966,0.9743136350546748,0.9929513139778783,double,-0.906854
