frame_id,timestamp,gait_type,root_linear_velocity_x,root_linear_velocity_y,root_linear_velocity_z,root_angular_velocity_x,root_angular_velocity_y,root_angular_velocity_z,left_linear_velocity_x,left_linear_velocity_y,left_linear_velocity_z,right_linear_velocity_x,right_linear_velocity_y,right_linear_velocity_z,root_acceleration_x,root_acceleration_y,root_acceleration_z,left_acceleration_x,left_acceleration_y,left_acceleration_z,right_acceleration_x,right_acceleration_y,right_acceleration_z,left_pos_rel_x,left_pos_rel_y,left_pos_rel_z,right_pos_rel_x,right_pos_rel_y,right_pos_rel_z,step_length,step_width,step_height,left_contact_prob,right_contact_prob,support_type,max_foot_height
1,0.008333,stand,-0.08124324972996719,-0.0061202448097922675,-0.009840393615761132,0.028805795023700165,0.08212728108173911,-0.16183441338233354,-0.0013200528021100738,0.0007200288011519335,0.0006000240009573077,-0.001200048001901292,-0.002040081603264505,0.000840033601341563,0.0,0.0,0.0,0.0,0.0,0.0,0.0,0.0,0.0,0.10540999999999989,0.021619,-0.9123549999999999,-0.126293,0.0020349999999999986,-0.904234,0.23170299999999988,0.019584,0.008120999999999934,0.9973017445571404,0.914604142658431,double,-0.904234
2,0.016667,stand,0.009359251259901906,0.04055675545956341,-0.050995920326361605,-0.14937238744939133,0.32827913056320446,-0.16490082808562473,0.0008399328053730795,-0.0002399808015361171,0.0005999520038436232,-0.00035997120230084524,0.0002399808015361171,-0.0008399328053730795,10.87143040435194,5.600791968965162,-4.93826814382055,0.25917753869488275,-0.11519193696760864,-8.638962525139657e-06,0.1008011518599048,0.2735856017279364,-0.20157984241836363,0.10533899999999985,0.021278999999999996,-0.911925,-0.126374,0.0016989999999999991,-0.903816,0.23171299999999984,0.019579999999999997,0.008109000000000033,0.998233789123604,0.9173353243992515,double,-0.903816
3,0.025,stand,-0.04188167526702925,0.005040201608064367,-0.005400216008649077,-0.11535393008823319,0.057601143440707055,0.011334927333847576,-0.0020400816032561785,0.0001200048001921277,-0.0013200528021167354,0.0004800192007551876,-0.0007200288011519335,-0.0010800432017258185,-6.14915714951772,-4.2621569484578234,5.471703386260953,-0.3456155536576573,0.043200000207397664,-0.23040979310696733,0.10080288048194322,-0.11520576055298819,-0.028814400138334216,0.10567100000000007,0.021237999999999996,-0.911891,-0.12602099999999994,0.0016509999999999997,-0.9037799999999999,0.231692,0.019586999999999997,0.00811100000000009,0.9959452108218971,0.9165833952168846,double,-0.9037799999999999
4,0.033333,stand,-0.11220448817951616,0.010560422416896411,0.03324132965319605,0.16194635891164222,-0.5269979134368501,-0.25285800427758387,0.0004800192007685108,0.0013200528021125718,0.0008400336013482247,-0.00024000960039091698,0.00024000960038383904,-0.0003600144005797139,-8.439075112502929,0.6624529951796525,4.637170966260066,0.3024241934507007,0.14401152069128093,0.259220737245285,-0.0864069124140291,0.11520921655295481,0.0864069124140291,0.10660999999999998,0.021161000000000003,-0.912161,-0.1250880000000001,0.0015650000000000004,-0.9040600000000001,0.23169800000000007,0.019596000000000002,0.008100999999999914,0.9972722545507804,0.9181653458887025,double,-0.9040600000000001
5,0.041667,stand,-0.04763618910486929,0.01583873290136791,-0.02783777297816294,-0.09134442495456621,-0.10000738232474492,-0.04567192510009083,-0.00035997120230084524,0.0004799616030714016,-0.0009599232061444684,-0.00023998080151613468,-0.001319894408447395,-0.0015598752099814307,7.747576082870993,0.6333465904093468,-7.328906003282815,-0.10079078510551426,-0.10080287965456805,-0.21597753869602745,3.4555885267945327e-06,-0.18717350717917375,-0.14397177938585512,0.10700399999999999,0.021033,-0.911937,-0.12469299999999994,0.0014219999999999997,-0.903841,0.23169699999999993,0.019611,0.008095999999999992,0.9981133547052128,0.9156109886810151,double,-0.903841
6,0.05,stand,-0.05100204008161763,0.006600264010560361,0.010800432017271508,-0.16929647179227772,0.2633366452484037,0.10979068082571859,0.00012000480018213529,0.0,0.0007200288011527661,-0.00012000480020878171,0.0014400576023042833,-0.0013200528021100738,-0.40391827394075824,-1.1086606133214385,4.6367700702549435,0.05759942427492866,-0.05759769627641925,0.20160230496786685,0.014397696064724944,0.331207489589785,0.028779840138168356,0.10743000000000003,0.020978,-0.912021,-0.12426899999999996,0.0013790000000000018,-0.9039419999999999,0.231699,0.019599,0.008079000000000058,0.9987833988298951,0.9159479682326696,double,-0.9039419999999999
7,0.058333,stand,-0.18528741149645864,-0.02040081603264131,0.0606024240969612,0.12966205786472748,-0.3985583411820092,0.061806073698749964,-0.0019200768030607199,0.0007200288011519335,-0.0006000240009639692,0.00012000480020878171,-0.0008400336013440611,-0.00012000480019545849,-16.114889165347535,-3.2402592155528223,5.97647810868711,-0.2448195851725495,0.0864069124147286,-0.1584126727609187,0.0288023041422733,-0.2736218893133739,0.14401152069058146,0.10895800000000011,0.021154,-0.912531,-0.12272399999999983,0.0015420000000000017,-0.9044479999999999,0.23168199999999994,0.019611999999999997,0.008083000000000062,0.9964389587954141,0.9177416571805739,double,-0.9044479999999999
8,0.066667,stand,-0.0829133669306452,0.0004799616030718179,-0.009959203263718887,0.21783575712712694,-0.3177726352065977,-0.13331318822152388,0.0005999520038303016,0.001199904007679753,0.0005999520038436232,0.0009599232061178252,-0.00263978881689479,0.007079433645312124,12.283902635686756,2.5054928768554268,-8.466717945845941,0.3023792664856037,0.05758041834987035,0.14398560172877278,0.10078214613739421,-0.2159533495981196,0.8638635043805593,0.10965400000000003,0.02116,-0.9124430000000001,-0.12202500000000005,0.001516,-0.904306,0.23167900000000008,0.019644000000000002,0.00813700000000006,0.9975507062007241,0.9059361346511807,double,-0.904306
9,0.075,step_decsent,0.000840033601354887,0.031441257650306254,-0.027241089643583034,-0.09567168393210684,0.2785726371493019,-0.005086547552551808,-0.0016800672026831276,-0.0001200048001921278,-0.0003600144005797142,0.0001200048002087818,-0.0012000480019200288,-0.004200168006721142,10.050810096243868,3.7155041458339686,-2.0739093219565774,-0.27361324931158415,-0.15839539276033623,-0.11520057655386272,-0.10079424047870444,0.1727758088293247,-1.3536063424976927,0.10963299999999998,0.020897,-0.9122190000000001,-0.122031,0.0012439999999999986,-0.9041140000000001,0.23166399999999998,0.019653,0.008105000000000029,0.9971293451549315,0.911666852091668,double,-0.9041140000000001
10,0.083333,step_decsent,-0.06120244809792512,0.03252130085203369,-0.03576143045723404,-0.156217904371019,0.057261495558691436,-0.20455839494212405,-0.0001200048001954584,0.00012000480019212759,0.0001200048001954584,-0.0004800192007818336,-0.0006000240009602216,-0.0015600624025009894,-7.445395619738384,0.1296103686220371,-1.0224817969099962,0.18721497689759603,0.028802304138276155,0.057604608277351754,-0.07200576034928775,0.07200576034559063,0.31682534552023883,0.11014199999999996,0.020627000000000003,-0.91192,-0.1215250000000001,0.0009680000000000001,-0.903829,0.23166700000000007,0.019659000000000003,0.00809099999999996,0.9996535759815187,0.9161916087150974,double,-0.903829
11,0.091667,step_decsent,-0.030597552195838304,0.05555555555555579,-0.0550755939524823,-0.27267680787609844,-0.05910009299230368,-0.17260708006494974,-0.0009599232061444692,0.0008399328053755779,0.00011999040076472824,-0.00035997120230084556,-0.0005999520038394606,-0.001439884809210043,3.67229372475244,2.7638894532663927,-2.3175142182923296,-0.10078214614218999,0.08638444986602482,-1.727793464141288e-06,0.014404607449122642,8.638963374249236e-06,0.014420157582307004,0.11038900000000007,0.020171,-0.9114599999999999,-0.12127299999999996,0.0005000000000000004,-0.9033819999999999,0.23166200000000003,0.019671,0.00807800000000003,0.9978647551691795,0.9165518806367325,double,-0.9033819999999999
12,0.1,step_decsent,-0.1695667826712931,-0.02124084963398535,0.07488299531980767,0.19823236527659427,-0.4901510863237518,0.020426252974564785,-0.00024000960037759357,-0.0008400336013440605,0.0006000240009639688,-0.00024000960036427038,-0.00048001920076809403,-0.0010800432017324792,-16.676974736044002,-9.21593726023534,15.595654538856339,0.08639308841556163,-0.20160403296767515,0.057606336277359914,0.014395968071111855,0.014392512069046738,0.04318272020611586,0.11180000000000001,0.020341,-0.9120789999999999,-0.11986199999999991,0.000673,-0.904015,0.23166199999999992,0.019668,0.008063999999999849,0.9982335771698199,0.9173499444735551,double,-0.904015
13,0.108333,step_decsent,-0.10368414736589184,-0.0037201488059522146,0.02100084003360571,0.4449934666045101,-0.028612164840757827,-0.08228917142239418,-0.003120124805001984,0.0009600384015361897,-0.0009600384015370224,0.0,-0.001080043201727901,-0.0016800672026831276,7.906232485947597,2.1025682020920615,-6.4661172790354025,-0.3456276496609135,0.21601728103687165,-0.18721497689919506,0.028802304135877903,-0.07200576034559072,-0.07200576034449165,0.1126379999999999,0.020380000000000002,-0.9122619999999999,-0.11899799999999994,0.0006950000000000012,-0.904204,0.23163599999999984,0.019685,0.008057999999999899,0.9943287944002575,0.9160912034527264,double,-0.904204
14,0.116667,step_decsent,-0.02135829133669442,0.01787856971442281,-0.025077993760487582,-0.4673300429817626,0.5395056894902512,0.0980328145801972,-0.0021598272138183914,0.0008399328053755765,0.0011999040076805846,-0.0005999520038436226,-0.0007199424046079344,-0.0014398848092167015,9.878312458506999,2.5916388913336936,-5.52901773387248,0.1152264928226052,-0.014411518617784147,0.2591723553176872,-0.07198848138272403,0.043208638963278895,0.028819581649439152,0.11279799999999995,0.020238000000000003,-0.912043,-0.11882499999999996,0.0005399999999999988,-0.904007,0.2316229999999999,0.019698000000000004,0.008036000000000043,0.9956506353149938,0.916776664854152,double,-0.904007
15,0.125,step_decsent,-0.11016440657626007,-0.00300012000480028,0.019320772830895935,-0.1657009180220219,-0.015215974640732021,-0.011839676157846592,-0.001320052802110075,0.0001200048001921278,-0.0001200048001954586,-0.0006000240009639698,-0.000720028801151934,-0.0016800672026897891,-10.657160115152493,-2.505542988026294,5.3280651135705694,0.1007769604834174,-0.0863948164146705,-0.15839539276083575,-8.640000041660047e-06,-1.0367999999954558e-05,-0.028823040138376083,0.11370499999999995,0.020264000000000004,-0.9122049999999999,-0.11791200000000002,0.0005590000000000005,-0.9041819999999999,0.23161699999999996,0.019705000000000004,0.008023000000000002,0.9977818039708797,0.9165636278367327,double,-0.9041819999999999
16,0.133333,step_decsent,-0.0501620064802627,0.019440777631105518,-0.030001200047985267,0.0761319532684879,0.04333341979336948,-0.16473027963989545,-0.0012000480019146143,0.0007200288011519328,0.0,-0.0001200048002087816,-0.0010800432017278993,-0.0009600384015370207,7.200576034561061,2.6930154369261707,-5.9188735004057555,0.014401152069538044,0.07200576034559036,0.014401152069537801,0.057604608274953534,-0.04320345620736409,0.08640691241482873,0.11411300000000002,0.020108,-0.9119550000000001,-0.11749500000000013,0.00038799999999999946,-0.9039400000000001,0.23160800000000015,0.01972,0.008014999999999994,0.9976675259431075,0.9174332941370434,double,-0.9039400000000001
17,0.141667,step_decsent,-0.13618910487162356,-0.007439404847612571,0.03815694744420941,0.10249276564291407,-0.23523627235001718,-0.06825277612697783,-0.001799856011530874,-0.0007199424046075204,0.0004799616030722354,-0.001199904007660606,-0.001079913606911697,-0.0014398848092167062,-10.322426012882296,-3.225363868336711,8.178323433188725,-0.07197120345767472,-0.17278272207336892,0.05759078510585991,-0.12957753869112396,1.555013393356619e-05,-0.05757696276454123,0.11523300000000003,0.020164000000000005,-0.9122690000000001,-0.11636999999999986,0.0004410000000000004,-0.9042700000000001,0.2316029999999999,0.019723000000000004,0.007998999999999978,0.9966716028763334,0.9164047371455801,double,-0.9042700000000001
18,0.15,step_decsent,-0.12180487219488627,0.012960518420736873,0.017160686427430946,0.05407986945690357,-0.2608986585439241,0.07332332057602702,-0.001800072002878583,0.001080043201727483,-0.00012000480018879679,-0.0001200048002087816,-0.0009600384015357717,-0.0006000240009573072,1.7261769682872046,2.4480887157505613,-2.519652108097737,-2.5919998525024005e-05,0.2160069130367217,-0.0719988483452576,0.12959308861776353,0.014385600069113779,0.10078732848426718,0.11623300000000003,0.020065,-0.9124129999999999,-0.11535600000000001,0.00032500000000000237,-0.9044179999999999,0.23158900000000004,0.019739999999999997,0.007994999999999974,0.9964955767294852,0.9181525575061993,double,-0.9044179999999999
19,0.158333,step_decsent,-0.10272410896435463,0.008880355214208699,0.0008400336013548856,0.39119175642806603,-0.5720854045070287,-0.21701359478651275,-0.0016800672026831248,0.0,0.0012000480019146143,-0.0008400336013282392,-0.0007200288011523493,-0.0016800672026897863,2.289783178990954,-0.4896391703501945,-1.9585566813963813,0.014401152069537758,-0.12961036862204273,0.15841267275931956,-0.08640691241083127,0.028802304138176197,-0.1296103686226423,0.11707500000000004,0.019991,-0.9124099999999999,-0.11450699999999991,0.0002449999999999987,-0.904439,0.23158199999999995,0.019746,0.00797099999999995,0.9965589322504851,0.9169372549673591,double,-0.904439
20,0.166667,step_decsent,-0.07631389488839192,0.06311495080393546,-0.04655627549796671,-0.40103526808184276,-0.054316197635659993,-0.23499763930678874,-0.0021598272138183914,-0.0004799616030714012,0.0002399808015361169,-0.0002399808015427777,-0.0013198944084469777,-0.0013198944084453126,3.1689721713418146,6.507630860298382,-5.687102123748686,-0.057566596008551255,-0.05759078510575963,-0.11519884813756857,0.07200057592818106,-0.07197811462618525,0.04321727792710264,0.11769299999999994,0.019461000000000003,-0.9120199999999999,-0.11387300000000011,-0.0002919999999999971,-0.9040619999999999,0.23156600000000005,0.019753,0.00795800000000002,0.9962908493338624,0.9172833735018493,double,-0.9040619999999999
21,0.175,step_decsent,-0.06804272170889328,0.012360494419777109,-0.02784111364454705,0.15569330864125808,0.16311324942455663,0.030075132608875208,-0.000480019200768512,0.0012000480019196146,0.0010800432017324826,-0.0010800432017191595,-0.001320052802112159,-0.002040081603262845,0.9925804847592302,-6.090778397234907,2.245909258780716,0.20158502496698472,0.2016092169676011,0.10081152048438352,-0.10081152048198536,-1.900800014175989e-05,-0.08642592041492071,0.11825600000000014,0.019367999999999996,-0.9117789999999999,-0.11331499999999983,-0.0004060000000000001,-0.9038469999999998,0.23157099999999997,0.019773999999999996,0.00793200000000005,0.9971927539406296,0.9162481187635261,double,-0.9038469999999998
22,0.183333,step_decsent,-0.07596303852152683,-0.02748109924396974,0.03744149765991716,-0.16120860740163745,0.6713623631681573,0.07669891896581271,-0.001800072002878583,-0.0002400096003834225,-0.0009600384015370207,-0.00036001440057305197,-0.0007200288011523493,-0.0013200528021167343,-0.950476036557488,-4.7811824869490955,7.834226725604722,-0.1584126727601188,-0.17281382482935748,-0.24481958517574723,0.0864069124140294,0.07200576034559093,0.08640691241402979,0.11887400000000004,0.019595,-0.912099,-0.11268499999999992,-0.0001830000000000026,-0.90417,0.23155899999999996,0.019778000000000004,0.007928999999999964,0.996576414502857,0.9181330771777367,double,-0.90417
23,0.191667,step_decsent,-0.19486441084714043,0.008999280057595226,0.0716342692584543,0.1278500419918312,-0.7675548803106093,0.041813581561210664,-0.0039596832253492595,0.0008399328053755765,-0.0009599232061444676,-0.0011999040076872453,-0.0002399808015357006,-0.0017998560115175463,-14.267023317208242,4.377295332561186,4.102804367475055,-0.25913261608719396,0.1295827220733139,1.3822341319069436e-05,-0.10077869055845842,0.05760115186184884,-0.05757177938574653,0.12046500000000004,0.019527000000000003,-0.912704,-0.11107099999999992,-0.0002599999999999998,-0.904782,0.23153599999999996,0.019787000000000003,0.007921999999999985,0.9930665803442167,0.9171526187610508,double,-0.904782
24,0.2,step_decsent,-0.0873634945397623,0.01152046081843259,-0.035761430457207394,-0.03966573917273895,-0.0055807141449700105,-0.06696519400614004,-0.0001200048001954584,-0.0006000240009606379,0.0009600384015370207,-0.0002400096003909168,-0.0018000720028802486,-0.0026401056042201455,12.900625981924641,0.3025537934522216,-12.887999485858826,0.46077984221214424,-0.17280172882949876,0.23040460910614266,0.11519193655302144,-0.18721843289866155,-0.10083398448369116,0.12119199999999986,0.019426,-0.912398,-0.11034500000000014,-0.0003709999999999998,-0.904506,0.231537,0.019797,0.00789200000000001,0.9981025575061968,0.9157393744058532,double,-0.904506
25,0.208333,step_decsent,0.04200168006718484,0.08076323052922137,-0.09972398895956176,-0.5728006438062049,0.5669586717874684,-0.1121781280832128,-0.0030001200047932073,-0.00048001920076767927,-0.000240009600384256,-0.00036001440057305316,-0.0003600144005759676,-0.00036001440057971477,15.524441930510914,8.309464743884428,-7.6758140528446575,-0.34562764965771703,0.014401152069237845,-0.1440115206913812,-0.014401152067939118,0.17281382482950733,0.27362188931242487,0.12081700000000006,0.018749000000000002,-0.9115690000000001,-0.11069799999999996,-0.0010469999999999993,-0.903678,0.23151500000000003,0.019796,0.007891000000000092,0.9949204267774026,0.920050727944576,double,-0.903678
26,0.216667,step_decsent,-0.10571154307654293,0.043196544276458165,-0.032877369810428034,0.03301679935539916,-0.3595415876172139,-0.43615751104006173,-0.0014398848092167015,-0.001199904007679752,0.0002399808015361169,0.0002399808015427777,-0.001679865610751153,-0.002639788816890625,-17.724168843739815,-4.507641738992461,8.020952621686305,0.18721324640946777,-0.08637926648812957,0.057594240691189395,0.07199366476071878,-0.15836947566296905,-0.2735510458736391,0.12168599999999996,0.018378999999999996,-0.9112929999999999,-0.109815,-0.0014210000000000021,-0.9034259999999998,0.23150099999999996,0.019799999999999998,0.007867000000000068,0.9968506487984892,0.9160997396885807,double,-0.9034259999999998
27,0.225,step_decsent,-0.11232449297972484,0.04272170886835454,-0.00180007200286526,0.2471991447882213,-0.4446658673287287,-0.13618624455746942,-0.0026401056042201455,-0.0009600384015353554,-0.0014400576023055312,-0.0002400096003909168,-0.0019200768030719598,-0.0019200768030740415,-0.7935857318111011,-0.056982528273566146,3.729424913904086,-0.1440322566906808,0.02878502413829309,-0.20161267296791632,-0.057601152278134414,-0.028826496138342324,0.08636889641384653,0.12260000000000004,0.018015000000000003,-0.91129,-0.108881,-0.0017929999999999995,-0.903427,0.23148100000000005,0.019808000000000003,0.007863000000000064,0.9947386109692573,0.9168266915910203,double,-0.903427
28,0.233333,step_decsent,-0.14520580823232118,-0.0756030241209646,0.07512300492019859,-0.0739126691439877,0.8712861179367513,0.4280147575927321,-0.0022800912036470937,-0.0003600144005763828,0.00036001440057305197,-0.00036001440057305197,-0.001680067202688121,-0.002040081603262838,-3.945915666938235,-14.199535940155892,9.231138476306707,0.04320345620701446,0.07200576034549047,0.21601728103667128,-0.014401152067938927,0.02880230413822616,-0.014401152068738338,0.12379099999999998,0.018642,-0.9119130000000001,-0.10767400000000005,-0.001177000000000001,-0.90407,0.23146500000000003,0.019819,0.007843000000000044,0.9961062597836075,0.9171246000298245,double,-0.90407
29,0.241667,step_decsent,-0.0741540676745871,0.035157187425005856,-0.0361171106311624,0.20158656861520938,0.05041816765397753,-0.07883254614718146,-0.00215982721383172,-0.0009599232061436382,-0.001319894408445317,-0.000479961603085557,-0.0015598752099830998,-0.0013198944084519778,8.525526824782128,13.290162172542683,-13.347746046479632,0.014430524335897988,-0.07198329800423048,-0.20157293124770492,-0.014392512900468602,0.01442188537377268,0.08641555013329277,0.12439099999999992,0.018341,-0.911623,-0.10706000000000016,-0.0014829999999999982,-0.90378,0.23145100000000007,0.019823999999999998,0.007842999999999933,0.9954881552784962,0.9180717087263848,double,-0.90378
30,0.25,step_decsent,-0.08196327853113988,0.03228129125165027,-0.00840033601344227,-0.36854961535654335,-0.021537462173019484,-0.10935464765155473,-0.0021600864034516352,-0.0007200288011519328,-0.0006000240009573072,-0.00048001920075518715,-0.00240009600384047,-0.0021600864034516352,-0.9371427884978732,-0.3451213456564967,3.326145999966412,-3.11039985497546e-05,0.028788480138210146,0.08638790441473769,-6.911996835488485e-06,-0.10083052848402371,-0.10082707248285812,0.12505599999999994,0.018066,-0.9115579999999999,-0.10638100000000006,-0.0017720000000000027,-0.9037279999999999,0.231437,0.019838,0.007830000000000004,0.9960755596483244,0.9162591941642801,double,-0.9037279999999999
31,0.258333,step_decsent,-0.10944437777511415,0.0480019200768029,-0.0427217088683576,0.09819256384865709,-0.49754762983391365,-0.27683865989617695,-0.004560182407294202,0.0,-0.000720028801152768,0.0,-0.0016800672026881264,-0.001680067202689792,-3.297863823829873,1.886550921055163,-4.11872949176952,-0.2880230413827641,0.08640691241472874,-0.014401152069538117,0.057604608274953596,0.08640691241477805,0.05760460827575237,0.12593,0.017666,-0.9112079999999999,-0.10546900000000003,-0.0021860000000000004,-0.9033859999999999,0.23139900000000002,0.019852,0.007821999999999996,0.9923055385968786,0.9178200436270985,double,-0.9033859999999999
32,0.266667,step_decsent,-0.20614350851933125,-0.004439644828413583,0.022798176145924446,0.2277189014564063,-0.1636120569378814,0.09240684063634921,-0.0037197024238064817,-0.001679865610751153,-0.00227981761458978,-0.0002399808015427777,-0.001679865610751153,-0.0014398848092167015,-11.602967451909889,-6.292484389874781,7.861757261132947,0.10084953005612186,-0.20156774787030854,-0.18715968483765424,-0.028795392553728996,2.4189097309025233e-05,0.028819581650238815,0.1276170000000001,0.017689,-0.911417,-0.10375299999999998,-0.0021630000000000017,-0.9035880000000001,0.23137000000000008,0.019852,0.007828999999999975,0.992208319438934,0.9180008493338525,double,-0.9035880000000001
33,0.275,step_decsent,-0.11484459378373582,0.04512180487219486,0.0073202928116964435,-0.2073727665259495,-0.05477020474554539,-0.08556793483199547,-0.0036001440057704774,-0.0003600144005763816,-0.0010800432017324755,-0.0003600144005730508,-0.003000120004799849,-0.0014400576023055264,10.956308020592228,5.94761186854773,-1.8574202969192293,0.014347584067683166,0.15838848076020232,0.14397868869042357,-0.014404608067955427,-0.15843686476043328,-2.073600009900038e-05,0.12854399999999988,0.017309999999999996,-0.9114869999999999,-0.10279900000000008,-0.0025640000000000003,-0.9036609999999999,0.23134299999999997,0.019873999999999996,0.007826,0.9937068951867681,0.9161612465774706,double,-0.9036609999999999
34,0.283333,step_decsent,-0.05304212168487394,0.07524300972038889,-0.05088203528140898,-0.13645840628828526,-0.2663809580152167,-0.5257033586725134,-0.003240129605184125,-0.0010800432017274866,0.000960038401537024,-0.0012000480019279415,-0.0024000960038404783,-0.0016800672026831304,7.416593315596068,3.6146891693500662,-6.984558753522809,0.043203456208610734,-0.0864069124146294,0.24481958517574756,-0.10080806448516655,0.0720057603455385,-0.028802304137478047,0.12895899999999993,0.016674,-0.911055,-0.1023670000000001,-0.003211000000000002,-0.9032509999999999,0.23132600000000003,0.019885000000000003,0.007804000000000033,0.9940870652829735,0.9166834265537517,double,-0.9032509999999999
35,0.291667,step_decsent,-0.13006959443245547,0.009479241660667043,0.012239020878335302,0.049517778422662785,-0.12745637326248896,0.002421889879079962,-0.0032397408207342476,-0.0025197984161267296,-0.002039836813053663,-0.00035997120230084497,-0.0004799616030714012,0.0011999040076739237,-9.242557325123766,-7.891020885495774,7.573920825503266,4.66504019531424e-05,-0.17275680518349432,-0.3599562292525419,0.10080115186310244,0.2303976962765869,0.3455688997308677,0.13001600000000002,0.016574000000000002,-0.9111739999999999,-0.10128599999999999,-0.0032939999999999983,-0.903343,0.231302,0.019868,0.007830999999999921,0.9923612393989354,0.9194541108936387,double,-0.903343
36,0.3,step_decsent,-0.09312372494898474,0.029881195247809893,-0.010320412816516345,-0.05775365582941329,0.3981576608985397,-0.03138817570974992,-0.004320172806903284,-0.0016800672026881264,-0.001560062402494333,-0.0010800432017191595,-0.004200168006720316,-0.0008400336013415652,4.43368168528391,2.448332363751698,-2.707240332995524,-0.1296570246212696,0.10077177648369198,0.057575232276410815,-0.08641209641405452,-0.44644262614291663,-0.24480230517406626,0.13075599999999998,0.016311000000000003,-0.9111009999999999,-0.10051900000000002,-0.003577999999999998,-0.903264,0.231275,0.019889,0.007836999999999983,0.991848600395104,0.9142676405779053,double,-0.903264
37,0.308333,step_decsent,-0.12888515540621803,0.023520940837633616,-0.04020160806431931,-0.003719889263797586,-0.375176141126677,-0.14585286322664,-0.004440177607112037,-0.0008400336013440577,-0.0010800432017324755,-0.0016800672026831191,-0.0024000960038404622,0.0018000720028785772,-4.291543316600641,-0.7632610596635366,-3.585886865210949,-0.014401152071133086,0.10080806448386719,0.0576046082757537,-0.07200576034608869,0.21601728103682302,0.31682534552023656,0.13179299999999994,0.016108,-0.910775,-0.09945899999999996,-0.0037940000000000022,-0.902914,0.2312519999999999,0.019902000000000003,0.007861000000000007,0.9922563059791827,0.9156591512532973,double,-0.902914
38,0.316667,step_decsent,-0.1271898248140229,0.004679625629949731,0.02711783057356141,0.11579523020093196,-0.07975709791750936,-0.022107223963491428,-0.004919606431480438,0.0005999520038394636,-0.0010799136069092029,-0.0005999520038436266,-0.0029997600191981506,0.000959923206144474,0.20342339719164038,-2.260776962765058,8.077686421632002,-0.05752685677566643,0.17278444986603425,1.555013478193428e-05,0.1296034555842931,-0.0719539255288807,-0.10080979082482697,0.13281200000000004,0.016073999999999998,-0.9110100000000001,-0.09840399999999994,-0.0038580000000000003,-0.903132,0.23121599999999998,0.019932,0.007878000000000052,0.9915460917575292,0.9158762718118989,double,-0.903132
39,0.325,step_decsent,-0.1252850114004609,-0.017280691227649244,-0.011280451218053295,0.050710292982411635,0.22032285927430342,0.27413774246062433,-0.002280091203647086,-0.0028801152046077218,-0.0016800672026897807,-0.0019200768030740352,0.0031201248049919765,0.0036001440057638156,0.22858675309756574,-2.635343436649332,-4.60797813411911,0.31675449751990176,-0.4176247700044607,-0.07202131234616288,-0.15842131276015878,0.7344155555250331,0.3168391695211005,0.1338370000000001,0.016194000000000004,-0.91093,-0.09737599999999991,-0.0036880000000000003,-0.903008,0.231213,0.019882000000000004,0.007921999999999985,0.9932677176368232,0.9122192837477312,double,-0.903008
40,0.333333,step_decsent,-0.13728549141963456,0.005880235209408443,0.03540141605663446,-0.29642613577156074,-0.2402488635866397,0.10421967910270825,-0.004680187207489661,-0.0014400576023047033,-0.0019200768030673862,-0.0004800192007818352,0.0006000240009602237,0.002640105604220154,-1.4401152069091203,2.779422349340903,5.60204815488874,-0.28802304138276497,0.1728138248293558,-0.02880230413747823,0.17281382482805754,-0.30242419345154914,-0.11520921655390182,0.1349419999999999,0.016132999999999998,-0.911241,-0.09623600000000021,-0.003731999999999999,-0.903281,0.2311780000000001,0.019864999999999997,0.007959999999999967,0.9912338065519382,0.9158172409946866,double,-0.903281
41,0.341667,step_decsent,-0.12838972882170932,-0.0015598752099830946,-0.00011999040075806724,0.20243399020161368,0.22359979981743594,0.11232613564546763,-0.002879769618433403,-0.0007199424046075181,0.00011999040076472805,0.00035997120232748815,-0.00035997120230375903,0.002399808015361169,1.0674061192614868,-0.8927418309805052,-4.262227796663366,0.21603282806050586,0.08640691117076849,0.244788481381343,0.10079078511030988,-0.11519020917494381,-0.028833403990758913,0.135988,0.016139999999999998,-0.911239,-0.09516299999999989,-0.0037219999999999996,-0.90326,0.23115099999999988,0.019861999999999998,0.00797900000000007,0.9950486287484397,0.9161213174345433,double,-0.90326
42,0.35,step_decsent,-0.16032641305652312,0.03684147365894624,0.019200768030713834,-0.14488443165767972,-0.22205241601990688,-0.21778527539689474,-0.0025201008040246953,-0.0010800432017283193,0.0,-0.0007200288011727528,-0.0008400336013440632,-0.0006000240009639708,-3.832555410394081,4.608346198119456,2.3185837551268387,0.043161984208413356,-0.04321382420746456,-0.014399424068730151,-0.12960518462741433,-0.0576097922765277,-0.3599942417286868,0.13730300000000006,0.015823999999999998,-0.911399,-0.09383300000000006,-0.004035999999999998,-0.9034249999999999,0.23113600000000012,0.019859999999999996,0.007974000000000037,0.995430353350627,0.9181622983955728,double,-0.9034249999999999
43,0.358333,step_decsent,-0.11556462258490857,0.006960278411136299,-0.02364094563782574,0.21131146044676055,0.5132868577796625,-0.051833024600316455,-0.004320172806916579,-0.0008400336013440577,-0.0003600144005730508,-0.00012000480018213478,0.0006000240009598033,0.0003600144005797124,5.371629721782595,-3.585886865211786,-5.141211288676274,-0.2160172810382667,0.028802304138276807,-0.04320345620701419,0.07200576034928782,0.17281382482945642,0.11520921655390365,0.13823000000000008,0.015759,-0.9112049999999999,-0.09287099999999993,-0.004088999999999999,-0.903225,0.231101,0.019847999999999998,0.007979999999999987,0.9926403578171165,0.9190167367128488,double,-0.903225
44,0.366667,step_decsent,-0.19762419006478912,-0.009119270458363284,0.05039596832254458,0.07312810946623766,-0.31537052716835773,-0.11836416312414433,-0.004919606431480405,0.0005999520038402923,0.00035997120230084497,0.0005999520038436226,-0.0014398848092150361,-0.0016798656107528183,-9.846360388754556,-1.9293915130189065,8.883718977726211,-0.07192628084519143,0.17278444986613256,0.08639136103598453,0.08638790545065475,-0.24476947566292748,-0.2447660200782972,0.13983600000000007,0.015840000000000003,-0.911622,-0.09121899999999994,-0.004024999999999997,-0.903659,0.231055,0.019865,0.007963000000000053,0.9917181508516011,0.9165493110202063,double,-0.903659
45,0.375,step_decsent,-0.10332413296531895,0.022920916836673546,-0.03384135365416011,-0.4037857214763243,0.004529548602139962,0.011727362891063237,-0.006720268810759168,0.0037201488059518044,0.000240009600384256,0.0,0.001080043201727903,-0.002040081603262845,11.316459510316863,3.844976274455407,-10.10888299252429,-0.2160881290386136,0.3744385937971343,-0.01439596806871346,-0.07199712034604874,0.3024034574514515,-0.043227648207131604,0.14064100000000002,0.01568,-0.911338,-0.09035799999999994,-0.004206999999999999,-0.9033939999999999,0.23099899999999995,0.019887,0.007944000000000062,0.9871916775498242,0.9167127692984396,double,-0.9033939999999999
46,0.383333,step_decsent,-0.2086883475338941,-0.02640105604224151,0.014760590423628412,0.6003048227976233,-0.36301254242518705,0.0025684920576284713,-0.00408016320652569,0.002880115204608574,0.0001200048001954588,0.000960038401537024,0.0,-0.003480139205568381,-12.644211516689715,-5.918873500409838,5.832466587998158,0.316825345521839,-0.10080806448376725,-0.014401152068738448,0.11520921655310529,-0.12961036862209357,-0.17281382482965793,0.14234599999999997,0.015924,-0.9114599999999999,-0.088611,-0.003987000000000001,-0.903546,0.23095699999999997,0.019911,0.007913999999999977,0.9916738036335488,0.9148431157420327,double,-0.903546
47,0.391667,step_decsent,-0.12526997840173312,0.03767698584113247,-0.024478041756670604,-0.1675156323551189,-0.09569458125688937,-0.2769669482734187,-0.006719462443011273,0.0038396928245737075,-0.0002399808015361169,-0.0011999040076872453,-0.0008399328053755765,-0.0014398848092167015,10.00940354357582,7.68874992601079,-4.708259200899805,-0.3166905731324191,0.11514010318756092,-0.04319481662245925,-0.2591723553184866,-0.10078387393515427,0.2448109426867864,0.14333399999999996,0.015642,-0.9112579999999999,-0.08757700000000002,-0.004307999999999999,-0.903354,0.23091099999999998,0.01995,0.007903999999999911,0.9870952197384901,0.9175368253002423,double,-0.903354
48,0.4,step_decsent,-0.1440057602304194,0.05148205928237135,-0.0009600384015370176,-0.14608672007363654,-0.4064003800378111,-0.09783401588467126,-0.0075603024120873595,0.0039601584063360335,-0.0009600384015370176,0.0014400576023188495,-0.0061202448097922415,-0.0015600624024943227,-2.2483837547925343,1.6566750799518568,2.8222732935477604,-0.10090483248242922,0.014456448069401832,-0.08641036841484431,0.316808065523351,-0.6336627870414787,-0.014421888068837239,0.14447100000000013,0.015245999999999996,-0.9112579999999999,-0.0863649999999998,-0.004788000000000001,-0.9033589999999999,0.23083599999999993,0.020033999999999996,0.00789899999999999,0.9856857975638496,0.9102132724698817,double,-0.9033589999999999
49,0.408333,step_decsent,-0.1201248049921769,0.041641665666626776,-0.05436217448695737,0.020537887501180525,-0.28350373987548505,-0.32174446854831257,-0.006000240009599738,0.004200168006720316,0.001080043201725821,-0.0008400336013548883,-0.005160206408256507,-0.00408016320652569,2.8658292617595764,-1.1808944696681387,-6.408512670757289,0.18721497689759095,0.028802304138279496,0.24481958517494823,-0.27362188931642184,0.11520921655295051,-0.3024241934515029,0.14542199999999994,0.014933999999999996,-0.9107960000000002,-0.08537100000000009,-0.005178000000000002,-0.9029400000000001,0.23079300000000003,0.020111999999999998,0.007856000000000085,0.987660948985811,0.9103869563745364,double,-0.9029400000000001
50,0.416667,step_decsent,-0.1491480681545601,0.06575473962083025,-0.026877849772018448,-0.33965614833569635,0.0026427167974258305,-0.16829868939875983,-0.011399088072962223,0.00035997120230417536,-0.0009599232061444676,-0.0005999520038436226,-0.002039836813054912,-0.0033597312215056367,-3.4825129784477062,2.893337407511814,3.297855137381677,-0.6478099428080729,-0.46078675358964927,-0.2447763868334877,0.028807487102383664,0.37441439827232925,0.08644492260859765,0.14656999999999998,0.014388999999999999,-0.9105800000000002,-0.08413300000000001,-0.005743000000000002,-0.9027440000000001,0.230703,0.020132,0.007836000000000065,0.9809248386694362,0.9150133135245999,double,-0.9027440000000001
51,0.425,step_decsent,-0.16032641305652312,-0.014520580823233332,0.009360374414952676,0.43722288327970404,-0.0917478628317446,-0.04571913948391791,-0.008760350414015352,0.006600264010560378,0.001320052802110077,-0.0012000480019279415,-0.0015600624024959984,-0.003120124804995328,-1.3414550464374222,-9.633423790239265,4.348760852870661,0.3166611855210462,0.7488650915944098,0.27360806531315857,-0.0720144003461323,0.05757523227636085,0.028753920138042642,0.147833,0.014565000000000002,-0.910647,-0.08280700000000007,-0.005634999999999998,-0.9028479999999999,0.23064000000000007,0.0202,0.007799000000000111,0.9815873108529142,0.9158615836037598,double,-0.9028479999999999
52,0.433333,step_decsent,-0.15840633625344802,0.007440297611904808,0.006240249610003937,0.06137857818104162,0.08830649883020496,0.03339967833472634,-0.008040321612855868,0.0038401536061439066,0.0009600384015370176,-0.002640105604220137,-0.0018000720028802425,-0.0037201488059459505,0.2304184331063352,2.6354108286497118,-0.3744299537919988,0.0864069124156343,-0.33122649758987877,-0.04320345620701524,-0.17281382482805582,-0.028802304138274698,-0.07200576034448819,0.14908600000000005,0.014534999999999996,-0.9106910000000001,-0.08150900000000005,-0.005712000000000002,-0.902931,0.2305950000000001,0.020246999999999998,0.0077600000000001,0.9850635396606006,0.9142265463651846,double,-0.902931
53,0.441667,step_decsent,-0.17674586033118142,0.02555795536357081,-0.02363810895128436,-0.022377724604124932,-0.152490879129087,-0.10103229838410568,-0.0075593952483844025,0.006479481641469371,0.005279577633794607,-0.0004799616030589154,-0.002159827213822985,-0.0023998080153611848,-2.200566843980502,2.1739450145987647,-3.585116218057171,0.05770654721279918,0.3166940287167602,0.5183032436114247,0.25919654441579476,-0.043167171939374194,0.1584282206125238,0.15049600000000007,0.014376000000000003,-0.91045,-0.08003999999999989,-0.005943,-0.9027540000000001,0.23053599999999996,0.020319000000000004,0.007695999999999925,0.9812174668275505,0.9175998470087454,double,-0.9027540000000001
54,0.45,step_decsent,-0.16836673466939125,0.02856114244569796,-0.008520340813651023,0.09834908831637783,0.014153666325871332,-0.06539096030985533,-0.004680187207489629,0.006120244809791825,0.007440297611898562,0.0010800432017191524,0.0032401296051841034,0.004200168006721121,1.0055353008268488,0.36039686572988566,1.814204744705781,0.3455187856587977,-0.043110144207073625,0.2592967692432433,0.1872080648959632,0.6480207391104124,0.7920288038020253,0.1518600000000001,0.014188999999999997,-0.9103169999999999,-0.07862799999999992,-0.006154000000000003,-0.9026479999999999,0.23048800000000003,0.020343,0.007669000000000037,0.9821487957624891,0.9142874442428593,double,-0.9026479999999999
55,0.458333,step_decsent,-0.1285251410056192,0.019560782431297295,-0.0327613104524143,-0.048705263775201624,0.09993203241704873,-0.03444019161580982,-0.001920076803074048,0.006000240009600571,0.009360374414979321,-0.000960038401537024,-0.00168006720268771,-0.00360014400576384,4.781182486952136,-1.0800864051842898,-2.909032717960319,0.3312264975897742,-0.01440115206903332,0.2304184331070159,-0.24481958517414873,-0.5904472348340125,-0.9360748844935775,0.1529149999999999,0.014075999999999998,-0.9099659999999999,-0.0775650000000001,-0.006331,-0.9024049999999999,0.23048000000000002,0.020406999999999998,0.00756100000000004,0.9811949929620449,0.9175779729725431,double,-0.9024049999999999
56,0.466667,step_decsent,-0.20398368130549954,0.0014398848092150361,0.011519078473733612,0.25271044751078253,-0.18424919708135162,-0.02646133837600959,-0.002399808015361169,0.0038396928245737075,0.00683945284376934,-0.0004799616030589122,-0.002879769618430905,-0.004799616030715677,-9.054300491946275,-2.174333767948433,5.313221613408672,-0.05756314042322063,-0.25924492260941456,-0.3024863896340267,0.057604607448777455,-0.14395277366728987,-0.14392512898390158,0.15459499999999993,0.014095999999999997,-0.9100050000000001,-0.07586899999999996,-0.006367000000000001,-0.902541,0.2304639999999999,0.020463,0.007464000000000026,0.9863292247334547,0.9159969891122992,double,-0.902541
57,0.475,step_decsent,-0.1616464658586332,0.03924156966278672,-0.02112084483378788,-0.027595217088154943,0.08799108025860691,-0.11615355704539912,-0.00240009600384256,0.00708028321132889,0.012120484819394935,-0.0012000480019279415,-0.001200048001920031,-0.005040201608062714,5.080669080387188,4.536383637774124,-3.9169474748015802,-3.4560000166900464e-05,0.38888640186669754,0.6337491870425546,-0.08641382441726043,0.2015746569675841,-0.02887142413861007,0.1559219999999999,0.013828,-0.9097280000000001,-0.07453200000000004,-0.006704000000000002,-0.9024070000000001,0.23045399999999994,0.020532,0.007321000000000022,0.9762655300226847,0.9179262375270363,double,-0.9024070000000001
58,0.483333,step_decsent,-0.2072482899316005,0.025801032041281532,-0.003960158406356851,0.09707452855836174,-0.0843339784882472,-0.02623362998326835,-0.0007200288011461016,0.009240369614784635,0.011280451218046633,-0.0018000720028919003,-0.0036001440057600686,-0.004920196807873884,-5.472437786267502,-1.6129290317418854,2.0593647458815503,0.20161612896873293,0.25922073724417805,-0.10080806448437513,-0.07200576034608859,-0.2880230413824586,0.014401152068742299,0.15764299999999998,0.01369,-0.9096009999999999,-0.0728200000000001,-0.006949,-0.902415,0.23046300000000008,0.020639,0.007185999999999915,0.9756671545839417,0.917545238098997,double,-0.902415
59,0.491667,step_decsent,-0.18970482361411722,-0.00035997120230375903,-0.024838012958944805,-0.05058263042723856,-0.12386108478315748,0.05642733805428346,-0.0016798656107461574,0.011519078473721954,0.014998800095997316,-0.0027597792176486924,-0.0034797216222703644,-0.005519558435324028,2.105047554293647,-3.1390692636891364,-2.505142134939757,-0.11517120345573013,0.2734231892173407,0.4461661720603166,-0.11515565331854946,0.014449530056359981,-0.07191764188266654,0.15921000000000007,0.013789,-0.9092690000000001,-0.07126199999999994,-0.006975000000000002,-0.9022540000000001,0.230472,0.020764,0.0070149999999999935,0.9683563626865254,0.9180424730668647,double,-0.9022540000000001
60,0.5,step_decsent,-0.14400576023039371,0.019680787231489007,-0.03720148805952637,-0.07647383024450015,0.16784104374078299,0.05274808675434218,-0.0031201248050019893,0.01152046081843263,0.016320652826109422,-0.002880115204611072,-0.00396015840633606,-0.0066002640105637085,5.484106970325648,2.4049872115435993,-1.4836763591241562,-0.1728380168313735,0.00016588800080116384,0.15862867276036358,-0.01444089607132843,-0.05765472027669472,-0.12968985662302696,0.16038399999999986,0.013721,-0.908823,-0.07008600000000009,-0.007171999999999998,-0.901999,0.23046999999999995,0.020893,0.006824000000000052,0.9663011743965666,0.91806273717487,double,-0.901999
61,0.508333,step_decsent,-0.20628825153006347,0.011040441617664877,-0.0163206528261293,0.06363680379981654,-0.14952889990045337,0.0009298027371800849,-0.0013200528021100684,0.011520460818432552,0.018720748829951856,-0.004080163206538986,-0.005280211208448184,-0.006840273610941258,-7.474197923877295,-1.0368829489768503,2.505800460026039,0.21601728103827114,-9.36788148553414e-15,0.2880230413827462,-0.14401152069217676,-0.15841267276036458,-0.02880230413747127,0.1620919999999999,0.013724999999999998,-0.908531,-0.06840100000000016,-0.0073079999999999985,-0.9019199999999998,0.23049300000000006,0.021032999999999996,0.0066110000000001445,0.9632981232078603,0.9179632836900489,double,-0.9019199999999998
62,0.516667,step_decsent,-0.20590352771778986,0.01859851211903045,0.010919126469890062,0.4895924126144035,0.0630808943978037,-0.1532374328510371,0.014878809695226026,0.019678425725942566,0.01595872330214189,-0.0064794816414685385,-0.002879769618430924,-0.010199184065275046,0.04616316441968024,0.9068959084911945,3.2685120345595773,1.943708003040099,0.978877478702911,-0.33141655001319686,-0.2878951805771018,0.28802994840620033,-0.40303701155913213,0.16393199999999997,0.013734000000000003,-0.9084889999999999,-0.0667390000000001,-0.007487000000000001,-0.902096,0.23067100000000007,0.021221000000000004,0.006392999999999871,0.9510300470120108,0.9153670673712687,double,-0.902096
63,0.525,step_decsent,-0.16152646105844998,0.02376095043801745,-0.061562462498497963,-0.21768601144181415,0.12524729256830305,-0.008551796749923343,0.0006000240009639668,0.009120364814592507,0.023880955238203334,-0.004200168006721121,-0.003000120004799849,-0.01272050882035216,5.325461017561466,0.6195173789735966,-8.698138601750596,-1.713522824224409,-1.267017990081605,0.950705860561792,0.27352857731278146,-0.014442624069233722,-0.3025710734521905,0.16528300000000007,0.013612000000000003,-0.9077770000000001,-0.06542800000000004,-0.007709999999999998,-0.901689,0.2307110000000001,0.021322,0.006088000000000093,0.9573828051707197,0.9162402736530213,double,-0.901689
64,0.533333,step_decsent,-0.16740669626785645,0.024360974438977997,-0.055082203288130495,-0.2555070394893191,0.06182029228066395,0.11916937973345933,-0.005760230409222182,0.008640345613824114,0.02844113764551121,-0.004200168006721177,-0.004680187207488443,-0.01260050402016353,-0.7056564513868391,0.07200576034567992,0.7776622117325727,-0.7632610596647315,-0.057604608276538766,0.547243778628095,-6.76569218399697e-15,-0.2016161289677918,0.014401152068718342,0.16663000000000006,0.013480999999999996,-0.907081,-0.06406800000000001,-0.007952,-0.901335,0.23069800000000007,0.021432999999999997,0.005746000000000029,0.9495373037321249,0.9190690803366298,double,-0.901335
65,0.541667,step_decsent,-0.1497480201583761,0.006479481641468453,-0.037796976241908184,0.048245911312569445,0.1534002676865084,0.08864581090542303,-0.030117590592752496,0.014038876889848591,0.025077993760494074,-0.0019198464122622792,-0.0069594432445402666,-0.014878809695225826,2.118871623407754,-2.145607487102161,2.07406132064101,-2.9226494100708096,0.6477719313684229,-0.40354498260344485,0.27361670199890575,-0.2734888453385897,-0.2733748110225916,0.16762699999999997,0.013543999999999997,-0.906557,-0.06283599999999989,-0.008063999999999998,-0.901144,0.23046299999999986,0.021607999999999995,0.005413000000000001,0.930616502552593,0.9183070095928032,double,-0.901144
66,0.55,step_decsent,-0.256450258010326,-0.03516140645625788,0.005400216008649055,0.38164069392115346,-0.35786955272111715,-0.21446714796933097,-0.06276251050041258,0.014520580823233235,0.041401656066247246,-0.004200168006721121,-0.008160326413056739,-0.015360614424572296,-12.804780733463273,-4.997106455985378,5.1838704248838425,-3.9175470908028256,0.057806784277528125,1.9589178334037085,-0.2736495373165525,-0.14411174469176374,-0.05781888027678714,0.16924100000000009,0.013957999999999998,-0.906257,-0.060733999999999844,-0.007839000000000002,-0.9013169999999999,0.22997499999999993,0.021797,0.0049400000000000555,0.8723712293321599,0.9207773383168337,double,-0.9013169999999999
67,0.558333,step_decsent,-0.19740789631584202,-0.012600504020161033,-0.024240969638790032,0.393660434273391,-0.009893130369064121,-0.0790265440898502,-0.05544221768871687,0.013920556822272783,0.031441257650304436,-0.003480139205575066,-0.00828033121324856,-0.014400576023042132,7.085366818010863,2.707416588995206,-3.557084561075166,0.8784702762145418,-0.07200576034566868,-1.1952956217380177,0.08640691241402396,-0.014401152069101385,0.11520921655228272,0.1704239999999999,0.014178999999999997,-0.905793,-0.059118000000000004,-0.007803000000000001,-0.901235,0.2295419999999999,0.021981999999999998,0.004557999999999951,0.891267733411144,0.9261331831016493,double,-0.901235
68,0.566667,step_decsent,-0.13858891288697003,0.037077033837292765,-0.07247420206384021,-0.4325081882311702,-0.10134366672435446,-0.19586040290790432,-0.059995200383962215,0.010679145668347139,0.03851691864650987,-0.0013198944084453037,-0.009719222462203095,-0.015598752099834173,7.057713394393033,5.9608276766802755,-5.787524889014856,-0.5463142182919738,-0.3889382234132013,0.8490113986327551,0.2592086389644523,-0.17265313762353302,-0.14376962764483214,0.17107899999999998,0.013959000000000003,-0.9048679999999999,-0.05797399999999997,-0.008193000000000002,-0.9007609999999999,0.22905299999999995,0.022152000000000005,0.004106999999999972,0.8798493856845198,0.9282195930780915,double,-0.9007609999999999
69,0.575,step_decsent,-0.17088683547343153,-0.015840633625345178,-0.023640945637826056,-0.013206697708593248,0.02370854037846626,-0.027470723783738202,-0.11304452178087207,-0.0063602544101769975,-0.010320412816516415,-0.0006000240009639748,-0.007320292811712362,-0.01464058562342639,-3.8759057466052793,-6.350374110481031,5.860225180128958,-6.366173214557823,-2.0448098018149876,-5.860714204131373,0.08638790441393682,0.28788307338182584,0.11498457655199708,0.17156100000000007,0.014037999999999998,-0.9047569999999999,-0.05655499999999991,-0.008122,-0.9006859999999999,0.22811599999999999,0.02216,0.004071000000000047,0.8105121840509444,0.9319905564236691,double,-0.9006859999999999
70,0.583333,step_decsent,-0.1196447857914209,0.013920556822272598,-0.04044161766468358,-0.22571499934549477,0.2315644423945398,-0.07787172214131433,-0.048001920076797586,0.008520340813632704,0.08952358094324028,-0.0003600144005730508,-0.005280211208448184,-0.0152406096243835,6.14929193351859,3.571485713142644,-2.016161289674481,7.805424421465764,1.7857428565714195,11.981758521511614,0.028802304139076324,0.24481958517510738,-0.07200576034526676,0.17215800000000003,0.013993000000000002,-0.9036740000000001,-0.05556099999999997,-0.008281999999999998,-0.900476,0.227719,0.022275,0.003198000000000034,0.8301041815672141,0.9411310089391542,double,-0.900476
71,0.591667,step_decsent,-0.16426685865130108,-0.01691864650827906,-0.04223662107032965,0.20148976831652676,0.03937773892301369,-0.08106301733729818,-0.028797696184307192,0.015478761699063618,0.13582913366930138,0.00035997120230084253,-0.009719222462203095,-0.02183825293975985,-5.354220405553137,-3.700408366996811,-0.21538317802328474,2.304322521297126,0.834943710754843,5.556221829380939,0.08639136103598366,-0.5326387393514371,-0.7916538655359129,0.17328699999999997,0.014262999999999998,-0.90219,-0.05418900000000004,-0.008222,-0.9003059999999999,0.227476,0.022484999999999998,0.0018840000000001078,0.7671525718736921,0.9413164812186325,double,-0.9003059999999999
72,0.6,step_decsent,-0.13200528021122176,-0.02328093123724967,-0.042121684867393906,-0.25205295537469075,-0.08339562655045041,0.04352883308303262,-0.0295211808472437,0.031441257650306934,0.16044641785671965,-0.0010800432017191667,-0.0075603024120966195,-0.013080523220932045,3.871544274580537,-0.7635047076647866,0.013792896068131728,-0.08682163241767843,1.9155761371947029,2.954192270181026,-0.1728086408280358,0.25908076924354917,1.0509696050435477,0.174141,0.014719000000000003,-0.9005019999999999,-0.05309799999999987,-0.008091000000000001,-0.900064,0.22723899999999986,0.022810000000000004,0.00043799999999993844,0.7230969593867952,0.9703753771614805,double,-0.900064
73,0.608333,step_decsent,-0.13980559222367164,-0.03300132005280209,-0.023400936037434827,0.22037550470434128,0.0900441776362462,-0.01043120727208485,-0.06576263050521909,0.04452178087123422,0.16860674426976885,-0.0010800432017457988,-0.006960278411136299,-0.014640585623426194,-0.936074884489361,-1.1664933175989896,2.2465797227839914,-4.349147924874024,1.5697255755342892,0.979278340699528,-3.195982878255049e-12,0.072005760345652,-0.18721497689837296,0.17475799999999986,0.015365,-0.8989020000000001,-0.051942000000000155,-0.007873999999999999,-0.899991,0.2267,0.023239,0.0010889999999998956,0.6784872082297878,0.9729219894320215,double,-0.8989020000000001
74,0.616667,step_decsent,-0.17818574514041147,-0.028797696184305496,0.04451643868489336,0.9679639663695481,0.13894737739439944,0.04856666645257184,-0.07043436525078084,0.05183585313174997,0.18382529397648026,-0.0035997120230351165,-0.004679625629949731,-0.010079193664503655,-4.605249930014404,0.5043945126585815,8.149433012038466,-0.5605633244014608,0.8776184617849525,1.8260798784151062,-0.30233607166898635,0.27365644122709154,0.5473232492107708,0.17565600000000003,0.016037000000000003,-0.8977409999999999,-0.05048699999999995,-0.007672999999999999,-0.9004459999999999,0.22614299999999998,0.023710000000000002,0.0027049999999999574,0.6336709679018854,0.9805315805860536,double,-0.8977409999999999
75,0.625,step_decsent,-0.15120604824190706,0.006720268810752461,-0.016080643225711736,0.03604309174095326,-0.11016187954996273,-0.20787930438624042,-0.0822032881315172,0.0667226689067561,0.2088083523340948,-0.005160206408258139,-0.005280211208448184,-0.010320412816516277,3.2376931355459373,4.262326292458636,-7.271940706900858,-1.4123272387779084,1.7864893525748307,2.998086926390789,-0.18726681689943786,-0.07207315234590789,-0.02894745613976012,0.17623099999999992,0.016537000000000003,-0.8958670000000001,-0.04927000000000015,-0.007772999999999999,-0.900398,0.22550100000000006,0.024310000000000002,0.004530999999999952,0.5644969454667581,0.978851104488718,double,-0.8958670000000001
76,0.633333,step_decsent,-0.14088563542541743,0.03744149765990621,-0.021000840033605604,0.13692983422109264,0.05428483629078576,-0.3088291424601928,-0.08916356654266723,0.072122884915396,0.23112924516980382,-0.005760230409222106,-0.005160206408256473,-0.01272050882035216,1.2384990779418676,3.6866949296956224,-0.5904472348366552,-0.8352668200108007,0.648051843110509,2.6786142848564642,-0.07200576034608958,0.014401152069087974,-0.28802304138195994,0.17666199999999987,0.016826,-0.8937660000000001,-0.04814400000000019,-0.008128,-0.900329,0.22480600000000006,0.024954,0.0065629999999999855,0.504342287392069,0.9751885258850872,double,-0.8937660000000001
77,0.641667,step_decsent,-0.12107031437485521,-0.0011999040076793436,-0.004319654427663454,-0.06699087764110076,0.20379795307340406,0.04500623018564567,-0.09719222462202808,0.0855531557475405,0.24082073434125845,-0.007199424046070233,-0.005519558435324898,-0.011279097672184248,2.3776483142023435,-4.6365972723285065,2.001582146141378,-0.9633619005712613,1.6115035795709836,1.162885669720984,-0.1726894212680748,-0.04311879374471157,0.17295550134004323,0.17686099999999993,0.017549,-0.8917229999999998,-0.0471950000000001,-0.008163999999999998,-0.9003869999999998,0.22405600000000003,0.025712999999999996,0.008664000000000005,0.45765451191341217,0.9758755957923441,single,-0.8917229999999998
78,0.65,step_decsent,-0.14532581303252948,0.011040441617664877,-0.043801752070076465,0.1760647903665297,-0.34160818038063934,-0.17600078840474287,-0.10308412336492734,0.09708388335533431,0.25465018600744077,-0.007680307212296141,-0.009120364814592923,-0.010200408016320819,-2.910776269971698,1.4689002310505423,-4.7380412387390916,-0.7070561313931643,1.3837426626417582,1.6596005839652306,-0.05770828827863983,-0.43211405007416426,0.12944793662107573,0.17721300000000006,0.018266,-0.8892359999999999,-0.04604800000000009,-0.008332000000000003,-0.900107,0.22326100000000015,0.026598000000000004,0.010871000000000075,0.4056680215855708,0.9738478545108982,single,-0.8892359999999999
79,0.658333,step_decsent,-0.12096483859353259,-0.027601104044162144,0.004920196807867288,0.2155888573128751,-0.015602034474575189,0.058129385715992375,-0.11304452178088539,0.12540501620064884,0.2896915876635058,-0.0060002400095864545,-0.00936037441497647,-0.009360374414979384,2.923433870034455,-4.637170966257935,5.8468677400629065,-1.1952956217398472,3.3986718883133067,4.205136404184007,0.201616128970323,-0.028802304138191317,0.10080806448355252,0.17727899999999985,0.019541,-0.886863,-0.045090000000000074,-0.00818,-0.900226,0.22236899999999993,0.027721,0.013363000000000014,0.36636999999999986,0.9757767272975744,single,-0.886863
80,0.666667,step_decsent,-0.12634989200866145,0.03179745620350364,-0.012958963282936905,0.04853685013085224,-0.061916478383359855,-0.20959383428540534,-0.1429085673146068,0.15034797216222553,0.3176145908327322,-0.006239500839925676,-0.00659947204223651,-0.0017998560115175344,-0.6461547174380635,7.127257049155907,-2.1453275846897113,-3.58339879214317,2.9929152821666074,3.35049234091987,-0.028709002920472744,0.33128178218621773,0.9071896332447554,0.1771410000000001,0.020528999999999995,-0.8841079999999999,-0.04408899999999982,-0.0085,-0.9001329999999998,0.22122999999999993,0.029028999999999996,0.016024999999999956,0.3397499999999999,0.984568801116831,single,-0.8841079999999999
81,0.675,step_decsent,-0.12180487219488587,-0.018720748829953105,-0.00408016320651234,0.28809982912504345,0.04240328655354404,0.043423320361878986,-0.15912636505460745,0.21816872674906906,0.3826953078123106,-0.004920196807893869,-0.009000360014400795,-0.008280331213246783,0.5454241946208529,-6.062427101098828,1.0654986291161082,-1.9462135773431637,8.138816103065311,7.809998437486875,0.15832281675648646,-0.2881180813829684,-0.777688131732776,0.17683000000000004,0.022502999999999995,-0.880885,-0.043115000000000014,-0.008419000000000003,-0.9001680000000001,0.21994500000000006,0.030921999999999998,0.01928300000000005,0.30717000000000005,0.9780291416481397,single,-0.880885
82,0.683333,step_decsent,-0.10332413296531964,0.012720508820352746,-0.0002400096003909192,0.2983671693523578,0.06378502375797024,-0.14472674324572074,-0.22548901956078019,0.2072482899315999,0.4105364214568629,-0.006840273610941349,-0.002280091203647949,-0.0064802592103682935,2.217777418644713,3.773101842110421,0.46083686620922304,-7.96383709422457,-1.310504838289842,3.3410672800375116,-0.23041843310302382,0.8064645158709838,0.2160172810366622,0.17581200000000008,0.024124000000000003,-0.877462,-0.04231099999999999,-0.008544,-0.90022,0.21812300000000007,0.032668,0.022758000000000056,0.27242,0.9838426213619618,single,-0.877462
83,0.691667,step_decsent,-0.08783297336212495,0.021238300935924975,0.001799856011530856,0.31348860129120376,0.06627373664224653,-0.17213238658391866,-0.27057835373170025,0.2343412526997818,0.4150467962562951,-0.006479481641468453,-0.006719462443004568,-0.006239500839932337,1.8587904491474172,1.0220532896054912,0.24476429228722815,-5.410287277528164,3.2508954605449567,0.5412016797974726,0.04329157301090633,-0.5326819341680568,0.028888693356846053,0.17428900000000003,0.0259,-0.8740180000000001,-0.04163300000000003,-0.008777,-0.9002870000000001,0.21592200000000006,0.034677,0.026268999999999987,0.23731000000000013,0.9812867969517811,single,-0.8740180000000001
84,0.7,step_decsent,-0.10920436817472395,0.007440297611904491,-0.00432017280692996,0.23833856667213796,-0.0021178269648089846,-0.09997870407185108,-0.31069242769710503,0.2960518420736861,0.39781591263651056,-0.0010800432017191667,-0.011640465618624835,-0.0064802592103682935,-2.5646699643104762,-1.655826631947751,-0.7344328355287258,-4.813881431105862,7.40556694754649,-2.0677887459239996,0.6479585311111646,-0.5905440028345508,-0.028892160138720636,0.17261000000000004,0.028305000000000004,-0.8706669999999999,-0.04073199999999999,-0.008936,-0.9003049999999999,0.21334200000000003,0.037241,0.029638000000000053,0.20362000000000002,0.977722663947814,single,-0.8706669999999999
85,0.708333,step_decsent,-0.08652346093843377,-0.04236169446777843,-0.019800792031677672,0.3289688912224197,-0.24775986727387284,0.20483807023862083,-0.3456138245529799,0.33337333493339544,0.3934957398295887,-0.004920196807867223,-0.011520460818432552,-0.008880355214210751,2.721817741064453,-5.9764781086862735,-1.8577486169143942,-4.190735252115051,4.478758293496839,-0.5184414744896022,-0.4608368662124133,0.014401152069156566,-0.28802304138274903,0.17045100000000002,0.031436,-0.867223,-0.040051999999999977,-0.008679,-0.900214,0.210503,0.040115,0.03299099999999999,0.17009000000000007,0.9744075714957775,single,-0.867223
86,0.716667,step_decsent,-0.08279337652988651,-0.000839932805375571,-0.014278857691382209,0.33942969791272604,-0.04627971225774402,0.03037938404965938,-0.356611471082321,0.3749700023998055,0.35985121190304853,-0.004079673626120621,-0.006479481641468869,-0.006719462443004568,0.4475743230798214,4.982212822462508,0.66257911450629,-1.319612014559757,4.991200799905176,-4.037020389553624,0.1008547134325168,0.6048691117067009,0.2592863896335693,0.168169,0.034568,-0.8641049999999999,-0.03939599999999999,-0.008726000000000001,-0.9001509999999999,0.207565,0.043294,0.03604600000000002,0.13953999999999978,0.9830213700689543,single,-0.8641049999999999
87,0.725,step_decsent,-0.08280331213246894,-0.010200408016320954,0.02616104644186409,0.23678338753769407,0.29113405545012533,0.14293022138025846,-0.3970958838353578,0.4392175687027517,0.33913356534261624,-0.0022800912036471162,-0.00828033121324856,-0.0020400816032628585,-0.001192320002691836,-1.1233019573917518,4.852982615294212,-4.858323863318996,7.710016357007895,-2.486217035933335,0.2159585290379841,-0.21611059303728633,0.561548162695518,0.16554999999999986,0.038313,-0.861497,-0.03872500000000012,-0.008709999999999999,-0.900386,0.20427499999999998,0.047022999999999995,0.03888900000000006,0.11110999999999993,0.9852875115551807,single,-0.861497
88,0.733333,step_decsent,-0.06600264010561001,0.011760470418816808,0.024840993639753676,0.06365334140921725,0.09949989472867993,0.014391612272819803,-0.4503780151205904,0.5198607944317754,0.3084123364934538,0.000480019200781832,-0.03156126245049781,0.04056162246489902,2.016161289674651,2.6354108286496665,-0.15841267276015952,-6.3941115186886295,9.677574190450416,-3.686694929696667,0.33122649759137607,-2.793823501409955,5.112408984538785,0.16234700000000002,0.042547,-0.8591340000000001,-0.038170999999999955,-0.009071,-0.900255,0.20051799999999997,0.051618,0.04112099999999996,0.08879000000000037,0.9143393497104981,single,-0.8591340000000001
89,0.741667,step_decsent,-0.05195584353253302,0.014998800095992419,0.024598032157428833,0.2793547195776654,0.33884993157951654,0.07682060258088202,-0.49316054715623725,0.5923926085913157,0.2667386609071326,0.0013198944084453212,-0.0023998080153588954,0.0020398368130536766,1.6854807503092235,0.38856847578301285,-0.029153045635330516,-5.133493164824467,8.703121449428938,-5.000441035075764,0.10077696276259827,3.499094604648318,-4.6222444986615745,0.1586700000000001,0.047359,-0.8571160000000001,-0.037726999999999844,-0.009216,-0.9004430000000001,0.19639699999999993,0.056575,0.043327000000000004,0.06672999999999996,0.9943083555432559,single,-0.8571160000000001
90,0.75,step_decsent,-0.05676227049081288,0.022200888035521463,-0.002880115204611053,0.12087184506857666,-0.048236829232750106,0.06446652489817127,-0.5431417256690281,0.6199447977919096,0.21360854434177323,0.0,0.004200168006720288,0.009480379215168056,-0.5767943067658515,0.8642851241484476,-3.2975095838281256,-5.997981340788505,3.3063949598696465,-6.375869022604003,-0.15839366476002828,0.7920288038016507,0.8929008042858932,0.154617,0.05234,-0.8553120000000001,-0.0372539999999999,-0.009366000000000001,-0.9003400000000001,0.1918709999999999,0.061706000000000004,0.04502800000000007,0.049719999999999875,0.982718105062421,single,-0.8553120000000001
91,0.758333,step_decsent,-0.04944197767908979,0.07116284651386023,0.002400096003829221,0.12671346395538455,-0.004665105252109255,-0.20306611121449633,-0.5661826473058899,0.659066362654503,0.1698067922716901,-0.004200168006721121,-0.00684027361094438,0.0016800672026897807,0.8784702762178159,5.875670044202396,0.6336506910404718,-2.7650211972712926,4.694775574534175,-5.256420505230163,-0.5040403224194292,-1.324905990359369,-0.9360748844927689,0.15031099999999986,0.057239,-0.853917,-0.03687700000000005,-0.010016,-0.900346,0.1871879999999999,0.067255,0.04642899999999994,0.03571000000000002,0.986331973628328,single,-0.853917
92,0.766667,step_decsent,-0.05183585313177495,0.005999520038396718,0.026397888168959712,0.22640248590185358,0.17016321297163206,0.2448996494871609,-0.5819534437244945,0.7055435565154823,0.1323494120470328,-0.003119750419976201,-0.004919606431485433,0.0064794816414685385,-0.2872420749562248,-7.818973659162935,2.8795046994397198,-1.8923441826979568,5.576817117948107,-4.494526064873712,0.12963973923025268,0.23046162460510652,0.5758836619604975,0.14589300000000016,0.063069,-0.8530340000000001,-0.03647099999999992,-0.010106999999999998,-0.9005120000000001,0.18236400000000008,0.07317599999999999,0.04747800000000002,0.025220000000000353,0.9854780766821541,single,-0.8530340000000001
93,0.775,step_decsent,-0.04920196807869887,0.021360854434177408,0.036001440057598186,0.05500257611701496,-0.16172351679999522,0.1826227728338142,-0.5985839433577442,0.714628585143403,0.07632305292211962,0.0038401536061480703,0.038041521660866225,0.007560302412094021,0.3160788495231093,1.843433864848269,1.1524723255296332,-1.9957397855813783,1.0902470452322899,-6.723432032270844,0.8352218920105895,5.1555415927458865,0.12970368062228224,0.14131499999999986,0.06884599999999999,-0.8526980000000001,-0.03602900000000009,-0.009968,-0.900749,0.17734399999999995,0.078814,0.048050999999999955,0.019489999999999896,0.93504141655906,single,-0.8526980000000001
94,0.783333,step_decsent,-0.046561862474506,0.03888155526221101,0.014040561622455754,0.07687408335112524,-0.30088757877054534,0.12507311174334929,-0.6198247929917223,0.780871234849401,0.08004320172806663,-0.005400216008649127,-0.018840753630145486,-0.008640345613826612,0.31682534551696834,2.102568202092135,-2.635410828650262,-2.5490039162340445,7.949435942157522,0.44643571414221095,-1.1088887093240467,-6.8261460807646985,-1.9441555293316668,0.13653799999999994,0.075029,-0.852148,-0.035686000000000107,-0.010449000000000002,-0.900938,0.17222400000000004,0.085478,0.04879,0.0121,0.9643009530699004,single,-0.852148
95,0.791667,step_decsent,-0.0711543076553949,0.05507559395248309,0.02807775377970551,-0.03728048923530627,-0.11724991956116813,0.10262349186748407,-0.617710583153348,0.801295896328288,0.03095752339813223,-0.008279337652972665,-0.005039596832253217,0.008039356851456533,-2.950857353118397,1.9431291924972354,1.6843283126049493,0.253684885814048,2.4507633164011087,-5.889810214774901,-0.345466959962025,1.6560063352402403,2.001404183499282,0.13198299999999996,0.081248,-0.8521240000000001,-0.035161999999999916,-0.010949999999999998,-0.901105,0.16714499999999988,0.092198,0.04898099999999994,0.010190000000000032,0.9790121578322745,single,-0.8521240000000001
96,0.8,step_decsent,-0.06864274570983014,0.09012360494419759,0.0067202688107324765,-0.012406780170901077,-0.03560277346148716,0.04936111679933768,-0.600504020160805,0.8279131165246578,-0.009960398415936565,0.02904116164644815,-0.020160806432257383,-0.03216128645145678,0.30139948944734796,4.20592955618797,-2.5630007163054054,2.064870153911318,3.194194191332017,-4.910347031569498,4.478639061492939,-1.8146177367099605,-4.824270167156263,0.12755099999999997,0.087396,-0.8522629999999999,-0.034348000000000045,-0.011869000000000001,-0.9014289999999998,0.16189900000000002,0.099265,0.04916599999999993,0.008340000000000125,0.9203445696210732,single,-0.8522629999999999
97,0.808333,step_decsent,-0.0658826353054021,0.08820352814112639,0.04260170406817575,-0.05921592221816382,0.01987969608838854,0.05006544829111924,-0.6131045241809765,0.8636745469818866,-0.03564142565702561,-0.06288251530060887,-0.0021600864034560284,0.0486019440777622,0.3312264975912718,-0.2304184331058703,4.305944468671979,-1.5121209672592895,4.291543316600158,-3.0818465427924253,-11.031282484946342,2.160172810368597,9.691975342520067,0.12299099999999985,0.093858,-0.852915,-0.0343230000000001,-0.012622,-0.9013789999999999,0.15731399999999995,0.10647999999999999,0.04846399999999995,0.01535999999999993,0.8674918695163322,single,-0.852915
98,0.816667,step_decsent,-0.07331413486922661,0.11507079433645238,0.03743700503960734,-0.30717194176827267,-0.15362649954548235,-0.006842907245129271,-0.5903527717782309,0.9229661627069753,-0.05735541156707827,-0.020518358531307884,0.005879529637628997,0.011999040076792443,-0.8917086109700567,3.223814038316029,-0.6197143062837014,2.7299918889783363,7.114424733031944,-2.6054698716165694,5.083292148944164,0.9646767507901325,-4.391997120346709,0.11868200000000018,0.10059099999999999,-0.8537050000000002,-0.033882999999999885,-0.013532,-0.901591,0.15256500000000006,0.11412299999999999,0.04788599999999987,0.02114000000000016,0.9591905216502776,single,-0.8537050000000002
99,0.825,step_decsent,-0.04956198247929923,0.09276371054842271,0.028321132845302424,-0.15774366437128448,-0.03793206671548201,0.22648210739362587,-0.6324252970118992,0.9169566782671401,-0.07872314892595655,-0.0996039841593803,-0.04368174726989137,-0.024480979239167627,2.8503723016833793,-2.6769571328488992,-1.09394842125345,-5.048904984239615,-0.7211669794594063,-2.5642310523075103,-9.490654701556839,-5.947591132547801,-4.377777429012409,0.11382500000000007,0.107459,-0.854597,-0.0343,-0.014669000000000001,-0.902031,0.14812500000000006,0.122128,0.047433999999999976,0.025660000000000238,0.8141956894899509,single,-0.854597
100,0.833333,step_decsent,-0.0799231969278568,0.10836433457338261,0.03396135845434202,-0.25733895964632403,-0.3500087252227679,0.18331842577847338,-0.5891035641425695,0.9467178687147455,-0.12588503540141818,-0.013320532821309464,-0.021600864034561244,0.0212408496339832,-3.643491473485832,1.8721497689859399,0.6768541472506386,5.1988158969554235,3.5714857131411577,-5.659652763165899,10.354428337701965,2.6498119807188334,5.486838938335609,0.10958199999999985,0.114445,-0.855929,-0.033745000000000136,-0.015752000000000002,-0.902137,0.14332699999999998,0.130197,0.046207999999999916,0.03792000000000029,0.9448434648060462,single,-0.855929
101,0.841667,step_decsent,-0.06647468202545731,0.10703143748500044,0.019078473722104514,-0.10779719496068157,-0.04421480562075642,0.2963239359668762,-0.5979121670266284,0.9385649148068078,-0.16714662826973445,-0.013198944084453037,-0.016558675305975303,0.03407727381809507,1.613692692872496,-0.15993485581739453,-1.7858033036041987,-1.0569477902638431,-0.9782762068559666,-4.950995064592747,0.014589481264270007,0.6050142462906051,1.5402476822788305,0.10515300000000005,0.121375,-0.857481,-0.0333009999999998,-0.016782000000000002,-0.902012,0.13845399999999985,0.138157,0.04453099999999999,0.05469000000000013,0.9331323354239747,single,-0.857481
102,0.85,step_decsent,-0.08856354254169113,0.1375255010200422,0.021480859234361077,-0.16432539305995647,0.07612051765390469,0.18088386443165536,-0.5863434537381484,0.9671186847474,-0.20052802112084403,-0.016080643225738597,-0.01524060962438516,0.03312132485299424,-2.6507692927197914,3.6594340015651095,0.28829779338252554,1.3883011266626757,3.426589456449356,-4.005927379228355,-0.3458177296634568,0.15817420875916888,-0.11471846455068276,0.10100500000000001,0.128288,-0.859331,-0.032696999999999976,-0.018055,-0.901915,0.133702,0.146343,0.042584000000000066,0.07415999999999989,0.9335861998047685,single,-0.859331
103,0.858333,step_decsent,-0.06876275051001228,0.1352454098163916,0.02844113764551083,-0.2053181659757409,0.1566585616969421,0.28657861235158033,-0.5813032521300913,0.9803192127685044,-0.23052922116884653,0.00792031681266041,-0.009000360014400587,-0.00252010080403134,2.3761900914051086,-0.2736218893136444,0.8352668200107674,0.6048483869023354,1.5841267276016238,-3.6002880172809757,2.880230413824422,0.7488599075944494,-4.277142164529632,0.09673399999999988,0.13533,-0.861489,-0.03205800000000014,-0.019257,-0.902173,0.12879200000000002,0.154587,0.04068400000000005,0.09316000000000002,0.9795815438291582,single,-0.861489
104,0.866667,step_decsent,-0.07043436525079416,0.13606911447084347,0.002039836813047016,-0.39767536396059927,-0.30044869350147696,0.3303559955321294,-0.5772738180945436,0.9911207103431803,-0.2678185745140418,0.0220782337413229,-0.0263978881689466,-0.049676025917929904,-0.20057772267601293,0.09883665160209587,-3.1679026676822613,0.4834934047933402,1.2960760228792798,-4.474364452267275,1.6988141263094039,-2.0875363756354828,-5.65825835299962,0.09251000000000009,0.142456,-0.8637379999999999,-0.03128699999999984,-0.020611000000000004,-0.902604,0.12379699999999993,0.16306700000000002,0.03886600000000007,0.11133999999999988,0.8992803056895642,single,-0.8637379999999999
105,0.875,step_decsent,-0.0736829473178795,0.1574462978519135,0.00984039361576109,-0.3121421224253027,-0.18994760967452806,0.317442795709271,-0.568222728909146,1.0067202688107457,-0.3038521540861596,-0.03588143525741606,-0.006240249609984369,0.04776191047641999,-0.38984544186791353,2.5653646203132054,0.9361042604961048,1.0861741492136692,1.8720218969837248,-4.324202516754792,-6.955438497388542,2.419013387610962,11.693020088125463,0.08838900000000005,0.14953299999999997,-0.866352,-0.030972,-0.021975,-0.9022880000000001,0.11936100000000005,0.171508,0.03593600000000008,0.14063999999999977,0.8998942475334125,single,-0.866352
106,0.883333,step_decsent,-0.057722308892349895,0.1582863314532567,-0.008760350414015293,-0.06630553669623832,0.27957541438876937,0.3473182320990384,-0.5526221048842161,1.0111604464178545,-0.34237369494780245,-0.018720748829958517,-0.015480619224769003,0.008520340813631039,1.9153532251925522,0.10080806448376475,-2.2321785707159854,1.8721497689823394,0.5328426265581158,-4.622769814189688,2.0593647458847317,-1.1088887093225244,-4.709176726603719,0.08426499999999981,0.15664,-0.8691320000000001,-0.03064700000000009,-0.023423,-0.9021440000000001,0.1149119999999999,0.180063,0.03301199999999993,0.16988000000000014,0.9570946708853503,single,-0.8691320000000001
107,0.891667,step_decsent,-0.024718022558213544,0.15742740580753636,-0.018358531317503073,-0.16682375438957175,0.2427450093364003,0.48812169252447285,-0.5535157187425012,1.013318934485248,-0.3640508759299254,-0.011999040076792603,-0.025677945764338867,0.007439404847613013,3.9601975442928414,-0.10306283245984564,-1.15168957325268,-0.1072250849874033,0.25899784825935995,-2.6010536335640846,0.8065405271377434,-1.223581298244531,-0.1297019397669825,0.07985799999999998,0.163773,-0.872013,-0.03054099999999993,-0.024949,-0.901929,0.11039899999999991,0.188722,0.029915999999999943,0.20084000000000002,0.9511613027426142,single,-0.872013
108,0.9,step_decsent,-0.03924156966278229,0.16440657626305022,-0.04104164166567419,-0.151657549327941,-0.019513500149216812,0.6440016425486664,-0.5534621384855177,1.0175207008280271,-0.40201608064321975,-0.009960398415943227,-0.020040801632065258,0.004200168006721121,-1.7428953683629769,0.8375339560199,-2.722082125065526,0.0064298880335331605,0.5042321304187107,-4.556006805867537,0.24464678517333102,0.6764843552470401,-0.3887239698658201,0.07557300000000011,0.170882,-0.8750209999999999,-0.03029700000000002,-0.026486000000000003,-0.9015519999999999,0.10587000000000013,0.197368,0.02653099999999997,0.23468999999999973,0.9620495689548416,single,-0.8750209999999999
109,0.908333,step_decsent,-0.0441617664706501,0.17172686907476475,-0.03396135845434247,-0.25115342209260444,-0.024005491633134667,0.5085558763925,-0.5397815912636691,0.9948397935917518,-0.43357734309373164,-0.008160326413051434,-0.021360854434177484,0.004080163206525717,-0.5904472348335358,0.8784702762168008,0.8496679720786976,1.6417313358752865,-2.7218177410627105,-3.787502994181228,0.2160172810382586,-0.158412672760379,-0.014401152069531369,0.07144299999999992,0.17774099999999998,-0.8783509999999999,-0.02999700000000005,-0.028095000000000002,-0.901235,0.10143999999999997,0.205836,0.022884000000000126,0.27115999999999985,0.9612872128103233,single,-0.8783509999999999
110,0.916667,step_decsent,-0.04151667866570132,0.15826733861290984,-0.04847612191022868,-0.30533100382946793,0.08315400009734465,0.6527988708988144,-0.5286777057835225,0.9899208063354865,-0.4546436285097142,-0.0023998080153478313,-0.03479721622270196,-0.009359251259895176,0.31738514578218846,-1.615014454266236,-1.741632284123602,1.3323596688440773,-0.5902312522516481,-2.5277520297555056,0.6912069111715333,-1.6122344358680554,-1.6126007279122616,0.06738299999999997,0.184672,-0.8817360000000001,-0.029671000000000003,-0.029704,-0.9009090000000001,0.09705399999999997,0.214376,0.019172999999999996,0.30827000000000004,0.9398104632684326,single,-0.8817360000000001
111,0.925,step_decsent,-0.047041881675287216,0.17520700828033,-0.030361214448584865,-0.28688198414372446,0.05597344776547503,0.5783135375256717,-0.5256210248409975,0.9843993759750335,-0.48769950798031864,-0.011280451218053295,-0.0096003840153606,0.006840273610941258,-0.6630508831856319,2.032841673757362,2.173875850431266,0.3668163857584265,-0.6625981471802505,-3.9668642110409595,-1.065719813117176,3.0237408145135314,1.9440207453301772,0.06339500000000009,0.191415,-0.8855470000000001,-0.02937299999999987,-0.031244,-0.900599,0.09276799999999996,0.222659,0.015051999999999954,0.3494799999999999,0.9728070017182828,single,-0.8855470000000001
112,0.933333,step_decsent,-0.028081123244911507,0.19644785791431832,-0.042121684867393906,-0.21911081439667304,0.24081140756253466,0.47963008560173276,-0.5256210248410045,0.9762390495619918,-0.5293411736469505,-0.007200288011541051,-0.01572062882515305,-0.003120124804988687,2.275382026926183,2.5490039162352702,-1.4113129027732088,-8.393621811038702e-13,-0.9792783406986352,-4.9971997679865945,0.48963917034828763,-0.7344587555253218,-1.1952956217364739,0.059248999999999885,0.197913,-0.889607,-0.029199000000000197,-0.033012,-0.900274,0.08844800000000008,0.230925,0.010666999999999982,0.3933300000000002,0.9707160692099424,single,-0.889607
113,0.941667,step_decsent,-0.030597552195838047,0.22198224142068518,-0.06311495080393838,-0.18070891510075443,0.2524014550673569,0.3709270674305519,-0.5383969282457252,0.9498440124789985,-0.5478761699064051,-0.006839452843769295,-0.015358771298296185,0.006719462443004568,-0.3019473183257164,3.0638809102911764,-2.518990393153865,-1.5329857697048934,-3.1671510778729406,-2.2240216294041755,0.043296756392099026,0.04341942966845006,1.1806560172777993,0.055017000000000094,0.20397900000000002,-0.8936470000000001,-0.029001000000000055,-0.03499000000000001,-0.8996919999999999,0.08401800000000015,0.23896900000000001,0.006044999999999856,0.43955000000000033,0.9698236136045979,single,-0.8936470000000001
114,0.95,step_decsent,-0.02772110884433845,0.16872674906996404,-0.04080163206528382,-0.17089344612043197,0.4903995009725997,0.7433209610031902,-0.5207008280331372,0.9553582143285814,-0.5491419656786285,-0.010560422416880688,-0.011280451218048658,-0.004080163206532379,0.3451870096603411,-6.390914718675342,2.677705356852846,2.1236169701893797,0.6617306911775945,-0.15190156872955982,-0.44653421014177685,0.4894179863491617,-1.2960069182211744,0.05090899999999987,0.21053400000000003,-0.897883,-0.02885800000000005,-0.03649,-0.899386,0.07976699999999992,0.24702400000000002,0.001503000000000032,0.4849699999999997,0.9733636196414632,single,-0.897883
115,0.958333,step_decsent,-0.06000240009602363,0.19548781951277952,-0.06468258730349993,-0.41615605425795554,0.1662563362609704,0.6387482017900339,-0.5192607704308114,0.9351974078963112,-0.5475819032761334,-0.008400336013442242,-0.0122404896195849,0.0003600144005797124,-3.873909906598469,3.2114569114143006,-2.8658292617563923,0.17281382483208796,-2.419393547614311,0.18721497689848307,0.25922073724210215,-0.11520921655301063,0.5328426265585111,0.04708200000000007,0.216698,-0.901907,-0.028427999999999898,-0.038221,-0.898844,0.07550999999999997,0.254919,0.003063000000000038,0.5,0.944619868595493,single,-0.898844
116,0.966667,step_decsent,-0.01883849292056174,0.16810655147588058,-0.056515478761685216,-0.2896377006890039,0.47812377646746174,0.8132789179392272,-0.504079673626094,0.9406047516198615,-0.5026397888168906,-0.001799856011530856,-0.019438444924405773,-0.0044396448284148024,4.939273719157857,-3.2854893252818256,0.9799746270475949,1.8215858896949062,0.6488293404787842,5.392622325323067,0.791994240690105,-0.8636855417351594,-0.5759130344365825,0.04303800000000013,0.223136,-0.9056250000000001,-0.028286000000000033,-0.039784,-0.89841,0.07132400000000017,0.26292,0.0072150000000000825,0.5,0.8944832222386183,single,-0.89841
117,0.975,step_decsent,0.004200168006721177,0.17412696507860484,-0.033841353654160335,-0.3854853030971186,0.6430856796358225,0.8006359347770978,-0.5233409336373573,0.9079563182527405,-0.44125765030601455,-0.00540021600862248,-0.03048121924877032,0.01056042241689401,2.764749901270026,0.7224785314681768,2.721003853057133,-2.311443659097991,-3.917968722803465,7.366151267355893,-0.4320604820702816,-1.3251859263608123,1.8000800726399797,0.038642000000000065,0.229251,-0.9090199999999999,-0.02836599999999989,-0.041489,-0.89804,0.06700799999999996,0.27074000000000004,0.01097999999999999,0.5,0.8356872700531074,single,-0.89804
118,0.983333,step_decsent,-0.03336133445337805,0.2001680067202683,-0.044281771270831646,-0.45529920127106716,0.41713728514342757,0.5750998206847949,-0.49633985359415844,0.8973958958358278,-0.388455538221526,-0.002880115204611053,-0.03744149765990621,0.009480379215168056,-4.507560597635794,3.125049998999562,-1.2529002300097525,3.2402592155524763,-1.2673013820848003,6.3365069104150145,0.3024241934491079,-0.8352668200091036,-0.1296103686218589,0.034783999999999926,0.235061,-0.911888,-0.028111999999999915,-0.043469,-0.8975920000000002,0.06289599999999984,0.27853,0.014295999999999864,0.5,0.792489451317592,single,-0.8975920000000002
119,0.991667,step_decsent,-0.03959683225341293,0.21022318214542915,-0.08351331893448931,-0.29909464159135696,0.0736003035331317,0.5010330740669355,-0.4852411807055387,0.8450923926085987,-0.5517158627309836,0.006959443244527454,-0.043556515478762006,0.007439404847613013,-0.7481998800137886,1.2065245290569844,-4.707409126908794,1.3317342078977477,-6.275918313802423,-19.589671767393632,1.180652561691692,-0.7337434387875967,-0.24489733232002095,0.03106999999999993,0.240352,-0.9157900000000001,-0.027724000000000082,-0.045584,-0.8968340000000001,0.05879400000000001,0.285936,0.018955999999999973,0.5,0.7358867260683843,single,-0.8968340000000001
120,1.0,step_decsent,-0.017880715228603638,0.2065282611304444,-0.07836313452538245,-0.34591630875486185,0.28142613095572455,0.5364748391870371,-0.4556582263290573,0.7968318732749252,-0.6077043081723259,0.01080043201729811,-0.05436217448697928,0.008400336013442242,2.606038284508484,-0.44340825812849366,0.6180468509668595,3.5500965290389144,-5.791493979799985,-6.7188822082493775,0.4609370902160854,-1.2967309502240767,0.11531635255360911,0.027421999999999835,0.24527100000000002,-0.920201,-0.02748499999999998,-0.047758,-0.8961110000000001,0.05490699999999982,0.293029,0.024089999999999945,0.5,0.665670570425056,single,-0.8961110000000001
121,1.008333,step_decsent,0.008880355214197546,0.21828873154926412,-0.09732389295573318,-0.47653435891524903,-0.04678838888060701,0.6179981109966585,-0.4323772950918104,0.8031921276851153,-0.47533901356054586,0.010200408016307632,-0.05592223688947602,0.006960278411136808,3.2114569114126277,1.4113129027744908,-2.275382026923186,2.793823501409709,0.7632610596652005,15.88447073224304,-0.07200576034927197,-0.18721497689868624,-0.1728138248296468,0.023744999999999905,0.250145,-0.9233509999999999,-0.027474,-0.050043000000000004,-0.8952419999999999,0.051218999999999903,0.300188,0.02810900000000005,0.5,0.6234609097595541,single,-0.8952419999999999
122,1.016667,step_decsent,-0.00767938564915569,0.2327813774897987,-0.12191024718021336,-0.5022746599106838,-0.18087282961840082,0.5298682081214331,-0.4178065754739571,0.7746580273578075,-0.4463642908567282,0.015118790496768604,-0.07535397168226485,0.010919126469883255,-1.9870099428069485,1.7389783945925705,-2.950126496817853,1.7483464864234661,-3.423818133826197,3.476688589370945,0.5901586849605153,-2.331621645403009,0.47502376514835815,0.020326999999999984,0.254661,-0.9260550000000001,-0.027283999999999864,-0.052611,-0.894135,0.04761099999999985,0.30727200000000005,0.03192000000000006,0.5,0.5514208608043564,single,-0.894135
123,1.025,step_decsent,-0.008760350414015409,0.232449297971922,-0.10584423376935767,-0.4504135624405558,-0.01351152314015501,0.48165378912498313,-0.42433697347894106,0.7325093003720213,-0.45301812072483655,-0.009120364814588465,-0.04116164646585896,0.023880955238210315,-0.12972096062159236,-0.03985113619065519,1.92799872925187,-0.7836791077623917,-5.058049560276801,-0.7984915238339643,-2.9088149899624733,4.1032431556949716,1.5554816714661202,0.01686399999999999,0.258828,-0.928948,-0.02728699999999984,-0.05489100000000001,-0.893054,0.04415099999999983,0.313719,0.03589399999999998,0.5,0.560303813150306,single,-0.893054
124,1.033333,step_decsent,-0.010080403216125227,0.22320892835713044,-0.10560422416896394,-0.5352976788584555,0.04503830442378644,0.5760557035080401,-0.3942157686307362,0.7077883115324439,-0.42961718468737664,-0.012240489619590149,-0.03828153126124976,0.02028081123244591,-0.1584126727600858,-1.1088887093233395,0.028802304139413162,3.6146891693512933,-2.9666373262422865,2.808224653481279,-0.3744299537983474,0.3456276496590843,-0.4320345620742041,0.01366299999999998,0.262866,-0.931648,-0.027304999999999913,-0.05707000000000001,-0.8920049999999999,0.04096799999999989,0.319936,0.039643000000000095,0.5,0.5285400703037738,single,-0.8920049999999999
125,1.041667,step_decsent,-0.013678905687538954,0.2308615310775176,-0.11327093832494287,-0.5691263414997916,0.11140230365410686,0.5416165775671845,-0.3536117110631256,0.6993040556755592,-0.36633069354452674,-0.015598752099827928,-0.025557955363571357,0.025197984161266136,-0.43178575370935873,0.9182388673370915,-0.919932104149157,4.872097140342137,-1.0180292604853476,7.593771435427298,-0.40295926088767015,1.526706971163744,0.5900135503744085,0.010829999999999895,0.26676999999999995,-0.933757,-0.02732099999999993,-0.059207,-0.890851,0.038150999999999824,0.32597699999999996,0.042906,0.5,0.505716696495177,single,-0.890851
126,1.05,step_decsent,0.023520940837643292,0.2426497059882348,-0.16620664826592407,-0.37502779344521514,-0.24480857783765944,0.7294509837551048,-0.32905316212648195,0.6791071642865626,-0.3385335413416432,-0.021720868834751418,-0.012360494419776654,0.02736109444377799,4.4641601494277685,1.4146375747890285,-6.3525392944894135,2.947143758147514,-2.423723915636176,3.3357916960138065,-0.7346833955266271,1.5837586636018808,0.25958361724610773,0.007891999999999788,0.270407,-0.9351929999999999,-0.027698,-0.061332,-0.889238,0.03558999999999979,0.331739,0.04595499999999997,0.5,0.47868864354542806,flight,-0.889238
127,1.058333,step_decsent,-0.03168126725069535,0.2601704068162754,-0.13968558742349135,-0.5905236731280962,-0.008528733425974395,0.47346760142773725,-0.307572302892103,0.6522260890435638,-0.3288131525261065,-0.031201248049940164,-0.006600264010560422,0.032401296051841465,-6.6245299517987695,2.102568202092976,3.1826546072762465,2.5778062203743093,-3.2258580634824203,1.1664933175971206,-1.1376910134631983,0.6912552993179268,0.6048483869030987,0.005592999999999959,0.273674,-0.936769,-0.027694000000000107,-0.063555,-0.887804,0.03328700000000007,0.337229,0.048964999999999925,0.5,0.4345775821452075,flight,-0.887804
128,1.066667,step_decsent,-0.010079193664503522,0.27153827693784305,-0.17410607151428847,-0.5323959844057546,-0.18687448900649198,0.4573017595221874,-0.2933765298776112,0.6297096232301405,-0.30969522438204705,-0.05447564194863823,0.024718022558195107,0.04811615070794782,2.5920414670256378,1.364035291764766,-4.130127680681168,1.7033564932195477,-2.701759756830237,2.293967859858326,-2.7927038515356237,3.7578937567500947,1.8856317081960927,0.0032319999999999016,0.276659,-0.9378989999999999,-0.02806400000000009,-0.065612,-0.8859519999999999,0.03129599999999999,0.342271,0.051947000000000076,0.5,0.3720488356631759,flight,-0.8859519999999999
129,1.075,step_decsent,0.013080523220918723,0.24048961958478463,-0.1876875075002896,-0.4256791416798948,0.03573271432211602,0.8015724065856092,-0.2655706228249179,0.571942877715113,-0.33145325813032667,-0.05532221288852141,0.04704188167526744,0.05436217448697772,2.7792771973385886,-3.7259879218839203,-1.6298375118206219,3.3368423200160287,-6.932286753273491,-2.611068492533279,-0.10159257648904246,2.678970252858819,0.7495528355970187,0.0009099999999999664,0.27942100000000003,-0.9390970000000001,-0.02863400000000005,-0.06722399999999999,-0.883935,0.029544000000000015,0.346645,0.055162000000000044,0.5,0.34881273674507207,flight,-0.883935
130,1.083333,step_decsent,-0.0002400096003909128,0.24516980679226777,-0.2150486019440759,-0.4431234132573336,-0.03269534333235972,0.8230174012895751,-0.23256930277210625,0.5549021960878359,-0.3190927637105455,-0.06000240009599618,0.040321612864513814,0.07500300012000188,-1.5985278796723152,0.5616449306951953,-3.283462671761171,3.9603168190100884,-2.0449635938169712,1.4833186631202373,-0.5616449306941902,-0.8064645158710558,2.476998155889092,-0.0010259999999999714,0.28200200000000003,-0.939964,-0.029131999999999936,-0.06893099999999999,-0.881518,0.028105999999999964,0.350933,0.058446,0.5,0.32638188051968825,flight,-0.881518
131,1.091667,step_decsent,0.002639788816890678,0.2777777777777828,-0.28173746100312713,-0.46188976554339345,-0.13387060947784873,0.7396952082031646,-0.21238300935926122,0.5296376289896877,-0.3345332373410139,-0.050755939524846444,0.023278137748980493,0.06491480681545764,0.34554816622049983,3.912643506781334,-8.002022925252279,2.4221614366265194,-3.0315055313353314,-1.852708618966727,1.1094865096172202,-2.04505340959127,-1.2104863576367215,-0.002817999999999987,0.284101,-0.940404,-0.029576999999999964,-0.07105199999999999,-0.878629,0.026758999999999977,0.355153,0.061775000000000024,0.5,0.35728846852246776,flight,-0.878629
132,1.1,step_decsent,-0.03024120964837568,0.2764910596423809,-0.2646105844233738,-0.3364531256737434,0.051053866943565326,0.7036212428498613,-0.1941677667106527,0.49225969038760625,-0.35893435737429125,-0.04212168486739278,0.022560902436097128,0.061322452898112896,-3.945877650937932,-0.15441235274233217,2.0553074018664366,2.185916554495164,-4.485532053531836,-2.92825153405459,1.0361520049746202,-0.08607168041321885,-0.4310997140699242,-0.0041839999999999655,0.285899,-0.94119,-0.029676000000000036,-0.073168,-0.8759129999999999,0.02549200000000007,0.35906699999999997,0.06527700000000003,0.5,0.3704315508629564,flight,-0.8759129999999999
133,1.108333,step_decsent,-0.023280931237253,0.30397215888635915,-0.3159726389055454,-0.45342209867615285,-0.003651664026994581,0.6767947919578128,-0.19140765630625556,0.4683787351494157,-0.39853594143766335,-0.03528141125645256,0.01476059042361706,0.07092283691347817,0.8352668200075297,3.2978638238303715,-6.163693085584068,0.33122649758756295,-2.8658292617533636,-4.752380182812009,0.8208656679395518,-0.9360748844929964,1.1520921655304648,-0.005584999999999951,0.287269,-0.9418780000000001,-0.029776000000000025,-0.075578,-0.872689,0.024191000000000074,0.36284700000000003,0.06918900000000006,0.5,0.36570449451389614,flight,-0.872689
134,1.116667,stand,-0.036717062634979016,0.32181425485960924,-0.35061195104392473,-0.340177962202952,0.07216097324481675,0.6223125385734507,-0.1588672906167618,0.43328533717301987,-0.4346052315814652,-0.027717782577378024,0.01307895368370517,0.06791456683465402,-1.612206791183815,2.140880246370285,-4.156384945809824,3.9045315202176036,-4.210870887496467,-4.327968579769806,0.9075628364620204,-0.20178026636811588,-0.360963532376305,-0.0066030000000001365,0.288198,-0.9425779999999999,-0.029700999999999977,-0.07815100000000001,-0.869201,0.02309799999999984,0.366349,0.07337699999999991,0.5,0.37581685915992646,flight,-0.869201
135,1.125,stand,-0.035521420856843476,0.3316932677307109,-0.38821552862116027,-0.35947159794375405,0.13374623236184757,0.6346646604678902,-0.13812552502099035,0.4226569062762579,-0.4688587543501842,-0.031441257650304436,0.01368054722188915,0.08460338413536753,0.1434827526863735,1.1855289656908372,-4.512609813660852,2.4891114359500355,-1.2754627261204923,-4.110587155732548,-0.4468348821464594,0.07219411234657223,2.0027381856130635,-0.007457999999999965,0.28895600000000005,-0.9432499999999999,-0.029666999999999888,-0.080801,-0.8652609999999998,0.022208999999999923,0.369757,0.07798900000000009,0.5,0.3478538471103842,flight,-0.8652609999999998
136,1.133333,stand,-0.06264250570021795,0.3567742709708425,-0.41809672386893704,-0.40166820918005125,0.39373516401152536,0.6848006558750986,-0.13356534261369613,0.3769350774030935,-0.5286211448457977,-0.023040921636888728,0.019200768030721245,0.07236289451577706,-3.254660367619672,3.0098407824471205,-3.5858868652078537,0.5472437786264567,-5.486838938337311,-7.171773730422902,1.0080806448356876,0.6624529951796646,-1.4689175110513117,-0.008048999999999973,0.289124,-0.9441710000000001,-0.02933700000000017,-0.083614,-0.8611740000000001,0.021288000000000196,0.37273799999999996,0.08299699999999999,0.5,0.3694462428138817,flight,-0.8611740000000001
137,1.141667,stand,-0.07247420206384021,0.39416846652267473,-0.45788336933045504,-0.3260475930976699,0.2222289832610724,0.3971950916447594,-0.08267338612912845,0.3840892728581695,-0.5494360451163864,-0.04571634269258001,0.07835373170146338,0.15058795296376248,-1.17970918689971,4.4869445106589785,-4.774015534139393,6.10654625444772,0.8584347798267281,-2.497588225412597,-2.7208328600541285,7.0977878174636055,9.386256113269118,-0.008134000000000086,0.28903999999999996,-0.944934,-0.029114000000000084,-0.08624599999999999,-0.8561030000000001,0.02098,0.375286,0.088831,0.5,0.20699818526089736,flight,-0.8561030000000001
138,1.15,stand,-0.04236169446778482,0.37033481339253976,-0.48961958478340584,-0.5365188660125768,0.49399608862209127,0.7110339835296507,-0.10848433937357785,0.329293171726875,-0.6619464778591163,-0.03168126725069535,0.050402016080643715,0.09024360974439426,3.6136454573449734,-2.8601527817274914,-3.8084981942819023,-3.0974382868654313,-6.575795167562105,-13.50179200080774,1.6842764240831374,-3.354340048100315,-7.241610850758284,-0.008685000000000054,0.288698,-0.9463699999999999,-0.02902500000000008,-0.088912,-0.8512709999999999,0.020340000000000025,0.37761,0.09509900000000004,0.5,0.3198151025312087,flight,-0.8512709999999999
139,1.158333,stand,-0.06612264490579126,0.39673586943477085,-0.5366614664586528,-0.40431747094226994,0.3384064717481796,0.42542008441291174,-0.1598463938557381,0.2702508100323937,-0.7670706828273007,-0.039481579263146035,0.04860194407776215,0.08964358574342789,-2.8514281096851093,3.168253455205883,-5.645251611093975,-6.163693085582545,-7.0853668180103515,-12.615409212550412,-0.9360748844894452,-0.21601728103702525,-0.07200576034637704,-0.009465999999999974,0.287644,-0.9482899999999999,-0.028802999999999912,-0.091813,-0.8460519999999999,0.019336999999999938,0.379457,0.10223799999999994,0.5,0.3177538558997345,flight,-0.8460519999999999
140,1.166667,stand,-0.07799376049916629,0.40268778497720925,-0.5281977441804776,-0.5251230397521609,0.8197594706701433,0.5911146532871885,-0.08207343412528702,0.24970002399808483,-0.7467002639789,-0.022198224142081266,0.04823614110871217,0.11363090952723706,-1.424419917611622,0.7141727312741198,1.0155654281467863,9.332008606965749,-2.465897052352924,2.4442547214304207,2.0738367075912043,-0.0438928448584103,2.878248594169622,-0.009500000000000064,0.286369,-0.9501109999999999,-0.028337999999999974,-0.094767,-0.840703,0.01883799999999991,0.381136,0.10940799999999995,0.5,0.2909580712970295,flight,-0.840703
141,1.175,stand,-0.057602304092166996,0.408016320652819,-0.5780631225248728,-0.2425624369824428,1.0319868273876305,0.6805536633542384,-0.02232089283568873,0.20304812192487665,-0.7945517820712675,-0.0021600864034649224,0.04932197287891449,0.151806072242889,2.447072651745942,0.6394498590675225,-5.984084764717907,7.170591778422806,-5.598452186872359,-5.742411867558706,2.404672715542541,0.13030502462526125,4.581202773989112,-0.009205999999999825,0.284661,-0.9519150000000001,-0.027876000000000012,-0.097756,-0.8346210000000001,0.018670000000000186,0.382417,0.11729400000000001,0.5,0.2339465041692636,flight,-0.8346210000000001
142,1.183333,stand,-0.0643225729029011,0.4249369974799034,-0.5879035161406494,0.16499046564963138,0.9910938939178727,0.3778623622003634,-0.04956198247929923,0.24768990759630735,-0.8623544941797715,-0.009000360014379682,0.05820232809312417,0.1802472098883976,-0.806464515868734,2.0305624417478128,-1.1808944696719896,-3.2690615196940778,5.357228569714522,-8.136650919057313,-0.8208656679364962,1.0656852531152965,3.413073040382678,-0.009082999999999952,0.283184,-0.954202,-0.027414999999999967,-0.100812,-0.8282200000000001,0.018332000000000015,0.383996,0.12598199999999993,0.5,0.18395862547409603,flight,-0.8282200000000001
143,1.191667,stand,-0.05615550755941102,0.41096712263018614,-0.6076313894888578,0.23349619115194878,1.1023157017794463,0.620619292081998,-0.04679625629950918,0.1894648428125732,-0.8810895128389681,-0.026757859371260205,0.07559395248380076,0.21514278857691088,0.9799694436633088,-1.6762508818955038,-2.3671554293506367,0.33186059272738494,-6.986448858139394,-2.248022397311787,-2.1307294644684887,2.0868279806427226,4.187134471863813,-0.00900499999999993,0.28133800000000003,-0.9564809999999999,-0.027169999999999916,-0.103607,-0.8213629999999998,0.018164999999999987,0.38494500000000004,0.13511800000000007,0.5,0.11733083563930463,flight,-0.8213629999999998
144,1.2,stand,-0.05076203048120053,0.464658586343458,-0.6999879995199845,-0.6617042837901262,0.8461282642775048,0.6342121987377027,-0.04788191527661609,0.1476059042361652,-0.9204368174727086,-0.02604104164165531,0.10380415216608753,0.21504860194408162,0.6472431391108289,6.443233374927682,-11.083236533196635,-0.13028428862437483,-5.023273560111409,-4.721865430666127,0.08602156841532485,3.385359376249494,-0.01130284805343312,-0.008981000000000128,0.27869599999999994,-0.9583179999999999,-0.026963999999999988,-0.106614,-0.8137379999999999,0.01798299999999986,0.38531,0.14458000000000004,0.5,0.09965522131679094,flight,-0.8137379999999999
145,1.208333,stand,-0.06912276491061105,0.4132965318612675,-0.6153846153846072,0.7754669784788114,1.4207786157031572,0.4560413469546363,-0.09912396495859582,0.17880715228609392,-0.9450378015120431,-0.07452298091923339,0.12240489619584549,0.2358094323772903,-2.2033762665798866,-6.163693085586176,10.152812208733444,-6.149291933514801,3.7442995379728994,-2.952236174167058,-5.818065435926704,2.232178570713745,2.491399307957315,-0.00923099999999999,0.27674200000000004,-0.9610649999999998,-0.02700899999999984,-0.10903800000000001,-0.8066449999999998,0.01777799999999985,0.38578,0.15442,0.5,0.04010048894742241,flight,-0.8066449999999998
146,1.216667,stand,-0.06899448044156505,0.46016318694505376,-0.8374130069594408,-0.6393404498170824,-0.016379986521916655,0.6964107973243505,-0.124670026397892,0.18118550515958537,-0.9263258939285038,-0.12610991120712206,0.13066954643628795,0.2375809935205207,0.015392904853132374,5.623548726156363,-26.64127568692558,-3.065282150143588,0.28537951445782234,2.2452492900815457,-6.189936439631588,0.991678694557549,0.2125703315611277,-0.00969500000000001,0.27441699999999997,-0.961806,-0.02748499999999998,-0.11178400000000001,-0.7976860000000001,0.017789999999999973,0.38620099999999996,0.16411999999999993,0.5,0.0016054425771709901,flight,-0.7976860000000001
147,1.225,stand,-0.08928357134283486,0.4312972518900664,-0.7607104284171348,-0.006671758642367619,0.6787688077592374,0.5953949047021336,0.004200168006721065,-0.016440657626304554,-1.050642025681007,-0.14844593783750282,0.12288491539661336,0.21432857314292314,-2.434788299684323,-3.4640507686291673,9.204677612181046,15.465041930230505,-23.71608817783349,-14.918532551602176,-2.6804304128621586,-0.934193092484633,-2.790402061394114,-0.008916000000000146,0.270686,-0.9642219999999999,-0.02797800000000006,-0.114354,-0.789561,0.019061999999999912,0.38504,0.17466099999999996,0.5,0.019625041827943113,flight,-0.789561
148,1.233333,stand,-0.1280451218048915,0.548421936877479,-0.7349093963758639,1.975973392915363,2.019974681747536,0.7375934014864713,-0.13008520340812105,0.20856834273371333,-0.9361574462978608,-0.13488539541583286,0.11628465138605663,0.20340813632545512,-4.651572118331572,14.055524419466416,3.0962476948603213,-16.114889165347815,27.002160129607578,13.738699073940621,1.627330183807762,-0.792063363801367,-1.3105048382897055,-0.008932999999999858,0.26785400000000004,-0.965899,-0.028035000000000032,-0.11795499999999999,-0.7817419999999999,0.019102000000000174,0.385809,0.18415700000000002,0.5,0.04941069460878589,flight,-0.7817419999999999
149,1.241667,stand,-0.09587233021358148,0.4773218142548571,-0.7668586513078938,0.5370539481929946,1.0949133195783434,0.7313361926673032,-0.13438924886009135,0.006479481641468453,-1.1941444684425175,-0.15082793376527862,0.10763138948884031,0.1996640268778481,3.860426156864624,-8.53133220813791,-3.8336039035312672,-0.5164441387053358,-24.248723433194545,-30.955966180064166,-1.9129515658082115,-1.0383083629969112,-0.4492571931373892,-0.009253999999999873,0.26393,-0.9694599999999999,-0.02849299999999988,-0.12103599999999999,-0.7736869999999999,0.019239000000000006,0.384966,0.19577299999999997,0.5,0.04600750974064749,flight,-0.7736869999999999
150,1.25,stand,-0.11112444497779801,0.548421936877479,-0.8783151326052947,0.4332257649895098,1.2685072843814105,0.9626680057918819,-0.12132485299413229,0.06396255850234137,-1.0762030481219351,-0.1536061442457916,0.11640465618624835,0.18216728669147164,-1.8303269847853922,8.532356008955063,-13.375312768198961,1.5677902155237227,6.8982451531109374,14.153536579933217,-0.3333985936053065,1.0528341170536561,-2.0996928100775967,-0.009338999999999986,0.25989300000000004,-0.971109,-0.028847000000000067,-0.12463599999999998,-0.76485,0.01950800000000008,0.384529,0.20625899999999997,0.5,0.05800385914068312,flight,-0.76485
151,1.258333,stand,-0.11580463218527438,0.5406216248650006,-0.9249969998800094,0.11627610103697013,0.7696946126203774,1.0132534028522966,-0.1422056882275294,0.10476419056762518,-1.0568822752910192,-0.15060602424097175,0.08016320652826169,0.21324852994119636,-0.5616449306943975,-0.9360748844927876,-5.602048154892009,-2.5058004600260784,4.896391703502242,2.3185854831292585,0.3600288017304559,-4.349147924875434,3.7298983859024366,-0.009559000000000095,0.256261,-0.972208,-0.02913700000000019,-0.128473,-0.7553650000000001,0.019578000000000095,0.384734,0.2168429999999999,0.5,0.044834432624767495,flight,-0.7553650000000001
152,1.266667,stand,-0.14110871130310257,0.9970002399807952,-1.252099832013426,1.975399726778638,1.110698388402981,3.4495734350906355,-0.16390688744900023,0.10547156227501277,-1.0602351811854984,-0.14518838492919656,0.07199424046076257,0.20614350851931657,-3.036246594411806,54.76105292966056,-39.249199920016096,-2.60393559172914,0.0848778146613374,-0.40231652201574325,0.650064712236039,-0.9801975122989026,-0.8525343678761391,-0.009749000000000008,0.24883099999999997,-0.970609,-0.029171000000000058,-0.136182,-0.743212,0.01942200000000005,0.385013,0.22739700000000007,0.5,0.06297093955472677,flight,-0.743212
153,1.275,stand,-0.1698067922716857,0.5612624504980235,-0.9684387375495134,0.7731469479060802,-0.44498095095599655,0.8727634057649707,-0.15444617784711986,-0.056042241689667524,-1.2154086163446647,-0.17496699867994392,0.08076323052922191,0.19344773790951844,-3.44390747252891,-52.29062636298761,34.04069296338836,1.135330565448272,-19.382431773032735,-18.621557081383376,-3.5735765931534424,1.0523209010511725,-1.5235534153124013,-0.009621000000000102,0.243687,-0.972667,-0.029214000000000073,-0.140186,-0.73353,0.01959299999999997,0.38387299999999996,0.23913699999999993,0.5,0.044910944811367814,flight,-0.73353
154,1.283333,stand,-0.1333253330133283,0.581423256930269,-1.0864034561382239,-0.10952019248050054,0.24908552142343207,0.6567319279107788,-0.2688107524300949,0.041041641665666984,-1.1429257170286617,-0.1845673826953093,0.0787231489259557,0.19308772350894024,4.377950229011973,2.419393547611321,-14.15633248394437,-13.724297921873639,11.650532023920894,8.69829584975419,-1.1520921655304481,-0.2448195851753484,-0.04320345620763171,-0.010750000000000037,0.23918399999999998,-0.9731380000000001,-0.02964100000000003,-0.144375,-0.7228680000000001,0.01889099999999999,0.383559,0.25027,0.5,0.035883988695594615,flight,-0.7228680000000001
155,1.291667,stand,-0.18406527477801218,0.57859371250301,-0.9427645788337116,1.0395652645035258,-0.14188667470268926,0.7631242755992863,-0.20170386369091378,-0.09251259899207834,-1.172186225102014,-0.19198464122871087,0.08519318454523828,0.1797456203503753,-6.088305947286399,-0.3395181698175038,17.235286453625513,8.052182474103958,-16.02522686078088,-3.5109800903951163,-0.8899998240222817,0.7763421669405695,-1.6009243050834157,-0.010897000000000157,0.23359100000000002,-0.97505,-0.02970700000000015,-0.148487,-0.7135130000000001,0.018809999999999993,0.38207800000000003,0.2615369999999999,0.5,0.03925040183348716,flight,-0.7135130000000001
156,1.3,stand,-0.17964718588744213,0.5389415576622965,-0.9632785311412295,1.7662878874983436,0.2927397976496849,0.5389648300094925,-0.29173166926674754,-0.17328693147725616,-1.2144485779430954,-0.20184807392294873,0.09252370094803598,0.16728669146765654,0.5301918745433783,-4.75844891884229,-2.461772747812024,-10.803768819852657,-9.69330763052639,-5.071685208337996,-1.1836592696793105,0.8796971562219583,-1.495131271177073,-0.011830999999999925,0.22765600000000003,-0.977143,-0.02989200000000003,-0.152207,-0.7040919999999999,0.018061000000000105,0.379863,0.27305100000000004,0.5,0.036654324727565135,flight,-0.7040919999999999
157,1.308333,stand,-0.2226089043561691,0.6167046681867336,-1.2416896675867275,0.5134341202940107,-1.4490397925742997,0.8765298343182817,-0.35845433817353894,-0.20820832833314026,-1.3319332773311052,-0.12024480979238648,0.08340333613344623,0.19920796831873394,-5.155612440744911,9.33194654079418,-33.410672800372076,-8.00704055043706,-4.190735252116216,-14.09872787567634,9.79278340700384,-1.09448755725307,3.8307064503873387,-0.012963000000000058,0.22078199999999998,-0.977895,-0.029039000000000037,-0.156651,-0.6920849999999998,0.01607599999999998,0.37743299999999996,0.2858100000000001,0.5,0.08803065984538794,flight,-0.6920849999999998
158,1.316667,stand,-0.09407247420207727,0.5901127909767181,-1.2429805615550669,-0.3749525108782461,1.7339440606275804,0.15971491928355694,0.19738420926327166,-0.40196784257258683,-1.2760979121670175,-0.1964242860571272,0.11375089992800501,0.18298536117110475,15.423137767469504,-3.190770003601553,-0.1548948846099542,66.69529006921123,-23.249281766192116,6.699707843063029,-9.140805887297832,3.641416342039662,-1.946557133144836,-0.010533999999999821,0.212514,-0.9781709999999999,-0.02989200000000003,-0.160621,-0.6802009999999998,0.01935800000000021,0.373135,0.29797000000000007,0.5,0.014071879485582361,flight,-0.6802009999999998
159,1.325,stand,-0.15984639385574234,0.5564622584903449,-1.3705748229929207,-0.2582599245042669,0.2268914043930736,0.01676012069138997,-0.08208328333134948,-0.5129005160206456,-1.2835713428537256,-0.18960758430336364,0.12636505460218506,0.19236769470778595,-7.893186085883316,-4.038225427381914,-15.311923849496575,-33.537440608979196,-13.312453311899647,-0.896847556307237,0.8180369319289118,1.5137591112660702,1.1259250614042096,-0.009886000000000061,0.203603,-0.977446,-0.030140000000000056,-0.16420500000000002,-0.667177,0.020253999999999994,0.367808,0.310269,0.5,0.0029964983994403283,flight,-0.667177
160,1.333333,stand,-0.1843273730949184,0.5005400216008529,-1.3568942757710019,0.37396331291073637,0.11098343790258769,-0.07299759888004337,-0.0721228849154042,-0.730469218768739,-1.113524540981621,-0.14904596183846677,0.1597263890555597,0.1845673826953093,-2.937835022101959,-6.710936864213497,1.6417313358836632,1.195295621738283,-26.109288701318814,20.406432481951477,4.867589399363513,4.0035202752158945,-0.9360748844925595,-0.008951000000000153,0.19334500000000002,-0.975418,-0.02984600000000004,-0.167045,-0.654332,0.020894999999999886,0.36039,0.321086,0.5,0.02334400694911104,flight,-0.654332
161,1.341667,stand,-0.06923446124310784,0.5652747780177718,-1.3935685145188665,-0.6283053684130925,1.1931114246753116,-0.20442303468243547,-0.5658747300216022,-0.18970482361411437,-0.9616030717542772,-0.19594432445404686,0.16762658987281323,0.18430525557955496,13.810044618648037,7.767549366081135,-4.400556605215429,-59.24548177420294,64.88653649563655,18.22911797784338,-5.627353325603669,0.9479482622094659,-0.03145273767150905,-0.013090000000000046,0.187053,-0.9718180000000001,-0.030901999999999985,-0.170359,-0.641182,0.01781199999999994,0.357412,0.33063600000000004,0.5,0.0,flight,-0.641182
162,1.35,stand,-0.117124684987408,0.5429017160686332,-1.5223808952357798,-0.30168508943608074,-0.24402435302466938,-0.24731218542571073,0.2010080403216205,-0.8157926317052571,-1.447617904716164,-0.12444497779910434,0.21972878915156213,0.15504620184807305,-5.7470567315851815,-2.6848748288897375,-15.458104010189727,92.02961362573014,-75.13354231262832,-58.32411291994219,8.58026480918532,6.252514014010319,-3.5112268968536418,-0.010438999999999865,0.17573099999999997,-0.971195,-0.030962999999999852,-0.173052,-0.6272040000000001,0.020523999999999987,0.34878299999999995,0.34399099999999994,0.5,0.006130308490678027,flight,-0.6272040000000001
163,1.358333,stand,-0.04272170886835788,0.6138245529821226,-1.297131885275431,0.33095536706590273,1.3986067133630693,-0.9256920884516975,0.10512420496818492,-1.0072002880115278,-0.2686907476299066,-0.26533061322452695,0.21864874594983966,0.2094083763350549,8.92871428285741,8.51108087285371,27.030962433739454,-11.506520503232505,-22.969837550254713,141.47691792706925,-16.906952529152033,-0.129610368621443,6.523721887313375,-0.009206999999999965,0.162223,-0.962625,-0.03281799999999979,-0.176345,-0.6146499999999999,0.023610999999999827,0.338568,0.34797500000000003,0.5,0.0,flight,-0.6146499999999999
164,1.366667,stand,-0.1331893448524041,0.44252459803215366,-1.4485241180705533,0.7242530058561844,-0.3052527511790619,-0.22394323129265867,0.00767938564915569,-1.118670506359479,-0.3176145908327322,-0.3425725941924682,0.2632589392848554,0.16318694504439188,-10.855247898253603,-20.554350245976433,-18.165614686239632,-11.69244292284959,-13.375356173260185,-5.870391553014787,-9.268296252452686,5.352794976603718,-5.546128064634351,-0.008032999999999957,0.14921200000000004,-0.9531999999999999,-0.0345629999999999,-0.177839,-0.6012179999999999,0.026529999999999943,0.32705100000000004,0.351982,0.5,0.0,flight,-0.6012179999999999
165,1.375,stand,-0.12156486259449657,0.45469818792752303,-1.55166206648266,0.3633310258227531,0.3013298440401341,-0.27315824788621706,0.01944077763110488,-0.7543501740069688,-0.40405616224649293,-0.2931717268690742,0.25633025321013064,0.21480859234369737,1.3949936706957446,1.4608892230132589,-12.377048891408569,1.4114234947737065,43.72018868984922,-10.373403505791616,5.928341212455831,-0.8314755879904965,6.194845469735505,-0.006858000000000031,0.139137,-0.9436370000000001,-0.03599299999999994,-0.179492,-0.586498,0.02913499999999991,0.318629,0.3571390000000001,0.5,0.0,flight,-0.586498
166,1.383333,stand,-0.06540261610464691,0.41581663266530994,-1.2839313572543036,-0.004181775167030857,2.304955970143726,-0.08232511362750958,0.30157206288251653,-0.10224408976359381,-0.7951518060722501,-0.3127325093003879,0.2578903156126275,0.21444857794311764,6.739739168348755,-4.66597327039643,32.1289702662137,33.857108514510294,78.25586034361946,-46.93335459327502,-2.34738778726915,0.18721497689869873,-0.04320345620781606,-0.0038000000000000256,0.13482,-0.939564,-0.03805400000000003,-0.180808,-0.574012,0.03425400000000001,0.315628,0.365552,0.5,0.0,flight,-0.574012
167,1.391667,stand,-0.13330933525318883,0.3844492440604737,-1.4990400767938423,1.3244019054685419,0.9677418713601561,-0.4397319119816315,0.20158387329015034,-0.4276457883369312,-0.7987760979121605,-0.24442044636429697,0.24898008159347068,0.19498440124790384,-8.14815444546933,-3.76378552973794,-25.810981466227148,-11.99762294124855,-39.045080222382396,-0.4348802303708175,8.196791808986127,-1.0691425508947368,-2.3355143622766565,-0.0010089999999998156,0.12805199999999997,-0.933728,-0.038980000000000015,-0.18193700000000002,-0.559894,0.0379710000000002,0.30998899999999996,0.373834,0.5,0.0,flight,-0.559894
168,1.4,stand,-0.12912516500658403,0.3718948757950341,-1.5090603624145107,0.7973817123265975,-0.2738664352900172,-0.4013231085044252,0.052322092883701536,-0.24072962918517055,-0.8336733469338852,-0.4272170886835522,0.392295691827676,0.11088443537741376,0.502120514413158,-1.5065844552309746,-1.2024823737751662,-17.912130133979378,22.430836331664747,-4.1878373961028394,-21.93647453729232,17.198561170551617,-10.09239960044292,0.0005029999999999202,0.12294699999999997,-0.9281,-0.04146400000000017,-0.181767,-0.546395,0.04196700000000009,0.304714,0.38170500000000007,0.5,0.0,flight,-0.546395
169,1.408333,stand,-0.1290051602064251,0.3349333973358861,-1.363974558982334,0.10463477685581238,-0.6710040272177612,-0.3645438693373607,-0.1945277811112524,-0.4105364214568453,-0.44677787111483724,-0.33505340213606827,0.3716548661946416,0.2060482419296698,0.014401152065152542,-4.435554837291173,17.41099285157496,-29.623169806186205,-20.377630177807728,46.42931427085578,11.060084789089439,-2.4769981558903176,11.420113590814159,-4.300000000001525e-05,0.11673500000000003,-0.9204570000000001,-0.043180999999999914,-0.18146099999999998,-0.533312,0.0431379999999999,0.298196,0.3871450000000001,0.5,0.0,flight,-0.533312
170,1.416667,stand,-0.2013438924885863,0.28065754739621457,-1.2862970962323335,0.11886797642183426,-2.7403175432184605,-0.5788711683558755,0.07739380849532265,-0.19786417086633584,-0.4635229181665553,-0.2769378449724047,0.23242140628750158,0.10907127429806407,-8.679953477581302,-6.512580986281807,9.320549886009362,32.62798051434849,25.51862858057518,-2.009244906613673,6.973308994920167,-16.706678654564758,-11.636305211376,0.0022799999999998377,0.11274700000000001,-0.9136,-0.043811000000000044,-0.181863,-0.5216829999999999,0.04609099999999988,0.29461000000000004,0.39191700000000007,0.5,0.0,flight,-0.5216829999999999
171,1.425,stand,-0.1971678867154725,0.2510500420016769,-1.0255610224408729,0.5877060697170586,-1.6518196318996197,-1.1245653389339978,0.01632065282612908,-0.10620424816992789,-0.3729749189967533,-0.30265210608422766,0.2865714628585095,0.16992679707187663,0.5011407384031841,-3.553042769055219,31.28958043819225,-7.329071843176828,10.999630708797113,10.866194548157976,-3.085834766809373,6.498266719189603,7.302954851051422,0.004059000000000035,0.10976999999999998,-0.908162,-0.044689999999999896,-0.181567,-0.5117210000000001,0.04874899999999993,0.29133699999999996,0.39644099999999993,0.5,0.0,flight,-0.5117210000000001
172,1.433333,stand,-0.17976719068762906,0.27025081003240425,-0.9307572302892183,0.3198675213654817,-1.6242603632236774,-1.3372139976139117,0.017880715228603874,-0.09672386895475589,-0.1424456978279145,-0.2583703348134035,0.2356894275771053,0.22320892835713974,2.088167050023233,2.304184331060545,11.376910134604037,0.18721497689605285,1.137691013461189,27.664613124785898,5.314025113503488,-6.106088477307652,6.3941115186923785,0.005705999999999989,0.106712,-0.9015930000000001,-0.04534499999999997,-0.18185500000000002,-0.502105,0.05105099999999996,0.288567,0.39948800000000007,0.711488476870099,0.0,single,-0.502105
173,1.441667,stand,-0.12898968082552542,0.25017998560114707,-0.7186225101991812,0.870975878092427,-0.5709643006970193,-1.4590619588703801,-0.19570434365249886,-0.15718742500600233,-0.12227021838252836,-0.227861771058325,0.34425245980321273,0.2538996880249502,6.0928137583517215,-2.4083062672494635,25.454130080397825,-25.62815681318708,-7.255046322443722,2.4208638643371714,3.6607347918260444,13.026521745393163,3.6825965524130373,0.005149999999999988,0.10331699999999999,-0.8966230000000001,-0.04616900000000013,-0.18107099999999998,-0.49400000000000005,0.051319000000000115,0.284388,0.402623,0.5346504211056184,0.0,single,-0.49400000000000005
174,1.45,stand,-0.07164286571462428,0.2992919716788728,-0.5754230169206813,0.17888716228730273,0.12008160973833307,-1.452798121468377,-0.08580343213728882,-0.0871234849393989,-0.007320292811712362,-0.16776671066842952,0.1221648865954647,0.12876515060603094,6.881893089031761,5.893674076290191,17.184626578483286,13.188636927302419,8.408009128357621,13.794542850212055,7.211695714616108,-26.651574847923925,-15.016745160076853,0.005031999999999925,0.10009699999999996,-0.891889,-0.04697000000000018,-0.18254700000000001,-0.488132,0.052002000000000104,0.282644,0.40375700000000003,0.79583287563743,0.09294283524580316,single,-0.488132
175,1.458333,stand,-0.02724108964360918,0.28021120844833014,-0.47881915276610815,0.5089372760913783,0.8342678051541214,-1.2892941473640662,-0.037081483259343496,-0.0016800672026830968,0.005160206408255988,-0.21576863074522198,0.42877715108603676,0.11496459858393641,5.328426265572341,-2.2897831789922365,11.592927415645203,5.8468677400629385,10.253620273216645,1.4977198151887834,-5.760460827648101,36.794943536609466,-1.6561324879508323,0.00495000000000001,0.09774800000000003,-0.887856,-0.048540999999999945,-0.181309,-0.483184,0.053490999999999955,0.279057,0.404672,0.9375391954748529,0.0,single,-0.483184
176,1.466667,stand,-0.02207823374129655,0.2812574994000549,-0.39272858171346686,-1.5243201802275734,-0.8102738218942388,-0.7351944187533492,-0.19366450683945705,0.1329493640508782,0.04907607391408776,-0.22342212622990948,0.3821694264458908,0.2910967122630292,0.6194931488256211,0.1255448706173242,10.330042122947315,-18.788459752833756,16.154239411274762,5.269482542096545,-0.9183459904832781,-5.592479558452944,21.13416290845886,0.0035199999999999676,0.09651200000000001,-0.884174,-0.050219000000000014,-0.18046800000000002,-0.477485,0.05373899999999998,0.27698,0.406689,0.600034947215093,0.0,single,-0.477485
177,1.475,stand,-0.16392655706227702,0.30109204368174336,-0.3374534981399241,0.5552254444701975,0.017164309543861812,-0.8730750219169197,-0.02448097923915365,0.05064202568102371,0.04332173286931404,-0.0562822512900303,0.31297251890075045,0.2697707908316252,-17.022479697705265,2.3802405234235104,6.63327535983941,20.30283542545307,-9.877275695410182,-0.6905485473147273,20.057587296277003,-8.303961063859251,-2.559212940286046,0.004682000000000075,0.09442499999999998,-0.8810009999999999,-0.049321999999999866,-0.180369,-0.472425,0.05400399999999994,0.274794,0.40857599999999994,0.881670121548257,0.0,single,-0.472425
178,1.483333,stand,-0.10380415216607483,0.2720508820352795,-0.21780871234849725,2.070183767714547,1.5108967877690724,-0.7787268987405076,-0.06060242409696175,0.05952238089523593,0.06648265930637315,-0.23268930757232123,0.5846633865354669,0.11808472338893482,7.214977186631794,-3.4850788007277247,14.35794861291587,-4.334746772807924,1.0656852531156005,2.7794223493410923,-21.16969354161677,32.60420828449765,-18.203056215371625,0.005041999999999991,0.09265400000000001,-0.878632,-0.05039600000000011,-0.17776399999999998,-0.469626,0.0554380000000001,0.270418,0.409006,0.8202199521149922,0.0,single,-0.469626
179,1.491667,stand,-0.11267098632109623,0.27081833453323634,-0.1763858891288649,0.9350368051097129,0.913978364391983,-0.454605731013207,-0.044156467482618575,0.11651067914566741,0.09887209023278043,-0.3316534677225783,0.32145428365730505,0.6413486921046321,-1.0639349838038559,-0.14789386873567892,4.970341159063118,1.973356925167153,6.838048746152034,3.8864207975050435,-11.874749238091711,-31.58256574011997,62.7866533136181,0.005612999999999868,0.091368,-0.876338,-0.05222100000000007,-0.177342,-0.462811,0.05783399999999994,0.26871,0.413527,0.7348992738466749,0.0,single,-0.462811
180,1.5,stand,-0.10560422416896675,0.25465018600744416,-0.10392415696628361,0.7884086625288681,0.5065681292518958,-0.08799296598263245,-0.149885995439799,0.03588143525740987,0.10188407536301534,-0.15240609624383702,0.4293771750870071,0.3829353174126999,0.8480453800707481,-1.940255433312412,8.695755689737425,-12.688050876896842,-9.67589630244309,0.3614526737351425,21.51054499924912,12.951265022165254,-31.010845396848016,0.005244000000000026,0.08954499999999999,-0.8746229999999999,-0.05261099999999996,-0.175886,-0.45875399999999994,0.05785499999999999,0.265431,0.415869,0.692078410785005,0.0,single,-0.45875399999999994
181,1.508333,stand,-0.13572542901716111,0.2706108244329806,-0.05496219848793503,0.7217785187343765,-0.012819571999003295,-0.04738059897889888,-0.042841713668566664,0.11256450258010356,0.12816512660506574,-0.07020280811233205,0.46477859114365017,0.3105724228969162,-3.61468916935013,1.9153532251934011,5.875670044203652,12.845827645653824,9.202336172170215,3.1538523031382018,9.86478916734738,4.24833986039162,-8.683894697682032,0.006017999999999857,0.08822799999999997,-0.873097,-0.05206500000000003,-0.174268,-0.455708,0.058082999999999885,0.26249599999999995,0.417389,0.7068728027855005,0.0,single,-0.455708
182,1.516667,stand,-0.12994960403169653,0.22918166546676363,0.11267098632109623,0.10440809340164599,-0.48222106237455026,0.5609092012118924,-0.08495320374369157,0.08639308855291492,0.09035277177825665,-0.27237820974321775,0.4139668826493859,0.4566834653227678,0.693043554771363,-4.971101387834974,20.11437302724142,-5.052974571049266,-3.1403184577859906,-4.5371196096482835,-24.25910746710873,-6.096917265930389,17.531922537299074,0.006393000000000093,0.08703799999999995,-0.873283,-0.053251999999999855,-0.17272800000000002,-0.45284100000000005,0.05964499999999995,0.25976599999999994,0.420442,0.7480937346725379,0.0,single,-0.45284100000000005
