frame_id,timestamp,gait_type,root_linear_velocity_x,root_linear_velocity_y,root_linear_velocity_z,root_angular_velocity_x,root_angular_velocity_y,root_angular_velocity_z,left_linear_velocity_x,left_linear_velocity_y,left_linear_velocity_z,right_linear_velocity_x,right_linear_velocity_y,right_linear_velocity_z,root_acceleration_x,root_acceleration_y,root_acceleration_z,left_acceleration_x,left_acceleration_y,left_acceleration_z,right_acceleration_x,right_acceleration_y,right_acceleration_z,left_pos_rel_x,left_pos_rel_y,left_pos_rel_z,right_pos_rel_x,right_pos_rel_y,right_pos_rel_z,step_length,step_width,step_height,left_contact_prob,right_contact_prob,support_type,max_foot_height
<<<<<<< HEAD
1,0.008333,step_acsent,0.056402256090246725,0.0729629185167337,-0.0012000480019279385,-0.030964506262601242,0.01947165141718283,0.1449911045408787,0.0002400096003842554,0.0,0.0027601104044160225,-0.00408016320652568,-0.004800192007685108,0.0016800672026881223,0.0,0.0,0.0,0.0,0.0,0.0,0.0,0.0,0.0,0.06208999999999998,0.12489399999999995,-0.9104329999999999,-0.09000599999999997,-0.12430799999999997,-0.9111469999999999,0.15209599999999995,0.24920199999999992,0.0007139999999999924,0.988242456746024,0.9891331031583582,double,-0.9104329999999999
2,0.016667,step_acsent,0.05711543076553592,0.08183345332372934,-0.0035997120230350957,-0.029296456562085096,-0.13125825230689242,0.0980901747454595,0.0016798656107528196,0.0,0.0019198464122868553,-0.0037197024238064848,-0.0045596352291795645,0.0014398848092152456,0.08557411510549513,1.0643790265173547,-0.2879366476010507,0.1727688997322491,0.0,-0.10082361316644674,0.04325183377960102,0.028864504260324365,-0.028819581650213182,0.061628000000000016,0.12421199999999999,-0.9103870000000001,-0.09051299999999995,-0.12502799999999992,-0.911105,0.15214099999999997,0.2492399999999999,0.0007179999999999964,0.9885682818123596,0.9899032832882477,double,-0.9103870000000001
3,0.025,step_acsent,0.05808232329292985,0.08076323052922534,-0.011160446417857883,-0.0767885051923654,-0.2415921355150737,0.059880968883825894,0.000840033601341563,-0.0003600144005730523,0.0014400576023042833,-0.0036001440057704926,-0.004200168006721138,0.0010800432017281083,0.116031744557054,-0.1284318726153846,-0.9073244203555486,-0.10078387248425016,-0.04320345620701455,-0.05757696027631969,0.01434758406768177,0.04313779220669942,-0.04318272020726476,0.06115100000000001,0.12353599999999998,-0.910282,-0.09102700000000002,-0.12573599999999996,-0.911003,0.15217800000000004,0.24927199999999994,0.0007209999999999717,0.989947352213381,0.9906060093877096,double,-0.910282
4,0.033333,step_acsent,0.05916236649466233,0.07308292331692916,-0.002400096003842554,-0.03816353209835337,-0.1459447436254359,0.029059363438560297,0.0030001200047998617,0.0015600624025009907,0.002280091203647928,-0.0024000960038292308,-0.0026401056042201477,0.001200048001920028,0.12961036862264258,-0.9216737324248383,1.0512841010458813,0.25922073724448563,0.2304184331062094,0.10080806448381673,0.14401152069377918,0.18721497689919483,0.014401152069113118,0.06068299999999999,0.12294000000000005,-0.910243,-0.09153999999999995,-0.1263669999999999,-0.910973,0.15222299999999994,0.24930699999999995,0.0007300000000000084,0.9859026699196077,0.9937259941832404,double,-0.910243
=======
1,0.008333,stand,0.056402256090246725,0.0729629185167337,-0.0012000480019279385,-0.030964506262601242,0.01947165141718283,0.1449911045408787,0.0002400096003842554,0.0,0.0027601104044160225,-0.00408016320652568,-0.004800192007685108,0.0016800672026881223,0.0,0.0,0.0,0.0,0.0,0.0,0.0,0.0,0.0,0.06208999999999998,0.12489399999999995,-0.9104329999999999,-0.09000599999999997,-0.12430799999999997,-0.9111469999999999,0.15209599999999995,0.24920199999999992,0.0007139999999999924,0.988242456746024,0.9891331031583582,double,-0.9104329999999999
2,0.016667,stand,0.05711543076553592,0.08183345332372934,-0.0035997120230350957,-0.029296456562085096,-0.13125825230689242,0.0980901747454595,0.0016798656107528196,0.0,0.0019198464122868553,-0.0037197024238064848,-0.0045596352291795645,0.0014398848092152456,0.08557411510549513,1.0643790265173547,-0.2879366476010507,0.1727688997322491,0.0,-0.10082361316644674,0.04325183377960102,0.028864504260324365,-0.028819581650213182,0.061628000000000016,0.12421199999999999,-0.9103870000000001,-0.09051299999999995,-0.12502799999999992,-0.911105,0.15214099999999997,0.2492399999999999,0.0007179999999999964,0.9885682818123596,0.9899032832882477,double,-0.9103870000000001
3,0.025,stand,0.05808232329292985,0.08076323052922534,-0.011160446417857883,-0.0767885051923654,-0.2415921355150737,0.059880968883825894,0.000840033601341563,-0.0003600144005730523,0.0014400576023042833,-0.0036001440057704926,-0.004200168006721138,0.0010800432017281083,0.116031744557054,-0.1284318726153846,-0.9073244203555486,-0.10078387248425016,-0.04320345620701455,-0.05757696027631969,0.01434758406768177,0.04313779220669942,-0.04318272020726476,0.06115100000000001,0.12353599999999998,-0.910282,-0.09102700000000002,-0.12573599999999996,-0.911003,0.15217800000000004,0.24927199999999994,0.0007209999999999717,0.989947352213381,0.9906060093877096,double,-0.910282
4,0.033333,stand,0.05916236649466233,0.07308292331692916,-0.002400096003842554,-0.03816353209835337,-0.1459447436254359,0.029059363438560297,0.0030001200047998617,0.0015600624025009907,0.002280091203647928,-0.0024000960038292308,-0.0026401056042201477,0.001200048001920028,0.12961036862264258,-0.9216737324248383,1.0512841010458813,0.25922073724448563,0.2304184331062094,0.10080806448381673,0.14401152069377918,0.18721497689919483,0.014401152069113118,0.06068299999999999,0.12294000000000005,-0.910243,-0.09153999999999995,-0.1263669999999999,-0.910973,0.15222299999999994,0.24930699999999995,0.0007300000000000084,0.9859026699196077,0.9937259941832404,double,-0.910243
>>>>>>> 3b0d06690e55fb02323d988053aa126fb7c3a6e7
5,0.041667,step_acsent,0.05927525797936098,0.07307415406768437,-0.001679865610746159,-0.024695541355539617,-0.04889784958988863,0.03161802511807612,-0.0010799136069091966,-0.0033597312215056393,-0.0041996640268774695,-0.0026397888169039487,-0.003719702423819806,0.0009599232061434276,0.013545894492278159,-0.0010522257313154886,0.08642073351288634,-0.4895648682156297,-0.5903280086401043,-0.7775084269888884,-0.028760836702029984,-0.12954125505155487,-0.02881267047955367,0.06018000000000001,0.12230299999999994,-0.9102640000000001,-0.09205600000000003,-0.1270070000000001,-0.9109510000000001,0.15223600000000004,0.24931000000000003,0.0006869999999999932,0.9839874278452402,0.9922314516440195,double,-0.9102640000000001
6,0.05,step_acsent,0.05712228489139949,0.07536301452057625,0.000840033601341563,-0.055204020683601,-0.03893212116113917,0.03765477839890724,0.006360254410172775,0.004320172806916597,0.005640225609024173,-0.0026401056042201477,-0.004200168006721138,-0.00012000480019191952,-0.2583671052395881,0.27467424131667834,0.30240000145058465,0.8928558762848879,0.9216253484246053,1.1808339896677837,-3.801599858382168e-05,-0.05765817627521085,-0.12959654462202655,0.05975699999999995,0.12171100000000001,-0.910224,-0.09255400000000003,-0.12767000000000006,-0.910959,0.15231099999999997,0.24938100000000007,0.0007349999999999302,0.9767572278688605,0.9917292399183449,double,-0.910224
7,0.058333,step_acsent,0.062402496099839784,0.07608304332173568,0.0037201488059526275,-0.05485219770301036,-0.13080749660216626,0.0477127165642096,0.0030001200047998617,-0.00024000960039091698,0.00180007200288025,-0.0038401536061480864,-0.0037201488059393044,0.0010800432017281083,0.6336506910404768,0.08640691241562799,0.34562764965931414,-0.403232257935067,-0.5472437786280467,-0.46083686621191916,-0.14401152069218032,0.057604608278151184,0.144011520691231,0.05926199999999998,0.12107499999999993,-0.91024,-0.09310600000000002,-0.12833499999999998,-0.910981,0.152368,0.2494099999999999,0.0007409999999999917,0.9867451105259396,0.9909089818173921,double,-0.91024
8,0.066667,step_acsent,0.07043436525078044,0.07727381809454978,-0.00035997120230084524,-0.11354388913690151,-0.1591014997830521,-0.006043802271528501,0.0032397408207342506,0.0003599712023141669,0.00011999040076764225,-0.0035997120230350957,-0.005279577633807897,0.00035997120230375936,0.9637471983370113,0.14288154221431437,-0.489575234971619,0.02875219773630776,0.07199193696965249,-0.20159366476033208,0.02885068191900536,-0.18711649002502914,-0.08640172779269845,0.058701999999999976,0.12043400000000004,-0.910236,-0.093723,-0.1290230000000001,-0.910975,0.15242499999999998,0.24945700000000015,0.0007389999999999342,0.9871735240304486,0.9893331450658964,double,-0.910236
9,0.075,step_acsent,0.061562462498498276,0.08160326413056695,-0.0014400576023055336,-0.07594702566800342,-0.03214272695166819,0.0006960223460579094,0.003600144005763834,0.0004800192007685112,0.0013200528021121566,-0.004920196807867247,-0.005520220808831217,0.000360014400575967,-1.0646709171105446,0.5195543064943213,-0.1296155526226676,0.04325011220803835,0.014406336067964046,0.14401324869128948,-0.15846451276036871,-0.028878336136243778,5.184000024919264e-06,0.05821900000000002,0.11975800000000003,-0.910213,-0.09427699999999994,-0.12974900000000011,-0.91096,0.15249599999999996,0.24950700000000015,0.0007469999999999422,0.9860892454945722,0.9876609489858167,double,-0.910213
10,0.083333,step_acsent,0.06384255370215193,0.07416296651866157,0.005640225609026666,-0.07939870628410735,-0.0567933822309633,-0.01742156692142369,0.002520100804031349,-0.0001200048001954584,0.002040081603264087,-0.004440177607112052,-0.005280211208440291,0.0013200528021121544,0.2736218893140109,-0.892871428285777,0.8496679720787464,-0.129610368622643,-0.07200576034609013,0.08640691241472818,0.057604608274954394,0.02880230413907661,0.1152092165530045,0.05770799999999998,0.119139,-0.910243,-0.09484600000000004,-0.13041100000000005,-0.910996,0.15255400000000002,0.24955000000000005,0.0007530000000000037,0.987062381361417,0.9882931232236013,double,-0.910243
11,0.091667,step_acsent,0.07043436525078049,0.07871370290376654,0.00023998080152945648,-0.08609177527908479,-0.09633993484259756,0.004743045113379892,0.0033597312215056423,-0.0009599232061444692,0.0005999520038398769,-0.003239740820734253,-0.005759539236866815,-0.00011999040076805865,0.7909541095066674,0.5460446826379863,-0.6479775386965699,0.10074759028969212,-0.10078214614218999,-0.17280172779268194,0.14404089109404838,-0.05751476223020455,-0.17279136103674275,0.057149000000000005,0.118475,-0.9102399999999999,-0.09546000000000004,-0.1311150000000001,-0.910999,0.15260900000000005,0.2495900000000001,0.0007590000000000652,0.9865011580262745,0.988984529754475,double,-0.9102399999999999
12,0.1,step_acsent,0.06504260170406655,0.034801392055683694,-0.0007200288011461039,-0.0622095648225511,-0.03682536591377317,0.06813172516677618,0.003600144005757166,0.0013200528021100728,0.0014400576023038656,-0.0024000960038425517,-0.004680187207476322,0.0006000240009600134,-0.6470375071059572,-5.269688089293509,-0.11520576055148922,0.02885068813770833,0.27360806531315734,0.10081670448385792,0.10076140848334343,0.129527424623844,0.08640518441474516,0.05663699999999999,0.11819599999999997,-0.9102220000000001,-0.09602200000000005,-0.131444,-0.910988,0.15265900000000004,0.24963999999999997,0.0007659999999999334,0.9855133076659619,0.9911769490779339,double,-0.9102220000000001
13,0.108333,step_acsent,0.059402376095039976,0.08364334573382314,0.007320292811709803,-0.042209628825038724,-0.08244449676630343,-0.02538132906810935,0.004920196807873908,-0.0001200048001954586,0.0007200288011523505,-0.0028801152045977436,-0.004680187207502976,0.0014400576023042844,-0.676854147249079,5.861268892132423,0.9648771886302547,0.15841267276091964,-0.1728138248296571,-0.08640691241467847,-0.057604608274954075,-3.1986110894496175e-12,0.10080806448389196,0.05618300000000004,0.11749799999999999,-0.910277,-0.09654099999999993,-0.13218000000000008,-0.911037,0.15272399999999997,0.24967800000000007,0.0007599999999999829,0.9841099156861995,0.9905317809683916,double,-0.910277
14,0.116667,step_acsent,0.06491480681545635,0.09131269498440256,0.015958723302128462,-0.05712307943150613,0.18133316481815767,-0.0231056257719887,0.00455963522917956,-0.00035997120230084497,-0.0008399328053755765,-0.0034797216222770253,-0.002639788816890625,0.0019198464122868538,0.661438771348256,0.9202482902063135,1.036528736551314,-0.04326392832905542,-0.028793664759465577,-0.18718041834988305,-0.07194701436036491,0.24482822061583265,0.05757005159378077,0.05568000000000001,0.116734,-0.9104169999999999,-0.097111,-0.13296300000000005,-0.9111539999999999,0.152791,0.24969700000000006,0.0007369999999999877,0.9848794910906862,0.9920482779969273,double,-0.9104169999999999
15,0.125,step_acsent,0.07932317292691986,0.07632305292211333,-0.01164046561861308,-0.08123994276332641,-0.21206555619501358,-0.03991658298115937,0.00480019200767845,-0.0008400336013415638,-0.0002400096003842556,-0.001080043201732481,-0.0019200768030740447,-0.0008400336013440619,1.7290730962994747,-1.798829000634734,-3.3120351518950635,0.02886796813859234,-0.05760979227657737,0.0719936643455324,0.28797292938252084,0.08636889641384628,-0.3311988495896937,0.05505899999999997,0.11609100000000006,-0.9103220000000001,-0.09778100000000006,-0.13361500000000004,-0.9110640000000001,0.15284000000000003,0.2497060000000001,0.0007420000000000204,0.984448254190069,0.9960704662777674,double,-0.9103220000000001
16,0.133333,step_acsent,0.08508340333613519,0.0897635905436315,0.0026401056042201455,-0.049676428311864175,-0.11917259477237836,-0.03499614698584458,0.0037201488059526245,-0.0002400096003909168,0.0019200768030723761,-0.0022800912036470937,-0.0013200528021100728,0.0014400576023040738,0.6912552993178122,1.612929031743449,1.7137370962238347,-0.1296103686218438,0.07200576034449135,0.25922073724428535,-0.14401152069058104,0.07200576034609042,0.2736218893133486,0.05438099999999996,0.11534099999999992,-0.910328,-0.09850900000000007,-0.1343740000000001,-0.911074,0.15289000000000003,0.24971500000000002,0.0007460000000000244,0.9855511583624705,0.9949958014307814,double,-0.910328
17,0.141667,step_acsent,0.07727381809454997,0.09323254139667848,0.006359491240697128,-0.10884835907408794,-0.047956430316018026,-0.0009066808301827318,0.005519558435324046,-0.0007199424046016923,-0.00011999040076805884,-0.0015598752099747737,-0.0017998560115042308,0.0003599712023039684,-0.9370752629691909,0.41624080310139033,0.4462905731313885,0.21591188257396515,-0.05758732951893168,-0.2447884813823422,0.08641900572022099,-0.057571779384948306,-0.12960000000001295,0.05378299999999997,0.11455800000000005,-0.910382,-0.09916599999999998,-0.1351659999999999,-0.9111239999999999,0.15294899999999995,0.24972399999999995,0.0007419999999999094,0.9833006561410158,0.9959853491921152,double,-0.910382
18,0.15,step_acsent,0.08748349933997109,0.10140405616225788,0.010560422416893905,-0.07051897426278256,0.18353444863062057,-0.04965966048978194,0.00396015840633688,-0.0010800432017324792,0.0010800432017278993,-0.0010800432017324792,-0.0007200288011727504,0.0,1.2252107578808478,0.9806209967093951,0.5041319064198696,-0.18713548889801565,-0.04321382420866273,0.1440097926912225,0.05758214427484629,0.12958444861772223,-0.04319827220736446,0.053086999999999995,0.11370399999999992,-0.910461,-0.09990399999999999,-0.13601700000000017,-0.9112119999999999,0.152991,0.24972100000000008,0.0007509999999999462,0.9854158213593207,0.9978365826980042,double,-0.910461
19,0.158333,step_acsent,0.0999639985599457,0.09780391215647408,0.0,-0.11137258380261333,-0.18376851482626685,-0.040473582215534286,0.005040201608069359,-0.0013200528021100728,-0.0006000240009598053,-0.0020400816032695,-0.0009600384015103743,0.00024000960038404702,1.49771981518956,-0.4320345620765391,-1.2673013820825507,0.12961036862264227,-0.028802304137476704,-0.2016161289676831,-0.11520921655310451,-0.028802304132680152,0.028802304138251147,0.05229600000000001,0.11287800000000003,-0.910466,-0.10075400000000007,-0.13683999999999985,-0.91121,0.15305000000000007,0.24971799999999988,0.0007439999999999669,0.9838189410042681,0.9962209601128764,double,-0.910466
20,0.166667,step_acsent,0.08891288696904139,0.10367170626350924,-0.011879049676021134,0.003396486503274145,-0.21021420247512904,-0.0877968983073549,0.005279577633787911,-0.0009599232061444676,0.0010799136069112771,-0.0011999040076739237,-0.0004799616030855554,-0.00023998080153590876,-1.3260273087238186,0.7040789665268973,-1.4253719313680253,0.028722825260205368,0.04321209454830871,0.201576386833583,0.10081324641175611,0.05760460744238282,-0.057594240691139345,0.051599000000000006,0.11200599999999994,-0.910358,-0.10150500000000001,-0.13770800000000005,-0.911113,0.15310400000000002,0.249714,0.0007549999999999502,0.9833271340469126,0.9978092850271771,double,-0.910358
21,0.175,step_acsent,0.08988359534381393,0.09036361454458244,-0.008760350414015352,-0.029257749567810503,-0.15170144627329685,-0.05453588520770088,0.003360134405372922,-0.0015600624024876715,0.0004800192007680956,-0.001800072002878589,-0.00012000480018213558,0.000960038401535983,0.1164896645592883,-1.5970348876667269,0.37425888179596667,-0.23034240110584345,-0.07201958434455843,-0.07199020834551578,-0.07202304034617388,0.04319654421017889,0.14400806469121502,0.05087799999999998,0.11124,-0.910281,-0.102269,-0.13846199999999997,-0.9110320000000001,0.15314699999999998,0.24970199999999998,0.0007510000000000572,0.9862639979934211,0.9965939864862774,double,-0.910281
22,0.183333,step_acsent,0.1110044401776081,0.13476539061562273,0.003240129605184114,-0.16669459068540748,-0.096119160781587,-0.15601072686546102,0.005040201608069359,-0.0010800432017324792,0.0009600384015361881,-0.0012000480019146143,0.0,0.0,2.5346027641658653,5.3284262655754535,1.4401152069122112,0.201616128968731,0.05760460827495403,0.05760460827650211,0.07200576034609076,0.014401152067938976,-0.11520921655297998,0.04999500000000001,0.11010799999999998,-0.9103,-0.10320399999999996,-0.13958499999999996,-0.9110590000000001,0.15319899999999997,0.24969299999999994,0.0007590000000000652,0.9836712295391905,0.997999919996809,double,-0.9103
23,0.191667,step_acsent,0.09287257019438398,0.11963042956562439,-0.007919366450685196,0.0029986160678383226,-0.059726748019918494,-0.10549811054097122,0.005159587233016522,-0.0004799616030722338,0.002039836813054912,-0.0015598752099880903,0.0008399328053597571,0.0008399328053755765,-2.1756503459592156,-1.8160500419964394,-1.339032404111987,0.01432512898334089,0.07200403151670805,0.12956544414671503,-0.04317581090394477,0.1007838739332561,0.10078387393515427,0.049263999999999974,0.10910700000000007,-0.910217,-0.103991,-0.140575,-0.910986,0.15325499999999997,0.24968200000000007,0.0007689999999999086,0.9830285014111967,0.9967322344935716,double,-0.910217
24,0.2,step_acsent,0.10656426257050272,0.10728429137166215,-0.008040321612869218,-0.09824829792175974,-0.01531757267247732,-0.12950979010552302,0.00396015840633688,-0.0006000240009639688,0.002640105604224309,-0.0007200288011594272,0.0006000240009639688,0.00024000960038404702,1.6430688078865627,-1.4815958471093522,-0.014515200070085447,-0.14393721669022452,-0.014408064069570972,0.07203513634578136,0.10078560048345883,-0.028790208135820006,-0.07199366434555729,0.04840899999999998,0.10820799999999997,-0.9101279999999999,-0.10488500000000006,-0.14146400000000003,-0.910917,0.15329400000000004,0.249672,0.0007890000000000397,0.9841146817507456,0.9983874839496851,double,-0.9101279999999999
25,0.208333,step_acsent,0.10464418576742902,0.10812432497300407,-0.00024000960037759439,-0.03727086635891678,-0.05938447753664411,-0.12095532969303054,0.003840153606148096,0.0,0.002400096003840062,-0.0008400336013415652,0.002400096003855883,0.0014400576023040788,-0.23041843310616852,0.10080806448361054,0.936074884494377,-0.014401152068736878,0.07200576034609028,-0.02880230413827523,-0.01440115206793932,0.21601728103827178,0.14401152069123183,0.04756900000000003,0.10730699999999993,-0.910106,-0.10576400000000002,-0.14234499999999994,-0.910903,0.15333300000000005,0.24965199999999987,0.0007970000000000477,0.9844825131948771,0.9951294869147018,double,-0.910106
26,0.216667,step_acsent,0.10127189824814142,0.1361891048716098,-0.002039836813060324,0.0028716173613291397,0.014484665949554788,-0.11873104453998946,0.0035997120230350926,-0.00035997120230084497,0.001319894408447394,-0.0002399808015294561,0.0023998080153478474,0.001319894408447394,-0.40464213094403617,3.367504187497683,-0.21596198856284232,-0.028850681919006846,-0.04319308882899504,-0.12961382234133273,0.07200057593137851,-3.4555856495764276e-05,-0.014418429788419087,0.04675499999999999,0.10616899999999996,-0.9100779999999999,-0.10660999999999998,-0.14346000000000003,-0.910875,0.15336499999999997,0.249629,0.0007970000000000477,0.9856117908423854,0.9954177908817904,double,-0.9100779999999999
27,0.225,step_acsent,0.10932437297491832,0.11208448337933392,-0.0012000480019146143,-0.05209042444015728,-0.062064677521837114,-0.14271623027168745,0.003240129605184114,0.0012000480019146143,0.0014400576023038656,-0.0006000240009639688,0.0030001200047931973,0.0027601104044160203,0.9663356206380518,-2.892670285884537,0.10077868848502448,-0.04315161620676564,0.18720979289757086,0.014420160069179351,-0.043206912208629836,0.07204032034625578,0.1728328328295482,0.045870999999999995,0.10524499999999992,-0.910056,-0.10752600000000001,-0.14436900000000008,-0.910842,0.153397,0.249614,0.0007860000000000644,0.9859011608622448,0.9931324114111084,double,-0.910056
28,0.233333,step_acsent,0.10164406576262881,0.11712468498739663,-0.004080163206525676,-0.00012793658230596253,0.03971725060669463,-0.1803077876152918,0.002760110404415604,-0.0006000240009506456,0.0025201008040321815,-0.0021600864034516352,0.003720148805965948,0.00432017280691243,-0.9216737324240365,0.6048483869030002,-0.34562764965931353,-0.05760460827655224,-0.2160172810350724,0.12961036862214267,-0.18721497689759573,0.0864069124172267,0.18721497689864494,0.045047000000000004,0.10426400000000002,-0.9100010000000001,-0.10839099999999996,-0.14531399999999994,-0.910772,0.15343799999999996,0.24957799999999997,0.0007709999999999662,0.9859810235227091,0.9898388849186808,double,-0.9100010000000001
29,0.241667,step_acsent,0.10763138948884554,0.13042956563474342,0.0020398368130470092,-0.06860567751424627,0.0046556232942729136,-0.16166125307303883,0.0032397408207342584,-0.0002399808015427785,0.00011999040076805884,-0.002039836813060331,0.0040796736260940185,0.004319654427645748,0.7184213734361342,1.5964579610447354,0.7343412550483202,0.057551045874568704,0.043201727790720894,-0.2879902091749614,0.01442879654323308,0.0431395272531883,-6.220053595896286e-05,0.044176999999999966,0.10317500000000002,-0.910017,-0.10930500000000004,-0.14636700000000002,-0.9107529999999999,0.153482,0.24954200000000004,0.0007359999999999589,0.987221946570616,0.9895299255158063,double,-0.910017
30,0.25,step_acsent,0.08952358094323393,0.09408376335053477,0.010080403216138718,-0.011043477880073366,0.12135971826821516,-0.10674247105477624,0.003840153606148083,-0.0001200048001954584,0.0019200768030719598,-0.003840153606148083,0.003480139205575031,0.006720268810752484,-2.173023946431249,-4.361670740934672,0.9649065646335895,0.07205241634631274,0.014397696069521182,0.2160190090368294,-0.2160466570368115,-0.07194700834261213,0.2880852493827834,0.04346300000000003,0.10238999999999998,-0.910085,-0.11008300000000004,-0.14712199999999998,-0.9107810000000001,0.15354600000000007,0.24951199999999996,0.0006960000000000299,0.9858815015927886,0.9858558844687815,double,-0.910085
31,0.258333,step_acsent,0.09552382095284062,0.10752430097204009,0.009240369614783863,-0.06818087169411242,0.16123061032882663,-0.13288784249792426,0.00408016320652569,-0.001320052802110077,0.0,-0.004920196807867256,0.003480139205575043,0.006840273610944426,0.7200576034569434,1.6129290317419123,-0.10080806448516229,0.02880230413747844,-0.1440115206905822,-0.23041843310596,-0.12961036862104588,1.4051822228301305e-15,0.014401152069115861,0.04270099999999999,0.10148299999999999,-0.910162,-0.11092000000000002,-0.14798899999999993,-0.9108010000000001,0.153621,0.24947199999999992,0.0006390000000000562,0.986462686753393,0.9848059726106577,double,-0.910162
32,0.266667,step_acsent,0.11627069834413208,0.1203503719702394,0.008039356851443264,-0.11686198454264092,0.039890207358239,-0.2017519306836651,0.002639788816897286,-0.0016798656107461574,0.0017998560115192117,-0.0051595872330231825,0.0034797216222770253,0.011159107271418403,2.489426132864343,1.5390053993519675,-0.14411000280064765,-0.17283110026738693,-0.04317408310968082,0.21596544414677346,-0.02872455305446684,-5.010598728311465e-05,0.5182185817703351,0.04175400000000001,0.10046600000000006,-0.910214,-0.11193200000000003,-0.14896299999999985,-0.910775,0.15368600000000004,0.2494289999999999,0.0005610000000000337,0.9883738377103872,0.9787047554813847,double,-0.910214
33,0.275,step_acsent,0.10776431057242364,0.1292451698067911,-0.0033601344053795614,0.06518546181336822,0.09542499535377284,-0.12869271126466267,0.00252010080403134,-0.0018000720028785772,0.0009600384015361848,-0.008280331213246783,0.004320172806903256,0.011760470418816392,-1.020807364899604,1.0674184371236843,-1.3679936705655558,-0.014363136069356222,-0.014425344069653092,-0.10078214448374215,-0.3745042577971424,0.10085817648220652,0.07216646434633217,0.040877,0.09937400000000007,-0.9101779999999999,-0.11289900000000003,-0.15000399999999992,-0.9106489999999999,0.15377600000000002,0.249378,0.0004709999999999992,0.9898860814088162,0.9749702153783387,double,-0.9101779999999999
34,0.283333,step_acsent,0.11808472338893404,0.15036601464059315,0.012240489619590393,-0.22533849446843093,-0.07621625952350218,-0.22964496297257955,0.07980319212768185,-0.000960038401537024,0.027601104044161544,-0.008400336013442297,0.010080403216125428,0.020520820832833485,1.2384990779443692,2.5346027641668196,1.8721497689871585,9.274341932515384,0.10080806448356597,3.1970557593454245,-0.014401152069544492,0.6912552993186352,1.0512841010460956,0.04055799999999998,0.098113,-0.91005,-0.11395300000000003,-0.151173,-0.91058,0.154511,0.249286,0.0005299999999999194,0.8539550366802425,0.9594042879319729,double,-0.91005
35,0.291667,step_acsent,0.12335013198943753,0.12407007439404588,0.004919606431480405,-0.06310847531677406,0.020515211123434372,-0.12853530439636765,0.004319654427650105,-0.0019198464122889352,-0.0007199424046075181,-0.007919366450685196,0.011759059275249745,0.022678185745140567,0.6317984881813641,-3.1552604087529694,-0.8784357077165804,-9.0572999400086,-0.1151677478703996,-3.3982537135552,0.05771173059240465,0.201422613285855,0.2588630804304152,0.039566000000000046,0.09706300000000001,-0.9100969999999999,-0.11504700000000001,-0.15210900000000005,-0.9104319999999999,0.15461300000000006,0.24917200000000006,0.0003349999999999742,0.9886806940064032,0.9554250958525935,double,-0.9100969999999999
36,0.3,step_acsent,0.13248529941198273,0.1372854914196612,0.00648025921036825,-0.1294766607989806,0.0429443013950026,-0.17491927825197445,0.004440177607098744,-0.003840153606148096,-0.004320172806912445,-0.010920436817466994,0.018720748829958642,0.02904116164646583,1.0962639412630764,1.5859134796130272,0.18728582489953782,0.014463360068239457,-0.23044608110634413,-0.43204493007379524,-0.3601428497278057,0.8354361640116301,0.7635876516651002,0.03849899999999995,0.09588699999999994,-0.910187,-0.11624200000000001,-0.15309700000000004,-0.9102439999999999,0.15474099999999996,0.24898399999999998,5.699999999997374e-05,0.9872820863722088,0.9396052005822695,double,-0.910187
37,0.308333,step_acsent,0.13872554902195913,0.12504500180006997,0.006240249609990614,-0.0837793741840659,0.15274369645475938,-0.1336164513817319,0.005400216008642393,-0.0034801392055616963,-0.0022800912036479186,-0.012960518420736413,0.021000840033605604,0.03720148805952196,0.7488599075934693,-1.468917511051384,-0.028802304137481683,0.11520921655389954,0.04320345620861612,0.2448195851751491,-0.24481958517573638,0.2736218893132068,0.9792783407003596,0.03738799999999998,0.09481600000000001,-0.910258,-0.117506,-0.153964,-0.909986,0.15489399999999998,0.24878,0.00027200000000005,0.9886382075789271,0.9228756797533068,double,-0.909986
38,0.316667,step_acsent,0.13786897048236352,0.12526997840173396,-0.00791936645068525,0.1705631445814762,0.18802756746244495,-0.04936467902897107,0.005399568034559336,-0.002879769618433422,-0.004199664026877911,-0.013318934485237924,0.035277177825776114,0.05135589152867815,-0.10278120225529395,0.0269950325970705,-1.699018005840646,-7.775066991321424e-05,0.07203858736840385,-0.2303303123626114,-0.04300648722120379,1.7130234931810164,1.6983925448951607,0.03628399999999998,0.09374799999999994,-0.910227,-0.11876599999999998,-0.15471400000000002,-0.909492,0.15504999999999997,0.24846199999999996,0.0007350000000000412,0.9876300559201683,0.8864622615642093,double,-0.909492
39,0.325,step_acsent,0.1374054962198424,0.10932437297491795,0.0015600624025009842,0.07266351105401617,0.2689819216186499,-0.09625184956440044,0.005640225609019986,-0.004560182407294172,-0.005640225609024566,-0.006960278411136715,0.043201728069112495,0.06924276971078827,-0.055619136267983385,-1.9135491931856394,1.137576965460962,0.028880064137843404,-0.20165760096732782,-0.17287430482979102,0.7630692516622083,0.9509840685631042,2.1465112423028976,0.035185999999999995,0.09279899999999996,-0.9102870000000001,-0.11996899999999994,-0.1552650000000001,-0.9089280000000001,0.15515499999999993,0.24806400000000006,0.001358999999999999,0.9846866476718721,0.8498918292422077,double,-0.9089280000000001
40,0.333333,step_acsent,0.138365534621387,0.1227649105964237,0.008760350414015352,-0.12462179859485138,0.16459821833194171,-0.09862479589886401,0.0045601824073008635,-0.003960158406343554,0.0006000240009602237,-0.008280331213246839,0.059282371294851276,0.09288371534861423,0.1152092165540144,1.6129290317419622,0.8640691241466921,-0.12961036862103986,0.07200576034448805,0.7488599075944803,-0.1584126727601256,1.929754377263749,2.8370269576174265,0.03407100000000002,0.09174299999999991,-0.910355,-0.12119099999999994,-0.1557940000000001,-0.908227,0.15526199999999996,0.247537,0.0021280000000000188,0.989884260477284,0.7945525942073348,double,-0.908227
41,0.341667,step_acsent,0.14746820254379397,0.1095512359011208,0.004199664026878715,0.26148752537697934,0.5098489349300438,-0.09582419147379564,0.0033597312214989758,-0.0014398848092033799,0.012359011279097531,-0.010319174466046365,0.06719462443005944,0.12107031437484983,1.0922327720670695,-1.5855141223065612,-0.5472385873694063,-0.14404261888671546,0.3024086389657034,1.4109655961287852,-0.24464161900642242,0.9493944246710052,3.3821213134431938,0.03287000000000001,0.09081800000000007,-0.9102870000000001,-0.12250599999999995,-0.15614699999999992,-0.907253,0.15537599999999996,0.246965,0.003034000000000092,0.9785196328695409,0.7382415242131547,double,-0.907253
42,0.35,step_acsent,0.13968558742350376,0.10668426737069853,0.018480739229567725,-0.022663477857131097,0.4119496186112668,-0.04461220891198603,0.02952118084723684,0.003960158406330232,-0.005520220808832059,0.004440177607098744,0.05964238569542433,0.15252610104404188,-0.9339511724817274,-0.34404998565009964,1.7137975762257345,3.1394995350699544,0.6480311071083193,-2.145593674298528,1.7711930965012774,-0.9063049003522299,3.77484539411882,0.03195199999999998,0.08996199999999999,-0.910487,-0.12363300000000005,-0.15653899999999998,-0.906136,0.15558500000000003,0.24650099999999997,0.004350999999999994,0.9495119428039123,0.6834355648068116,double,-0.906136
43,0.358333,step_acsent,0.14964598583943273,0.11076443057722349,0.013560542421700381,0.01812949219403355,0.40076866001648714,-0.15124660913772695,0.011760470418815143,-0.005160206408258139,-0.0033601344053762307,0.0,0.07440297611905225,0.18936757470298768,1.1952956217363404,0.4896391703498073,-0.5904472348334722,-2.1313705062308443,-1.09448755725289,0.25922073724418804,-0.5328426265569093,1.7713417045035234,4.421153685220887,0.03080299999999997,0.08899599999999996,-0.910628,-0.12488000000000005,-0.15684199999999993,-0.904671,0.15568300000000002,0.2458379999999999,0.00595699999999999,0.977874920096199,0.6013303702438868,double,-0.904671
44,0.366667,step_acsent,0.16414686825053743,0.19042476601871894,-0.04763618910488257,0.23323924154972425,-0.20825810898883967,-0.42871899925720575,0.005039596832251794,-0.0033597312215056367,-0.005159587233021518,-0.0035997120230350926,0.09839212862968803,0.2389008879289654,1.7399666919972023,9.55847557493345,-7.343020341562622,-0.8064403151623881,0.21603973923116154,-0.2159170659521581,-0.43193088829314724,2.8784680238343845,5.943522105348894,0.029476999999999975,0.08738099999999993,-0.9102739999999999,-0.126278,-0.1576090000000001,-0.902283,0.15575499999999998,0.24499000000000004,0.00799099999999997,0.9867390851531066,0.4894328691839452,single,-0.902283
45,0.375,step_acsent,0.15696627865114354,0.0948037921516812,-0.008520340813624433,0.1991881913150959,0.5760831955879195,-0.2567302096578791,-0.009000360014399607,-0.006000240009599738,0.0038401536061443485,-0.007920316812673786,0.1120844833793343,0.27409096363854596,-0.8617052201360735,-11.47497586307908,4.69408955853333,-1.6848622160868159,-0.31687372952047377,1.080012101183954,-0.5184933144892241,1.6431482958893915,4.222978004269847,0.028094000000000008,0.08654099999999998,-0.9101710000000001,-0.127652,-0.15746500000000008,-0.8999280000000001,0.155746,0.24400600000000006,0.010243000000000002,0.9808691537417542,0.40385528485815897,single,-0.8999280000000001
46,0.383333,step_acsent,0.15900636025441303,0.06840273610945301,0.05580223208927623,-0.3096813764528701,1.281351535378427,-0.1283908968271424,-0.007920316812673786,-0.005160206408258173,-0.012120484819392853,-0.017400696027835245,0.1372854914196612,0.3494539781591274,0.2448195851757463,-3.1682534552055985,7.719017509048461,0.12961036862184372,0.10080806448356745,-1.9153532251934766,-1.1376910134599163,3.024241934516617,9.043923499409768,0.026702999999999977,0.0859279999999999,-0.9107369999999999,-0.12912199999999996,-0.1568910000000001,-0.897481,0.15582499999999994,0.242819,0.013255999999999935,0.9743817935375985,0.36744,single,-0.897481
47,0.391667,step_acsent,0.16906647468202451,0.08123350131988565,0.03995680345572683,-0.1907410128710727,0.878118493288591,-0.16434726715560077,-0.012718982481400874,-0.008519318454515498,-0.015598752099832195,-0.047876169906412025,0.1534677225821969,0.39320854331653454,1.2071171619404215,1.5395686597591343,-1.90129933207936,-0.5757938167419107,-0.40306120065482626,-0.417358684957924,-3.6567643242832673,1.9417124025120809,5.250127808664161,0.025187999999999988,0.08518000000000003,-0.9112,-0.13093,-0.156289,-0.894537,0.15611799999999998,0.24146900000000004,0.016662999999999983,0.9635738048558897,0.33336999999999994,single,-0.894537
48,0.4,step_acsent,0.18552742109684212,0.06180247209888888,0.05448217928717911,-0.3607545332184339,0.8993922381185607,-0.10559675586092011,0.005160206408258139,0.0033601344053795614,0.006840273610944588,-0.05736229449177684,0.21708868354733493,0.4539781591263625,1.975392585481523,-2.3318167791907696,1.7431148243672412,2.145588490298685,1.425591366842075,2.6927907969250797,-1.1383804854631918,7.634820708644877,7.292645603003447,0.02368500000000001,0.08469300000000002,-0.9115970000000001,-0.13295399999999996,-0.1549950000000001,-0.891208,0.15663899999999997,0.23968800000000012,0.0203890000000001,0.984660546830818,0.29611000000000004,single,-0.891208
49,0.408333,step_acsent,0.18000720028801212,0.05400216008639764,0.06360254410175456,-0.2384833389737845,0.8975784281351707,-0.021067037927652417,0.004200168006721149,0.0010800432017191595,-0.006840273610944634,-0.14832593303732364,0.33073322932917165,0.5520220808832367,-0.6624529951794083,-0.936074884494331,1.0944875572513464,-0.11520921655310123,-0.27362188931482145,-1.6417313358801462,-10.916073268396378,13.63789100946082,11.765741240474547,0.022220000000000018,0.084252,-0.912184,-0.13568999999999998,-0.15268900000000007,-0.887138,0.15791,0.23694100000000007,0.025046000000000013,0.9865013120313646,0.24954000000000004,single,-0.887138
50,0.416667,step_acsent,0.21982241420686327,0.029877609791223243,0.11723062155027654,-0.5718120649263982,0.6246340944129896,0.07834175022603485,0.025797936165109253,-0.007199424046070185,-0.014278857691384384,-0.17950563954884227,0.33789296856253287,0.6333093352531797,4.7774434747841505,-2.894714458264264,6.434854505462194,2.5915248570180087,-0.9934565932072639,-0.8925586849579725,-3.741265480143821,0.8590999800049449,9.753690229174817,0.020603000000000038,0.08394299999999999,-0.91328,-0.13901800000000003,-0.15012199999999998,-0.882837,0.15962100000000007,0.23406499999999997,0.030442999999999998,0.9494131386747894,0.19557000000000002,single,-0.882837
51,0.425,step_acsent,0.19380775231009686,0.050162006480249544,0.11940477619104412,-0.6119608084192205,1.273928731387552,0.26575918922707975,0.02652106084243031,-0.003960158406343554,0.010800432017280695,-0.19404776191047446,0.3771750870034686,0.6799471978879169,-3.1218843029840957,2.4342249716820294,0.2609089932518398,0.0867784324158235,0.38872742586423126,3.0096351504458347,-1.7451244883754018,4.714042774623282,5.596767386863957,0.019208999999999976,0.08349200000000001,-0.9141849999999999,-0.14225000000000004,-0.147397,-0.878166,0.16145900000000002,0.230889,0.03601899999999991,0.9518192392428055,0.13981000000000005,single,-0.878166
52,0.433333,step_acsent,0.1606864274570951,0.024000960038412116,0.05760230409216776,-0.06012496071647134,1.0576320835292583,0.15308547476555756,0.021840873634947165,-0.009600384015356853,-0.0006000240009602196,-0.21576863074522487,0.40777631105244183,0.7584303372134853,-3.9747179710790377,-3.139451151066521,-7.416593315597756,-0.5616449306952027,-0.6768541472474829,-1.3681094465667667,-2.606608524511019,3.67229377762788,9.418353453206295,0.018052000000000012,0.08321199999999995,-0.91467,-0.145387,-0.14419900000000008,-0.8723259999999999,0.163439,0.22741100000000003,0.04234400000000005,0.9602245482188596,0.07656000000000002,single,-0.8723259999999999
53,0.441667,step_acsent,0.17770578353731922,0.05507559395248258,0.06791456683466159,-0.04889105143416958,1.225832471088227,0.23502386706681394,0.013438924886009314,-0.0075593952483844025,-0.0064794816414685385,-0.3473722102231818,0.5118790496760411,0.9661627069834464,2.0421593568783556,3.7286577770663114,1.2373725392961226,-1.0081531976167384,0.2448990601118865,-0.7054784785827156,-15.7911662440554,12.49132932848571,24.925890301171382,0.016683000000000003,0.08268999999999993,-0.91529,-0.14976299999999998,-0.14039199999999996,-0.86484,0.16644599999999998,0.2230819999999999,0.050449999999999995,0.9721246404629452,0.0,single,-0.86484
54,0.45,step_acsent,0.1850474018960736,0.0337213488539511,0.1006840273610848,-0.2768509589788778,1.1344221114819282,0.32740283555471256,0.006600264010557003,-0.006960278411136715,0.00132005280211215,-0.32449297971919216,0.53930157206288,1.0091203648145883,0.8810294442282912,-2.562611916300418,3.932492562873284,-0.8206721319395515,0.07189689634557599,0.9359815724925784,2.7456174851781543,3.290834319793439,5.155125144742798,0.015195999999999987,0.08235099999999995,-0.916118,-0.154009,-0.13617899999999994,-0.85727,0.169205,0.2185299999999999,0.05884800000000001,0.9838624402944599,0.0,single,-0.85727
55,0.458333,step_acsent,0.1606864274570962,0.0061202448097951966,0.19440777631106082,0.3139248545267794,2.0811381055695564,0.2651578816244996,-0.001320052802110077,-0.006600264010550386,-0.001200048001920031,-0.37213488539541917,0.6007440297611732,1.0790831633265356,-2.9234338700320985,-3.3122649758977527,11.24729976598779,-0.9504760365615144,0.04320345620860798,-0.30242419345160054,-5.717257371442113,7.373389859389586,8.395871656299951,0.013846000000000025,0.08224500000000001,-0.917748,-0.158449,-0.13122400000000012,-0.849898,0.17229500000000003,0.21346900000000013,0.06784999999999997,0.9886048085657642,0.0,single,-0.849898
56,0.466667,step_acsent,0.17062634989201259,0.04271658267338884,0.15862730981520676,0.04596710924752763,1.8636693658867056,0.297530791527799,0.02147828173745915,-0.002399808015361169,0.02783777297816167,-0.4234461243100553,0.7011039116870694,1.153827693784496,1.1926952765678411,4.391209246891482,-4.293312514501324,2.7355812982444454,0.5040143982708438,3.484259776827655,-6.156856121266628,12.042222453311265,8.968626164862046,0.012602999999999975,0.08186899999999997,-0.9188379999999999,-0.16340000000000005,-0.1257370000000001,-0.841604,0.17600300000000002,0.20760600000000007,0.07723399999999991,0.9412628910292288,0.0,single,-0.841604
57,0.475,step_acsent,0.13368534741389734,0.039841593663746525,0.10416416656666051,0.4695524483699668,1.4631457483156143,0.06045549635462243,0.06744269770790931,-0.021600864034569716,-0.06192247689907642,-0.5261010440417562,0.8341533661346523,1.297851914076567,-4.433097621278692,-0.34501248165634507,-6.5358386233705,5.515950554476212,-2.304218891060674,-10.771660851702665,-12.31908313112938,15.96657319663785,17.283597778959717,0.012050999999999978,0.0813569999999999,-0.920222,-0.168898,-0.11911800000000006,-0.831657,0.18094899999999997,0.20047499999999996,0.088565,0.8432136277669777,0.0,single,-0.831657
58,0.483333,step_acsent,0.10008400336013415,0.04884195367813914,0.049321972878920976,0.3099741369907389,1.0013962163709826,0.011628762703061036,-0.022200888035520214,-0.017040681627262078,-0.022440897635905094,-0.4910596423856915,0.8567142685707401,1.356294251770066,-4.032322579354741,1.080086405183317,-6.581326495588541,-10.757660595635324,0.5472437786280594,4.737979030741769,4.205136404183911,2.707416588994081,7.013361057662163,0.011031999999999986,0.08080799999999999,-0.92082,-0.17382399999999998,-0.11238599999999999,-0.820766,0.18485599999999996,0.19319399999999998,0.10005399999999998,0.9402119914802544,0.0,single,-0.820766
59,0.491667,step_acsent,0.08879289656827,0.05723542116631392,-0.03371730261578779,0.32161366977304745,0.1522099481975249,-0.14317935213442373,-0.0009599232061444676,-0.012838972882165602,-0.03959683225341974,-0.4749220062395024,0.8676505879529615,1.4216462682985345,-1.3548244290693714,1.0071355277387535,-9.963915946089356,2.548711882574481,0.5041647162342779,-2.0585474703041315,1.9363614286283966,1.312253345598918,7.841614654243867,0.010284000000000015,0.08022399999999996,-0.920869,-0.17852199999999996,-0.10563200000000006,-0.808637,0.18880599999999997,0.18585600000000002,0.112232,0.9306043989199095,0.0,single,-0.808637
60,0.5,step_acsent,0.09696387855514615,0.06312252490098605,-0.048601944077761874,-0.2600885661197227,-0.11766414669571042,0.005693056768683559,0.004920196807873917,-0.012120484819394935,-0.011880475219008806,-0.5184207368294733,0.8741149645985943,1.488779551182051,0.9805570607075696,0.7064807073889525,-1.786228424573877,0.7056426273873034,0.08622201641313677,3.326095887964839,-5.220056473055442,0.7757562277250492,8.056316198669947,0.009516999999999998,0.07959700000000003,-0.920563,-0.18364999999999998,-0.0988739999999999,-0.795826,0.19316699999999998,0.17847099999999994,0.12473699999999999,0.9705485248287364,0.0,single,-0.795826
61,0.508333,step_acsent,0.1092043681747225,0.05688227529102166,-0.021480859234374115,-0.5733167247429843,-0.07680829432776215,0.09147882610862454,0.007080283211325512,-0.004920196807867223,-0.0006000240009600115,-0.5435017400696012,0.9005160206408165,1.486739469578775,1.468917511049597,-0.7488599075920271,3.2546603676212222,0.2592207372436801,0.8640691241482877,1.3537082944976295,-3.0098407824466276,3.1682534552048596,-0.24481958517652078,0.008666000000000007,0.07908199999999999,-0.920389,-0.18908899999999995,-0.09184400000000004,-0.783258,0.19775499999999996,0.17092600000000002,0.137131,0.9855952577462941,0.0,single,-0.783258
62,0.516667,step_acsent,0.1000719942404615,0.044996400287978924,0.049676025917929904,-0.2985104194626788,0.5095681306729521,-0.049277810066828215,0.015238780897526873,0.0037197024238065065,-0.00371970242380609,-0.5926325893928551,1.009359251259902,1.5346772258219459,-1.0957972083346597,-1.426190905092729,8.538143166823184,0.9789414070316063,1.036704971403141,-0.3743314642243936,-5.895230300366479,13.060142862861294,5.752070583533855,0.007958999999999994,0.07873799999999997,-0.920834,-0.19486199999999998,-0.08380700000000008,-0.7708820000000001,0.20282099999999997,0.16254500000000005,0.14995199999999997,0.9731313474944949,0.0,single,-0.7708820000000001
63,0.525,step_acsent,0.033001320052805004,0.01572062882515201,-0.09108364334574127,0.24452080530585762,-0.5380212904852713,-0.39408015514189687,0.008280331213253446,-0.0012000480019279335,0.02340093603744128,-0.6197047881915186,1.0489619584783345,1.5828633145325723,-8.048802854632932,-3.5132331048634096,-16.891835985079872,-0.835047364007368,-0.5903936668348037,3.2546067996216554,-3.248793807591912,4.752514966810567,5.782561947753061,0.00775300000000001,0.07859699999999992,-0.9198799999999999,-0.20030099999999995,-0.07519700000000007,-0.756933,0.20805399999999996,0.153794,0.16294699999999995,0.9585804726797275,0.0,single,-0.756933
64,0.533333,step_acsent,0.1356054242169723,0.02520100804031374,0.2520100804032173,0.22415941633653208,1.87871205853431,-0.2681644100440653,0.010320412816509753,-0.001560062402487682,0.017040681627265217,-0.591263650546029,1.0364814592583804,1.5687027481099387,12.312985019100951,1.1376910134599563,41.17289376562603,0.24481958517416602,-0.043203456205418427,-0.763261059663521,3.4130730403803997,-1.4977198151871118,-1.699335944153818,0.006708999999999965,0.07837400000000005,-0.9218379999999999,-0.20635799999999999,-0.06677,-0.745961,0.21306699999999995,0.14514400000000005,0.17587699999999995,0.9666946139772555,0.0,single,-0.745961
65,0.541667,step_acsent,0.013318934485237747,0.015958723302141677,0.019198464122875902,1.4929679977765857,0.9884274298204359,-0.7882751752330768,0.010439164866811025,0.002879769618420062,0.013078953683705378,-0.5847132229421621,1.0427165826733753,1.5581953443724381,-14.673204911415121,-1.1089854497446594,-27.935159140909484,0.014249106107663867,0.5327372235310427,-0.4753693236812826,0.785988433389354,0.7481549574027878,-1.2607875854932213,0.0066849999999999965,0.07826499999999992,-0.921889,-0.21134199999999997,-0.05821300000000007,-0.733135,0.21802699999999997,0.136478,0.18875399999999998,0.9716996139782832,0.0,single,-0.733135
66,0.55,step_acsent,0.02460098403936276,0.043681747269881006,0.04620184807391901,0.6371813579119967,0.6571667120671132,-0.6101180309911053,-0.021720868834751706,0.00972038881555231,0.028441137645505418,-0.5492619704788233,1.0177607104284214,1.508100324012957,1.3539001024990958,3.3268959519667844,3.240535695552981,-3.8593584185242524,0.8209071399414639,1.843535816848671,4.254320468419375,-2.994824462372948,-6.011642908854075,0.006298999999999999,0.077982,-0.922037,-0.21612400000000004,-0.05009599999999992,-0.720953,0.22242300000000004,0.12807799999999991,0.20108400000000004,0.9381942916104429,0.0,single,-0.720953
67,0.558333,step_acsent,0.04644185767430388,0.10476419056762518,0.26821072842913807,0.5554689441366979,2.0235680326293206,-0.8407474261623143,0.003960158406336919,0.004680187207489692,0.005040201608064413,-0.6489859594383797,1.1129245169806898,1.6056642265690744,2.6210096765800217,7.330186403185495,26.642131327879646,3.0818465427923747,-0.6048483869029958,-2.8082246534790856,-11.96735736944165,11.420113590815946,11.70813663219949,0.005945000000000034,0.077148,-0.92423,-0.22191899999999998,-0.04169499999999993,-0.709808,0.227864,0.11884299999999992,0.214422,0.9867722262780199,0.0,single,-0.709808
68,0.566667,step_acsent,0.07871370290377255,0.04871610271178478,0.1901847852171882,-0.7362157321413603,0.6298826123050248,-0.19307902909398061,-0.0009599232061444612,0.0021598272138316985,0.0020398368130548987,-0.6576673866090612,1.1558675305975437,1.5845932325413874,3.872311642604803,-6.725232524098868,-9.362364196298207,-0.5903625644926017,-0.3024190057184994,-0.3600149742032027,-1.0416879254477416,5.1527494140692935,-2.5283170179609806,0.00528099999999998,0.07676000000000005,-0.925798,-0.22805599999999998,-0.03246799999999994,-0.698187,0.23333699999999996,0.10922799999999999,0.227611,0.994796571541763,0.0,single,-0.698187
69,0.575,step_acsent,0.03756150246009301,0.04284171366855334,0.13812552502100367,-0.09947353838715853,0.8094556982986014,-0.3403413146632818,-0.006000240009599778,0.003360134405366283,-0.0018000720028798502,-0.6614664586583611,1.1707668306732362,1.5634225369014885,-4.938461591705258,-0.7049548833831145,-6.247361117986921,-0.6048622109030797,0.14404262468913903,-0.4608074902117826,-0.45590688219127457,1.7879875285842612,-2.5405851001919024,0.0049180000000000335,0.07643099999999992,-0.926964,-0.233881,-0.023069000000000006,-0.68631,0.23879900000000004,0.09949999999999992,0.24065400000000003,0.9881521635108533,0.0,single,-0.68631
70,0.583333,step_acsent,-0.028081123244924455,0.0549621984879343,-0.18228729149166467,0.7738729015753006,-0.5194743489813375,-0.5639390800050715,-0.0057602304092154435,0.004320172806916579,0.015600624024960714,-0.6446657866314545,1.1752070082803192,1.528861154446175,-7.877430181809336,1.4545163589800683,-38.451076024561026,0.02880230413828555,0.11520921655469726,2.08816705002286,2.016161289680371,0.5328426265550248,-4.147531795909437,0.005103999999999997,0.076009,-0.925315,-0.23901899999999998,-0.013734000000000024,-0.672051,0.24412299999999998,0.08974300000000002,0.25326400000000004,0.9713632124019425,0.0,single,-0.672051
71,0.591667,step_acsent,-0.03299736021118588,-0.04655627549795308,0.056275497960169084,2.174202646693391,1.1800712056039582,0.10731514894983855,-0.01367890568754525,0.004319654427650075,-0.0032397408207342263,-0.707103431725461,1.201583873290137,1.5481161507079277,-0.589901243851858,-12.18124237891608,28.625244714642662,-0.9501650201979538,-6.220053593762686e-05,-2.2606629284490998,-7.491918057836097,3.164970603529821,2.3104147182328543,0.00526500000000002,0.07643299999999997,-0.925811,-0.244637,-0.0033320000000000016,-0.659618,0.249902,0.07976499999999997,0.266193,0.9754899229471832,0.0,single,-0.659618
72,0.6,step_acsent,0.03936157446297828,0.05484219368773957,0.5768630745229869,0.824772694797589,3.6746797365749524,-0.5902664978638157,-0.011280451218053445,0.00024000960037759599,-0.0009600384015361976,-0.7082683307332314,1.2282491299652092,1.5113404536181578,8.683419497679685,12.168303034404605,62.47300810786303,0.2878260493809944,-0.489576962351196,0.27357523331309846,-0.13979347267135522,3.1999587993606733,-4.413260181179677,0.004842999999999986,0.07597799999999999,-0.9306260000000001,-0.25086699999999995,0.006446000000000063,-0.651831,0.25570999999999994,0.06953199999999993,0.278795,0.9811270433023878,0.0,single,-0.651831
73,0.608333,step_acsent,-0.037801512060483426,0.07380295211808828,-0.22572902916116808,-1.436987844135523,0.7281148602046882,-0.5677825790907044,-0.004680187207482968,-0.0013200528021100684,0.0007200288011523468,-0.6506660266410674,1.2606504260170337,1.4203768150725986,-9.259940780446584,2.2753820269229124,-96.31490503829973,0.7920633638030061,-0.18721497689759484,0.2016161289677832,6.9125529931793706,3.8883110586612717,-10.916073268397797,0.00511900000000004,0.07535199999999997,-0.928739,-0.255974,0.016336000000000017,-0.6381140000000001,0.261093,0.05901599999999996,0.2906249999999999,0.9918069926204085,0.0,single,-0.6381140000000001
74,0.616667,step_acsent,-0.02795776337892783,0.05963522918166217,0.027837772978163103,-0.633912157124725,0.5093953205281223,-0.06355708846517874,0.0035997120230351165,-0.0013198944084453212,0.008519318454523464,-0.7374610031197528,1.2525797936165148,1.4227261819054564,1.1811553493587295,-1.6999907531108942,30.425582210143105,0.9935084269880167,1.9005719312115566e-05,0.9358398912132423,-10.414564012321321,-0.9683984161889738,0.28190146782551184,0.005381999999999998,0.07484400000000002,-0.9289000000000001,-0.261887,0.026278000000000024,-0.6264890000000001,0.267269,0.048566,0.302411,0.9844294763140402,0.0,single,-0.6264890000000001
75,0.625,step_acsent,0.007080283211332174,0.016200648025920517,0.14640585623424862,1.7311585546720558,1.7013403637103348,-0.3521266149094042,0.004560182407294172,0.009480379215174717,0.014880595223808784,-0.6875075003000072,1.2907716308652277,1.34957398295931,4.20473378018239,-5.212358233018298,14.228739140295815,0.11526105655334828,1.296084678221528,0.7633837476641419,5.994660124774443,4.583203797997448,-8.778615018138249,0.005360999999999949,0.07478800000000008,-0.929996,-0.267675,0.036899000000000015,-0.616463,0.27303599999999995,0.03788900000000006,0.31353300000000006,0.969627087732188,0.0,single,-0.616463
76,0.633333,step_acsent,-0.12312492499700259,0.08376335053401818,-0.2167286691467619,-0.8024980178912324,-1.9487819797783754,-0.5673724865445174,-0.01608064322572506,0.0034801392055616963,-0.014880595223808784,-0.6523460938437506,1.235329413176525,1.2354494179767137,-15.625249994999905,8.107848614916282,-43.57788616116753,-2.476998155888533,-0.7200576034576978,-3.5714857131426188,4.219537556253017,-6.65333225593455,-13.695495617736217,0.0062530000000000086,0.07411900000000005,-0.9283140000000001,-0.27208499999999997,0.046495000000000064,-0.6043620000000001,0.278338,0.027623999999999982,0.323952,0.9630266398583917,0.0,single,-0.6043620000000001
77,0.641667,step_acsent,-0.013678905687545432,0.1181905447564218,-0.08807295416366889,-0.3178860656453761,-0.6595574719607431,-0.4313445470111455,-0.0033597312215056588,0.0021598272138184057,-0.00035997120230376147,-0.6719462443004657,1.3332133429325708,1.2529397648188225,13.132471719397381,4.130932832061893,15.437450801907096,1.526387329519975,-0.15842476502799352,1.7423354957409534,-2.3518299084131447,11.745131960168758,2.0986737271548974,0.0063389999999999835,0.073152,-0.927583,-0.277571,0.05662100000000003,-0.593186,0.28391,0.016530999999999962,0.33439700000000006,0.9933162247151948,0.0,single,-0.593186
78,0.65,step_acsent,-0.037201488059519464,0.03960158406336867,-0.24876995079802985,-0.05923481787481647,-2.0651718103405274,-0.05508782438476303,-0.0018000720028785772,0.00804032161286919,0.01032041281651253,-0.6948277931117169,1.3720148805952213,1.2508100324012927,-2.822822797548774,-9.431052525267347,-19.28441097256214,0.18716659289896498,0.7056875553883069,1.2816973501519557,-2.745895693177867,4.656370774349013,-0.2555781132281021,0.006633999999999973,0.07288899999999998,-0.925424,-0.283051,0.067724,-0.58069,0.28968499999999997,0.005164999999999975,0.344734,0.977990030569639,0.0,single,-0.58069
79,0.658333,step_acsent,-0.03612144485779413,0.16380655226208593,0.14880595223807982,-1.5138395339688864,-0.005590827938767101,-0.4734222449292147,0.0006000240009639748,0.002400096003842576,0.0037201488059522454,-0.7395895835833537,1.394935797431906,1.2055682227289202,0.1296103686217861,14.90519239154187,47.7110168050058,0.2880230413827642,-0.6768541472490899,-0.7920633638017935,-5.371629721785331,2.750620045204015,-5.42923433005796,0.006940000000000002,0.07154400000000005,-0.9266329999999999,-0.28891300000000003,0.07798300000000002,-0.571884,0.29585300000000003,0.0064389999999999725,0.354749,0.9925538979683212,0.0,single,-0.571884
80,0.666667,step_acsent,-0.12886969042476737,0.08291336693064458,-0.500119990400758,1.8338495663090704,-4.412682214238379,-0.8170231835962455,0.00035997120230084253,0.0008399328053730732,0.0020398368130548987,-0.7053035757139302,1.3766498680105432,1.072954163666899,-11.128899156104216,-9.706405727314703,-77.86488392594588,-0.028804031517054286,-0.1872046074477431,-0.20162130944292464,4.113991824984788,-2.1941359996835526,-15.91241409431486,0.008016999999999996,0.07086000000000003,-0.922448,-0.29371699999999995,0.08876499999999998,-0.558774,0.30173399999999995,0.01790499999999995,0.36367400000000005,0.9962747108210973,0.0,single,-0.558774
81,0.675,step_acsent,-0.023400936037441488,0.07296291851674672,0.057842313692545354,0.22885670003849432,-0.1330891501366679,-0.4594715395591995,0.13764550582023333,0.0482419296771885,0.0794431777271091,-0.8021120844833788,1.4797791911676514,1.1741269650786,12.656756796750923,-1.1941015737306875,66.95815481738882,16.474923151077874,5.6884671633043595,9.288772460584887,-11.617485751763851,12.37601381940571,12.14122181827678,0.009359000000000006,0.070654,-0.922268,-0.300206,0.10048800000000002,-0.549472,0.309565,0.029834000000000027,0.372796,0.7231888552998846,0.0,single,-0.549472
82,0.683333,step_acsent,-0.033361334453378494,0.06744269770790311,0.05856234249370556,0.14910037538765697,-0.4776580023224626,-0.46929289444641054,-0.025921036841473174,-0.010440417616711875,-0.03204128165126633,-0.7469098763950635,1.4813392535701457,0.9829593183727376,-1.1952956217373212,-0.6624529951810464,0.08640691241572204,-19.628770270215767,-7.042163361802582,-13.37867027221606,6.624529951795972,0.1872149768983923,-22.94103524611353,0.009421000000000013,0.07000499999999998,-0.923023,-0.306152,0.11226999999999998,-0.5417690000000001,0.315573,0.042265,0.381254,0.9291412555226923,0.0,single,-0.5417690000000001
83,0.691667,step_acsent,-0.02627789776818131,0.09311255099591949,0.0587952963762883,-0.09658032454026899,-0.2351548136833718,-0.650003659682999,0.012479001679864673,0.006839452843782617,0.009479241660666979,-0.6906647468202471,1.4798416126709797,0.9361651067914533,0.8499444066711217,3.0801359836832476,0.027952229731550544,4.607636011679572,2.0734185817727813,4.982064232293376,6.748875638926791,-0.17970253169738784,-5.614856201257982,0.00974400000000003,0.06928600000000007,-0.923434,-0.31168899999999994,0.12382700000000002,-0.534457,0.32143299999999997,0.05454099999999995,0.388977,0.9715024552427116,0.0,single,-0.534457
84,0.7,step_acsent,-0.00864034561381995,0.07788311532461498,0.002880115204611091,0.1937349687289416,0.4450122195840931,-0.5204280409479806,0.015600624024956758,0.002040081603256197,0.004560182407296314,-0.66854674186968,1.4962198487939695,0.8804752190087662,2.116590922160269,-1.827605384771949,-6.710090144207094,0.37460966579768545,-0.5759475867666464,-0.5903107228333985,2.6542667647386717,1.9654669534369351,-6.6830538560767465,0.009945999999999955,0.06865399999999999,-0.92342,-0.31718799999999997,0.13564600000000004,-0.5271440000000001,0.3271339999999999,0.06699200000000005,0.39627599999999996,0.9726983584893276,0.0,single,-0.5271440000000001
85,0.708333,step_acsent,-0.03060122404896246,0.0907236289451549,0.041521660866429375,0.16107710642456186,0.08938166945538957,-0.5985385880274072,0.017520700828037247,-0.045841833673345954,-0.040801632065282444,-0.6648265930637318,1.4279371174846927,0.806672266890673,-2.635410828650236,1.5409232713956402,4.637170966256824,0.23041843310698198,-5.746059675579257,-5.4436354821287125,0.4464357141423449,-8.194255527334283,-8.856708522512058,0.010346999999999995,0.06751600000000002,-0.924106,-0.32247300000000007,0.14678900000000006,-0.520768,0.33282000000000006,0.07927300000000004,0.403338,0.8936303373028367,0.0,single,-0.520768
86,0.716667,step_acsent,-0.050395968322537586,0.09467242620590756,0.02171826253899512,0.19803643119259987,-0.16984339400664603,-0.6294710635176897,-0.020038396928248974,0.01475881929445444,0.044756419486440546,-0.7069834413246763,1.5315574754019559,0.771538276937838,-2.3751792984851186,0.473817765869046,-2.3762177018759423,-4.506731192258932,7.27149663640508,10.266144894615111,-5.05841711794386,12.433448274209553,-4.215741535017354,0.010599999999999998,0.06684999999999997,-0.923914,-0.32794499999999993,0.15876400000000002,-0.514519,0.33854499999999993,0.09191400000000005,0.40939500000000006,0.9146494616357106,0.0,single,-0.514519
87,0.725,step_acsent,-0.04788191527660943,0.0902436097443876,0.04848193927756674,0.4200938369453019,0.11612821206879669,-0.702290775930615,-0.04992199687987228,-0.003840153606134798,-0.026881075243009787,-0.6459858394335865,1.4941797671907,0.7556702268090789,0.3016984334487198,-0.5314792345517825,3.2117696794158004,-3.5861754412124784,-2.231966026711797,-8.596843241263768,7.3200050271319315,-4.485504405526965,-1.9042421851385194,0.010583000000000009,0.06606600000000007,-0.924542,-0.332929,0.17046300000000003,-0.508626,0.343512,0.10439699999999996,0.41591599999999995,0.9052848604379509,0.0,single,-0.508626
88,0.733333,step_acsent,-0.05400216008640395,0.08172326893076201,0.031201248049926425,0.3522436485029512,0.3171479026404172,-0.6588291065732134,-0.039601584063362005,-0.006720268810759123,-0.0314412576503061,-0.6074642985719416,1.473898955958234,0.6761070442817718,-0.7344587555255604,-1.0224817969069422,-2.0737658979527476,1.2384990779443459,-0.345627649660904,-0.5472437786267005,4.622769814189928,-2.4337946996838906,-9.547963821829685,0.010703000000000018,0.06532899999999997,-0.925064,-0.337541,0.182064,-0.503252,0.348244,0.11673500000000003,0.42181199999999996,0.9149836591548862,0.0,single,-0.503252
89,0.741667,step_acsent,-0.06371490280777618,0.07859371250299554,0.018118550515960296,0.31225184435730247,0.41665883462455455,-0.6561323219351702,-0.008399328053757487,-0.007319414446841623,-0.023998080153587703,-0.5982721382289506,1.4884809215262862,0.6444684425246034,-1.1654358916933396,-0.37551672999357866,-1.5697981202263263,3.7439712034562866,-0.07189172499190113,0.8931098508181474,1.1029710034786449,1.7496958924948667,-3.79632850457986,0.011164000000000007,0.06461300000000003,-0.925415,-0.341996,0.19381400000000004,-0.498032,0.35316000000000003,0.129201,0.427383,0.9559031876102487,0.0,single,-0.498032
90,0.75,step_acsent,-0.06456258250329781,0.07080283211328177,0.04872194887795701,0.27172235547744966,0.7110189354720737,-0.6819379252495738,-0.0034801392055683576,-0.002760110404415595,-0.013200528021120669,-0.5600624024960947,1.4906996279851052,0.5994239769590725,-0.10172563248789473,-0.9349430444874286,3.672554705627815,0.5903262748336865,0.5471383706259462,1.2957580862194875,4.585351702010771,0.2662554252752963,-5.405552089947294,0.011672999999999989,0.06400000000000006,-0.9259310000000001,-0.346125,0.205646,-0.493443,0.357798,0.14164599999999994,0.43248800000000004,0.9767870056522998,0.0,single,-0.493443
91,0.758333,step_acsent,-0.047521900876035736,0.10392415696628222,0.12144485779431281,0.6496437317059534,0.9671526173454428,-0.9551795306911944,-0.07572302892115565,0.021600864034556248,0.06012240489619535,-0.5690627625105009,1.4578183127325088,0.5681027241089639,2.0449635938151935,3.9747179710788814,8.727098153888814,-8.669493545612262,2.92343387003141,8.799103914234456,-1.0800864051849448,-3.9459156669382303,-3.7587006900406132,0.011438000000000004,0.06331399999999998,-0.926442,-0.35047100000000003,0.216928,-0.489721,0.36190900000000004,0.15361400000000003,0.43672099999999997,0.8348798584991353,0.0,single,-0.489721
92,0.766667,step_acsent,-0.09611231101511887,0.0925125989920771,-0.021358291336694563,0.049424153683315396,0.5752638364641373,-0.7451957602807704,0.008639308855293605,0.0023998080153611848,0.0004799616030718207,-0.514278857691389,1.590592752579808,0.48068154547636577,-5.830382786067124,-1.3692774147114455,-17.135007095153373,10.122670719516407,-2.303942406910868,-7.1565206735209825,6.573542694877873,15.931658249016072,-10.489702259731057,0.012311000000000016,0.06256300000000004,-0.92626,-0.35395600000000005,0.2294130000000001,-0.485537,0.36626700000000006,0.16685000000000005,0.440723,0.985034567687485,0.0,single,-0.485537
93,0.775,step_acsent,-0.07668306732269267,0.07608304332173536,-0.006720268810759123,0.6645831462505134,0.6559490347410927,-0.7037622618404616,0.014520580823230737,0.0031201248049886453,0.009240369614784635,-0.47305892235689245,1.5879035161406283,0.44161766470658176,2.331602507191422,-1.9716255454628189,1.7566329684309827,0.7057808673871484,0.08644147241419148,1.051291013046055,4.946590103743719,-0.3227212815528286,-4.6878532065023215,0.013071,0.06195499999999998,-0.9261269999999999,-0.35725900000000005,0.24201099999999998,-0.481801,0.37033000000000005,0.180056,0.44432599999999994,0.9708468185050205,0.0,single,-0.481801
94,0.783333,step_acsent,-0.06432257290291442,0.08808352334093593,0.06636265450618394,0.6420978451638295,0.929774265852978,-0.8616394615234123,0.016680667226689247,0.001320052802123409,0.005040201608064413,-0.43141725669026,1.595943837753532,0.3320532821312906,1.4833186631199289,1.4401152069123575,8.770301610097652,0.25922073724451333,-0.21601728103507173,-0.504040322419328,4.997199767986661,0.9648771886359969,-13.148251839108624,0.01374599999999998,0.061232000000000064,-0.926638,-0.36031799999999997,0.254576,-0.479587,0.37406399999999995,0.19334399999999996,0.447051,0.9708742748884792,0.0,single,-0.479587
95,0.791667,step_acsent,-0.07547396208303832,0.08915286777058358,0.07067434605232267,0.41627356955813105,0.967121231951791,-0.8300395602580141,0.024718022558193234,0.003719702423793135,0.008039356851451953,-0.45776337892968366,1.5283177345812216,0.36969042476601593,-1.3380596568423104,0.12831106667238332,0.5173615966089159,0.9644054873414838,0.28793491980678043,0.3598698396193325,-3.161281766189522,-8.114483222019429,4.516095828500727,0.01458100000000001,0.06051999999999991,-0.9271600000000001,-0.36350399999999994,0.26657,-0.47709500000000005,0.37808499999999995,0.20605000000000007,0.45006500000000005,0.9562377609533976,0.0,single,-0.47709500000000005
96,0.8,step_acsent,-0.20016800672026164,0.03876155046201378,-0.6090243609744427,-1.6876246408404532,-4.239978841406264,-0.2169156228437582,0.026161046441857082,0.010320412816516277,0.02688107524300943,-0.42553702148086336,1.5282611304452043,0.32965318612744365,-14.963883911823208,-6.047199965026952,-81.5671075275126,0.17316979283137435,0.792116931804046,2.2610966508529216,3.867317586561882,-0.0067927680327935225,-4.804660823061576,0.016466999999999954,0.060282999999999975,-0.921861,-0.36538200000000004,0.27898199999999995,-0.469273,0.381849,0.21869899999999998,0.45258800000000005,0.9351603799565452,0.0,single,-0.469273
97,0.808333,step_acsent,-0.09852394095764115,0.0936037441497672,-0.0037201488059526618,0.32208708224634536,0.1790243202594994,-0.6892554384979048,0.025681027241088915,0.007080283211332268,0.012600504020161033,-0.3906156246249895,1.5207008280331373,0.2599303972158912,12.197775802546671,6.581326495590294,72.63941103666095,-0.057604608276511704,-0.3888311058663193,-1.7137370962256724,4.190735252114987,-0.9072725803512569,-8.36706935216046,0.017501999999999962,0.059562000000000004,-0.921725,-0.36781600000000003,0.29087399999999997,-0.467076,0.385318,0.23131199999999996,0.454649,0.9508851043167283,0.0,single,-0.467076
98,0.816667,step_acsent,-0.10595152387809166,0.09407247420206395,0.01415886729061082,0.23116077792536088,0.06892244962233167,-0.69947923983618,0.022078233741302626,0.009959203263732133,0.008279337652987651,-0.3766498680105566,1.5026397888168905,0.20638348932085268,-0.8912386513619454,0.0562431068270635,2.1453103067630606,-0.43230063592347745,0.34544277086631187,-0.5184984841820672,1.6757567331932786,-2.167151333842892,-6.425114938209513,0.018569000000000002,0.05886099999999994,-0.921774,-0.370072,0.302613,-0.46547399999999994,0.388641,0.24375200000000008,0.45630000000000004,0.9573391421025698,0.0,single,-0.46547399999999994
99,0.825,step_acsent,-0.1000840033601355,0.08664346573863038,0.006840273610954672,0.2815750147575736,0.019438330073319056,-0.5984937916889405,0.017160686427457765,0.007320292811723187,0.0085203408136324,-0.3775351014040575,1.4652586103444203,0.15672626905076031,0.7041306273798414,-0.8915166762790877,-0.8782663722136343,-0.590129282832702,-0.31668192151793717,0.02892153613881573,-0.10623225651036744,-4.485920853530612,-5.959104796603003,0.019546000000000008,0.05820000000000003,-0.92176,-0.372384,0.31410099999999996,-0.46422500000000005,0.39193,0.25590099999999993,0.45753499999999997,0.9658161810090022,0.0,single,-0.46422500000000005
100,0.833333,step_acsent,-0.09888395535821289,0.10008400336013415,0.026401056042241338,0.37164121162175573,0.15886811366811296,-0.6750203272082519,0.0118804752190106,0.006840273610941258,0.003600144005760485,-0.38425537021481154,1.427097083883351,0.12840513620544952,0.14401152069154027,1.612929031741715,2.347387787265881,-0.6336506910412989,-0.05760460827816239,-0.5904472348340207,-0.8064645158711173,-4.579566357982616,-3.3986718883128133,0.020469000000000015,0.057423,-0.92195,-0.37476200000000004,0.325159,-0.46337500000000004,0.39523100000000005,0.267736,0.458575,0.9763770314592228,0.0,single,-0.46337500000000004
101,0.841667,step_acsent,-0.09515238780897313,0.13054955603551352,0.08171346292295734,0.5672271585891733,0.5049361172568432,-0.8542784339331688,0.00707943364530541,0.005879529637624834,0.000839932805375571,-0.3396928245740215,1.4643628509719102,0.06779457643388263,0.44775228572590925,3.655573875135486,6.636957869056344,-0.5760789025324157,-0.1152800543936185,-0.33119884813833605,5.34707771067791,4.471534327880842,-7.27268535775935,0.02132099999999998,0.05638399999999999,-0.922624,-0.37679999999999997,0.336275,-0.463491,0.39812099999999995,0.279891,0.459133,0.9845986349256219,0.0,single,-0.463491
102,0.85,step_acsent,-0.09132365294612008,0.08988359534381453,0.03576143045722107,0.5268101139093767,0.3721565776067836,-0.610664303614546,0.0020400816032628585,0.003600144005757202,-0.0037201488059522454,-0.3374534981399331,1.458058322332906,0.1087243489739621,0.45946656220485876,-4.88011048742342,-5.514464474467381,-0.6047464349025079,-0.27353721731281083,-0.547231682626648,0.2687299212874641,-0.7565736996284977,4.911769175576604,0.02209899999999998,0.055664999999999965,-0.922953,-0.378851,0.347676,-0.462883,0.40095,0.292011,0.46007000000000003,0.9907260105449301,0.0,single,-0.462883
103,0.858333,step_acsent,-0.10128405136205543,0.08676347053882469,-0.00588023520940424,0.2871014099455645,0.08737863461419189,-0.5527371173809694,-0.0014400576022988647,0.00552022080883119,-0.0019200768030723696,-0.3286931477259133,1.3620544821792846,-0.035881435257409396,-1.1952956217371067,-0.37442995379693117,-4.997199767985736,-0.41763341000380516,0.2304184331062018,0.21601728103682566,1.0512841010464125,-11.520921655300732,-17.353388243294237,0.022931000000000035,0.054987999999999926,-0.92292,-0.38074600000000003,0.358303,-0.463133,0.40367700000000006,0.30331500000000006,0.45978699999999995,0.9899676497428058,0.0,single,-0.463133
104,0.866667,step_acsent,-0.10487161027117721,0.09443244540436604,0.007319414446841623,0.29303892160345263,-0.03224896882083902,-0.5290382628986916,-0.0013198944084519821,0.0037197024238065065,-0.004199664026877911,-0.29445644348451766,1.32853371730262,-0.0917926565874754,-0.4304726312841136,0.9202033675955603,1.5838312522493327,0.014418429787243003,-0.21604492260915448,-0.2735285845699009,4.108075862898468,-4.022170011598855,-6.708809854819574,0.023793999999999982,0.05423199999999995,-0.923016,-0.382326,0.36858799999999997,-0.463959,0.40612,0.314356,0.45905699999999994,0.9903945204715416,0.0,single,-0.463959
105,0.875,step_acsent,-0.10332413296531825,0.11376455058201668,0.020760830433214687,0.3709991776232511,0.07105951997756987,-0.585944888200823,-0.002160086403451628,0.004560182407307495,0.0,-0.3038521540861596,1.2952118084723399,-0.08232329293171266,0.18570470489126945,2.3199454191348314,1.6130344397423508,-0.10082707248285638,0.10086163248541766,0.5039798424190439,-1.127530373411967,-3.9987890111940403,1.1363690934552628,0.02463700000000002,0.05332200000000009,-0.9231889999999999,-0.383997,0.3784330000000001,-0.46481799999999995,0.408634,0.325111,0.458371,0.9915901451891425,0.0,single,-0.46481799999999995
106,0.883333,step_acsent,-0.10500420016800804,0.10128405136206209,0.022680907236288725,0.28002488919784646,0.008691758007621512,-0.5146037937410382,-0.00132005280211673,0.00504020160806268,-0.0014400576023038609,-0.29809192367695087,1.2398895955838125,-0.06552262090483484,-0.20161612896793255,-1.4977198151871518,0.2304184331062078,0.10080806448276664,0.05760460827495296,-0.17281382482945576,0.6912552993170205,-6.638931103867408,2.0161612896769174,0.025500999999999996,0.05252000000000001,-0.9233899999999999,-0.385606,0.38792099999999996,-0.46555299999999994,0.411107,0.33540099999999995,0.457837,0.9909907551265617,0.0,single,-0.46555299999999994
107,0.891667,step_acsent,-0.10091192704583458,0.11543076553875976,0.021478281737465955,0.4779033534855555,0.40685081976977605,-0.481042045061618,-0.0011999040076739317,0.006119510439167692,0.0004799616030718207,-0.28005759539236386,1.1861051115910834,-0.13954883609311636,0.4910334919814594,1.6974699036114418,-0.14430351557748702,0.014416701996976115,0.12950669919666638,0.2303838739351683,2.1639462784481776,-6.453621789384373,-8.882435227775611,0.026332000000000022,0.051609000000000016,-0.923565,-0.38709899999999997,0.396844,-0.466895,0.413431,0.34523499999999996,0.45666999999999996,0.9895758639069469,0.0,single,-0.466895
108,0.9,step_acsent,-0.13212528501140214,0.049801992079676165,-0.040321612864514765,-0.1825846114595066,0.2508751594349018,-0.19563596563129196,0.0019200768030673734,0.00588023520940424,0.0006000240009598033,-0.24324972998919867,1.1561262450497942,-0.19032761310452054,-3.74575278597953,-7.875767845803832,-7.4162840035977995,0.3744126737959069,-0.028714176138659658,0.014408064069120615,4.417120533201133,-3.597607889270263,-6.093696989248046,0.027449,0.05124300000000004,-0.923224,-0.38802499999999995,0.406063,-0.468145,0.41547399999999995,0.35481999999999997,0.45507900000000007,0.9896419797782209,0.0,single,-0.468145
109,0.908333,step_acsent,-0.14820592823712916,0.05580223208928993,-0.010800432017284929,-0.3365440189479349,-0.35844774522463124,-0.1661584216443523,0.0037201488059526618,0.005640225609026723,0.0002400096003842576,-0.24168966758671423,1.0916836673467065,-0.20004800192008218,-1.9297543772623513,0.7200576034577967,3.5426834090039727,0.21601728103747808,-0.028802304137467805,-0.04320345620731417,0.18721497689720987,-7.73341866111704,-1.1664933176001118,0.02871499999999999,0.05082500000000001,-0.923132,-0.38880400000000004,0.414695,-0.469722,0.41751900000000003,0.36386999999999997,0.45341,0.9887318964590521,0.0,single,-0.469722
110,0.916667,step_acsent,-0.12886969042476737,0.13042956563474212,0.0029997600192047716,0.11943110122569557,0.1690890563184544,-0.44775647265184737,0.005759539236860106,0.004439644828408142,0.0028797696184304695,-0.223662107031433,1.077993760499151,-0.1775857931365455,2.3201629244494417,8.954563660361366,1.6558905731329008,0.24470727512688134,-0.14405816902070692,0.3167458624965433,2.16313421589646,-1.642657409113925,2.6952494340696567,0.029837000000000002,0.049775000000000014,-0.923133,-0.389594,0.422592,-0.471227,0.419431,0.372817,0.451906,0.9869641720760546,0.0,single,-0.471227
111,0.925,step_acsent,-0.12144485779430615,0.10056402256090266,-0.015960638425542923,0.06506770714380489,0.038254678983587705,-0.2854298416384012,0.006480259210368207,0.006000240009599698,0.0019200768030719533,-0.22296891875675248,0.9770790831633204,-0.17940717628705363,0.8910155562775934,-3.584008529201888,-2.2753388269227908,0.0864898564152283,0.18727891289950194,-0.11516774455280358,0.08318592039847701,-12.110245690127226,-0.2185747210498183,0.03090299999999996,0.048987,-0.922984,-0.39044000000000006,0.429896,-0.472589,0.421343,0.380909,0.45039500000000005,0.9849368611674376,0.0,single,-0.472589
112,0.933333,step_acsent,-0.13368534741389823,0.11820472818913029,-0.021480859234361077,-0.17170217461874285,-0.20822057029885319,-0.3332564025044189,0.00972038881555244,0.0043201728069166365,0.0033601344053762754,-0.21732869314772874,0.8813152526101146,-0.2264490579623172,-1.468917511051505,2.116969354161501,-0.6624529951779917,0.38883110586634617,-0.20161612896712794,0.1728138248295134,0.6768541472487457,-11.492119351158848,-5.645251611096125,0.03209799999999996,0.048038000000000025,-0.9227770000000001,-0.39113700000000007,0.436255,-0.474297,0.42323500000000003,0.388217,0.44848000000000005,0.9814078604550402,0.0,single,-0.474297
113,0.941667,step_acsent,-0.13018958483321266,0.13018958483321266,0.02339812814974127,-0.02795054837070531,0.09335122662194473,-0.4213713691584449,0.007319414446848187,0.0047996160307089844,0.002759779217662412,-0.2497000239980782,0.7975761939044832,-0.24238060955123666,0.41945795304602135,1.4380677518697242,5.385047682277658,-0.2880938767343694,0.057528584568315846,-0.07203685957689691,-3.8842489621249356,-10.047883214018565,-1.9116332600095194,0.033243999999999996,0.04699299999999995,-0.922949,-0.39213300000000006,0.441817,-0.476512,0.42537700000000006,0.39482400000000006,0.44643700000000003,0.9847041651260139,0.0,single,-0.476512
114,0.95,step_acsent,-0.1188047521900876,0.13404536181447796,-0.022680907236289027,0.033276151239152896,-0.08508980950071485,-0.3919720554985488,0.007320292811709864,0.005040201608076071,0.003120124804992434,-0.20412816512660123,0.7297491899676057,-0.22776911076443396,1.3662345665576825,0.46271174622168865,-5.529705434541068,0.00010540799972128895,0.028871424141016247,0.04324320020761135,5.468841818250016,-8.139566055067572,1.7534499924160376,0.034294999999999964,0.045918000000000014,-0.9227339999999999,-0.392844,0.446781,-0.478221,0.427139,0.40086299999999997,0.44451299999999994,0.9843009644760194,0.0,single,-0.478221
115,0.958333,step_acsent,-0.23256930277211602,0.09024360974438639,-0.07428297131885679,-0.6055003025421226,0.7599901617402902,-0.2219638256811096,0.006960278411136715,0.006840273610941258,0.006480259210368207,-0.16560662426497566,0.6774270970838818,-0.2968918756750229,-13.652292161529815,-5.256420505231175,-6.192495389723694,-0.043203456207025974,0.21601728103506296,0.40323225793540846,4.622769814187617,-6.278902302138929,-8.29506359181431,0.03629100000000002,0.04522300000000001,-0.9220609999999999,-0.392286,0.451674,-0.48007599999999995,0.42857700000000004,0.406451,0.44198499999999996,0.98047589964609,0.0,single,-0.48007599999999995
116,0.966667,step_acsent,-0.10691144708422946,0.1880249580033565,0.05411567074635071,0.26565914338210844,0.454123820235141,-0.7687062940084441,0.004919606431487034,0.003119750419962838,0.0025197984161267127,-0.20062395008397924,0.6349892008639216,-0.25869930405567254,15.077736463629183,11.732823165223106,15.406604519463228,-0.244861048674066,-0.4464270687519068,-0.47521727792674157,-4.201742958843689,-5.09214017518117,4.58274197496401,0.037223000000000006,0.043682,-0.9224910000000001,-0.39306699999999994,0.455399,-0.48268300000000003,0.43028999999999995,0.411717,0.43980800000000003,0.9894216213459427,0.0,single,-0.48268300000000003
117,0.975,step_acsent,-0.11040441617664525,0.19620784831394072,0.020520820832824048,0.028266985798240208,0.3342394639076246,-0.8037580852652143,0.005160206408258207,0.004200168006721177,0.0016800672026881377,-0.20976839073564127,0.5597023880955291,-0.2995319812792537,-0.41917305801221816,0.9819861167147843,-4.03154325135329,0.02887315213862665,0.1296552966228668,-0.10077177648368926,-1.097376773270385,-9.034778923364124,-4.900117271520642,0.038186,0.04208199999999995,-0.9226479999999999,-0.39389500000000005,0.45842799999999995,-0.48534999999999995,0.43208100000000005,0.416346,0.43729799999999996,0.9885627597459898,0.0,single,-0.48534999999999995
118,0.983333,step_acsent,-0.11664466578663439,0.2074882995319781,-0.0019200768030740352,-0.039193473854784104,0.34999670486688716,-0.8138370138211953,0.004320172806909917,0.002040081603269493,0.0010800432017283122,-0.17352694107763605,0.5535821432857332,-0.2826113044521764,-0.7488599075949982,1.3537082944962577,-2.6930154369252355,-0.10080806448437378,-0.25922073724369077,-0.07200576034559258,4.349147924877602,-0.7344587555257253,2.030562441746933,0.03919400000000001,0.04037000000000002,-0.922623,-0.39436899999999997,0.461312,-0.48768899999999993,0.433563,0.420942,0.43493400000000004,0.9918363408008483,0.0,single,-0.48768899999999993
119,0.991667,step_acsent,-0.14194864410847088,0.11243100551955496,-0.07619390448763436,-0.1856966514420191,-0.2675175695218311,-0.3127029968085875,0.0015598752099814399,0.001559875209974779,0.00035997120230376147,-0.19450443964482755,0.46448284137268775,-0.32541396688265695,-3.0362344998604076,-11.405962804466483,-8.912146350439254,-0.3312092148942276,-0.05762015758275939,-0.08640172779272316,-2.517098460186179,-10.691060944689939,-5.135908618968176,0.04038999999999998,0.03944599999999998,-0.921985,-0.39480699999999996,0.464246,-0.48976600000000003,0.43519699999999994,0.4248,0.432219,0.9962747108211067,0.0,single,-0.48976600000000003
120,1.0,step_acsent,-0.09240369614784467,0.13368534741390312,-0.030721228849157914,0.2568418592095501,0.3555068589373486,-0.31550236682919547,-0.0003600144005730508,0.0010800432017324755,-0.0003600144005759652,-0.16944677787112372,0.45649825993039883,-0.32317292691707544,5.9456315805383415,2.5506230522438584,5.456939354191318,-0.2303959691053021,-0.05758214427484717,-0.08640172841470342,3.0070396944322244,-0.9581881005986902,0.268935553291911,0.041157,0.03834099999999996,-0.921732,-0.39544900000000005,0.46693599999999996,-0.492203,0.43660600000000005,0.428595,0.429529,0.9980099455236026,0.0,single,-0.492203
121,1.008333,step_acsent,-0.09396375855034692,0.1804872194887752,0.001560062402501005,0.014762046531630548,-0.5262843455578541,-0.649020943795544,-0.0009600384015370304,0.0020400816032695203,0.0010800432017279101,-0.18300732029281322,0.37597503900156315,-0.32857314292571554,-0.18721497689934657,5.616449306956978,3.8739099065953697,-0.07200576034609205,0.11520921655310855,0.1728138248294598,-1.627330183810107,-9.663173038381906,-0.6480518431105425,0.041932000000000025,0.03685400000000005,-0.921736,-0.396191,0.468565,-0.494954,0.43812300000000004,0.43171099999999996,0.426782,0.9958333000007923,0.0,single,-0.494954
122,1.016667,step_acsent,-0.09059275257978694,0.08879289656826941,-0.024598032157428507,0.05120483693020416,-0.3460262799770171,-0.13184455408678702,-0.0020398368130536497,-0.0008399328053863948,-0.003359731221502284,-0.20638348932084602,0.28941684665226197,-0.3621310295176383,0.4044883573986021,-11.002438555376179,-3.1387202495715516,-0.1295654441464616,-0.3455740831120582,-0.5327303123626302,-2.8049158900927074,-10.386152189740884,-4.026624261089815,0.042669999999999986,0.036107,-0.921559,-0.397156,0.470237,-0.497767,0.439826,0.43413,0.423792,0.993301282207643,0.0,single,-0.497767
123,1.025,step_acsent,0.01344053762149844,0.2232089283571464,0.47965918636746246,1.9936190225024657,4.321881593369925,-1.1177725524455508,-0.004080163206532379,0.00036001440058637876,-0.0034801392055679877,-0.13848553942157674,0.2642505700228078,-0.48001920076803556,12.484494203922516,16.130569037426884,60.51328675445765,-0.2448489611758968,0.1439994246937219,-0.014449536069327364,8.148079911108832,-3.020073998494471,-14.147146435905235,0.042524000000000006,0.03425,-0.925585,-0.39842199999999994,0.47057899999999997,-0.5057640000000001,0.44094599999999995,0.43632899999999997,0.4198209999999999,0.9910419634079067,0.0,single,-0.5057640000000001
124,1.033333,step_acsent,-0.05736229449177608,0.1779671186847324,-0.013920556822273247,0.6660482185872444,0.45109227499897475,-0.3997194060523349,-0.0056402256090199105,0.0008400336013415484,-0.0018000720028802186,-0.13824552982119545,0.2769710788431461,-0.3663746549861897,-8.496679720781625,-5.429234330062789,-59.231938460305656,-0.18721497689757638,0.05760460827495035,0.20161612896768746,0.0288023041379193,1.5265221193253442,13.637891009461642,0.04295500000000002,0.03277400000000008,-0.925484,-0.399096,0.47140400000000005,-0.5087010000000001,0.442051,0.43862999999999996,0.4167829999999999,0.9900336593437404,0.0,single,-0.5087010000000001
125,1.041667,step_acsent,-0.06635469162466771,0.19138468922486723,-0.04739620830334074,-0.1542807887433548,-0.16288170412291766,-0.5904767588301438,-0.0065994720422400165,-0.001319894408445339,-0.005399568034557326,-0.10379169666426939,0.2595392368610592,-0.33489320854332144,-1.0790013358401493,1.6099796664428965,-4.0167568371812,-0.11510036395729832,-0.2591706275242295,-0.4319049714035489,4.134129248491326,-2.0916537055540254,3.777471375434229,0.043452999999999964,0.031168000000000085,-0.925134,-0.39940800000000004,0.47197200000000006,-0.5110969999999999,0.442861,0.440804,0.4140370000000001,0.9856192173519305,0.0,single,-0.5110969999999999
126,1.05,step_acsent,-0.09984399375974858,0.15144605784230927,-0.019320772830908904,-0.210369854606871,0.02540009003779024,-0.417192313333287,-0.0078003120124781715,-0.002760110404415558,-0.003120124804992351,-0.10020400816032828,0.21336853474138615,-0.4095763830553216,-4.018877011290084,-4.792827479006031,3.369187024172728,-0.14410656069100372,-0.17283283282973644,0.27354412931296473,0.4305398420666091,-5.5407058825959705,-8.962339435017267,0.04421999999999998,0.029883000000000104,-0.924999,-0.39941100000000007,0.4724880000000001,-0.5143490000000001,0.44363100000000005,0.44260499999999997,0.41064999999999996,0.9852617037266003,0.0,single,-0.5143490000000001
127,1.058333,step_acsent,-0.10020400816033095,0.15600624024962087,-0.028681147245888803,-0.035873762537606255,-0.0849953817999542,-0.26037425409984766,-0.006600264010563753,-0.002640105604233495,-0.005880235209408482,-0.09828393135724356,0.14628585143405512,-0.4773790951638087,-0.04320345620813414,0.5472437786285418,-1.123289861392054,0.1440115206905592,0.0144011520679304,-0.33122649758984235,0.23041843310749238,-8.050244006640062,-8.136650919055288,0.044999999999999984,0.028560999999999948,-0.924809,-0.39939499999999994,0.47240699999999997,-0.5180880000000001,0.44439499999999993,0.443846,0.4067209999999999,0.9846240800881689,0.0,single,-0.5180880000000001
128,1.066667,step_acsent,-0.10643148548115723,0.1449484041276671,-0.018598512119032285,-0.08074051267760875,0.049730036735690535,-0.24094731224133312,-0.009239260859130448,-0.005039596832251761,-0.005879529637628581,-0.06599472042237176,0.15286777057835224,-0.4349652027837727,-0.7472374994991876,-1.32683418789941,1.2098194296683995,-0.31665428948484226,-0.2879159140890626,8.466184064091054e-05,3.8743953605557424,0.7897671159463728,5.089259944808698,0.04580999999999996,0.027310999999999974,-0.924703,-0.399058,0.472473,-0.521558,0.444868,0.445162,0.4031450000000001,0.9799078272416529,0.0,single,-0.521558
129,1.075,step_acsent,-0.11664466578663595,0.15204608184327728,-0.001800072002878601,0.028291682151029618,-0.03981693448076,-0.20240384886157764,-0.007800312012478379,-0.0038401536061481215,-0.007920316812672589,-0.059642385695424724,0.13524540981639258,-0.41485659426377286,-1.2256306618839323,0.8517553960890728,2.015893449676448,0.17268076882900307,0.14393894469022567,-0.24490425717557027,0.7623106596600372,-2.114767882150465,2.413129547581907,0.04671700000000001,0.026011999999999924,-0.9247540000000001,-0.39858299999999997,0.47233299999999995,-0.525,0.4453,0.446321,0.39975400000000005,0.9803981955462194,0.0,single,-0.525
130,1.083333,step_acsent,-0.11016440657625805,0.138125525021,0.037801512060476265,-0.09274934862643783,0.6845034410280146,-0.21527179539635385,-0.006120244809795074,-0.0031201248049886037,-0.005880235209408325,-0.04320172806912524,0.12156486259450665,-0.41161646465857776,0.7776622117338035,-1.6705336400188444,4.752380182809813,0.2016161289671517,0.08640691241563725,0.2448195851751144,1.9729578334692421,-1.6417313358797179,0.3888311058676395,0.04758399999999996,0.02483499999999994,-0.925118,-0.398025,0.472195,-0.528745,0.445609,0.44736000000000004,0.396373,0.9849288961688183,0.0,single,-0.528745
131,1.091667,step_acsent,-0.10055195584353507,0.16186705063594423,0.010679145668347424,0.1112217791497776,0.2697878831575371,-0.2579807001661247,-0.005159587233016625,-0.004199664026878799,-0.0062395008399329195,-0.024358051355886378,0.09923206143508308,-0.4187664986801194,1.1534018157815162,2.84875517337949,-3.2544236131664697,0.11526968763840499,-0.12953434387931556,-0.04310842698879305,2.2610603207630455,-2.679721761389968,-0.8579354477491918,0.048379000000000005,0.023451,-0.9252589999999999,-0.39738999999999997,0.471673,-0.532324,0.44576899999999997,0.448222,0.3929349999999999,0.9847985847620387,0.0,single,-0.532324
132,1.1,step_acsent,-0.095163806552259,0.18024720988839277,-0.04608184327373626,-0.08319628063458621,-0.1552692793364889,-0.22518838875115188,-0.0034801392055683117,-0.004080163206525609,-0.005040201608064279,-0.011040441617675555,0.07392295691827609,-0.4256570262810398,0.646603779104281,2.20570733858733,-6.811591136695391,0.2015418249667928,0.014340672069265389,0.143921664690822,1.5981770956690977,-3.037214030578008,-0.8268963879659527,0.04914299999999999,0.021915000000000018,-0.924917,-0.39668900000000007,0.470787,-0.5354869999999999,0.44583200000000006,0.448872,0.38943000000000005,0.9877341108792681,0.0,single,-0.5354869999999999
133,1.108333,step_acsent,-0.095283811352457,0.16668666746669702,-0.011400456018235581,-0.1266192650866395,-0.10348151265974552,-0.2634146708090239,-0.0038401536061481215,-0.003600144005757202,-0.0032401296051841467,-0.0004800192007685152,0.07344293771750954,-0.38461538461538974,-0.014401152069842696,-1.6273301838108565,4.1619329479780385,-0.04320345620782589,0.05760460827654038,0.2160172810368593,1.2673013820841397,-0.0576046082763181,4.925194007638357,0.04990499999999998,0.02049600000000007,-0.924849,-0.39589900000000006,0.47001000000000004,-0.538597,0.44580400000000003,0.44951399999999997,0.38625200000000004,0.989698131717527,0.0,single,-0.538597
134,1.116667,step_acsent,-0.09251259899208253,0.16246700263979685,-0.030597552195824728,-0.14493442277138885,-0.09766569676005069,-0.20614268254814652,-0.0009599232061444612,-0.0013198944084453037,-0.0032397408207346426,0.010319174466046297,0.05783537317014384,-0.3550515958723262,0.33251888173439575,-0.5063192736861218,-2.3034672639295657,0.3456000000004366,0.27360806303238316,4.665040190833776e-05,1.2957995760516834,-1.8727579250498656,3.5473708594988373,0.05066799999999999,0.01913100000000001,-0.924621,-0.395042,0.46913799999999994,-0.541301,0.44571,0.45000699999999993,0.38332,0.9939539970971002,0.0,single,-0.541301
135,1.125,step_acsent,-0.08640345613824613,0.15324612984519193,0.012360494419772612,-0.05262792804754354,0.054128220347538426,-0.21440754693483047,-0.00012000480018879799,-0.0002400096003909192,-0.0020400816032641075,0.027961118444742694,0.033361334453378494,-0.3722548901956105,0.7331264675190757,-1.106548997312494,5.155171800743758,0.10079424048429989,0.12959136062095214,0.14396486469105318,2.117117962162073,-2.937002126096912,-2.0644778979100473,0.051387000000000016,0.01785199999999998,-0.9247409999999999,-0.39408899999999997,0.46813899999999997,-0.5445059999999999,0.445476,0.450287,0.380235,0.9965705771831899,0.0,single,-0.5445059999999999
136,1.133333,step_acsent,-0.08304332173286652,0.16788671546862496,-0.0468018720748836,-0.308957833443538,-0.21754121606436505,-0.2687302393237277,0.0002400096003842576,-0.0014400576023055455,-0.0019200768030719789,0.022560902436093568,0.04452178087123648,-0.28981159246370125,0.4032322579358738,1.7569405524340782,-7.099767970077614,0.04320345620701535,-0.1440115206905841,0.014401152069138334,-0.6480518431116254,1.339307142428668,9.893591471488056,0.05208099999999999,0.016440999999999928,-0.9243669999999999,-0.39320900000000003,0.46711099999999994,-0.5465309999999999,0.44529,0.45067,0.37783600000000006,0.9959798889471082,0.009869795028845274,single,-0.5465309999999999
137,1.141667,step_acsent,-0.08375329973602431,0.15502759779217062,0.006959443244540683,-0.158409617891972,0.08546914839170687,-0.2766376532881893,0.001559875209981419,0.0011999040076872372,0.0005999520038394556,0.045236381089507775,0.0028797696184333834,-0.31701463882889525,-0.08519054513532374,-1.5429706835198276,6.450841770989186,0.15837120345538175,0.3167700515950039,0.3023792664880508,2.7208397712279857,-4.996641619006813,-3.264104435468417,0.052792000000000006,0.015159000000000034,-0.9244199999999999,-0.39213400000000004,0.465843,-0.549231,0.44492600000000004,0.450684,0.3751889999999999,0.9965709886810038,0.0,single,-0.549231
138,1.15,step_acsent,-0.07392295691827806,0.1639265570622814,-0.027721108844351774,-0.21919533526753196,-0.24021337087311848,-0.30271482352286566,0.0036001440057638638,-0.002640105604233495,0.0004800192007680988,0.05088203528142264,-0.007200288011521066,-0.2492499699988017,1.1796883256625874,1.0679178291264684,-4.161832723976092,0.24484204917586264,-0.46081958621394065,-0.014392512069045712,0.6775056032539203,-1.2096553018066172,8.132085543033021,0.05343800000000004,0.013770999999999978,-0.9241849999999999,-0.39109399999999994,0.464417,-0.551077,0.444532,0.45064600000000005,0.3731079999999999,0.9925163858818734,0.07584602767446075,single,-0.551077
139,1.158333,step_acsent,-0.08076323052921726,0.16800672026881597,-0.06360254410175328,-0.47426917549906245,-0.42748036744631335,-0.31750589282554337,0.004800192007678362,0.0001200048001954564,0.0010800432017282976,0.07920316812672296,-0.04164166566662428,-0.18864754590182825,-0.8208656679394067,0.4896391703509533,-4.305944468666852,0.14401152069056491,0.331226497591372,0.07200576034563642,3.398671888311511,-4.133130643838066,7.272581794908483,0.054151000000000005,0.012371999999999939,-0.9236460000000001,-0.38976099999999997,0.46266999999999997,-0.552119,0.443912,0.45029800000000003,0.37152700000000005,0.9917972332275681,0.1520094719696492,single,-0.552119
140,1.166667,step_acsent,-0.07619390448764204,0.16618670506359443,-0.05135589152869008,-0.22508828259381056,-0.5713922494915885,-0.2841057603546086,0.004799616030715773,-0.0019198464122889736,0.0008399328053755933,0.0533957283417238,-0.020758339332857874,-0.1133909287257076,0.5482752629679987,-0.21838435387827898,1.469480750307588,-6.911170657415626e-05,-0.24476256449297681,-0.028810942686910115,-3.09664504259655,2.5057986961563237,9.03007165540222,0.054825999999999986,0.010970999999999953,-0.923211,-0.38868100000000005,0.46111199999999997,-0.5526359999999999,0.44350700000000004,0.450141,0.3705750000000001,0.9912714371479117,0.28826434736865525,single,-0.5526359999999999
141,1.175,step_acsent,-0.0804032161286442,0.15972638905555595,-0.039001560062390854,-0.35580290204409915,-0.37490956000665027,-0.351300492357719,0.005760230409215367,0.0002400096003909128,0.001800072002879802,0.03756150246009867,0.006720268810752372,-0.07212288491539753,-0.5051376024243475,-0.775268931721873,1.4825790791190459,0.11527833655341138,0.25919308924515166,0.11522131255300516,-1.9001831131195068,3.297564879828365,4.952363351771191,0.05554399999999998,0.00964200000000004,-0.922871,-0.38769800000000004,0.459837,-0.5529120000000001,0.443242,0.45019499999999996,0.3699589999999999,0.989933813726821,0.3640083845674009,single,-0.5529120000000001
142,1.183333,step_acsent,-0.07500300012000388,0.1726869074762968,-0.05784231369255945,-0.40698426412514926,-0.6455308177279976,-0.34470864462111084,0.005280211208447005,0.0,-0.0012000480019200388,0.026761070442828067,0.060602424096968414,-0.011160446417851324,0.6480518431105692,1.5553244234658563,-2.260980874855246,-0.05760460827653502,-0.028802304139075363,-0.3600288017280533,-1.296103686219933,6.466117279037146,7.315785251115656,0.05621299999999996,0.008203000000000071,-0.922399,-0.38684999999999997,0.45890300000000006,-0.5525229999999999,0.44306299999999993,0.4507,0.3698760000000001,0.9909752276709662,0.3880307053260613,single,-0.5525229999999999
143,1.191667,step_acsent,-0.07607391408687528,0.1595872330213635,-0.02939764818813749,-0.4620933847787725,-0.43564106689950394,-0.3871937976092685,0.006479481641475113,-0.0002399808015427761,-0.0004799616030718143,0.038756899448039325,-0.03347732181425811,-0.1738660907127457,-0.1284993960728806,-1.571835187776964,3.413086813585522,0.14390093988818078,-0.028795392553728615,0.08640345558533945,1.4393843298789497,-11.288666416033815,-19.523115466149882,0.056901000000000035,0.0068709999999999605,-0.922158,-0.385893,0.457294,-0.5537270000000001,0.442794,0.450423,0.36843099999999995,0.9891638931412223,0.19791352493397624,single,-0.5537270000000001
144,1.2,step_acsent,-0.08244329773190921,0.1605664226569018,-0.03540141605664802,-0.41733003542427427,-0.5792900131082703,-0.28443345681679133,0.006000240009599778,0.003480139205575066,0.008520340813632817,0.0602424096963887,-0.03936157446297828,-0.1777271090843662,-0.764356611668546,0.11750745656286053,-0.7204809634598083,-0.05751129627689181,0.4464322581444709,1.080079493184293,2.5783643643765237,-0.7061385633889621,-0.4633407382239939,0.05763800000000002,0.005562000000000067,-0.921792,-0.384704,0.45562800000000003,-0.554913,0.442342,0.45006599999999997,0.36687899999999996,0.9816886149073983,0.180428208492997,single,-0.554913
145,1.208333,step_acsent,-0.08676347053881688,0.14016560662426947,-0.02676107044281403,-0.35806898217875244,-0.30379699658402287,-0.2633927696657059,0.00624024960998387,-0.004440177607111978,-0.0057602304092162,0.06804272170886527,-0.019440777631104363,-0.10608424336973243,-0.51844147448789,-2.4481958517499067,1.0368829489780196,0.028802304138256022,-0.950476036563891,-1.713737096225701,0.9360748844925519,2.390591243474567,8.597487785267312,0.05841299999999999,0.004356999999999944,-0.921617,-0.38341400000000003,0.454298,-0.555574,0.441827,0.44994100000000004,0.366043,0.9840281370020709,0.2874648884969516,single,-0.555574
146,1.216667,step_acsent,-0.08171346292297284,0.13078953683704644,0.06611471082313158,0.4334897207962738,0.6539406496417152,-0.1703532271207921,0.004439644828414921,0.005159587233023286,0.00503959683225356,0.051835853131749,-0.028437724982000447,-0.12155027597792241,0.6059524377062795,-1.1250383713970724,11.144202215736428,-0.2160552893651287,1.1518796304458179,1.2958755989284814,-1.9446686557615285,-1.079547318322085,-1.8557754509467566,0.059131000000000045,0.003310000000000035,-0.922126,-0.382301,0.45297100000000007,-0.5571379999999999,0.44143200000000005,0.44966100000000003,0.3649880000000001,0.9858844724141866,0.2747215953144665,single,-0.5571379999999999
147,1.225,step_acsent,-0.08808352334092692,0.1405256210248425,0.025561022440899438,-0.07981681562008902,0.24036978369565665,-0.20566714769313243,0.005400216008635659,0.0031201248049886037,0.00792031681267238,0.044761790471626206,-0.011400456018241939,-0.09132365294611765,-0.7644378276675835,1.1683768376090113,-4.866637271358627,0.11527315255258865,-0.2447452811754046,0.34570022565927866,-0.8489214760737636,2.044554057813298,3.6273398574108042,0.05990999999999996,0.0021649999999999725,-0.922273,-0.381194,0.451705,-0.5581119999999999,0.44110399999999994,0.44954000000000005,0.36416100000000007,0.983198137491492,0.32943233770832747,single,-0.5581119999999999
148,1.233333,step_acsent,-0.09312372494899868,0.14760590423617853,-0.02496099843993614,-0.22043895315611925,-0.2408786185020179,-0.2052721636915752,0.0036001440057638638,0.002400096003842576,0.006000240009600194,0.03288131525260998,0.0027601104044156313,-0.0854434177367091,-0.6048483869040922,0.849667972079214,-6.062885021101169,-0.21601728103585888,-0.08640691241402068,-0.23041843310598853,-1.4257140548441536,1.6993359441566902,0.7056564513870872,0.06071599999999999,0.0009549999999999281,-0.922015,-0.380144,0.45049799999999995,-0.558616,0.44086,0.449543,0.363399,0.9876706788212108,0.3473440984807493,single,-0.558616
149,1.241667,step_acsent,-0.09887209023278626,0.1420686345092337,-0.0019198464122889224,-0.24412643596957556,0.080127908753236,-0.2310855092405651,0.0017998560115175344,-0.000599952003830297,0.002399808015358655,0.027117830573547726,0.009239260859130448,-0.09527237820974452,-0.6897486541621716,-0.6644192136962778,2.764717065952369,-0.2160172779273237,-0.35997696276372093,-0.43201727792674727,-0.6915628364605487,0.7774358596969964,-1.1793809062917373,0.061555000000000026,-0.00023399999999995647,-0.921979,-0.379094,0.449391,-0.559394,0.440649,0.44962499999999994,0.36258500000000005,0.9949013883753419,0.33418914117133924,single,-0.559394
150,1.25,step_acsent,-0.10320412816512417,0.14112564502579691,0.06168246729869425,0.09359386071933633,0.43853755321989885,-0.14115441642316068,0.001800072002878601,-0.002400096003842576,0.0010800432017283265,0.02520100804032706,0.015120604824194904,-0.07920316812672507,-0.519865346494414,-0.11316326454299824,7.632582948635996,2.5920000127998895e-05,-0.21602592103831697,-0.1583781127601513,-0.2300279051026859,0.7057895073880367,1.9283823452561621,0.062429999999999986,-0.0014299999999999313,-0.922484,-0.37802399999999997,0.44834100000000005,-0.560568,0.44045399999999996,0.449771,0.361916,0.9946856553239767,0.3592000499348221,single,-0.560568
151,1.258333,step_acsent,-0.1053642145685825,0.14460578423137196,-0.011160446417857985,-0.2798783943723108,-0.10908607320848449,-0.10433753054395861,0.001800072002878601,-0.001800072002878601,0.0020400816032641075,0.023040921636862083,0.009480379215168182,-0.06996279851194113,-0.25922073724449146,0.41763341000541004,-8.741499305958586,0.0,0.0720057603460915,0.11520921655295689,-0.25922073724528966,-0.6768541472491028,1.1088887093224546,0.06332299999999996,-0.00264999999999993,-0.922374,-0.376954,0.44721500000000003,-0.5610580000000001,0.440277,0.44986499999999996,0.36131599999999997,0.9945628716272406,0.3762220308199453,single,-0.5610580000000001
152,1.266667,step_acsent,-0.09875209983201487,0.1559875209983284,-0.02843772498199303,-0.17047336237036573,-0.2007522116185705,-0.09090097493792719,0.001799856011524195,-0.0020398368130603107,0.001679865610751142,0.03215742740581281,0.013918886489081366,-0.049556035517157856,0.7933902971643362,1.3656991561022749,-2.073107579089862,-2.5916889177576618e-05,-0.028769475663751837,-0.04322246130465117,1.0938931808196133,0.5325782666082493,2.448615670120365,0.06416100000000002,-0.003967000000000054,-0.922123,-0.37586299999999995,0.44603099999999996,-0.561234,0.44002399999999997,0.449998,0.360889,0.9946712612612989,0.3988450556676944,single,-0.561234
153,1.275,step_acsent,-0.10980439217568792,0.14520580823232263,-0.0012000480019279496,-0.28879145907247805,-0.24234884418823222,-0.06070412747493212,0.0022800912036471162,-0.0025201008040380353,-0.00036001440057597004,0.0441617664706501,0.03096123844953592,-0.07488299531980842,-1.3263281343661533,-1.2938572862121547,3.268651983687187,0.0576305282758821,-0.05763398427669855,-0.24479539317498267,1.4405783109129247,2.045164041816238,-3.0393567505881194,0.06509500000000001,-0.005198000000000036,-0.9221159999999999,-0.37458,0.445079,-0.5618479999999999,0.43967500000000004,0.45027700000000004,0.36026800000000003,0.9943041598200275,0.34619345762177856,single,-0.5618479999999999
154,1.283333,step_acsent,-0.11280451218048482,0.14592583703347817,0.007200288011527536,-0.11260106873791222,-0.12047743835217208,0.038974586907724956,0.0,-0.0026401056042201017,0.0007200288011519209,0.020160806432263777,0.009960398415936432,-0.056882275291014237,-0.3600288017276901,0.08640691241516016,1.008080644840434,-0.2736218893132217,-0.01440115206793043,0.12961036862208955,-2.8802304138228614,-2.5202016120963786,2.1601728103676794,0.06603500000000001,-0.006435999999999997,-0.92217,-0.37347199999999997,0.443946,-0.562382,0.439507,0.450382,0.359788,0.9954391158642446,0.39805692090836337,single,-0.562382
155,1.291667,step_acsent,-0.0957523398128193,0.16018718502519805,-0.060955123590121625,-0.475951170293854,-0.2487705928055547,-0.07114924295301668,0.0008399328053730955,-0.00287976961843346,0.0,0.025557955363573647,0.01295896328293725,-0.04583633309335262,2.0460969963601916,1.7112248610175367,-8.177995152585847,0.10078387393485859,-0.028757381115114354,-0.08639654441467898,0.647606063272135,0.35979900012009547,1.325407031156927,0.06684000000000001,-0.007794999999999996,-0.921662,-0.37246099999999993,0.44271900000000003,-0.562256,0.43930099999999994,0.450514,0.359406,0.995000399967999,0.4099057092205352,single,-0.562256
156,1.3,step_acsent,-0.11616464658585766,0.14676587063483304,-0.005880235209404162,-0.20838274994257822,-0.17858737061841642,0.043248238112116553,-0.0008400336013415484,-0.0037201488059525624,-0.002400096003840014,0.029161166446656544,0.014760590423621456,-0.034321372854914614,-2.4495747957563907,-1.610622151729842,6.609250975725009,-0.20160403296707244,-0.10084953648374986,-0.28802304138245194,0.43240262607498303,0.21620390503830242,1.3818505026326415,0.067801,-0.009049000000000085,-0.921633,-0.37124999999999997,0.441619,-0.562493,0.43905099999999997,0.45066800000000007,0.35914,0.9924897062460429,0.42100975283777853,single,-0.562493
157,1.308333,step_acsent,-0.1053642145685825,0.16524660986439146,-0.06540261610464691,-0.47442400642700844,-0.4721695717698261,-0.007930184484686485,-0.0009600384015370304,-0.003840153606134798,-0.0007200288011519401,0.02544101764070466,0.01848073922956785,-0.01068042721708947,1.2961036862204807,2.217777418643777,-7.142971426286247,-0.01440115206954075,-0.014401152067951112,0.2016161289677294,-0.4464357141427959,0.44643571414213706,2.837026957617348,0.06867099999999998,-0.010457999999999967,-0.921094,-0.37016,0.440396,-0.562037,0.43883099999999997,0.450854,0.35905699999999996,0.9932945099347159,0.44465124144206924,single,-0.562037
158,1.316667,step_acsent,-0.11279097672186762,0.14962802975761802,0.012958963282936905,-0.08246758154816174,-0.05610586180187743,0.0587205877321646,-0.003839692824577845,-0.004319654427650075,0.0007199424046075133,0.023158147348211814,0.011279097672184098,-0.0056395488360887185,-0.8911401671808337,-1.874079686437884,9.402637315524744,-0.34553088829383155,-0.05753549574217345,0.1727827220733672,-0.27392252129743555,-0.864127856657511,0.604857017158713,0.069579,-0.011741000000000001,-0.921196,-0.36902699999999994,0.439243,-0.562192,0.43860599999999994,0.450984,0.359004,0.9902930476765671,0.45605172408972655,single,-0.562192
159,1.325,step_acsent,-0.11268450738029236,0.15888635545421864,-0.030481219248767406,-0.22786692738279424,-0.3254444450581534,0.14858155581435475,-0.0028801152046044293,-0.004920196807867288,-0.003960158406336503,0.012720508820345667,0.005160206408258207,0.0016800672026831415,0.012776832062314529,1.1110435253330981,-5.213030425021566,0.11515392055363306,-0.07206796834479998,-0.5616345626957949,-1.2525667260129896,-0.7342963235240546,0.8783890602150398,0.070494,-0.013105999999999951,-0.920975,-0.36798200000000003,0.437962,-0.5619240000000001,0.43847600000000003,0.45106799999999997,0.3590509999999999,0.988430613333358,0.4769504338056095,single,-0.5619240000000001
160,1.333333,step_acsent,-0.11448457938317456,0.16020640825632446,-0.032641305652231514,-0.3121492364775597,-0.22554475023719184,0.08701842670965557,-0.0002400096003842512,-0.004320172806916521,-0.00036001440057596045,0.0022800912036470555,0.0020400816032628043,0.01704068162726851,-0.2160172810371027,0.15841267275960536,-0.25922073724517825,0.3168253455202366,0.07200576034450451,0.43203456207374047,-1.2529002300130119,-0.3744299537975937,1.843347464848806,0.07144600000000001,-0.014476999999999962,-0.920706,-0.36700900000000003,0.43664400000000003,-0.56151,0.43845500000000004,0.451121,0.35919600000000007,0.9927636895415244,0.47114472996493023,single,-0.56151
161,1.341667,step_acsent,-0.11147108231341862,0.17374610031197893,-0.05891528677706126,-0.2790977580707891,-0.2315863605422684,0.11480428850038699,-0.001679865610752852,-0.0050395968322518945,-0.0031197504199662516,-0.001679865610746191,-0.0019198464122889736,0.02207823374129655,0.36159072111303076,1.624633076032485,-3.1526255249376343,-0.1727688997322568,-0.08632397712207668,-0.3311418309803628,-0.47515680518278397,-0.47515334959825456,0.6044578970516123,0.07236100000000001,-0.015966999999999953,-0.920241,-0.366094,0.43518,-0.560835,0.438455,0.45114699999999996,0.359406,0.989732423283744,0.46295812565291544,single,-0.560835
162,1.35,step_acsent,-0.11388455538221061,0.18060722428896583,-0.06948277931117078,-0.46732243794458705,-0.4548998332099203,0.12578692071644387,-0.0025201008040313068,-0.0010800432017324612,-0.0010800432017282976,-0.0028801152046110143,-0.005520220808831116,0.02112084483379412,-0.28962835338916876,0.8233678119508921,-1.2681498300863234,-0.10083225648367215,0.47516544228001484,0.24477465717483715,-0.14403571269228396,-0.43206221007345247,-0.11489126455087173,0.07328899999999999,-0.01748099999999997,-0.9196709999999999,-0.365169,0.43362900000000004,-0.5600799999999999,0.438458,0.45111,0.359591,0.9950885918805501,0.46330084818330675,single,-0.5600799999999999
163,1.358333,step_acsent,-0.1206048241929662,0.19512780511220823,-0.005160206408244884,-0.20255086141858875,-0.08956633449121187,0.20244601076030552,-0.0020400816032628585,-0.0010800432017191667,-0.0021600864034562366,-0.03132125285010898,-0.052922116884672174,0.04164166566662539,-0.806464515871313,1.742539400365118,7.7190175090515405,0.05760460827654538,1.5954022607725162e-12,-0.12961036862209874,-3.413073040381402,-5.6884550673036705,2.4625970038199276,0.07427699999999998,-0.01911599999999991,-0.9196460000000001,-0.364425,0.43156200000000006,-0.55969,0.438702,0.45067799999999997,0.35995600000000005,0.9947310132916102,0.37621928377675334,single,-0.55969
164,1.366667,step_acsent,-0.11603071754260184,0.19918406527477586,-0.05987520998320415,-0.7030365569349196,-0.48361065886834637,0.10343490497840063,-0.0037197024238064566,0.000599952003830297,-0.000239980801535699,-0.00863930885530015,0.01823854091672478,0.012119030477563832,0.5488488901325077,0.4867122825255101,-6.565275206978503,-0.20153837539519862,0.20158329800209396,0.23039424069120745,2.721615550133028,8.538595848499689,-3.542432828061115,0.07521300000000003,-0.020770999999999984,-0.919149,-0.36353,0.43005400000000005,-0.5590900000000001,0.43874300000000005,0.45082500000000003,0.3600589999999999,0.993707650298957,0.4607659115059779,single,-0.5590900000000001
165,1.375,step_acsent,-0.10488419536780731,0.21792871714869272,-0.0918036721468886,-0.39608221500793905,-0.5674447599061552,0.1489767838602907,-0.002880115204611091,0.0016800672026964648,-0.003960158406336086,0.002880115204611091,-0.012120484819395016,0.0054002160086424646,1.3376361664220129,2.2494482027981553,-3.831568722391065,0.10075449648330412,0.1296190086242863,-0.4464391701428563,1.382386182636667,-3.6432288174871084,-0.8062899878700862,0.07606299999999994,-0.022572999999999954,-0.918417,-0.36263200000000007,0.428137,-0.55828,0.438695,0.45070999999999994,0.36013700000000004,0.9913717930276649,0.47736991010052376,single,-0.55828
166,1.383333,step_acsent,-0.13128525141006234,0.20256810272411355,-0.043921756870272506,-0.2900465291561786,-0.4439025251279852,0.21470016317168433,-0.0038401536061414597,0.003120124804988687,-0.003600144005760533,-0.02028081123244645,-0.014040561622462415,0.003120124804988687,-3.1682534552088404,-1.8433474648481114,5.746059675581007,-0.1152092165523074,0.17281382482806137,0.04320345620731508,-2.779422349340904,-0.23041843310541418,-0.27362188931402837,0.077125,-0.024235000000000007,-0.918081,-0.361707,0.426332,-0.557888,0.438832,0.450567,0.360193,0.9898015530349414,0.45856116107512596,single,-0.557888
167,1.391667,step_acsent,-0.14326853851692095,0.1852651787856945,-0.005519558435323991,-0.5325159734727292,-0.2256713587053317,0.13969950255737637,-0.004799616030715645,0.0017998560115175344,-0.0038396928245740983,-0.008519318454528763,-0.03095752339813223,-0.014998800095990554,-1.4378794224692253,-2.076184777828042,4.60789518057934,-0.11512628084643363,-0.1584195816500051,-0.028743558772925764,1.4112662320515474,-2.029873023238503,-2.174097060352664,0.07827900000000004,-0.02576400000000001,-0.9180670000000001,-0.360584,0.42452999999999996,-0.5579670000000001,0.43886300000000006,0.45029399999999997,0.3601,0.9893256490320145,0.4409352745288163,single,-0.5579670000000001
168,1.4,step_acsent,-0.14208568342733394,0.1936877475099027,-0.04068162726510168,-0.22686646611987685,-0.5463127808838109,0.286778613724078,-0.005760230409215521,0.003120124804988687,-0.003960158406336086,0.0002400096003909192,0.008160326413058097,-0.022920916836673282,0.14194828868199036,1.0107486768520655,-4.2196170442551315,-0.11527833655344828,0.15843859276025016,-0.014456448069361482,1.0511614130468934,4.694329750532903,-0.9506920365633986,0.07941500000000001,-0.027352000000000043,-0.9177609999999999,-0.359398,0.42298399999999997,-0.557819,0.438813,0.450336,0.359942,0.9872417469228268,0.4594476689117209,single,-0.557819
169,1.408333,step_acsent,-0.16140645625825237,0.18768750750029792,-0.05448217928716507,-0.23744437973771737,-0.26048810845731724,0.2854169914427281,-0.006120244809795074,0.0009600384015370048,-0.005400216008640239,0.0013200528021100508,-0.007080283211325418,-0.02352094083762997,-2.3185854831294965,-0.7200576034566992,-1.6561324879470953,-0.043203456207793985,-0.25922073724368705,-0.17281382482948845,0.12961036862103836,-1.828946312778501,-0.07200576034521501,0.08070900000000003,-0.028908000000000045,-0.917352,-0.35804199999999997,0.421361,-0.557561,0.438751,0.45026900000000003,0.35979099999999997,0.9863027371748725,0.45900177484735116,single,-0.557561
170,1.416667,step_acsent,-0.16450683945284822,0.19990400767938288,0.0046796256299510425,-0.5888711849259137,0.052782050909892554,0.14522203947116052,-0.007559395248377843,0.004439644828421582,-0.006959443244540452,0.029877609791210517,0.007919366450685356,-0.02147828173746624,-0.37201622205374496,1.4658627524700256,7.098848682159495,-0.1726842378909042,0.41751936967658304,-0.18709230092395523,3.4266327080754753,1.7998139743233812,0.2450994840609274,0.08201700000000006,-0.030536999999999925,-0.917449,-0.356422,0.41976100000000005,-0.557779,0.4384390000000001,0.450298,0.35966999999999993,0.9813445902247493,0.4372681075659178,single,-0.557779
171,1.425,step_acsent,-0.16740669626783866,0.2246489859594326,-0.015600624024956343,-0.5757898961169278,0.13573340675417378,0.08985984597677175,-0.0063602544101793255,0.003960158406330152,-0.007320292811712583,0.01008040321613855,0.0056402256090199105,-0.02820112804511954,-0.34799673766835376,2.9695161742528864,-2.433727307681151,0.14390265669008714,-0.057540672277861686,-0.0433036802078633,-2.3757598194013707,-0.2735078413135012,-0.8067738278714968,0.08335899999999996,-0.03237599999999996,-0.9173800000000001,-0.354943,0.41793600000000003,-0.557884,0.43830199999999997,0.450312,0.35949600000000004,0.9825419250126797,0.4492082055802042,single,-0.557884
172,1.433333,step_acsent,-0.17040681627266302,0.2360494419776875,-0.026041041641668632,-0.28220722195695563,-0.12002373683738242,0.16551192296442463,-0.0074402976119053235,0.003360134405379606,-0.00828033121324856,0.009480379215161521,0.008280331213253556,-0.016920676827073506,-0.3600288017309955,1.3681094465684633,-1.2529002300146868,-0.1296103686218658,-0.07200576034447993,-0.11520921655298032,-0.07200576034765799,0.3168253455218612,1.3537082944973162,0.08471700000000004,-0.034314999999999984,-0.917232,-0.353444,0.416038,-0.5578080000000001,0.438161,0.450353,0.35942399999999997,0.9806198543193586,0.46485147468911747,single,-0.5578080000000001
173,1.441667,step_acsent,-0.1785457163426833,0.224382049436048,-0.052435805135591235,-0.2863182872012799,-0.24537783718184858,0.16621267693300573,-0.003359731221498953,-0.02171826253899512,-0.018238540916726446,0.005639548836095379,0.012359011279093286,-0.022318214542838742,-0.9765898812119282,-1.3999751069881714,-3.167118249810703,0.4896287965450371,-3.0091668999729464,-1.194889573251477,-0.46086277646581625,0.4894024557043076,-0.6476527136747294,0.086177,-0.03636600000000001,-0.916947,-0.351909,0.41427099999999994,-0.5575570000000001,0.43808600000000003,0.45063699999999995,0.3593899999999999,0.9524017070694599,0.45645397162989365,single,-0.5575570000000001
174,1.45,step_acsent,-0.18312732509300866,0.2306492259690384,-0.05520220808832595,-0.21140952384235975,-0.11721568376155925,0.14946668417482495,-0.010920436817473728,-0.002880115204611091,-0.014160566422657042,0.0055202208088312625,0.010080403216132157,-0.03096123844953592,-0.5498150426407553,0.7520912676095577,-0.331981633593513,-0.9073209643555555,2.2606681068503782,0.48937651434890683,-0.014319936069136872,-0.27344390531155044,-1.03720435697795,0.08761200000000002,-0.03831200000000001,-0.916605,-0.350337,0.412433,-0.557355,0.43794900000000003,0.450745,0.35924999999999996,0.9698120404204871,0.4449574494618763,single,-0.557355
175,1.458333,step_acsent,-0.1881675267010664,0.23976959078362045,-0.07488299531980644,-0.12604881534454165,-0.2958927478222532,0.21092207197643756,-0.008160326413057879,0.004680187207489568,-0.006000240009600451,-0.0030001200047931474,0.011280451218046482,-0.021360854434178372,-0.604848386902394,1.0944875572521182,-2.3617889393351903,0.3312264975897997,0.9072725803552774,0.9792783407004019,-1.0224817969067876,0.1440115206905441,1.1520921655295069,0.08911200000000002,-0.040270999999999946,-0.916031,-0.34879399999999994,0.41052900000000003,-0.5569090000000001,0.43790599999999996,0.4508,0.35912199999999994,0.9814035577149814,0.45942991654063153,single,-0.5569090000000001
176,1.466667,step_acsent,-0.17938564914807445,0.23902087832973742,-0.06719462443004746,-0.06765837713955825,-0.07271179270136632,0.12864111178208112,-0.007679385649149233,0.006839452843769477,-0.0022798176145906583,-0.006119510439167773,0.010679145668347424,-0.017998560115189143,1.0537410070784878,-0.08983830740137283,0.9225307043147494,0.057708275007038,0.25909114906166913,0.4464149742032474,-0.3742969083722924,-0.07215089389237703,0.40344304283528837,0.09054300000000004,-0.042205999999999966,-0.91549,-0.34734999999999994,0.40862600000000004,-0.5564990000000001,0.437893,0.450832,0.35899099999999995,0.98244463935097,0.4636589944476191,single,-0.5564990000000001
177,1.475,step_acsent,-0.299171966878666,0.08352334093363947,-0.20832833313333018,0.5091859123420501,-0.44806356212167714,0.9798815991289609,-0.005520220808831116,0.006600264010563577,-0.0020400816032640533,-0.008760350414015176,0.004200168006721065,-0.02220088803551992,-14.374933124995733,-18.66045090556765,-16.936722513294164,0.2591101452439793,-0.028703808137033042,0.028769472138077616,-0.31691347352062366,-0.7775084197319386,-0.5042995224205811,0.09299000000000002,-0.04284699999999997,-0.913771,-0.34492999999999996,0.407965,-0.554948,0.43792,0.450812,0.358823,0.985261703726594,0.45961076256439404,single,-0.554948
178,1.483333,step_acsent,-0.1820472818912762,0.32977319092763685,-0.07680307212288248,-0.3455598162827673,-0.06809386353355443,-0.009895632048914183,-0.007800312012478379,0.008400336013442354,0.0007200288011519401,-0.01368054722189602,-0.0020400816032628585,-0.011160446417857985,14.055524419463682,29.55116404584179,15.783662667760579,-0.27362188931324655,0.21601728103669676,0.3312264975898258,-0.5904472348351001,-0.7488599075943816,1.3249059903590585,0.09444200000000003,-0.04552499999999993,-0.913125,-0.343527,0.40520000000000006,-0.5544009999999999,0.43796900000000005,0.450725,0.35872400000000004,0.9808566116646242,0.47037855180764854,single,-0.5544009999999999
179,1.491667,step_acsent,-0.21022318214542385,0.30693544516439175,-0.05435565154786684,-0.5265119140188613,-0.3097783810354812,0.02784871735465636,-0.005039596832258421,0.00755939524837098,0.00011999040076805765,-0.017878569714417276,-0.008039356851456533,-0.0059995200383962215,-3.380837563492613,-2.7403102667680495,2.693474991002576,0.3312593208807219,-0.10090481942301031,-0.07199884813821428,-0.503722401310442,-0.7198554413479276,0.6192616246054385,0.09615199999999996,-0.04802000000000006,-0.912671,-0.341924,0.40257499999999996,-0.553998,0.43807599999999997,0.450595,0.358673,0.9848565754598573,0.46583257097153546,single,-0.553998
180,1.5,step_acsent,-0.22248889955598694,0.2094083763350549,-0.47605904236170526,-1.4276195707433867,-2.909832032126205,0.7394072582774662,-0.01632065282610953,0.0025201008040380353,-0.005400216008640383,-0.023760950438021518,-0.012000480019199556,-0.002520100804031374,-1.4719449670662672,-11.703716408176856,-50.60643115490727,-1.3537808704969652,-0.604739522900875,-0.6624512671797061,-0.705913923389451,-0.4753537942809383,0.4175470100041857,0.09787000000000001,-0.04974400000000001,-0.908749,-0.340268,0.40073,-0.550052,0.438138,0.450474,0.35869700000000004,0.9710423225650833,0.45543590151778246,single,-0.550052
