frame_id,timestamp,gait_type,root_linear_velocity_x,root_linear_velocity_y,root_linear_velocity_z,root_angular_velocity_x,root_angular_velocity_y,root_angular_velocity_z,left_linear_velocity_x,left_linear_velocity_y,left_linear_velocity_z,right_linear_velocity_x,right_linear_velocity_y,right_linear_velocity_z,root_acceleration_x,root_acceleration_y,root_acceleration_z,left_acceleration_x,left_acceleration_y,left_acceleration_z,right_acceleration_x,right_acceleration_y,right_acceleration_z,left_pos_rel_x,left_pos_rel_y,left_pos_rel_z,right_pos_rel_x,right_pos_rel_y,right_pos_rel_z,step_length,step_width,step_height,left_contact_prob,right_contact_prob,support_type,max_foot_height
<<<<<<< HEAD
<<<<<<< HEAD
1,0.008333,step_decsent,0.06372254890194985,-0.014160566422657745,0.021240849633996608,-0.09920679779541254,-0.41313329325890324,0.16456523680653035,0.004560182407294191,0.011760470418816856,0.004680187207489649,0.02196087843512939,-0.03912156486259699,0.030121204848194073,0.0,0.0,0.0,0.0,0.0,0.0,0.0,0.0,0.0,-0.03996899999999992,-0.044127999999999994,-0.895869,0.172435,0.068144,-0.883769,0.21240399999999993,0.11227199999999998,0.0121,0.9775767927536365,0.7889373057801803,double,-0.883769
2,0.016667,step_decsent,0.05663546916247035,0.0304775617950569,-0.043076553875689726,-0.0385107389454446,0.3628050843378804,0.20534240964932532,0.0029997600191914724,-0.005519558435325281,0.020518358531314698,0.02471802255820008,-0.06695464362851006,0.03011759059275272,-0.8503815382144829,5.3561468943742065,-7.71747102348048,-0.18723570771570894,-2.0734375874900572,1.9004285245770394,0.33083082830221844,-3.339702275727509,-0.00043367595888542176,-0.04041600000000001,-0.044427999999999995,-0.8953390000000001,0.17216900000000002,0.06733199999999999,-0.883159,0.21258500000000002,0.11175999999999998,0.01218000000000008,0.9642358372143409,0.7490900747670037,double,-0.883159
3,0.025,step_decsent,-0.04464178567141821,0.09960398415936607,-0.008280331213260142,0.2818091382352379,0.7335090832194474,-0.047002474219021415,0.0008400336013548863,0.0042001680067203055,0.009000360014399585,0.017520700828030658,-0.10068402736109187,0.02088083523340357,-12.15375673033584,8.295502503817254,4.175713748041471,-0.25917753724188003,1.1664138295986541,-1.3822151106342389,-0.8637131561465764,-4.047687955428035,-1.1084549813211508,-0.04003699999999999,-0.045223,-0.895195,0.17268699999999992,0.06566300000000001,-0.882916,0.2127239999999999,0.11088600000000001,0.012278999999999929,0.9833872916679827,0.7033625444918338,double,-0.882916
4,0.033333,step_decsent,-0.004320172806916597,0.003240129605184117,-0.12912516500658283,-0.27273389049576946,1.4170162561478503,-0.6406672815622534,0.0,0.003720148805952211,-0.005280211208446957,0.03876155046202727,-0.08856354254170364,0.04884195367815267,4.838787095224003,-11.564125111506295,-14.501960133604067,-0.10080806448516576,-0.057604608276502385,-1.7137370962254341,2.549003916236243,1.4545163589809478,3.3554684321071764,-0.04000099999999995,-0.045218999999999995,-0.894163,0.17304600000000003,0.064898,-0.8814330000000001,0.213047,0.11011699999999999,0.012729999999999908,0.9892348120798469,0.692179954169017,double,-0.8814330000000001
5,0.041667,step_decsent,0.07907367410606732,0.0011999040076805855,0.050995920326361605,0.14240327544132486,-0.6206244226978773,0.2533411602166881,-0.0011999040076872464,0.007799376049916313,-0.004319654427643447,0.05807535397167373,-0.1505879529637603,-0.02867770578354268,10.006461112669056,-0.24480748710145564,21.61280121585606,-0.1439769627654483,0.48946811182674604,0.11525759308897406,2.317471023475697,-7.442333863937683,-9.301615006202946,-0.040669999999999984,-0.045164,-0.894624,0.172871,0.06363300000000001,-0.882097,0.21354099999999998,0.108797,0.012526999999999955,0.9850065337591177,0.6015192087408707,double,-0.882097
6,0.05,step_decsent,0.06372254890196319,0.019680787231488958,-0.027121084843400874,0.00026860560767787633,0.11067228104201277,0.37666668932257846,-0.006840273610941286,0.00864034561382445,-0.005280211208453619,0.0606024240969612,-0.13440537621504978,0.04068162726509465,-1.8422087128410092,2.2177946986449504,-9.374415596995377,-0.6768714272475747,0.10092038448435589,-0.11527142455420282,0.3032605454563143,1.9419868893208345,8.323452903952639,-0.04125800000000002,-0.045256000000000005,-0.894442,0.17284499999999992,0.062349,-0.881532,0.21410299999999993,0.107605,0.012909999999999977,0.9796335279738737,0.6159901370698024,double,-0.881532
7,0.058333,step_decsent,0.06804272170886645,-0.02448097923916907,0.09024360974440009,0.00022157090978723,-0.8666959480150106,0.15486778822538666,-0.0006000240009639692,-0.002040081603264089,0.0007200288011527661,0.0717628705148324,-0.13104524180967353,0.051482059282372816,0.5184414744873711,-5.299623961437421,14.08432672360506,0.7488599075935818,-1.2817025341519908,0.7200576034569044,1.339307142430242,0.4032322579354671,1.2961036862208284,-0.041830000000000034,-0.045069000000000005,-0.8951880000000001,0.17287600000000003,0.06146099999999999,-0.881855,0.21470600000000006,0.10652999999999999,0.01333300000000004,0.9962581929409416,0.6032883197681114,double,-0.881855
8,0.066667,step_decsent,0.07115430765538212,0.043076553875689726,-0.01139908807294891,-0.04090618257820491,-0.054035519410170846,0.3037992652731417,0.0019198464122889367,-0.003839692824574127,0.0008399328053797403,0.08543316534676444,-0.152027837772977,0.05075593952483215,0.3733604447463008,8.106255473345186,-12.196148046238179,0.3023602607694871,-0.2159360716714708,0.014387329520875224,1.6403041554994042,-2.5177100987885113,-0.08712740071282293,-0.04240699999999997,-0.04546,-0.895086,0.172995,0.059835,-0.881337,0.21540199999999998,0.105295,0.013749000000000011,0.9927094927871509,0.5598025202070187,double,-0.881337
=======
=======
>>>>>>> 3b0d06690e55fb02323d988053aa126fb7c3a6e7
1,0.008333,stand,0.06372254890194985,-0.014160566422657745,0.021240849633996608,-0.09920679779541254,-0.41313329325890324,0.16456523680653035,0.004560182407294191,0.011760470418816856,0.004680187207489649,0.02196087843512939,-0.03912156486259699,0.030121204848194073,0.0,0.0,0.0,0.0,0.0,0.0,0.0,0.0,0.0,-0.03996899999999992,-0.044127999999999994,-0.895869,0.172435,0.068144,-0.883769,0.21240399999999993,0.11227199999999998,0.0121,0.9775767927536365,0.7889373057801803,double,-0.883769
2,0.016667,stand,0.05663546916247035,0.0304775617950569,-0.043076553875689726,-0.0385107389454446,0.3628050843378804,0.20534240964932532,0.0029997600191914724,-0.005519558435325281,0.020518358531314698,0.02471802255820008,-0.06695464362851006,0.03011759059275272,-0.8503815382144829,5.3561468943742065,-7.71747102348048,-0.18723570771570894,-2.0734375874900572,1.9004285245770394,0.33083082830221844,-3.339702275727509,-0.00043367595888542176,-0.04041600000000001,-0.044427999999999995,-0.8953390000000001,0.17216900000000002,0.06733199999999999,-0.883159,0.21258500000000002,0.11175999999999998,0.01218000000000008,0.9642358372143409,0.7490900747670037,double,-0.883159
3,0.025,stand,-0.04464178567141821,0.09960398415936607,-0.008280331213260142,0.2818091382352379,0.7335090832194474,-0.047002474219021415,0.0008400336013548863,0.0042001680067203055,0.009000360014399585,0.017520700828030658,-0.10068402736109187,0.02088083523340357,-12.15375673033584,8.295502503817254,4.175713748041471,-0.25917753724188003,1.1664138295986541,-1.3822151106342389,-0.8637131561465764,-4.047687955428035,-1.1084549813211508,-0.04003699999999999,-0.045223,-0.895195,0.17268699999999992,0.06566300000000001,-0.882916,0.2127239999999999,0.11088600000000001,0.012278999999999929,0.9833872916679827,0.7033625444918338,double,-0.882916
4,0.033333,stand,-0.004320172806916597,0.003240129605184117,-0.12912516500658283,-0.27273389049576946,1.4170162561478503,-0.6406672815622534,0.0,0.003720148805952211,-0.005280211208446957,0.03876155046202727,-0.08856354254170364,0.04884195367815267,4.838787095224003,-11.564125111506295,-14.501960133604067,-0.10080806448516576,-0.057604608276502385,-1.7137370962254341,2.549003916236243,1.4545163589809478,3.3554684321071764,-0.04000099999999995,-0.045218999999999995,-0.894163,0.17304600000000003,0.064898,-0.8814330000000001,0.213047,0.11011699999999999,0.012729999999999908,0.9892348120798469,0.692179954169017,double,-0.8814330000000001
5,0.041667,stand,0.07907367410606732,0.0011999040076805855,0.050995920326361605,0.14240327544132486,-0.6206244226978773,0.2533411602166881,-0.0011999040076872464,0.007799376049916313,-0.004319654427643447,0.05807535397167373,-0.1505879529637603,-0.02867770578354268,10.006461112669056,-0.24480748710145564,21.61280121585606,-0.1439769627654483,0.48946811182674604,0.11525759308897406,2.317471023475697,-7.442333863937683,-9.301615006202946,-0.040669999999999984,-0.045164,-0.894624,0.172871,0.06363300000000001,-0.882097,0.21354099999999998,0.108797,0.012526999999999955,0.9850065337591177,0.6015192087408707,double,-0.882097
6,0.05,stand,0.06372254890196319,0.019680787231488958,-0.027121084843400874,0.00026860560767787633,0.11067228104201277,0.37666668932257846,-0.006840273610941286,0.00864034561382445,-0.005280211208453619,0.0606024240969612,-0.13440537621504978,0.04068162726509465,-1.8422087128410092,2.2177946986449504,-9.374415596995377,-0.6768714272475747,0.10092038448435589,-0.11527142455420282,0.3032605454563143,1.9419868893208345,8.323452903952639,-0.04125800000000002,-0.045256000000000005,-0.894442,0.17284499999999992,0.062349,-0.881532,0.21410299999999993,0.107605,0.012909999999999977,0.9796335279738737,0.6159901370698024,double,-0.881532
7,0.058333,stand,0.06804272170886645,-0.02448097923916907,0.09024360974440009,0.00022157090978723,-0.8666959480150106,0.15486778822538666,-0.0006000240009639692,-0.002040081603264089,0.0007200288011527661,0.0717628705148324,-0.13104524180967353,0.051482059282372816,0.5184414744873711,-5.299623961437421,14.08432672360506,0.7488599075935818,-1.2817025341519908,0.7200576034569044,1.339307142430242,0.4032322579354671,1.2961036862208284,-0.041830000000000034,-0.045069000000000005,-0.8951880000000001,0.17287600000000003,0.06146099999999999,-0.881855,0.21470600000000006,0.10652999999999999,0.01333300000000004,0.9962581929409416,0.6032883197681114,double,-0.881855
8,0.066667,stand,0.07115430765538212,0.043076553875689726,-0.01139908807294891,-0.04090618257820491,-0.054035519410170846,0.3037992652731417,0.0019198464122889367,-0.003839692824574127,0.0008399328053797403,0.08543316534676444,-0.152027837772977,0.05075593952483215,0.3733604447463008,8.106255473345186,-12.196148046238179,0.3023602607694871,-0.2159360716714708,0.014387329520875224,1.6403041554994042,-2.5177100987885113,-0.08712740071282293,-0.04240699999999997,-0.04546,-0.895086,0.172995,0.059835,-0.881337,0.21540199999999998,0.105295,0.013749000000000011,0.9927094927871509,0.5598025202070187,double,-0.881337
<<<<<<< HEAD
>>>>>>> 3b0d06690e55fb02323d988053aa126fb7c3a6e7
=======
>>>>>>> 3b0d06690e55fb02323d988053aa126fb7c3a6e7
9,0.075,step_decsent,0.06864274570983048,0.013080523220928607,-0.04320172806913936,-0.14724509059420074,0.2972710437857062,0.27992306798555555,0.006000240009586405,-0.0008400336013440619,-0.0020400816032695034,0.09276371054842485,-0.15132605304212327,0.0416416656666317,-0.30139948944577566,-3.5996676652779485,-3.81646945832119,0.4896668183484305,0.3599735057278372,-0.3456155536600559,0.8797006122237382,0.08421753640390284,-1.0937566132485845,-0.042929000000000106,-0.045576000000000005,-0.894743,0.17319600000000002,0.05846499999999999,-0.8806299999999999,0.21612500000000012,0.104041,0.014113000000000042,0.989344997318418,0.5550118978668246,double,-0.8806299999999999
10,0.083333,step_decsent,0.06444257770310924,-0.03288131525260965,-0.048481939277552934,-0.1885285940533072,0.113419224638868,0.1418735581775003,-0.006600264010550363,-0.0015600624024959932,0.0027601104044222653,0.09204368174726527,-0.14208568342733585,0.01824072962918341,-0.504040322419445,-5.515641242474285,-0.6336506910372695,-1.5121209672551013,-0.08640691241472827,0.5760460827663224,-0.08640691241564623,1.1088887093228617,-2.808224653479932,-0.04352100000000003,-0.04531500000000001,-0.8943160000000001,0.17342599999999997,0.057554999999999995,-0.880074,0.216947,0.10287,0.014242000000000088,0.987796233601278,0.5737906365922768,double,-0.880074
11,0.091667,step_decsent,0.0935925125989925,-0.0034797216222703705,-0.06791456683466125,-0.20728678176573212,0.34809345865939467,0.1755253050019608,-0.008399328053757444,0.0008399328053755779,-0.0027597792176686795,0.08555315574754922,-0.16762658987281143,0.003959683225342605,3.497712370516352,3.5279090029204823,-2.331728768551516,-0.21587041555160572,0.287976386833642,-0.6623337679494778,-0.7788008159006536,-3.0646636003690415,-1.7135884813823874,-0.04437100000000005,-0.045279,-0.893773,0.17335900000000004,0.05618699999999999,-0.879475,0.2177300000000001,0.10146599999999999,0.014298000000000033,0.9851984816654902,0.5432893335660292,double,-0.879475
12,0.1,step_decsent,0.14580583223328514,0.012600504020160073,0.0226809072362888,-0.15433443677614325,-0.4239493370364235,0.25242218614863127,-0.004680187207476322,-0.00012000480019212759,-0.0022800912036470937,0.07536301452057619,-0.19524780991239507,-0.04188167526700923,6.265848990074715,1.9297042652622622,10.871891764184566,0.4463147541439,-0.11519712055294667,0.057564864277161336,-1.2228658618712382,-3.314678991909711,-5.501183066404871,-0.045624999999999916,-0.045384999999999995,-0.893981,0.17277200000000004,0.054455,-0.8800129999999999,0.21839699999999995,0.09984,0.013968000000000091,0.9913209432562501,0.5045916159593318,double,-0.8800129999999999
13,0.108333,step_decsent,0.10920436817473637,-0.00456018240729586,-0.083523340933641,-0.3830878925127822,0.25865722966262017,0.4056638645014063,-0.0009600384015370224,0.0001200048001921278,-0.003720148805952631,0.06912276491059899,-0.15216608664346482,-0.020520820832837197,-4.392351381081099,-2.059364745884549,-12.745019581174832,0.446435714141282,0.028802304138276204,-0.1728138248296578,-0.748859907593568,5.170013592815348,2.563405068303378,-0.046543,-0.045346,-0.893316,0.17243799999999998,0.05322500000000001,-0.879488,0.21898099999999998,0.098571,0.013827999999999951,0.9935934967886517,0.5810779848468189,double,-0.879488
14,0.116667,step_decsent,0.08051355891528396,-0.02183825293976499,-0.05915526757860286,-0.28797290575651874,0.09281340291778382,0.1266980620690737,-0.00011999040078471047,0.0019198464122868538,-0.0023998080153545083,0.0635949124069977,-0.13486921046316447,-0.014878809695225927,-3.4426217013981746,-2.0732026076876786,2.923934887813549,0.10079769627457535,0.2159637163540586,0.15842822061412545,-0.6632892372931701,2.075459104907647,0.6769871775391486,-0.04721500000000012,-0.045148,-0.8928429999999998,0.17229699999999992,0.052282999999999996,-0.879119,0.21951200000000004,0.09743099999999999,0.013723999999999847,0.9948740078321876,0.6130079240829366,double,-0.879119
15,0.125,step_decsent,0.16704668186726868,-0.031561262450497965,0.0019200768030740447,-0.09083337808115602,-0.05005399884488253,0.11429451151686795,0.0007200288011727516,-0.000360014400575967,-0.0019200768030740447,0.05916236649466904,-0.12372494899796052,-0.015720628825152086,10.384390129843368,-1.166807813600502,7.3293344991812015,0.10080633648835506,-0.27359424131319127,0.0575700482755867,-0.5319267865509016,1.3373648704192915,-0.10102233648459855,-0.048600999999999894,-0.044888,-0.8928749999999999,0.17139800000000005,0.05151499999999999,-0.8792659999999999,0.21999899999999994,0.09640299999999999,0.013608999999999982,0.996529990885041,0.6338424568713229,double,-0.8792659999999999
16,0.133333,step_decsent,0.18876755070203352,0.022320892835714083,-0.045841833673332784,-0.24319553224474097,-0.23313861470877542,0.46053168616936835,0.00180007200286526,-0.0009600384015361881,-0.003600144005757166,0.028921156846266113,-0.11028441137645534,-0.02940117604704128,2.6066085245127595,6.4661172790366015,-5.731658523509755,0.1296103686178456,-0.0720057603456403,-0.20161612896713307,-3.6290903214212054,1.6129290317418903,-1.6417313358801373,-0.050159000000000065,-0.04508200000000001,-0.892523,0.17006599999999994,0.05040999999999998,-0.879129,0.220225,0.095492,0.013393999999999906,0.9931033482741194,0.669820960257036,double,-0.879129
17,0.141667,step_decsent,0.020278377729778634,0.0,-0.21850251979842536,-0.5138116519791123,1.8772999044146204,0.14078349357591619,0.00215982721383172,-0.002519798416126738,-0.005999520038402943,0.008879289656829693,-0.09167266618670371,-0.04043676505879254,-20.217083389999434,-2.678292876855548,-20.71762492501716,0.04316717194221995,-0.1871562292525262,-0.28790209175015385,-2.40483167619828,2.2332307643090563,-1.3241647482302956,-0.050309999999999966,-0.045103000000000004,-0.890752,0.16997099999999998,0.049645999999999996,-0.877645,0.22028099999999995,0.094749,0.01310699999999998,0.9885728784679798,0.7012841142847626,double,-0.877645
18,0.15,step_decsent,0.13500540021601365,-0.07596303852154182,0.041641665666638294,-0.10992690581813576,-0.3748632589844007,-0.18625132187473764,0.0013200528021100728,-0.004200168006720302,-0.00636025441017277,-0.003240129605184114,-0.0678027121084838,-0.046441857674310076,13.767793410084593,-9.1159292597554,31.21855099784753,-0.100776960485017,-0.20165241696790626,-0.04328985620662751,-1.454388486981135,2.8645090697491757,-0.7206399394596822,-0.051424000000000025,-0.044505,-0.891152,0.16881899999999994,0.04971400000000001,-0.878379,0.22024299999999997,0.09421900000000001,0.012773000000000034,0.9871076264094752,0.7351918354230252,double,-0.878379
19,0.158333,step_decsent,0.08376335053401845,-0.00864034561382486,-0.045961838473541565,0.009149425724601656,0.2820232414635447,0.24141958202269678,0.0008400336013548856,-0.0027601104044160203,-0.004680187207489645,-0.015360614424579009,-0.034681387255491566,-0.04728189127565164,-6.149291933516759,8.079046310778459,-10.512841010461994,-0.05760460827495341,0.17281382482950686,0.20161612896713352,-1.4545163589817454,3.9747179710779084,-0.10080806448356691,-0.05211499999999991,-0.044455999999999996,-0.890808,0.16799299999999995,0.049497,-0.87839,0.22010799999999986,0.093953,0.01241800000000004,0.9908366645154119,0.7747929912340752,double,-0.87839
20,0.166667,step_decsent,0.10319174466042369,0.0020398368130553285,-0.14362850971923607,-0.37959020931788945,1.2960413066388987,0.004888311403073204,0.006359491240683785,0.00035997120230375903,-0.005879529637631534,-0.015478761699056227,-0.006599472042236554,-0.053755699544036896,2.3312207975048254,1.2815193696760472,-11.719063024441374,0.662281934164734,0.37437984241897965,-0.14390957885071848,-0.01417653881416098,3.369560260769737,-0.7767948486183405,-0.052922000000000025,-0.044469999999999996,-0.8896599999999999,0.16700400000000004,0.049425,-0.8776409999999999,0.21992600000000007,0.09389499999999999,0.012019000000000002,0.985552626452976,0.7859303440503451,double,-0.8776409999999999
21,0.175,step_decsent,0.17904716188648176,-0.045241809672387286,-0.05712228489138631,-0.5885378209726382,-0.12108756469977433,0.1627802854932407,0.0031201248050019893,0.0028801152046081576,-0.005520220808831226,-0.012240489619590393,0.01272050882035391,-0.04884195367814613,9.103014187694498,-5.674024539234697,10.381162225831032,-0.3887395218626909,0.3024293774516266,0.04311878420740536,0.3886081938636555,2.318490443128587,0.5896730908305265,-0.05438799999999999,-0.044069,-0.88923,0.16540999999999995,0.04990800000000001,-0.877572,0.21979799999999994,0.093977,0.011657999999999946,0.9883926412028048,0.7968627394104828,double,-0.877572
22,0.183333,step_decsent,0.15204608184326246,-0.0022800912036470937,-0.031801272050877176,-0.1427412943812366,0.1036892830913168,0.4361595664548853,0.003600144005757166,0.0022800912036483427,-0.0037201488059526245,-0.010440417616698446,0.015360614424575678,-0.041281651266051926,-3.2402592155549352,5.155612440746449,3.0386430865845564,0.05760460827495216,-0.07200576034559156,0.21601728103667348,0.21601728103827497,0.31682534552043273,0.9072725803545179,-0.055624999999999925,-0.044031,-0.8889960000000001,0.1640560000000001,0.05005499999999999,-0.8776510000000001,0.21968100000000002,0.09408599999999999,0.01134500000000005,0.9905720038806438,0.8111045538013012,double,-0.8776510000000001
23,0.191667,step_decsent,0.1985841132709469,-0.037077033837293424,0.0566354691624703,0.04947851469799985,-0.365891001042464,0.16226445889863678,0.005399568034565961,0.0002399808015357006,-0.0032397408207342476,-0.011159107271419444,0.01751859851211988,-0.038516918646503466,5.584117041958772,-4.175299092110186,10.611560020800024,0.2159136103682257,-0.24479366476033598,0.0576443466784709,-0.08623585969774382,0.25893737551526286,0.331741375035812,-0.057234999999999925,-0.04372,-0.8894950000000001,0.162308,0.05051,-0.878444,0.21954299999999993,0.09423000000000001,0.011051000000000144,0.9894975073949953,0.8165558594090745,double,-0.878444
24,0.2,step_decsent,0.16176647065882813,-0.007680307212287839,-0.03288131525262298,-0.13099225525010838,-0.005421628183954166,0.10696374283738451,0.004680187207476322,-0.0006000240009598053,-0.0015600624024943279,-0.009720388815552343,0.014280571222848195,-0.035401416056641,-4.4182938452080585,3.5277483049328646,-10.742443827564287,-0.08632915241685321,-0.10080460848379998,0.2015694729677089,0.17265312082888518,-0.38857881786531656,0.37387526579412705,-0.05854400000000004,-0.043661000000000005,-0.889234,0.160879,0.05069299999999999,-0.8784649999999999,0.21942300000000003,0.094354,0.010769000000000029,0.9917171569899599,0.8266576975949187,double,-0.8784649999999999
25,0.208333,step_decsent,0.18588743549740974,-0.08928357134285496,0.06924276971079457,-0.031644024820105754,-0.39154962361966367,-0.10837051766549255,0.007200288011514356,0.001080043201727903,-0.00036001440057305316,-0.006840273610941304,0.01116044641785791,-0.036841473658946654,2.894631565892437,-9.79278340700436,12.255380410826568,0.3024241934523029,0.2016161289676842,0.14401152069138098,0.3456276496593119,-0.37442995379698696,-0.17281382482967178,-0.060033,-0.042908,-0.889814,0.1592730000000001,0.051530000000000006,-0.8793489999999999,0.2193060000000001,0.09443800000000001,0.010465000000000058,0.9878504399788195,0.8301869760463703,double,-0.8793489999999999
26,0.216667,step_decsent,0.17650587952963748,0.004679625629949284,0.03803695704342457,0.19636306848807492,-0.4838120157314345,0.3896904199958402,0.004919606431480405,0.0017998560115192117,0.002879769618426742,0.0032397408207342476,0.0026397888168939554,-0.024358051355892554,-1.1256966603998386,11.274681662203522,-3.7443979682469366,-0.2736598968123289,0.08637062752475498,0.38874298284134773,1.2095049714033528,-1.022397120346046,1.4978908450988826,-0.061463000000000045,-0.042932,-0.890107,0.1578290000000001,0.051513,-0.8798689999999999,0.21929200000000015,0.094445,0.01023800000000008,0.9900368620853781,0.8564300918697703,double,-0.8798689999999999
27,0.225,step_decsent,0.18456738269531237,-0.07740309612384402,0.06036241449659688,0.09685953376895581,-0.2600183695851297,-0.13074910584808314,0.007680307212296166,-0.0006000240009602216,0.00396015840633688,0.005760230409208801,0.0007200288011527656,-0.014880595223810498,0.9674190766440515,-9.850320623280119,2.679162060863109,0.33129734559171464,-0.28799712138238703,0.12965184062284135,0.30247084945092423,-0.2303804171056268,1.137340229459024,-0.06293700000000002,-0.042292,-0.8905770000000001,0.156339,0.052164,-0.8804960000000001,0.21927600000000003,0.09445600000000001,0.010081000000000007,0.9855633565881567,0.8725686421345277,double,-0.8804960000000001
28,0.233333,step_decsent,0.129365174606987,0.05148205928237111,-0.015360614424592332,0.0721197014351194,0.34342276179523396,0.17598582009608257,0.004440177607112052,-0.0008400336013440605,0.006000240009599718,0.006600264010563687,-0.0010800432017291483,-0.007080283211325536,-6.624529951797111,15.466837322238694,-9.087126955620922,-0.388831105866328,-0.028802304138226174,0.24481958517494737,0.10080806448516559,-0.21601728103707096,0.9360748844935743,-0.06397799999999998,-0.042728,-0.8903989999999999,0.155316,0.051725999999999994,-0.8804269999999998,0.219294,0.094454,0.009972000000000092,0.987480713344904,0.8840472836633916,double,-0.8804269999999998
29,0.241667,step_decsent,0.10799136069114638,0.0,-0.12946964242858564,-0.25298666374677947,1.1781197685102534,-0.08222896752418946,0.005759539236866825,-0.0017998560115188012,0.007079433645312142,0.006239500839925739,-0.006479481641468517,-0.003959683225342612,-2.5646524977010623,-6.177352925650496,-13.691988001439114,0.1583107307121162,-0.11516947566291612,0.12949287685534272,-0.043288117427159725,-0.6478807823061412,0.3744420429545154,-0.06482999999999994,-0.042743,-0.8892610000000001,0.15446799999999994,0.051671999999999996,-0.8793810000000001,0.21929799999999988,0.094415,0.00988,0.9844964023331513,0.8848196133271609,double,-0.8793810000000001
30,0.25,step_decsent,0.13356534261370812,0.024600984039361177,0.1088443537741498,0.319645894668501,-0.4739848353826633,-0.008098188394587591,0.003240129605184114,-0.0027601104044164366,0.0066002640105570255,0.003240129605184114,-0.005760230409215463,0.00024000960038425518,3.0690005907310343,2.9522361741703054,28.598823497268118,-0.3023412494519031,-0.11523513655317828,-0.05750265627686498,-0.35993894572682367,0.086313600414383,0.5039832984191605,-0.06591599999999997,-0.042970999999999995,-0.8901130000000002,0.1533819999999999,0.051419000000000006,-0.8802860000000001,0.21929799999999988,0.09439,0.00982700000000003,0.9869105498044319,0.8907077625237381,double,-0.8802860000000001
31,0.258333,step_decsent,0.1334453378135131,0.032401296051842915,-0.04776191047643363,-0.14865488241825406,0.4625417829323949,0.11677854228809793,0.002520100804011372,-0.001920076803071966,0.005760230409215482,0.0003600144005863764,-0.006840273610944634,0.000480019200768512,-0.014401152069486204,0.9360748844931907,-18.793503450208068,-0.08640691241722595,0.10080806448391608,-0.10080806448356486,-0.34562764965771575,-0.12961036862224581,0.02880230413827642,-0.06700700000000015,-0.043257000000000004,-0.889667,0.152273,0.051092,-0.8798839999999999,0.21928000000000014,0.094349,0.009783000000000097,0.9890432849915725,0.8907257666299275,double,-0.8798839999999999
32,0.266667,step_decsent,0.17314614830813183,-0.10151187904967587,0.08087353011759812,0.27705733041130726,-0.1231437114407889,-0.07982383938680368,0.0026397888169172683,-0.0021598272138229706,0.0035997120230417535,-0.0014398848092167015,-0.011399088072953896,0.0033597312214989758,4.763716162061279,-16.068295548538355,15.43501806983821,0.014361412635696668,-0.028767747870290895,-0.2592414670234853,-0.21597062752616705,-0.547013974323165,0.3455377994636982,-0.06842799999999993,-0.04242900000000001,-0.8903110000000001,0.150818,0.051843,-0.88053,0.21924599999999994,0.09427200000000001,0.00978100000000004,0.9917350698664775,0.882238651463046,double,-0.88053
33,0.275,step_decsent,0.20004800192007285,-0.06156246249849963,0.031801272050877065,0.03265309249808802,-0.24576371915878248,0.15918467499194217,0.0008400336013282363,-0.0030001200048002654,0.0057602304092154435,-0.000120004800195458,-0.009480379215169721,0.003120124804995307,3.22835156749561,4.79412175101117,-5.888906524267473,-0.2159792650412846,-0.10083916848401432,0.2592725772439315,0.15839193676001895,0.23025427310502425,-0.028753920137245606,-0.07008800000000004,-0.041941000000000006,-0.890528,0.14915,0.05227699999999999,-0.8807689999999999,0.21923800000000004,0.094218,0.009759000000000073,0.9890853524943907,0.8857744315117142,double,-0.8807689999999999
34,0.283333,step_decsent,0.20376815072602683,-0.04044161766470716,0.10584423376935696,0.11800003330414165,-0.8203361792600362,0.17357423461582464,0.002520100804038019,-0.0036001440057600925,0.00240009600384256,-0.0012000480019146184,-0.01032041281651135,0.002640105604220154,0.446435714143044,2.5346027641656685,8.885510826650677,0.2016161289703332,-0.07200576034559325,-0.40323225793506445,-0.12961036862104441,-0.10080806448357495,-0.05760460827734959,-0.07176499999999997,-0.041634000000000004,-0.89139,0.14744200000000007,0.052528000000000005,-0.881629,0.21920700000000004,0.09416200000000001,0.00976100000000002,0.991654607766294,0.8845231161773504,double,-0.881629
35,0.291667,step_decsent,0.18046556275498674,0.0448764098872089,0.04103671706264268,0.28088558417081555,-0.04035818105417715,0.2280474495943038,0.0010799136069025348,-0.002399808015358671,0.0011999040076739237,-0.004439644828421493,-0.008879289656827999,-0.0016798656107528183,-2.7960868695752428,10.237344318684423,-7.776279902413513,-0.1728086389651407,0.14402879654444686,-0.14401151861874673,-0.3887205215391015,0.172920945486363,-0.518355077390565,-0.0732600000000001,-0.042027999999999996,-0.8917220000000001,0.14590099999999995,0.05208,-0.8819850000000001,0.21916100000000005,0.094108,0.009736999999999996,0.9951795973149467,0.885849209106626,double,-0.8819850000000001
36,0.3,step_decsent,0.21108844353773665,-0.010800432017281527,0.003600144005757178,-0.010340107201562374,-0.13699979177191984,0.14247951036932532,0.0,-0.002880115204608574,0.001440057602305536,-0.00648025921036825,-0.0091203648145934,-0.003720148805952637,3.674892689637584,-6.681488288070391,-4.492568469565054,-0.12959481662096933,-0.05763916827671955,0.028819584139159114,-0.2448835211744584,-0.02893017613889384,-0.24484377717506584,-0.07501900000000006,-0.041962,-0.8917400000000001,0.144088,0.052094,-0.8820460000000001,0.21910700000000005,0.094056,0.00969399999999998,0.9946332221828862,0.883409277584437,double,-0.8820460000000001
37,0.308333,step_decsent,0.16800672026880487,0.009240369614785467,0.03948157926317321,0.35497893532996544,-0.026595457940986125,-0.018329931948122116,0.0009600384015370176,-0.0034801392055679413,0.001200048001921272,-0.006960278411136715,-0.008160326413056323,-0.007080283211325512,-5.170013592815505,2.404992395543851,4.3059444686686525,0.11520921655310375,-0.0720057603455376,-0.028802304138277092,-0.05760460827654664,0.11520921655311098,-0.40323225793506073,-0.076411,-0.042068,-0.8920590000000002,0.14263000000000003,0.051948999999999995,-0.8824340000000002,0.21904100000000004,0.09401699999999999,0.009624999999999995,0.9936593993823157,0.8823304597854658,double,-0.8824340000000002
38,0.316667,step_decsent,0.2109431245500417,-0.047396208303336775,0.056875449963986816,-0.371456857635237,-0.4028349757744536,-0.3353504973088246,0.0017998560115308798,-0.004799616030717791,-0.000479961603072237,-0.003839692824577896,-0.005999520038396301,-0.008999280057594452,5.151956357239869,-6.795845682520106,2.087097516296341,0.10077005159513644,-0.15832455305373855,-0.20158502579715845,0.3744403151618475,0.25927602287737384,-0.23026120065622155,-0.07815399999999995,-0.041713,-0.8925369999999999,0.14083999999999997,0.05229400000000001,-0.882983,0.2189939999999999,0.09400700000000001,0.009553999999999951,0.9914193112739208,0.8853314492596616,double,-0.882983
39,0.325,step_decsent,0.11724468978759169,0.038041521660866016,-0.034921396855879035,0.07226102824433739,0.9450792779388767,0.13295499759104562,0.0004800192007551856,-0.0033601344053762307,0.0,-0.003840153606134747,-0.006960278411136715,-0.010080403216132022,-11.244261941971633,10.252937713212821,-11.016062260874293,-0.15838675276319317,0.17274470482917964,0.05759769627651926,-5.529599866204124e-05,-0.11529561655351134,-0.1297399686232528,-0.07912700000000006,-0.042058,-0.8922459999999999,0.13983100000000004,0.05191900000000001,-0.882776,0.2189580000000001,0.093977,0.009469999999999867,0.9943429194672893,0.8839038175601965,double,-0.882776
40,0.333333,step_decsent,0.19164766590663188,-0.010440417616703477,0.11328453138126224,0.22200726196535286,-0.5650350694746049,-0.014172182678848169,0.003000120004819854,-0.0028801152046081576,-0.001920076803074048,-0.003360134405379584,-0.00708028321132889,-0.013080523220925297,8.92871428285616,-5.818065435925791,17.785422805369212,0.3024241934554992,0.05760460827649998,-0.23041843310621057,0.05760460827495068,-0.014401152069143755,-0.36002880172726304,-0.08069899999999985,-0.041995000000000005,-0.8932059999999999,0.13820600000000005,0.05194699999999999,-0.883829,0.2189049999999999,0.093942,0.009376999999999969,0.9923655607488102,0.8808156011225913,double,-0.883829
41,0.341667,step_decsent,0.11891048716103603,0.004679625629949284,-0.08855291576672722,-0.40994727447209306,0.915914340288051,-0.2072019152490837,-0.0004799616030855554,-0.004679625629949284,-0.0016798656107461574,-0.0035997120230350926,-0.007439404847611298,-0.01451883849291842,-8.72776322841322,1.814260048794426,-24.21855617326485,-0.4175763868377017,-0.21592397712276518,0.028823037236367928,-0.028747014357512417,-0.04309114906196399,-0.17258402591710126,-0.08169400000000004,-0.042073,-0.892482,0.137185,0.051846,-0.8832120000000001,0.21887900000000005,0.093919,0.00926999999999989,0.9916748026971858,0.8794562224027374,double,-0.8832120000000001
42,0.35,step_decsent,0.1987279491179641,-0.0145205808232325,0.07380295211808877,0.0388825367311538,-0.6569497549572804,-0.06461973618982282,0.001920076803074048,-0.004200168006720316,-0.002280091203653763,-0.00240009600384256,-0.00624024960998566,-0.015000600024006007,9.578478573974351,-2.3041169390593823,19.483483485517386,0.2880161293843285,0.057537216276127394,-0.07202995234700671,0.14395968069033188,0.14390438469046457,-0.0578136962783616,-0.08333400000000002,-0.041987000000000003,-0.8931160000000001,0.135509,0.05191499999999999,-0.8839520000000001,0.218843,0.09390199999999999,0.009164000000000061,0.9914159511444904,0.8809881177776051,double,-0.8839520000000001
43,0.358333,step_decsent,0.1662066482659263,-0.0025201008040330055,-0.014400576023055263,-0.11359565397006756,0.21690342790656944,-0.12343169922909421,0.0010800432017191524,-0.00468018720748838,-0.002160086403451628,-0.0018000720028785772,-0.007440297611903559,-0.01572062882515201,-3.9027122107329495,1.4401152069122096,-10.584846770808072,-0.10080806448516645,-0.05760460827649855,0.014401152070338949,0.07200576034609148,-0.14401152069097498,-0.08640691241401656,-0.08471000000000006,-0.042005,-0.893014,0.13410900000000003,0.051874,-0.883963,0.2188190000000001,0.093879,0.00905099999999992,0.991222405593233,0.8803477979542345,double,-0.883963
44,0.366667,step_decsent,0.19042476601871894,0.0017998560115192117,0.0023998080153478474,0.18095291697746188,-0.03068093614287352,-0.12468335514253318,0.001799856011530868,-0.003599712023038007,-0.00311975041996952,-0.0017998560115175463,-0.003959683225342598,-0.014758819294454537,2.905941655002714,0.5183533495982977,2.015884813823265,0.0863706275272036,0.1296466504020125,-0.11515046994455136,2.5916889972502273e-05,0.417640315162102,0.11540791105081259,-0.08628199999999997,-0.04205,-0.89306,0.13250700000000004,0.051826,-0.8841059999999998,0.218789,0.09387599999999999,0.008954000000000129,0.99151304088715,0.8848159991922725,double,-0.8841059999999998
45,0.375,step_decsent,0.15012600504020224,0.031921276851074404,-0.013320532821309553,-0.08749976087575558,0.2824161869363169,0.13813808879891212,0.028441137645511018,0.0070802832113284735,-0.02280091203647767,-0.0007200288011594295,-0.0045601824072958675,-0.012840513620547703,-4.836044759212385,3.6147150893502062,-1.8865163610533346,3.1970816793448,1.281650694151747,-2.361833867335678,0.12958444862091917,-0.07206278434576632,0.23020588910438478,-0.08729599999999993,-0.042257,-0.8931389999999999,0.13124999999999998,0.051522,-0.8841019999999999,0.2185459999999999,0.093779,0.009036999999999962,0.9381105306341594,0.8868879381919161,double,-0.8841019999999999
46,0.383333,step_decsent,0.12168486739469121,0.02076083043321649,-0.0709228369134777,-0.17582214639767174,0.8109329380342379,-0.2175153328480084,0.003840153606148096,-0.0004800192007680956,-0.007200288011521018,-0.00024000960037759439,-0.0015600624024959984,-0.012360494419772529,-3.4130730403829466,-1.33930714242865,-6.912552993179922,-2.9522361741705248,-0.9072725803548047,1.8721497689855624,0.05760460827815149,0.3600288017280543,0.05760460827735214,-0.08827799999999986,-0.04243399999999999,-0.8926079999999998,0.13023400000000007,0.05133600000000001,-0.8836139999999999,0.21851199999999993,0.09376999999999999,0.008993999999999946,0.9863759459450929,0.8892918873156477,double,-0.8836139999999999
47,0.391667,step_decsent,0.11771058315334877,0.05027597792176654,0.03575713942886143,0.021811662484769557,-0.028015002541519802,0.2228574464884045,0.001559875209961447,-0.0035997120230384233,-0.00311975041996952,0.0009599232061444676,-0.0011999040076789193,-0.008279337652992703,-0.47687595888438167,3.541534375875932,12.800573115231465,-0.27361151862090793,-0.3743331920170776,0.4896253409589025,0.14398041834917935,0.04321555013403874,0.48969963604269523,-0.08924600000000005,-0.042883,-0.8929320000000001,0.12926100000000007,0.05090700000000001,-0.8839810000000001,0.21850700000000012,0.09379000000000001,0.008950999999999931,0.9916460288880145,0.8964554539160605,double,-0.8839810000000001
48,0.4,step_decsent,0.17256690267611235,-0.03648145925837003,-0.013080523220945195,-0.09365431203405242,0.1140000378169603,0.02338012794216389,-0.002400096003829221,-0.004200168006720288,-0.0009600384015370176,0.0006000240009506435,0.00036001440057471616,-0.00840033601343558,6.583021663598147,-10.411308913972903,-5.860753948134696,-0.47521555427704926,-0.07205760034583732,0.259175809244269,-0.043189632208547046,0.1871976968983114,-0.014520384068507988,-0.090704,-0.042614,-0.8928309999999999,0.12782799999999994,0.051213999999999996,-0.8839419999999999,0.21853199999999995,0.093828,0.008889000000000036,0.9917801821720815,0.8970609505749634,double,-0.8839419999999999
49,0.408333,step_decsent,0.15420616824672792,-0.004800192007680124,-0.07236289451576991,-0.3351470497776692,0.21668388332967972,0.12370093327520375,0.007680307212296192,0.0009600384015361912,-0.0008400336013415652,-0.000480019200768512,-0.0003600144005747186,-0.00888035521421081,-2.2033762665768006,3.8019041462486483,-7.114169122143869,1.2096967738060047,0.6192495389723379,0.014401152069537102,-0.1296103686210438,-0.08640691241442895,-0.057604608277358804,-0.09192499999999992,-0.042566,-0.892235,0.12653899999999996,0.051251000000000005,-0.883413,0.21846399999999988,0.09381700000000001,0.008821999999999997,0.9870241196981289,0.896945661313818,double,-0.883413
50,0.416667,step_decsent,0.1847852171826235,0.01703863690904765,0.03995680345571351,0.06186955421338588,-0.06562814229348103,0.06043021073690839,-0.05483561315096608,0.01463882889368856,0.00227981761458978,0.00011999040077138885,0.00227981761458978,-0.00455963522917956,3.6691923369205126,2.620449834020609,13.477285573732098,-7.501310338764364,1.6413235531740287,0.3743521977359422,0.07199539255338376,0.31675450145962275,0.5184449226099407,-0.09392200000000006,-0.042586,-0.8925489999999999,0.125,0.05112799999999999,-0.8837839999999999,0.21892200000000006,0.09371399999999999,0.008765000000000023,0.9053304379935592,0.9038512681542009,double,-0.8837839999999999
51,0.425,step_decsent,0.1761670466818707,0.004320172806911612,0.017520700828030703,0.02915751621646004,-0.2992355394736698,0.09154859425419197,-0.005400216008622444,-0.004320172806912445,-0.0056402256090266846,0.0002400096003909176,-0.000240009600384256,-0.006840273610947965,-1.0342218289634981,-1.5262767433260613,-2.69244001292246,5.93248495647951,-2.275171210920563,-0.9504432045621605,0.014402880069546268,-0.30239136145134315,-0.27368755331434186,-0.09543499999999994,-0.042658,-0.8927419999999999,0.12353400000000003,0.051089999999999997,-0.8839869999999999,0.21896899999999997,0.093748,0.008755000000000068,0.9851266111103973,0.9010355169619678,double,-0.8839869999999999
52,0.433333,step_decsent,0.20460818432736702,0.027241089643586226,0.018840753630167302,-0.08727679150893221,0.018073353006395048,0.27001814520054224,-0.011640465618626345,-0.0061202448097922415,-0.00804032161286253,0.0018000720028785772,-0.0036001440057588196,-0.005640225609019986,3.4130730403811604,2.7506200452027505,0.15841267276330173,-0.7488599075967689,-0.2160172810368162,-0.28802304138195545,0.18721497689759428,-0.40323225793526335,0.14401152069218456,-0.0972369999999999,-0.042936,-0.8929660000000001,0.12184400000000006,0.050833,-0.8841910000000001,0.21908099999999997,0.093769,0.008775000000000088,0.9743092857248385,0.900701378028527,double,-0.8841910000000001
53,0.441667,step_decsent,0.13690904727622571,0.05399568034557171,-0.05675545956325539,0.1528899229210955,0.8396462392504284,0.001343474258574649,-0.01763858891290138,-0.0073194144468441205,-0.0023998080153545243,0.00035997120230084735,-0.0043196544276468025,-0.005519558435330725,-8.12324658641009,3.210294060713419,-9.070819917617365,-0.7197172179355733,-0.14388884533859922,0.6768074871019962,-0.17279827220755195,-0.08633434387904812,0.014478902530508906,-0.09852500000000008,-0.04344699999999999,-0.8925129999999999,0.12070599999999998,0.050347,-0.883764,0.21923100000000006,0.09379399999999999,0.008748999999999896,0.9679214191747845,0.9008130727014645,double,-0.883764
54,0.45,step_decsent,0.18588743549742184,-0.022680907236288725,0.009960398415943227,-0.3319237840018269,-0.27336261198356027,-0.05090246609126761,-0.0021600864034383048,-0.004080163206528578,0.002400096003835882,0.0,-0.0013200528021117337,0.0003600144005797124,5.877641692211199,-9.201558572166102,8.006223206432058,1.8574946009195978,0.38872569786577815,0.576011522763757,-0.04319827220698978,0.35996659372795586,0.7055769633877851,-0.10009199999999996,-0.043292,-0.892576,0.11915699999999996,0.050525,-0.883844,0.21924899999999992,0.093817,0.008732000000000073,0.9913278597589341,0.9103995579321178,double,-0.883844
55,0.458333,step_decsent,0.19932797311891476,0.04632185287411478,-0.04224168966757576,-0.15331966036201913,0.23107814065778082,0.18022349774640697,0.00444017760708542,-0.00048001920076767927,0.000480019200768512,-0.001440057602305536,0.004080163206529021,0.001920076803074048,1.6129290317404235,8.280662439746031,-6.2645011500682966,0.7920633637974008,0.4320345620737918,-0.23041843310540921,-0.17281382482965793,0.6480518431106165,0.1872149768983967,-0.10171600000000003,-0.043682,-0.89222,0.11748400000000003,0.05017300000000001,-0.883476,0.21920000000000006,0.09385500000000001,0.008743999999999974,0.9925137136396915,0.9046704512487201,double,-0.883476
56,0.466667,step_decsent,0.19378449724022456,0.03587712982961451,0.04535637149027947,0.2997333442885777,-0.08898978237928497,0.10184652443922462,0.0027597792176753356,-0.0020398368130553285,0.002399808015361169,0.0005999520038436226,0.0034797216222686995,-0.002279817614596441,-0.6651638923314364,-1.2532665040197093,10.510926464825431,-0.20163167619511435,-0.18716314042328386,0.2303562292527784,0.24478157021228178,-0.07204722633313183,-0.5039470143593094,-0.10330799999999996,-0.04399800000000001,-0.8925780000000001,0.11587400000000003,0.04990299999999999,-0.8838730000000001,0.219182,0.093901,0.008704999999999963,0.9930205870063769,0.9059448484568651,double,-0.8838730000000001
57,0.475,step_decsent,0.1750870034801382,0.028201128045121766,0.01644065762631154,-0.18434495815244195,-0.11964085408427111,0.04110533793852331,0.002280091203647101,-0.0033601344053758365,0.0016800672026831304,0.0007200288011461063,-0.001680067202686461,-0.005520220808831226,-2.2437890027704803,-0.9211570604215483,-3.4700244646547462,-0.057564864277959406,-0.15844204876041176,-0.08637235241546148,0.014409792067980797,-0.6191994269716997,-0.3888639378656898,-0.10474799999999995,-0.044261,-0.8927010000000002,0.114421,0.049654000000000004,-0.8840560000000002,0.21916899999999995,0.093915,0.008645000000000014,0.9926757736615108,0.9038583791835024,double,-0.8840560000000002
58,0.483333,step_decsent,0.18384735389415233,0.044761790471618476,-0.05340213608544664,-0.038390045703664326,0.649822224237098,0.09301914782855195,0.020520820832823774,-0.036481459258370444,0.0237609504380212,0.0004800192007685088,-0.0038401536061447392,-0.006000240009599698,1.0512841010457328,1.9873589855390184,-8.381470504231116,2.188975114505772,-3.9747179710781793,2.649811980719786,-0.028802304137477083,-0.2592207372444821,-0.057604608276547474,-0.10610900000000001,-0.044938000000000006,-0.892058,0.11289300000000002,0.049249,-0.883661,0.21900200000000003,0.094187,0.008396999999999988,0.9197818300751857,0.9041299441732527,double,-0.883661
59,0.491667,step_decsent,0.2284617230621568,0.050395968322534596,0.07511399088073133,0.1608621736158607,-0.7686657702572086,0.08505939298143408,0.0023998080153744905,-0.003599712023038007,0.00611951043916099,0.0004799616030722338,-0.004319654427646774,-0.006719462443004612,5.353296036477615,0.6760472583292674,15.420701579814958,-2.174347590286689,3.945494028717591,-2.116803455586776,-6.911170659346081e-06,-0.05753549574058486,-0.08629978802554752,-0.1079929999999999,-0.045388000000000005,-0.8926330000000001,0.11099300000000001,0.04879299999999999,-0.8843430000000001,0.2189859999999999,0.09418099999999999,0.00829000000000002,0.9875094020721296,0.9037624014074597,double,-0.8843430000000001
60,0.5,step_decsent,0.17040681627264856,0.04020160806432124,-0.016320652826129406,-0.1661554191816691,0.3451285359797367,0.26714079665330315,0.002520100804011372,-0.0027601104044164457,0.0040801632065323515,0.0006000240009639708,-0.0038401536061430995,-0.007560302412094071,-6.9668674894405855,-1.2233721658722403,-10.972596148669261,0.01443571206490843,0.10075622448356694,-0.24473145717372413,0.014408064069571255,0.05754240027645213,-0.10090483248403471,-0.10939200000000004,-0.045745999999999995,-0.892463,0.10957800000000006,0.04842600000000001,-0.8842699999999999,0.2189700000000001,0.094172,0.008193000000000117,0.9907779176099961,0.9039018646758511,double,-0.8842699999999999
61,0.508333,step_decsent,0.208688347533906,0.04260170406816352,0.019800792031677672,0.053390866740497485,-0.04209534849048506,0.08818315625659073,0.0010800432017457988,-0.0008400336013440577,0.004680187207489629,-0.0004800192007685088,-0.004200168006721121,-0.005400216008642393,4.593967510051276,0.2880230413827275,4.334746772807743,-0.17281382482486107,0.23041843310600985,0.07200576034528686,-0.1296103686226419,-0.04320345620761069,0.2592207372436901,-0.11112199999999994,-0.046108,-0.8925889999999999,0.10783500000000001,0.048035999999999995,-0.8844799999999999,0.21895699999999996,0.094144,0.008108999999999922,0.9918731750654299,0.9074797571404987,double,-0.8844799999999999
62,0.516667,step_decsent,0.18130549556036102,-0.0014398848092150459,-0.052675785937108074,-0.2575320375122228,0.5235724995475767,-0.09582399500163065,-0.0010799136069291853,-0.0014398848092150459,0.003839692824571235,-0.000479961603072237,-0.0038396928245729004,-0.0056395488360954545,-3.2856793824748185,-5.28456789985347,-8.696493636763398,-0.2591740831143504,-0.07197638683357231,-0.10085125784957992,6.911170658962351e-06,0.043253561572860866,-0.02871764188301695,-0.11264200000000013,-0.046108,-0.8921180000000001,0.10631999999999997,0.048016,-0.8840880000000001,0.2189620000000001,0.09412400000000001,0.008029999999999982,0.9929323265950403,0.9083009119270438,double,-0.8840880000000001
63,0.525,step_decsent,0.16848673946957338,0.08844353774150948,0.055202208088311895,0.07781281004105506,-0.4980582355603975,0.3955148586764717,-0.0007200288011461016,0.00132005280211215,0.004920196807873884,-0.0019200768030740352,0.00048001920076684335,-0.0051602064082514765,-1.538312263385046,10.786442163773449,12.94587711813507,0.04318790421013828,0.3312057615897257,0.12966566462290224,-0.17282073682968824,0.5183861784879067,0.05752339227696819,-0.11405200000000004,-0.046834,-0.8925369999999999,0.1049,0.04728299999999999,-0.8845909999999999,0.21895200000000004,0.09411699999999999,0.007946000000000009,0.9914252765669711,0.911328768399007,double,-0.8845909999999999
64,0.533333,step_decsent,0.2797311892475691,-0.005400216008640799,0.04764190567622517,0.187075027601155,-0.10468541907659817,0.08267772820958999,0.0009600384015370304,0.00024000960038384123,0.005280211208447005,-0.0008400336013415707,0.0009600384015370304,-0.0037201488059526618,13.349867968078335,-11.261700918054858,-0.9072725803536293,0.20161612896713635,-0.12961036862214315,0.04320345620702322,0.12961036862264183,0.05760460827675404,0.17281382482885252,-0.116375,-0.046787,-0.89289,0.10256200000000004,0.047336,-0.885019,0.21893700000000005,0.09412300000000001,0.007870999999999961,0.9910464301429679,0.9147353499707289,double,-0.885019
65,0.541667,step_decsent,0.30561555075594643,-0.008759299256059883,0.23662107031438323,0.10499311871520649,-1.8144833882456977,-0.24298645084810827,0.003839692824577845,-0.0013198944084473853,0.003839692824571184,0.0,-0.0003599712023041729,-0.00407967362611396,3.1058749110123722,-0.4030577450706814,22.675685701722657,0.34553088829383155,-0.18717350717917142,-0.17284837819484164,0.10079596848350904,-0.15838848138243258,-0.04313952725717488,-0.11889000000000005,-0.046725,-0.89483,0.10001499999999997,0.047406000000000004,-0.8870250000000001,0.21890500000000002,0.094131,0.007804999999999951,0.9906862402830202,0.9151241268034984,double,-0.8870250000000001
66,0.55,step_decsent,0.2502100084003354,0.03168126725068994,0.09420376815072992,0.042305692159871525,-0.8907433728349959,0.34998555733832226,-0.0033601344053662383,-0.002760110404416011,0.006480259210374868,0.0010800432017324755,-0.002640105604225133,-0.004920196807867223,-6.64893103991489,4.85306210329409,-17.090759890033926,-0.8640138281464123,-0.17283283282954756,0.31688064152210166,0.12961036862264141,-0.27362707331344654,-0.10086681648305043,-0.12100299999999997,-0.047012,-0.895561,0.097939,0.047119999999999995,-0.8878510000000001,0.21894199999999997,0.094132,0.007709999999999995,0.9869933273427807,0.9134212243601214,double,-0.8878510000000001
67,0.558333,step_decsent,0.1737669506780293,0.13572542901716278,-0.008520340813651137,0.12711296370466157,0.04410521651885524,0.133196415891059,0.008160326413051434,-0.0022800912036483652,0.0055202208088312625,-0.0006000240009639748,0.0004800192007685152,-0.005160206408258207,-9.173533868031539,12.485798843930612,-12.327386171172686,1.3825105986340787,0.057604608276449094,-0.11520921655389588,-0.20161612896873463,0.3744299537973931,-0.028802304139083974,-0.12238300000000002,-0.04816200000000001,-0.8954439999999999,0.09648599999999996,0.04599299999999999,-0.8878229999999999,0.21886899999999998,0.094155,0.007620999999999989,0.9831458395473639,0.9150948261453283,double,-0.8878229999999999
68,0.566667,step_decsent,0.04931605471561508,0.08651307895368297,-0.3087353011758959,-0.16692791669353457,2.6255138884613287,0.2459251430821827,0.0035997120230350688,-0.000479961603071398,0.0075593952483776405,0.0004799616030722306,-0.001319894408446969,-0.004679625629950918,-14.932912882458997,-5.905009606848984,-36.022913410396264,-0.5472299484060872,0.21599827220745782,0.24468135823690454,0.12958790545190751,-0.21597235531743106,0.057665080190459087,-0.12276399999999998,-0.048887,-0.892808,0.09607900000000003,0.045260999999999996,-0.885289,0.218843,0.094148,0.007519000000000053,0.9860225631909454,0.9166669422160199,double,-0.885289
69,0.575,step_decsent,0.15336613464538737,0.12972518900756133,0.04476179047161408,0.142040153390302,0.07901323415608066,0.7737942079687145,-0.009840393615734576,0.03528141125645048,-0.010200408016320954,0.0,-0.0019200768030723952,-0.006840273610941349,12.486509051934867,5.185660632890766,42.42134785161565,-1.6128771917400415,4.291536404598848,-2.13126164222954,-0.05759769627651926,-0.07202476834578564,-0.2592881292440239,-0.1241239999999999,-0.049674,-0.8932659999999999,0.09480100000000002,0.044163999999999995,-0.8857189999999999,0.21892499999999993,0.093838,0.00754699999999997,0.936630281275088,0.9126889182642426,double,-0.8857189999999999
70,0.583333,step_decsent,0.23436937477498793,-0.004320172806913249,-0.020280811232432857,-0.5930006702415167,-0.4774325300661633,0.05776265567437695,-0.000480019200781832,-0.0007200288011519304,0.008400336013442242,0.0008400336013415596,-0.0010800432017274793,-0.010320412816516277,9.720777646657892,-16.08608686121133,-7.805424421462458,1.12328986138878,-4.3203456207371,2.2321785707144026,0.10080806448356606,0.10080806448396885,-0.4176334100053899,-0.126081,-0.049643999999999994,-0.893027,0.09285500000000002,0.04419100000000001,-0.8856360000000001,0.21893600000000002,0.093835,0.007390999999999925,0.9859253473452824,0.9087388016366231,double,-0.8856360000000001
71,0.591667,step_decsent,0.4954403647708205,-0.035637149028076485,0.32805375569954326,-0.04182674637895961,-3.513564487977136,-0.552574958240319,-0.003959683225335912,-0.0037197024238060403,0.012838972882165517,0.0020398368130603107,-0.004079673626110629,-0.011999040076792443,31.32601271848219,-3.75773652761735,41.79680428749381,-0.4175262808440188,-0.359932040155278,0.5325938167414496,0.1439648682167917,-0.359926856777433,-0.20141915770052227,-0.130243,-0.049378000000000005,-0.8956540000000002,0.08874300000000002,0.044453999999999994,-0.8884700000000001,0.21898600000000001,0.093832,0.007184000000000079,0.9767648194161157,0.9067654502083167,double,-0.8884700000000001
72,0.6,step_decsent,0.31969278771151133,-0.007320292811713195,0.7002280091203488,1.6579855516490174,-5.5578374669726935,-0.18257025634472457,-0.0025201008040380353,-0.004920196807872701,0.016080643225731935,-0.0001200048001954596,0.005400216008640799,-0.01260050402016353,-21.09055286923206,3.3981586723105184,44.662696918373804,0.17275680082777986,-0.14406508869154827,0.3890160018680485,-0.25919136124514464,1.1376322614606402,-0.07217856034694507,-0.13292800000000005,-0.049358,-0.9013549999999999,0.08607799999999999,0.04456,-0.8944099999999999,0.21900600000000003,0.093918,0.006944999999999979,0.9716594944742418,0.9077008913586082,double,-0.8944099999999999
73,0.608333,step_decsent,0.46705868234729275,-0.02232089283571234,0.4593783751350232,2.649236252193599,-3.4186536012180655,-0.9960939838293497,-0.0013200528021100684,-0.0039601584063360335,0.014520580823230737,-0.0014400576023055264,-0.003600144005760485,-0.012120484819388192,17.684614740883333,-1.8001440086402356,-28.903112202727055,0.14401152069218312,0.11520921655306174,-0.18721497689921898,-0.15841267276011778,-1.080086405184357,0.05760460827737153,-0.13683100000000004,-0.049205000000000006,-0.905062,0.08217399999999997,0.04471599999999999,-0.898339,0.219005,0.093921,0.0067230000000000345,0.9748188418407064,0.9115606627600277,double,-0.898339
74,0.616667,step_decsent,0.10019198464121958,0.2981761459083275,-0.17422606191504886,-3.216860547598569,0.5720231194485546,1.6899034209836232,-0.0011999040076872533,-0.00371970242380609,0.010319174466046434,-0.001919846412288948,0.0014398848092150459,-0.01259899208063623,-44.02048208616214,38.45656812383508,-76.02645032998268,0.01441670199457833,0.028852409710816502,-0.5041284325875122,-0.057570051593883405,0.6047550773908759,-0.05741627804752113,-0.13767600000000002,-0.05172099999999999,-0.903524,0.08132300000000003,0.042243,-0.896992,0.21899900000000005,0.09396399999999999,0.006531999999999982,0.9816090815429314,0.9133041517414241,double,-0.896992
75,0.625,step_decsent,0.36001440057602185,0.01692067682707328,-0.14712588503542137,0.8088868234642561,0.8661503266037505,-0.017413504502719637,-0.006960278411123393,-0.015240609624385166,0.0211208448337944,-0.002520100804024679,0.0014400576023038609,-0.01596063842553626,31.17993710966053,-33.75200637000516,3.252151311607749,-0.6912725793155065,-1.3825641666361486,1.2962522942215196,-0.07203340834462119,2.0736000097803373e-05,-0.4034136979359195,-0.14073399999999991,-0.051988999999999994,-0.9021219999999999,0.0783020000000001,0.042114,-0.8958989999999999,0.219036,0.09410299999999999,0.0062229999999999785,0.9550675895317178,0.9107326465735159,double,-0.8958989999999999
76,0.633333,step_decsent,0.21984879395176385,0.051122044881796225,-0.1380055202208064,-0.029921706486527932,0.8059325778622797,0.2682314073580584,-0.0034801392055750194,-0.01584063362534497,0.03468138725548812,-0.000240009600390916,0.004080163206528994,-0.01728069122764633,-16.82054561673556,4.1043283397003245,1.094487557256083,0.4176334100022031,-0.07200576034559006,1.6273301838105916,0.27362188931162285,0.31682534552083547,-0.1584126727601179,-0.14259500000000003,-0.05254700000000001,-0.9006829999999999,0.07646799999999998,0.041721999999999995,-0.8948929999999999,0.219063,0.094269,0.005789999999999962,0.936189611075126,0.9125042220679364,double,-0.8948929999999999
77,0.641667,step_decsent,0.10727141828653174,0.05675545956323541,-0.7260619150467772,-2.0462502031998024,5.23212581296365,0.3407043154937842,-0.006359491240710471,-0.019198464122869914,0.05495560355171785,-0.002039836813047016,0.004679625629949315,-0.019078473722104767,-13.508204423474053,0.6759556853178808,-70.56112248931775,-0.3454946046478843,-0.4029074271088269,2.4327113386404906,-0.21596198855964846,0.07192973643152438,-0.2157166420036534,-0.14354200000000006,-0.053180000000000005,-0.894174,0.0755570000000001,0.04128799999999999,-0.8890010000000002,0.21909900000000015,0.094468,0.005172999999999872,0.9024018654087166,0.9153539455826822,double,-0.8890010000000002
78,0.65,step_decsent,0.18036721468859063,0.13848553942157488,0.01764070562821272,0.3559348348665844,-0.12750550686105913,0.6963842549581112,-0.023040921636861774,-0.046921876875075104,0.026881075243009846,-0.002520100804038002,0.005160206408256473,-0.01728069122764633,8.771846442104714,9.808001903076818,89.24788439637427,-2.001851721607012,-3.3269426079689275,-3.3690781601713535,-0.05763398427828918,0.05767200027686988,0.21574252903617303,-0.14523700000000006,-0.054724999999999996,-0.8940969999999999,0.07403300000000002,0.040177000000000004,-0.889292,0.21927000000000008,0.094902,0.004804999999999948,0.9020326187281356,0.9216001451795721,double,-0.889292
79,0.658333,step_decsent,0.4286571462858577,-0.11724468978759159,0.33037321492860083,0.24289534841047025,-3.233175643285907,-0.6983555218161405,-0.006600264010550429,-0.04716188647545915,0.09336373454938293,-0.003960158406343581,0.004920196807872285,-0.015840633625347676,29.795983631017563,-30.688855059302625,37.5294022921386,1.972957833470718,-0.02880230413825148,7.978238246294696,-0.1728138248296643,-0.028802304138268446,0.17281382482883315,-0.148864,-0.054141,-0.896072,0.07042799999999994,0.041194999999999996,-0.892177,0.21929199999999993,0.095336,0.003894999999999982,0.8253209772981955,0.9326277442014566,double,-0.892177
80,0.666667,step_decsent,-0.11927045836333607,0.35013198944084084,-0.4474442044636507,-0.5916602697897473,4.157884190339477,1.9582708880931032,0.006479481641468453,-0.05423566114710794,0.14062874970001704,-0.003719702423793135,0.0061195104391642795,-0.016318694504442517,-65.74605287367285,56.080715050207445,-93.3306238771593,1.5694439227284356,-0.8487850577932249,5.671348110227232,0.028852409713276243,0.14390612326517707,-0.057362716474062554,-0.14781599999999995,-0.05751099999999999,-0.8911709999999999,0.0713910000000001,0.038328,-0.8885839999999999,0.21920700000000004,0.095839,0.002587000000000006,0.7485600587251053,0.9444285043181541,double,-0.8885839999999999
81,0.675,step_decsent,0.16140645625825453,0.09708388335533431,-0.4722188887555242,-1.6260220965070855,2.27938377956363,0.406829981246518,0.03888155526220924,-0.054002160086403114,0.1582863314532592,-0.002760110404428918,0.003960158406336867,-0.015840633625340803,33.682577057673036,-30.366987409757048,-2.9730810382663404,3.888404370663705,0.028021248134504517,2.1189945701718584,0.11515564854964758,-0.25913260924365816,0.05736960027621648,-0.148837,-0.058769999999999996,-0.8859170000000001,0.07002299999999995,0.037552,-0.884781,0.21885999999999994,0.09632199999999999,0.0011360000000000259,0.71382517309957,0.9610403453272307,double,-0.884781
82,0.683333,step_decsent,0.4542181687267578,0.003600144005760533,0.4506180247209873,1.0686432904313257,-3.7013562224658925,-0.2840245001429043,-0.005400216008649127,-0.03828153126125078,0.13572542901716111,-0.0048001920076718285,0.003960158406336919,-0.015360614424579162,35.13881104866265,-11.21849746184743,110.74485941155886,-5.314025113507593,1.8865509210551397,-2.707416588995356,-0.2448195851725584,6.245254323689511e-15,0.05760460827572855,-0.1526670000000001,-0.059119,-0.888541,0.06619799999999998,0.037555000000000005,-0.8886640000000001,0.2188650000000001,0.09667400000000001,0.00012300000000009526,0.7635630577216298,0.9723778886168674,double,-0.888541
83,0.691667,step_decsent,0.1619870410367113,0.18706503479721537,0.29361651067912736,0.864076419656698,-1.9412313732611937,0.6689782374600926,0.03995680345573988,-0.05447564194864406,0.1768658507319438,-0.004199664026878687,0.0031197504199661683,-0.011759059275256329,-35.06493012839504,22.01402577291258,-18.83867459105576,5.442406943171187,-1.9431378314606618,4.9364556893187395,0.07205759308772937,-0.10084089109320186,0.43215204575507626,-0.15368399999999993,-0.061132000000000006,-0.8895139999999999,0.06481300000000001,0.036022,-0.8912089999999999,0.21849699999999994,0.097154,0.001695000000000002,0.6675007836272175,0.9785494434376447,double,-0.8895139999999999
84,0.7,step_decsent,0.2960518420736853,0.027841113644545567,0.3543741749669999,0.49410973900324007,-2.9199619276262423,-0.2643996300973758,0.061322452898107865,-0.07032281291251712,0.20364814592583938,-0.003120124804988687,0.0027601104044156313,-0.011160446417857985,16.088419661223476,-19.1076348437143,7.2912113629992925,2.5639804923038736,-1.9017365851281895,3.214003983426836,0.12954988862234612,-0.043158528207193125,0.07183641634445564,-0.15564,-0.061950000000000005,-0.8907699999999998,0.06232000000000004,0.035813,-0.8942549999999999,0.21796000000000004,0.097763,0.0034850000000000714,0.591808078281816,0.9801457426557406,double,-0.8907699999999998
85,0.708333,step_decsent,0.37705508220328393,-0.002760110404415595,0.1809672386895546,1.0253537872032794,-1.5039170563690933,-0.21066869408566866,0.09960398415937897,-0.054362174486979074,0.22608904356174114,-0.004800192007685088,0.0009600384015370176,-0.008760350414015293,9.720777646657663,-3.6722937776264293,-20.809664739882944,4.5939675100529165,1.9153532251935648,2.6930154369256774,-0.201616128968726,-0.21601728103667422,0.28802304138277723,-0.15795199999999987,-0.062380000000000005,-0.8903939999999999,0.059138000000000024,0.035844,-0.895836,0.2170899999999999,0.098224,0.005442000000000058,0.5239678319341159,0.983274499142244,double,-0.8903939999999999
86,0.716667,step_decsent,0.2079433645308341,0.10343172546196246,0.1888648908087296,1.494743662557535,-0.9115083553858581,0.6929011094655322,0.09695224382048401,-0.10691144708423238,0.2441804655627542,-0.0040796736261072995,0.001679865610751142,-0.007799376049920417,-20.291782778071582,12.742000943889758,0.947642442905558,-0.3181833859965139,-6.305408279008027,2.17079697636344,0.08645528936618464,0.08637235531726888,0.11530769907545815,-0.15887699999999993,-0.06413300000000001,-0.8899329999999999,0.05737100000000006,0.034996,-0.897475,0.216248,0.09912900000000001,0.00754200000000016,0.4518400701409955,0.9850653318924454,single,-0.8899329999999999
87,0.725,step_decsent,0.1851674066962782,0.10056402256090234,0.05544221768870355,0.3238843561477746,-0.6305112373102043,0.38945170191442613,0.1044041761670388,-0.10920436817472812,0.29425177007080006,-0.0045601824072942325,0.001800072002878601,-0.008880355214204208,-2.7332242691174957,-0.34413811365176306,-16.011361228852426,0.894267652292675,-0.2751615373209841,6.008796892841272,-0.05766336027684356,0.014425344069057981,-0.12972268862160094,-0.15955000000000008,-0.065881,-0.8879429999999999,0.055790000000000006,0.034172999999999995,-0.8980109999999999,0.2153400000000001,0.10005399999999999,0.010067999999999966,0.39932000000000034,0.9830937033809403,single,-0.8879429999999999
88,0.733333,step_decsent,0.2446897875915042,0.1462858514340565,0.048361934477397284,-0.15654933500752963,0.35917364497217813,0.5260803790669646,0.12576503060121608,-0.10212408496339824,0.3313332533301334,-0.004440177607112037,-0.0001200048001904618,-0.006480259210368207,7.142971426284141,5.48683893833601,-0.8496679720756312,2.5634050683039944,0.8496679720784648,4.449955989359559,0.014401152067946132,-0.2304184331056108,0.2880230413819742,-0.16054100000000016,-0.067951,-0.8855850000000001,0.05371399999999993,0.03295300000000001,-0.898468,0.21425500000000008,0.10090400000000001,0.012882999999999978,0.3711700000000002,0.9869059663959825,single,-0.8855850000000001
89,0.741667,step_decsent,0.17554595632349418,0.09491240700743996,0.03767698584112398,0.005474489587509169,-0.5432448423517606,0.4409203467836491,0.14854811615071747,-0.13822894168466604,0.34233261339093,-0.004439644828408201,-0.00011999040076805925,-0.007199424046076894,-8.29659602447929,-6.164320185579175,-1.2820912690512798,2.733751565814918,-4.332236227653948,1.319817621885849,6.392833019389581e-05,1.7277924649082982e-06,-0.0862928768548946,-0.16076600000000008,-0.069894,-0.883046,0.05221399999999998,0.03216100000000001,-0.8988419999999999,0.21298000000000006,0.102055,0.01579599999999992,0.34204000000000023,0.9859014824957927,single,-0.883046
90,0.75,step_decsent,0.21144845793830827,0.09996399855994204,0.029041161646474797,-0.021811259583783136,-0.3504432233790063,0.4567569453437934,0.17568702748110102,-0.15240609624384874,0.35341413656546483,-0.003000120004806511,-0.0022800912036487512,-0.0076803072122894785,4.30847253267898,0.6062152349096435,-1.0363403569721765,3.2567996316312766,-1.7013266001659233,1.3298359743831474,0.1727498888277552,-0.2592224652442917,-0.05770828827704094,-0.16106399999999998,-0.07199699999999999,-0.8803430000000001,0.050427,0.031309000000000003,-0.8991480000000001,0.21149099999999998,0.103306,0.01880499999999996,0.31194999999999984,0.9857418001355027,single,-0.8803430000000001
91,0.758333,step_decsent,0.15756630265210647,0.08292331693267663,0.06540261610464604,0.10270800897439161,-0.5370131917152908,0.535559828767479,0.16452658106324317,-0.18360734429377099,0.3848553942157622,-0.0009600384015370176,-0.005760230409217109,-0.008160326413057988,-6.46611727903535,-2.0449635938155932,4.363549076943608,-1.3393071424286336,-3.744299537972173,3.7731018421093534,0.2448195851757452,-0.41763341000460136,-0.05760460827655195,-0.16100599999999998,-0.07421799999999999,-0.8776810000000002,0.04910599999999998,0.03057,-0.899761,0.21011199999999997,0.10478799999999999,0.022079999999999878,0.2792000000000001,0.9832756950595061,single,-0.8776810000000002
92,0.766667,step_decsent,0.19534437245021397,0.09659227261819112,0.05831533477321685,-0.0013965947409812626,-0.16345710386185,0.5092592579695252,0.31701463882889946,-0.23134149268058718,0.45140388768899264,-0.0017998560115175582,-0.00707943364530717,-0.00779937604991386,4.5330057353141,1.6401434707840852,-0.8504057273133226,18.29710316362577,-5.727639595250356,7.9851804023555095,-0.10077005159353797,-0.15829172499280883,0.04331057873099714,-0.15999200000000002,-0.07695099999999999,-0.8744050000000001,0.04746299999999992,0.02970600000000001,-0.900312,0.20745499999999995,0.106657,0.025906999999999902,0.24092999999999987,0.9821901923735767,single,-0.8744050000000001
93,0.775,step_decsent,0.1899675987039475,0.10428417136685528,0.003480139205548373,-0.045496619433795675,-0.7891740581291936,0.6969655498252123,0.27853114124565076,-0.20388815552622008,0.4369374774990988,0.0,-0.007440297611905225,-0.00552022080883119,-0.6452386590983372,0.9230647724305927,-6.580486687587693,-4.618204438167352,3.2945322398136305,-1.7360386643338297,0.21599136103654754,-0.043305408208094684,0.27350956931269177,-0.159254,-0.079519,-0.8707929999999999,0.04587999999999992,0.028774999999999995,-0.9003869999999998,0.20513399999999993,0.108294,0.029593999999999898,0.2040599999999999,0.9845591751145097,single,-0.8707929999999999
94,0.783333,step_decsent,0.19872794911796543,0.07680307212288581,0.04488179527182286,-0.2247751704107599,-0.5645762410987022,0.672565366783775,0.4064562582503239,-0.24888995559822613,0.44629785191407734,-0.0012000480019146262,-0.008640345613824946,-0.008160326413058097,1.0512841010462033,-3.297863823829319,4.968397463851538,15.351628105685142,-5.400432025921812,1.1232898613918927,-0.1440115206905841,-0.14401152069119558,-0.3168253455210526,-0.15752300000000008,-0.082233,-0.867448,0.044213999999999976,0.02806299999999999,-0.900829,0.20173700000000006,0.11029599999999999,0.033380999999999994,0.16619000000000006,0.9800914162356411,single,-0.867448
95,0.791667,step_decsent,0.1909047276217899,0.08003359731221453,0.045116390688736394,0.15964387210393816,0.059860529272148105,0.65102175077424,0.41456683465322286,-0.2071034317254604,0.4794816414686788,-0.00011999040077138805,-0.00659947204223651,-0.005519558435323991,-0.9387114826224474,0.38763201215847043,0.028149198093776553,0.9731913130428258,5.013981746192155,3.98173620765553,0.1295965444136345,0.2448852377715888,0.3168668079834516,-0.1556590000000001,-0.084626,-0.8638279999999999,0.04262199999999994,0.02734099999999999,-0.9012509999999999,0.19828100000000004,0.111967,0.037422999999999984,0.12577000000000016,0.9856595991984674,single,-0.8638279999999999
96,0.8,step_decsent,0.2128885155406138,0.06288251530061137,-0.040681627265074495,-0.4405595398407326,-0.20240117131286836,0.6778980548872057,0.4584183367334729,-0.22596903876154964,0.5305412216488647,-0.002400096003842544,-0.008160326413056323,-0.005640225609026647,2.638160076661925,-2.058212169879166,-10.296174001417322,5.262390745259791,-2.263963402866815,6.127394717410987,-0.27362361731323004,-0.18731001689905272,-0.014480640069921466,-0.153613,-0.087033,-0.859068,0.040827999999999975,0.026748999999999995,-0.9009590000000001,0.19444099999999997,0.113782,0.04189100000000001,0.08108999999999988,0.9829899104356001,single,-0.859068
97,0.808333,step_decsent,0.17172686907475976,0.053762150486020406,0.020640825633006184,-0.5320958800368866,-0.6571003196193811,0.7091079759679377,0.5516620664826598,-0.23352934117364896,0.5853834153366181,-0.0010800432017191667,-0.007200288011519401,-0.005160206408258207,-4.939595159708919,-1.0944875572532158,7.3589887073180416,11.189695157708842,-0.9072725803551407,6.581326495590284,0.1584126727617172,0.11520921655309377,0.057604608276544386,-0.150447,-0.089427,-0.8543619999999998,0.03938800000000009,0.026241,-0.9011739999999999,0.1898350000000001,0.115668,0.046812000000000076,0.0318799999999998,0.9851266111103832,single,-0.8543619999999998
98,0.816667,step_decsent,0.15550755939525618,0.04799616030717477,0.07499400047997275,0.038318247398507234,-0.02271388886784563,0.703866203677261,0.5765538756899475,-0.20014398848092002,0.5922726181905398,-0.001799856011530856,-0.003959683225342572,-0.0013198944084453037,-1.946161468622925,-0.6918634723836806,6.521859232897306,2.986778162621495,4.005921849379492,0.8266382114136839,-0.08637062752719989,0.3888414670238546,0.4608005759314704,-0.146938,-0.091495,-0.850051,0.038076999999999916,0.025807999999999998,-0.90181,0.18501499999999993,0.117303,0.051759,0.0,0.9924243272838593,single,-0.850051
99,0.825,step_decsent,0.2194887795511804,0.04512180487219546,-0.04380175207007705,-0.31956809236353156,-0.13139491270094494,0.7968009701431897,0.46813872554901814,-0.1585263410536436,0.6108244329773227,0.0032401296051841467,-0.009120364814593461,-0.011520460818431041,7.678053540852611,-0.3449364496555059,-14.256060548428042,-13.010338430448865,4.9943174639717745,2.2263068266870376,0.6048224669044819,-0.6193065629726312,-1.2241169338756548,-0.14486600000000005,-0.09319200000000001,-0.8445960000000001,0.036274999999999946,0.02535599999999999,-0.901541,0.181141,0.118548,0.05694499999999991,0.0,0.9749223144963789,single,-0.8445960000000001
100,0.833333,step_decsent,0.1809672386895413,0.03732149285971325,-0.00900036001440621,-0.18978529516236245,-0.09943247986999484,0.7386481060830481,0.795151806072242,-0.20520820832833228,0.5864634585383427,-0.0004800192007551856,0.001320052802113399,0.003000120004799849,-4.622769814189242,-0.9360748844932414,4.1763341000444845,39.24313938836224,-5.602048154888814,-2.923433870032389,-0.44643571414128363,1.2529002300140184,1.7425394003637142,-0.13974799999999998,-0.09521299999999999,-0.839634,0.0347630000000001,0.02505600000000001,-0.9014409999999999,0.17451100000000008,0.120269,0.061806999999999945,0.0,0.9944789096596522,single,-0.839634
101,0.841667,step_decsent,0.18850491960644206,0.044036477081833864,0.016558675305971972,-0.3034184847977191,0.009961413928291465,0.6423296618085046,0.9504439644828422,-0.18214542836572933,0.5687544996400205,0.0010799136069025276,-0.010559155267579083,-0.00863930885529349,0.9044493540797589,0.8057336479626305,3.0668388913340516,18.633568323805974,2.76731221053549,-2.124905075392622,0.1871769627619032,-1.42539093708812,-1.3966197336324997,-0.13339800000000002,-0.097098,-0.835032,0.033200999999999925,0.024600999999999998,-0.901651,0.16659899999999994,0.121699,0.06661899999999998,0.0,0.9771904241076272,single,-0.835032
102,0.85,step_decsent,0.16764670586823405,0.010800432017279933,0.016320652826129517,-0.1764887723852382,-0.06598543631290443,0.9065320716749032,0.9918396735869486,-0.2502100084003383,0.46297851914077326,-0.0045601824072942325,-0.007200288011521066,-0.003480139205568404,-2.5030857720158646,-3.9884849471443937,-0.028563840134700237,4.9676837998448065,-8.168076327206238,-12.693625404925976,-0.6768385952474273,0.40308019393472305,0.6191251229719349,-0.12653000000000003,-0.099273,-0.8313100000000001,0.03176599999999996,0.024451,-0.9018160000000002,0.158296,0.123724,0.07050600000000007,0.0,0.9846566355342137,single,-0.8313100000000001
103,0.858333,step_decsent,0.22248889955597065,0.03396135845433869,-0.01848073922959425,-0.14614161707267426,-0.17266587852119045,0.8500784377224299,1.12372494899796,-0.22944917796711772,0.41149645985839445,-0.05508220328812976,0.017640705628226044,-0.0014400576023055264,6.581326495588188,2.779422349341013,-4.176334100050837,15.826866123966255,2.4913993079587775,-6.178094237654938,-6.062885021101082,2.981038478308773,0.24481958517495128,-0.1190199999999999,-0.101468,-0.8277269999999999,0.029453000000000062,0.024315000000000003,-0.9016739999999999,0.14847299999999997,0.125783,0.07394699999999998,0.0,0.9035733240569329,single,-0.8277269999999999
104,0.866667,step_decsent,0.18274538036957771,-0.02039836813055009,0.03587712982961974,0.01932322441222369,0.10302589892575076,1.0407919539474997,1.0565154787616993,-0.15238780897528284,0.37197024238061066,-0.027837772978163103,0.007439404847611348,-0.06863450923925662,-4.7688407951035705,-6.5226453785564065,6.522422493306252,-8.064491269049803,9.246624549056314,-4.742766676000001,3.2690701115870904,-1.2240581690202488,-8.062689181299673,-0.111738,-0.10256799999999999,-0.8249259999999999,0.027698,0.024547,-0.9025449999999999,0.139436,0.127115,0.077619,0.0,0.8759370432291195,single,-0.8249259999999999
105,0.875,step_decsent,0.22212888515541093,0.029881195247809696,0.0036001440057571543,-0.27401108128834467,-0.12599000544202174,0.8854339553857965,1.111244449777992,-0.1543261730469212,0.29701188047521837,0.051842073682945654,-0.025441017640705985,0.02748109924396715,4.726209622684873,6.033788956961428,-3.8733932345928785,6.567739231524372,-0.23261299311632685,-8.995363243176765,9.561964077896127,-3.945808530939301,11.534334391362458,-0.104329,-0.104103,-0.8224809999999999,0.02627899999999994,0.024085999999999996,-0.9023459999999999,0.13060799999999995,0.128189,0.07986499999999996,0.0,0.893410746867558,single,-0.8224809999999999
106,0.883333,step_decsent,0.190447617904716,0.006720268810752461,0.036601464058562155,-0.009974349419824554,-0.10505707186434109,0.9412145730160588,1.7656306252249987,-0.2599303972158876,0.28357134285371344,0.00504020160806268,0.00276011040441726,0.00252010080403134,-3.8019041462492247,-2.7794223493408303,3.9603168190093445,78.52948223292978,-12.67301382082875,-1.612929031741855,-5.616449306958212,3.384270736244225,-2.9954396303775,-0.09120300000000003,-0.106325,-0.8204229999999999,0.024733999999999923,0.024053000000000005,-0.9026299999999999,0.11593699999999996,0.130378,0.08220700000000003,0.0,0.9895420485120213,single,-0.8204229999999999
107,0.891667,step_decsent,0.2211423086153034,0.023998080153588536,-0.008639308855273623,-0.4407546985304774,-0.3151508035124366,0.9449060265947758,1.5555555555555616,-0.19390448764098975,0.20446364290856647,0.036597072234221435,-0.02447804175665911,0.016318694504442736,3.683068239811323,2.0731715074197474,-5.428458472982485,-25.20699180098852,7.922475350959713,-9.49216462024807,3.7865215534147993,-3.268316793985664,1.6556987881463252,-0.08008199999999999,-0.108141,-0.8186470000000001,0.023195999999999994,0.023649000000000003,-0.9024220000000001,0.10327799999999998,0.13179000000000002,0.08377499999999993,0.0,0.9217408149748738,single,-0.8186470000000001
108,0.9,step_decsent,0.21480859234370117,0.010080403216128691,0.004440177607085391,-0.3320385074300931,-0.15048117195608404,1.0530818475731727,1.631345253810145,-0.09732389295571793,0.19992799711988407,0.01488059522381045,-0.011280451218049964,0.01488059522381045,-0.7600763556464902,-1.670188040016775,1.5696011595294563,9.095127595653793,11.590134967631275,-0.5442992666125505,-2.606081484508688,1.583774215601715,-0.1725788168285468,-0.06827800000000006,-0.10903600000000001,-0.8170179999999999,0.021529999999999938,0.023470999999999992,-0.9023349999999999,0.089808,0.13250699999999999,0.08531699999999998,0.0,0.9602049413971832,single,-0.8170179999999999
109,0.908333,step_decsent,0.20232809312372263,0.05520220808832429,-0.0016800672026831415,-0.6477061885277787,-0.5030919182110696,0.813772240260923,1.5439817592703902,-0.109684387375496,0.16344653786151286,0.0055202208088312625,0.006600264010560422,-0.0014400576023055455,-1.4977198151900462,5.414833177990641,-0.7344587555224514,-10.484038706318923,-1.4833186631199071,-4.377950229013745,-1.1232898613919684,2.145771658299598,-1.9585566814011932,-0.05709799999999998,-0.11041000000000001,-0.815642,0.019889999999999963,0.02306599999999999,-0.9023329999999999,0.07698799999999995,0.13347599999999998,0.08669099999999996,0.0,0.985459817297752,single,-0.815642
110,0.916667,step_decsent,0.23302135829133483,0.03731701463882763,0.16450683945284386,-0.657755359920867,-1.0609084113281293,1.0581560908469452,1.676145908327322,-0.12023038156947345,0.1655867530597597,0.00455963522917953,0.008039356851453202,-0.0037197024238064566,3.6828971883383685,-2.146051529817197,19.940833531980527,15.858429212494702,-1.2654180698316977,0.25680527936726905,-0.11526104867431311,0.17267732672099462,-0.273535495740448,-0.04507099999999997,-0.111723,-0.8156329999999999,0.017985999999999946,0.02282200000000001,-0.903735,0.06305699999999992,0.134545,0.08810200000000001,0.0,0.9833953053718523,single,-0.8156329999999999
111,0.925,step_decsent,0.26833073322932993,0.047641905676227864,0.006120244809795156,-0.351817503458183,-0.601779805304741,0.9429938401083298,1.9044761790471467,0.002880115204608138,0.259570382815308,0.0006000240009639668,0.006000240009599698,0.016320652826109314,4.2372944843387685,1.2390364859474605,-19.007151643231495,27.40072851551947,14.773850566912406,11.278486710134151,-0.47517235428003674,-0.24470380917478646,2.4049388275429844,-0.03143700000000005,-0.112096,-0.8135209999999999,0.015754999999999963,0.022474999999999995,-0.9036500000000001,0.04719200000000001,0.134571,0.09012900000000013,0.0,0.9710015988158675,single,-0.8135209999999999
112,0.933333,step_decsent,0.2326893075723079,0.05124204968198737,-0.06972278891155022,-0.47359005714033575,0.26967890709090603,0.8152380489359254,1.6536661466458826,-0.09888395535821524,0.07248289931597252,-0.0021600864034516565,0.0018000720028802666,0.008760350414022072,-4.2771421645292635,0.43203456207362734,-9.101528107685835,-30.098407824464946,-12.212176954617103,-22.45139607576349,-0.3312264975897814,-0.5040403224192331,-0.9072725803536915,-0.019596000000000058,-0.113347,-0.8123360000000001,0.013797999999999977,0.022063,-0.902996,0.033394000000000035,0.13541,0.09065999999999996,0.0,0.9846657634448646,single,-0.8123360000000001
113,0.941667,step_decsent,0.26277897768177316,0.04151667866570632,0.024718022558186573,-0.14399257049851788,-0.24868919038617307,1.0659172218395025,1.684785217182609,-0.08435325173986023,0.03791696664267291,0.005399568034552603,-0.008759299256059883,0.016078713702899743,3.6104715754097705,-1.1669511658604481,11.33199081710296,3.733989745227516,1.7435449506065397,-4.14758011438677,0.9070859656832496,-1.2670231892176709,0.8781333439977941,-0.007745000000000002,-0.114396,-0.8122259999999999,0.011653000000000024,0.021643999999999997,-0.903068,0.019398000000000026,0.13604,0.09084200000000009,0.0,0.968184311488897,single,-0.8122259999999999
114,0.95,step_decsent,0.24108964358575025,0.04692187687507573,-0.01920076803071396,-0.4430139316395134,-0.4589329658913264,0.7216409746586169,1.6565462618504938,-0.09204368174727057,0.0022800912036471162,-0.014760590423615187,-0.010920436817472063,0.00492019680787395,-2.6028242044909535,0.6486497311135797,-5.270465689295684,-3.388810192261543,-0.9228885164299058,-4.276596116527795,-2.4193157876116613,-0.25934688124471367,-1.3390755904267244,0.004049999999999998,-0.115554,-0.812047,0.009521000000000002,0.021162,-0.9028670000000001,0.005471000000000004,0.136716,0.09082000000000012,0.0,0.9683184549616406,single,-0.812047
115,0.958333,step_decsent,0.27745109804391827,0.07236289451577942,-0.019680787231495536,-0.1914999314823131,-0.254383303797232,0.7772891779950668,1.7962318492739613,-0.005400216008640311,0.04020160806431931,0.002280091203647086,0.007440297611903559,0.005400216008642393,4.3635490769432215,3.053044238653976,-0.05760460827812013,16.762941008456366,10.397631793907344,4.550764053842797,2.0449635938152166,2.2033762665757286,0.057604608276543935,0.016706,-0.116202,-0.8115479999999999,0.007228000000000012,0.020621,-0.902658,0.009477999999999986,0.136823,0.09111000000000002,0.0,0.9842132987234118,single,-0.8115479999999999
116,0.966667,step_decsent,0.24718022558195898,0.035997120230382325,0.01835853131750283,-0.07370363451147804,0.03531835285107388,0.7945548384250914,1.70530357571393,-0.032397408207343305,-0.0831533477321807,0.007679385649142368,0.005039596832253425,-0.0005999520038436186,-3.6322141183056216,-4.3635438307411585,4.564353077633558,-10.910519985604811,-3.239403911531412,-14.801410582733267,0.6478635043790786,-0.28806104867411997,-0.7199625644931564,0.02885799999999994,-0.116772,-0.8123940000000001,0.005231999999999903,0.020362999999999992,-0.9028160000000001,0.023626000000000036,0.137135,0.090422,0.0,0.9846584765906716,single,-0.8123940000000001
117,0.975,step_decsent,0.31009240369614105,0.05064202568102672,0.011040441617662525,-0.3904074559140043,-0.602985205041896,0.6641187484678966,1.7433097323893196,-0.08028321132845381,-0.07008280331212993,-0.016800672026871386,0.0020400816032645243,-0.0015600624024943435,7.549763364236487,1.7574589524354411,-0.8782058922165333,4.560921237896302,-5.746526235582737,1.568528071528967,-2.9377244300988816,-0.35995622572770053,-0.11521785655235013,0.04080100000000009,-0.117863,-0.81307,0.0025080000000000657,0.019958000000000004,-0.9029210000000001,0.03829300000000002,0.137821,0.08985100000000013,0.0,0.9716736131945773,single,-0.81307
118,0.983333,step_decsent,0.2580103204128137,0.04320172806912249,0.0030001200047931873,0.04756280324377859,-0.17036258822940883,0.5868984587393627,1.7268690747629716,-0.01296051842073683,-0.029401176047041185,-0.013080523220931872,0.012240489619585316,-0.004080163206525663,-6.250099997999177,-0.8928714282856358,-0.9648771886318618,-1.9729578334750972,8.079046310778436,4.881990551432686,0.4464357141413055,1.224097925875525,-0.3024241934514952,0.053041000000000005,-0.11833099999999999,-0.81334,0.00024900000000005473,0.01970000000000001,-0.9029799999999999,0.05279199999999995,0.13803100000000001,0.08963999999999994,0.0,0.9693778672248141,single,-0.81334
119,0.991667,step_decsent,0.30345572354211875,0.02303815694744406,-0.011519078473707044,0.034936387150791746,-0.01080753194752616,0.6954042688267239,1.738900887928983,0.12850971922246301,-0.09119270458363844,0.02843772498200673,0.005159587233019887,0.014998800095990755,5.453012134545875,-2.419434979803041,-1.7421644442644966,1.443702083754666,16.975070511543155,-7.414390273169859,4.981791241053377,-0.8496403151626433,2.289292452905751,0.06500400000000006,-0.117452,-0.8140040000000002,-0.002042999999999906,0.019551,-0.9027590000000001,0.06704699999999997,0.13700299999999999,0.08875499999999992,0.0,0.945729854050754,single,-0.8140040000000002
120,1.0,step_decsent,0.27757110284411374,0.05760230409216443,-0.023520940837643608,-0.25075237452931887,-0.19673723623718253,0.5867183159945404,1.7544701788071408,0.07380295211808433,-0.09984399375974991,-0.004440177607112037,0.06240249609984452,-0.006600264010563665,-3.106278734909985,4.147863571909303,-1.4402810949161782,1.8683896409645846,-6.565074655511636,-1.0381962289825308,-3.9455061309394734,6.8694238409725665,-2.591991372441417,0.07731100000000002,-0.117317,-0.81464,-0.00439299999999998,0.019590999999999997,-0.902618,0.081704,0.136908,0.087978,0.0,0.8951542113694415,single,-0.81464
121,1.008333,step_decsent,0.2876515060602429,0.007920316812672173,-0.003960158406330258,0.2655712919163729,0.17559945031810661,0.6804671144582641,1.7879515180607382,0.09480379215168702,-0.15900636025440745,-0.003120124804988687,0.014640585623424724,0.015840633625347676,1.2096967738064657,-5.96207695661739,2.3473877872691142,4.0179214272888055,2.5202016120968307,-7.099767970077774,0.1584126727617139,-5.731658523511369,2.6930154369268626,0.08981300000000003,-0.116593,-0.8159320000000001,-0.006815999999999933,0.019646999999999998,-0.9024530000000001,0.09662899999999996,0.13624,0.08652099999999996,0.0,0.9636755515508711,single,-0.8159320000000001
122,1.016667,step_decsent,0.279097672186229,-0.015238780897528335,0.08195344372450011,-0.13486544308740223,-0.15137922915196672,0.4614207057912714,1.7967362610991036,0.14494840412766857,-0.20902327813774993,-0.006959443244540683,0.008759299256059883,0.006719462443004568,-1.0263779546452918,-2.778869415670786,10.308807551095478,1.0540848378168153,6.016872087350752,-6.001550021999291,-0.460681358237577,-0.7056979082511154,-1.0944529856423133,0.10246100000000002,-0.115258,-0.818357,-0.009199999999999986,0.019847000000000004,-0.9030800000000001,0.11166100000000001,0.135105,0.0847230000000001,0.0,0.9782494987762642,single,-0.818357
123,1.025,step_decsent,0.32461298451937864,0.018240729629185257,-0.03324132965319636,0.623442402873786,0.05975099268696284,0.6300228211317789,1.7437897515900749,-0.0060002400096004025,-0.22140885635425445,-0.0072002880115277276,0.0126005040201602,0.010200408016320954,5.462055962216496,4.017701971284519,-13.823925762354197,-6.35383529449528,-18.1145618789476,-1.486328839134121,-0.028902528139571206,0.46096301021245073,0.41773017800509044,0.11428700000000003,-0.11546,-0.819925,-0.011965000000000003,0.019799999999999998,-0.9027179999999999,0.12625200000000003,0.13526,0.0827929999999999,0.0,0.9704353264148631,single,-0.819925
124,1.033333,step_decsent,0.29569182767310437,0.014520580823233873,0.005520220808831116,0.177445038965937,-0.12453895158422955,0.5641420924724371,1.7725909036361118,-0.004440177607104276,-0.1356054242169687,0.002760110404415558,0.008640345613824716,-0.0014400576023055071,-3.470677648658799,-0.44643571414272387,4.651572118327949,3.4562764965842367,0.1872149768986079,10.296823729423286,1.1952956217380428,-0.47523801828098106,-1.3969117507051791,0.12659399999999998,-0.11561800000000001,-0.821101,-0.01440600000000003,0.01975099999999999,-0.902776,0.14100000000000001,0.135369,0.08167500000000005,0.0,0.9846931798362751,single,-0.821101
125,1.041667,step_decsent,0.31221502279818125,0.009119270458362633,-0.015838732901370712,0.10686733338762266,-0.3838559165390028,0.637988052696527,1.7133429325654324,0.19198464122870545,-0.22042236621070463,0.012119030477564154,0.014758819294456497,0.01151907847372052,1.9826248050248618,-0.6481053953529329,-2.5628694156710146,-7.1091877934581955,23.569092732878985,-10.177218861739567,1.1229805703322264,0.7341581090271055,1.5549719313686434,0.13827100000000003,-0.114094,-0.8228059999999999,-0.016907000000000005,0.019797999999999996,-0.9025479999999999,0.15517800000000004,0.13389199999999998,0.07974199999999998,0.0,0.9628298650509772,single,-0.8228059999999999
126,1.05,step_decsent,0.30625225008999807,0.02100084003360033,-0.03552142085681588,-0.2634803877500781,-0.5641184505679012,0.4347312508380083,1.7477499099963718,0.1460458418336707,-0.25429017160686435,-0.005640225609026572,0.013200528021120492,-0.0010800432017257996,-0.715561347435867,1.4258453828438125,-2.3620170353347922,4.129002451810735,-5.512876442461772,-4.064299219507875,-2.1311959782299787,-0.1870024328976332,-1.5119550792567023,0.15028300000000006,-0.113052,-0.8246290000000001,-0.019506000000000023,0.019733,-0.9022610000000001,0.16978900000000008,0.132785,0.07763200000000003,0.0,0.9760073750755975,single,-0.8246290000000001
127,1.058333,step_decsent,0.324372974919001,-0.02364094563782439,-0.0002400096003909192,0.08724591965672021,-0.15757935833734768,0.549095548903927,1.8088323532941486,0.17412696507860484,-0.35305412216488985,0.0020400816032695203,0.012960518420738252,0.007320292811709864,2.174573962438872,-5.357228569713804,4.233938708319367,7.330186403189409,3.3698695841754946,-11.852148152889285,0.9216737324248365,-0.028802304138034564,1.0080806448380824,0.16265300000000005,-0.111404,-0.827569,-0.02219199999999999,0.020038,-0.902198,0.18484500000000004,0.131442,0.07462900000000006,0.0,0.9749598290778672,single,-0.827569
128,1.066667,step_decsent,0.32385409167266455,-0.010919126469883255,0.004799616030722306,-0.19239721006736893,-0.3015284646754546,0.5169126326486532,1.7433405327573679,0.2796976241900626,-0.2570194384449197,0.0029997600192047716,0.010679145668345474,0.009479241660666562,-0.06226100867968236,1.526496180458488,0.6047066991976466,-7.858389793230167,12.667465696119146,11.523240187181356,0.11515219773641037,-0.2737428308606625,0.2590531376237919,0.17448300000000005,-0.108982,-0.8297510000000001,-0.024865999999999944,0.020218,-0.9021590000000002,0.199349,0.1292,0.07240800000000003,0.0,0.9756815836338956,single,-0.8297510000000001
129,1.075,step_decsent,0.35869434777391657,0.041881675267011316,-0.03804152166088151,0.1903127438095917,-0.2124695540181052,0.7738158991285922,1.6281051242049827,0.10224408976359152,-0.34357374294972165,-0.00036001440058637876,0.06360254410176497,0.04920196807872618,4.1809979720691635,6.336349662413903,-5.141142168679252,-13.82880217837349,-21.295275942214417,-10.386932017857044,-0.40318905793725923,6.351061854484576,4.766917846881072,0.18506100000000003,-0.10847899999999999,-0.832297,-0.02785800000000005,0.020399,-0.901432,0.21291900000000008,0.128878,0.06913500000000006,0.0,0.8659783714655895,single,-0.832297
130,1.083333,step_decsent,0.36421456858273815,0.0277211088443527,-0.03984159366374573,0.00540072977352853,-0.17733900996330654,0.5941128838041249,1.641545661826444,0.20232809312372135,-0.3256930277211024,-0.0006000240009506356,0.013440537621504744,0.009360374414979136,0.6624529951783857,-1.6993359441567704,-0.2160172810349435,1.6129290317365907,12.010560825648396,2.1457716583006015,-0.028802304135875752,-6.019681564893717,-4.781182486949039,0.19570500000000002,-0.107024,-0.834679,-0.03089799999999998,0.020280000000000006,-0.901022,0.226603,0.127304,0.06634300000000004,0.0,0.972683710113164,single,-0.834679
131,1.091667,step_decsent,0.31653467722583145,-0.004439644828413256,-0.011759059275249981,0.3389783197878476,0.17662903053668993,0.5238522203590683,1.6419486441084927,0.20902327813775295,-0.385169186465089,0.002759779217662069,0.004079673626109073,0.01583873290136405,-5.721129272487114,-3.8589817221942124,3.369634555855085,0.048354005525417874,0.8033579330491636,-7.136568123828621,0.403144134702756,-1.1232138223417145,0.7773408310997166,0.2067509999999999,-0.105245,-0.837791,-0.033513000000000015,0.020350999999999994,-0.900792,0.24026399999999992,0.12559599999999999,0.06300100000000008,0.0,0.9723551502613275,single,-0.837791
132,1.1,step_decsent,0.35977439097562613,0.021600864034560956,-0.05376215048601898,0.10908819740266126,-0.0018774139689569389,0.4982584040860498,1.6582263290531327,0.3211328453138069,-0.3625345013800484,-0.002400096003842512,-0.013200528021120492,-0.01188047521900378,5.188973208903628,3.1249860629993704,-5.040572568194919,1.9534003293699396,13.453686208574585,2.7162708610392694,-0.6192097949723377,-2.0737071459533496,-3.3264380319653597,0.21757099999999996,-0.102749,-0.840364,-0.03653099999999998,0.020060999999999996,-0.900443,0.25410199999999994,0.12280999999999999,0.060078999999999994,0.0,0.9701317665825095,single,-0.840364
133,1.108333,step_decsent,0.38821552862114694,0.00816032641305643,-0.048721948877944336,0.0017790819916723483,-0.14646481362203326,0.6703754937077306,1.5792631705268427,0.23028921156846485,-0.4422176887075516,0.006840273610941349,-0.00816032641305643,-0.01260050402016353,3.413073040384144,-1.6129290317418274,0.6048483869044385,-9.475958061477344,-10.901672116325802,-9.562364973899431,1.1088887093224464,0.6048483869031691,-0.0864069124156675,0.22749600000000003,-0.100898,-0.8436430000000001,-0.039708999999999994,0.019925,-0.9001420000000001,0.267205,0.120823,0.056498999999999966,0.0,0.972504900850721,single,-0.8436430000000001
134,1.116667,step_decsent,0.3675305975521976,0.010319174466042967,-0.06911447084234792,-0.28116145151766553,-0.33440175272905137,0.33614148419460765,1.552075833933277,0.23314134869210287,-0.4481641468682524,0.011519078473720213,0.015238780897528335,0.013318934485237747,-2.481993168820399,0.2590410430749364,-2.446906883177758,-3.262219413674772,0.3422290765104391,-0.7135178978522593,0.5614116705998115,2.8076682638090458,3.1100838139430143,0.23736800000000002,-0.099041,-0.846802,-0.04267600000000005,0.019965999999999998,-0.899455,0.28004400000000007,0.119007,0.05265299999999995,0.0,0.9611876441513267,single,-0.846802
135,1.125,step_decsent,0.3094923796951904,-0.05664226569062817,0.14436577463099437,1.7011370436097777,-0.49769627353773477,0.47519268841070633,1.499579983199336,0.23244929797192093,-0.5107404296171872,0.0037201488059526618,0.012600504020161865,0.006720268810752551,-6.964864737430424,-8.035694246570472,25.618654202969427,-6.299754078236111,-0.08304940839816967,-7.509454308044571,-0.9359089964919743,-0.31660588951956004,-0.7918715558004628,0.24728499999999998,-0.096632,-0.852261,-0.04522400000000004,0.020543000000000006,-0.9006020000000001,0.292509,0.117175,0.04834100000000008,0.01658999999999977,0.9754047079036725,single,-0.852261
136,1.133333,step_decsent,0.40213608544342055,0.006960278411136808,-0.058082323292950364,0.05965160488045346,-0.3961271713142994,0.6266680397567044,1.4641785671427012,0.2401296051842096,-0.5077403096123874,0.0006000240009639748,0.01452058082323093,0.006960278411136808,11.117689397363616,7.632610596635733,-24.294743540615215,-4.248339860390621,0.9216737324239441,0.36002880172805773,-0.3744299537967977,0.23041843310561402,0.02880230413827667,0.256135,-0.094689,-0.8560079999999999,-0.04857,0.020605999999999985,-0.9000599999999999,0.304705,0.11529499999999998,0.04405199999999998,0.059479999999999644,0.9731437586497699,single,-0.8560079999999999
137,1.141667,step_decsent,0.3688504919606429,0.024958003359731012,-0.10019198464121823,0.17970441758290714,0.021216277607110277,0.31114894804650867,1.4072474202063747,0.24754019678425546,-0.5080393568514499,0.0005999520038436186,0.013918886489081366,0.011639068874491601,-3.993951701797144,2.1595542294929286,-5.0527551413807945,-6.831191137068163,0.889199856017016,-0.035882798063653285,-8.638963325672119e-06,-0.07219754429440355,0.5614099428071463,0.264789,-0.092834,-0.859407,-0.05163899999999999,0.02051399999999999,-0.8991279999999999,0.316428,0.11334799999999999,0.039720999999999895,0.10278999999999994,0.9697435375237322,single,-0.859407
138,1.15,step_decsent,0.4038161526461037,0.01920076803072062,-0.10920436817472395,0.04959633588833402,0.0041257047722550524,0.4031462786071516,1.3691347653906285,0.23088923556942473,-0.5237009480379238,0.0007200288011461112,0.014760590423618518,0.009960398415936697,4.196047124140301,-0.690895875316266,-1.0815292851921046,-4.573701525950626,-1.9981952735906494,-1.8794661210217287,0.01440979206798196,0.10100851248495853,-0.20144851296710903,0.27283300000000005,-0.09107,-0.862861,-0.05499799999999999,0.02047700000000001,-0.898135,0.32783100000000004,0.11154700000000001,0.03527400000000003,0.14725999999999972,0.9702976334775375,single,-0.862861
139,1.158333,step_decsent,0.4225369014760512,0.04200168006720233,-0.13116524660986337,0.04899224004344102,-0.058348281928125634,0.42863774823993234,1.3129725189007304,0.21876875075002616,-0.49957998319932256,0.0031201248049886037,0.016200648025920302,0.008160326413057879,2.246579722782573,2.7362188931334823,-2.6354108286498295,-6.7397391683543875,-1.4545163589821615,2.8946315658947306,0.28802304138274937,0.1728138248292043,-0.2160172810366959,0.28025300000000003,-0.089597,-0.865931,-0.05849300000000002,0.020262000000000002,-0.8969739999999999,0.33874600000000005,0.109859,0.031042999999999932,0.18957000000000013,0.9693230496216301,single,-0.865931
140,1.166667,step_decsent,0.45128389728822726,0.03791696664266893,-0.061435085193193864,-0.5264558342310288,-1.035505957936324,0.5131961529318322,1.2640988720902588,0.20038396928246138,-0.48644108471323244,0.003839692824577947,0.015478761699063197,0.011159107271419668,3.449363548377321,-0.4901264008319506,8.36695001399938,-5.864368467779277,-2.2059972963241097,1.576541694995245,0.08634125505031884,-0.08661942966848081,0.35982491701006075,0.28702700000000003,-0.08824299999999999,-0.8694729999999999,-0.062222,0.020074999999999996,-0.896369,0.34924900000000003,0.108318,0.02689600000000003,0.23104000000000025,0.9675594141451316,single,-0.8694729999999999
141,1.175,step_decsent,0.38941557662306453,-0.0003600144005747114,-0.0826833073322846,0.08984507877971949,0.09201319068128437,0.5475588415158247,1.222968918756723,0.20100804032160927,-0.49465978639144875,0.0014400576023055071,0.017400696027841556,0.014640585623426,-7.424495459637784,-4.593421462047639,-2.549888652236933,-4.935791831697485,0.07489152035855902,-0.9862836527320494,-0.287967745382503,0.2306413451072033,0.4177941140053127,0.29397299999999993,-0.086565,-0.872906,-0.06545500000000004,0.02022299999999999,-0.895558,0.35942799999999997,0.106788,0.022652000000000005,0.2734800000000005,0.9620232258278473,single,-0.872906
142,1.183333,step_decsent,0.45049801992079186,0.031081243249729714,-0.15192607704308184,0.1953286531490864,-0.03289029204217607,0.4508816919257752,1.1671666866674788,0.17640705628225278,-0.46537861514460915,0.005880235209404319,0.017760710428418407,0.015240609624383703,7.330186403183474,3.7731018421102505,-8.3094647438855,-6.696535712137848,-2.9522361741697716,3.5138811048649785,0.5328426265569245,0.0432034562074709,0.07200576034533893,0.299945,-0.085354,-0.875518,-0.06916,0.020112000000000005,-0.894165,0.369105,0.105466,0.01864699999999997,0.3135300000000003,0.9597819767198383,single,-0.875518
143,1.191667,step_decsent,0.4587233021358281,0.0157187425005989,-0.1442284617230521,-0.34237163112055313,-0.21857175176936966,0.6279597397527641,1.125029997600183,0.16390688744900314,-0.46988240940724085,0.008999280057600994,0.018718502519797012,0.020518358531314545,0.9869549094115916,-1.8433526216859488,0.9236399472077855,-5.055998208218805,-1.499900267968508,-0.5404120785495159,0.37425544134829025,0.11492585689687998,0.6332792064951765,0.305498,-0.084119,-0.8782320000000001,-0.07290799999999997,0.020137000000000002,-0.892792,0.37840599999999996,0.10425599999999999,0.014559999999999906,0.3543999999999998,0.9513409704919829,single,-0.8782320000000001
144,1.2,step_decsent,0.44809792391696257,-0.008880355214207538,0.016680667226675924,0.2132962877205284,-1.8448114161465201,0.3142275224755843,1.0765630625225115,0.14436577463098646,-0.4497779911196524,0.016080643225725274,0.019560782431297007,0.025081003240131603,-1.2750963901194832,-2.952009806169046,19.30986786868229,-5.8162648599150195,-2.3450273392555934,2.412626699578621,0.8497975720778045,0.10107763248529972,0.5475392666287171,0.310735,-0.082842,-0.882119,-0.07650800000000002,0.02037399999999999,-0.892722,0.387243,0.10321599999999999,0.010603000000000029,0.39397000000000026,0.9405986340549616,single,-0.882119
145,1.208333,step_decsent,0.3736949477978994,0.03648145925836954,-0.4022560902436053,1.451268483730181,1.9449433531919038,0.4887906286725628,1.029881195247796,0.13248529941197426,-0.4537381495259706,0.01704068162726185,0.022080883235331125,0.029641185647425045,-8.928714282858737,5.44363548212844,-50.2744218733078,-5.602048154891966,-1.4257140548436327,-0.47523801827890594,0.11520921655304907,0.3024241934518269,0.5472437786263484,0.31620300000000007,-0.082042,-0.8825479999999999,-0.07948,0.020254000000000008,-0.8891229999999999,0.39568300000000006,0.10229600000000001,0.0065749999999999975,0.43425,0.9321654356917766,single,-0.8825479999999999
146,1.216667,step_decsent,0.4655627549796098,0.05123590112791036,-0.16438684905206352,0.1720207427373859,-0.26352774445618726,0.7502322968421617,0.977081833453337,0.11711063114951,-0.44288456923446967,0.0201583873290209,0.020038396928246178,0.03443724502039683,11.023255001405344,1.7703913930334896,28.542025580939082,-6.335416582008638,-1.8448126064872281,1.3023254489442182,0.3740947566305629,-0.24507875055015432,0.5754810862697234,0.32046600000000003,-0.081493,-0.8848690000000001,-0.08319199999999993,0.019994000000000012,-0.8874660000000001,0.40365799999999996,0.10148700000000001,0.0025969999999999605,0.47402999999999984,0.9255796142072389,single,-0.8848690000000001
147,1.225,step_decsent,0.44473778951158444,-0.0002400096003842512,-0.19464778591143453,0.2364294585270164,-0.21853941302684504,0.6492539418422255,0.9267970718828633,0.09360374414976429,-0.4285371414856508,0.01980079203167741,0.019920796831872863,0.03696147845914138,-2.4990958199958,-6.177356381650512,-3.6314576814317148,-6.0344127649673345,-2.8209392775405373,1.7217602002662442,-0.04291315220730662,-0.01411257606784021,0.3029201294545187,0.32448299999999997,-0.080711,-0.8868180000000001,-0.08673300000000006,0.020162000000000013,-0.8855360000000001,0.411216,0.10087300000000002,0.0012820000000000054,0.5,0.9098089531366318,single,-0.8855360000000001
148,1.233333,step_decsent,0.44245769830793585,0.013200528021120844,-0.20232809312373595,0.18606424287456025,-0.18302189742727087,0.6197303792586979,0.8826353054122246,0.08580343213728632,-0.4226569062762579,0.031561262450499894,0.02208088323532838,0.04380175207008371,-0.27362188931340486,1.6129290317418958,-0.9216737324254763,-5.299623961435155,-0.9360748844927442,0.7056564513852103,1.4113129027748221,0.25922073724415423,0.820865667939805,0.32815099999999997,-0.080106,-0.888654,-0.09015700000000004,0.020236000000000004,-0.883485,0.418308,0.100342,0.00516900000000009,0.5,0.8510950009239165,single,-0.883485
149,1.241667,step_decsent,0.44288456923445785,-0.00479961603071731,-0.1907847372210185,0.10871756810734612,-0.038996249297901686,0.7398686859764675,0.8269738420926274,0.07619390448764042,-0.4222462203023719,0.044036477081833864,0.031677465802733916,0.049676025917922584,0.05122041354955491,-2.1598444986606693,1.3850919009740068,-6.67884129104833,-1.1530510738715893,0.04927837459635115,1.4969060032798025,1.1514977882655941,0.7048564732228018,0.331352,-0.079431,-0.890583,-0.09348100000000004,0.02053999999999999,-0.881481,0.424833,0.09997099999999999,0.009102000000000054,0.5,0.7863878498020053,single,-0.881481
150,1.25,step_decsent,0.443537741509655,-0.004200168006719512,-0.18936757470299936,-0.08831876545811573,-0.24362802488020305,0.68816964218784,0.7717508700348041,0.060842433697348514,-0.41689667586703577,0.054002160086398,0.031441257650307766,0.05232209288371486,0.07838380837599712,0.07193664034535027,0.1700663048144894,-6.627021727807961,-1.8422501848424395,0.6419710110807859,1.1959297977396168,-0.02834611213562365,0.3175407375245769,0.334087,-0.078889,-0.8924789999999999,-0.09672700000000001,0.020836999999999994,-0.879467,0.43081400000000003,0.099726,0.013011999999999913,0.5,0.7340452619667515,single,-0.879467
151,1.258333,step_decsent,0.46477859114365183,-0.0019200768030723952,-0.25585023400936546,0.442334960140209,0.03578213086307988,0.7711475576681893,0.7291491659666485,0.04752190087603554,-0.42313692547702647,0.07692307692307795,0.03432137285491553,0.06564262570503117,2.5490039162362894,0.273621889313229,-7.978238246293857,-5.112408984538108,-1.5985278796727582,-0.7488599075951947,2.7506200452034277,0.3456276496589212,1.5985278796731588,0.33629000000000003,-0.078477,-0.8938729999999999,-0.09995900000000002,0.021139000000000005,-0.8767879999999999,0.43624900000000005,0.09961600000000001,0.017085000000000017,0.5,0.6511669272451673,single,-0.8767879999999999
152,1.266667,step_decsent,0.45656347492200977,0.005759539236860106,-0.255579553635703,0.23664120677451,-0.39256843014698206,0.6531022552466786,0.668946484281252,0.053035757139428194,-0.42524598032157,0.06611471082314314,0.04067674586033158,0.05831533477321607,-0.9857350877900165,0.9214802063753832,0.03247904651577339,-7.223743902735299,0.6616098228212876,-0.25306633603834044,-1.296900179977769,0.7625837539496039,-0.8792045754517689,0.33805999999999997,-0.078083,-0.8952869999999999,-0.103213,0.02143000000000002,-0.874172,0.44127299999999997,0.09951300000000002,0.021114999999999995,0.5,0.6270336525329641,single,-0.874172
153,1.275,step_decsent,0.44713788551542555,-0.0022800912036471162,-0.2556102244089745,0.008706594340177074,-0.18918910950215,0.6728105448264492,0.6374654986199486,0.04896195847833983,-0.4528981159246411,0.07872314892595655,0.042601704068162424,0.07092283691347817,-1.1311159734290541,-0.9647942446306609,-0.0036806400181822966,-3.77786939413221,-0.48887539434638166,-3.3183890079288747,1.5130730952614335,0.23100422510870813,1.5129607752624763,0.33964599999999995,-0.077656,-0.8969309999999999,-0.10628300000000002,0.021804000000000004,-0.871451,0.44592899999999996,0.09946,0.025479999999999947,0.5,0.5548619369955318,single,-0.871451
154,1.283333,step_decsent,0.44617784711387665,-0.012000480019200902,-0.2757710308412182,0.014948483022098518,0.34459768524491224,0.564282905738716,0.5840633625344924,0.04176167046681807,-0.44773790951637094,0.08352334093362615,0.039121564862592974,0.07092283691347628,-0.11520921655452836,-1.1664933175991379,-2.4193935476111013,-6.408512670761461,-0.8640691241475622,0.619249538973965,0.576046082763652,-0.4176334100047269,-2.264945568058002e-13,0.34079499999999996,-0.077208,-0.898364,-0.1093050000000001,0.02223,-0.8685620000000001,0.45010000000000006,0.099438,0.029801999999999995,0.5,0.5080678340740871,single,-0.8685620000000001
155,1.291667,step_decsent,0.4616030717542605,-0.04139668826493936,-0.4599232061435143,0.6412276634061576,1.010024318705702,0.5216415063903121,0.5398368130549629,0.05327573794096573,-0.4785217182625471,0.09071274298057407,0.044156467482603094,0.08183345332373756,1.850878886535177,-3.5272628084640054,-22.09649331681061,-5.306761396631914,1.3815775706920903,-3.693761548617318,0.8626592328951346,0.6041399832025698,1.3091692356925233,0.341447,-0.076419,-0.8985190000000001,-0.11239599999999994,0.022943000000000005,-0.864047,0.45384299999999994,0.099362,0.03447200000000006,0.5,0.4387716639884902,flight,-0.864047
156,1.3,step_decsent,0.5114604584183263,-0.02628105124204886,-0.40381615264610626,1.0246443564298922,-0.7592387754358898,0.892471816107548,0.49225969038760625,0.060842433697346474,-0.5023400936037381,0.05280211208448197,0.054002160086403225,0.06672266890675521,5.983125724716781,1.8139490007068568,6.733115744318617,-5.709483099406674,0.9080398123581673,-2.8583193737178214,-4.549457685838406,1.181530373670942,-1.8133666647044389,0.341287,-0.07569300000000001,-0.89934,-0.11621799999999993,0.023612000000000008,-0.860126,0.45750499999999994,0.09930500000000002,0.03921400000000008,0.5,0.43989662038821753,flight,-0.860126
157,1.308333,step_decsent,0.4956198247930056,-0.03708148325933116,-0.3468138725549125,0.5503771781243427,-0.31268886047443034,0.6741963822335285,0.4369374774991046,0.07236289451578164,-0.524540981639272,0.13308532341292761,0.055562222488899006,0.09828393135725022,-1.9009520731214302,-1.2961036862213366,6.84054723283263,-6.6389311038644125,1.3825105986361776,-2.664213132789402,9.634370734242935,0.18721497689857133,3.787502994179203,0.34079799999999993,-0.074781,-0.900821,-0.1192390000000001,0.024384000000000003,-0.856417,0.46003700000000003,0.099165,0.044404,0.5,0.26508681725312866,flight,-0.856417
158,1.316667,step_decsent,0.4624430045596213,-0.06935445164386739,-0.2789776817854443,0.10508518942748021,-0.2681173967126115,0.462478168036086,0.3923686105111555,0.09575233981281425,-0.5544756419486382,0.09611231101512425,0.044036477081833864,0.08855291576673996,-3.9808999560096057,-3.8724464104314835,8.139691716998758,-5.347836211656918,2.806508914930698,-3.591871887372927,-4.436406575210352,-1.382978810542963,-1.1676284605843756,0.340214,-0.073405,-0.9031170000000001,-0.12229199999999996,0.025329000000000004,-0.8533540000000001,0.462506,0.09873400000000002,0.049763,0.5,0.2725246018803666,flight,-0.8533540000000001
159,1.325,step_decsent,0.4526581063242568,-0.025441017640706325,-0.35545421816874573,0.21016944370513208,-0.03477940517078,0.3938437398884398,0.3667346693867792,0.12048481939277657,-0.5888635545421864,0.27289091563662776,0.06264250570022795,0.14928597143886166,-1.174234757634055,5.2698228732943075,-9.177551468054977,-3.076195982764499,2.968016270246315,-4.1267145798090175,21.21428112582565,2.232812746717179,7.28825821098311,0.339498,-0.072189,-0.9050619999999999,-0.12378999999999996,0.026063000000000003,-0.8491479999999999,0.463288,0.098252,0.05591400000000002,0.5,0.0,flight,-0.8491479999999999
160,1.333333,step_decsent,0.4598583943357723,-0.05496219848793856,-0.40705628225126367,0.22091398036428367,-0.02279768145742158,0.4543913575822247,0.3232929317172666,0.16056642265690332,-0.6338653546141746,0.1795271810872467,0.039721588863553606,0.09864394575782731,0.8640691241468119,-3.542683409004167,-6.192495389717633,-5.213217049023381,4.80998479108677,-5.400432025919523,-11.204096309777924,-2.7506200452026808,-6.077286173170942,0.33836,-0.07039300000000001,-0.9069520000000001,-0.12612599999999996,0.026852,-0.8449340000000001,0.46448599999999995,0.097245,0.06201800000000002,0.5,0.1522355466473055,flight,-0.8449340000000001
161,1.341667,step_decsent,0.4744420446364397,-0.023878089752820797,-0.4017278617710814,0.3238876929782019,-0.003973473153753577,0.45540828335603756,0.2906167506599503,0.19222462203024115,-0.6473482121430388,0.19870410367170893,0.05555555555555555,0.11435085193184542,1.7498980442365804,3.7297946646410316,0.639359308877176,-3.9208280606331787,3.79868003039818,-1.6178134783854694,2.3010466264054004,1.8999240091195402,1.8846779666448776,0.33682799999999996,-0.068592,-0.9089989999999999,-0.12842399999999998,0.027513999999999997,-0.840633,0.46525199999999994,0.096106,0.06836599999999993,0.5,0.10684376194909445,flight,-0.840633
162,1.35,step_decsent,0.4668186727468956,-0.015240609624384963,-0.3936157446297723,0.29421758157003863,0.040122777849318975,0.5648047338082695,0.2546501860074374,0.22404896195847449,-0.6689067562702419,0.10104404176166983,0.008160326413057879,0.16296651866074668,-0.9148412203940911,1.036539076975361,0.9734929966769427,-4.316160404717663,3.819073554330106,-2.587128780415536,-11.719676216253138,-5.687655003299754,5.834113372002929,0.33506,-0.06659799999999999,-0.911293,-0.13147199999999992,0.02770900000000001,-0.835995,0.46653199999999995,0.094307,0.07529799999999998,0.5,0.18012773596712933,flight,-0.835995
163,1.358333,step_decsent,0.4534981399255984,-0.04536181447257805,-0.4286571462858444,0.2973772122842355,0.26202282914683467,0.47129527096725643,0.2192487699508028,0.23940957638305796,-0.6842673706948322,0.1592463698547917,0.04764190567622517,0.17412696507860234,-1.5985278796708646,-3.614689169349978,-4.205136404184859,-4.248339860390604,1.8433474648486277,-1.8433474648494537,6.984558753524831,4.737979030741348,1.3393071424283882,0.33310800000000007,-0.064225,-0.9134230000000001,-0.13392399999999993,0.02848399999999998,-0.830972,0.467032,0.09270899999999999,0.08245100000000005,0.5,0.09878878707414712,flight,-0.830972
164,1.366667,step_decsent,0.5268778497720182,0.01631869450443919,-0.5387568994480526,1.2215537082881875,-0.777339366533159,0.7164275208268122,0.18166546676265277,0.2612191024718001,-0.7144228461723026,0.21646268298536286,0.05435565154787683,0.10763138948883781,8.804860792706897,7.401068991722674,-13.210913506384374,-4.509635611729031,2.6169337759469586,-3.618367587889381,6.865408343001047,0.8055850577935697,-7.978830764310538,0.330231,-0.062184,-0.914887,-0.13651099999999994,0.028800999999999993,-0.825585,0.46674199999999993,0.090985,0.08930199999999999,0.5,0.08703260155675385,flight,-0.825585
165,1.375,step_decsent,0.5109804392175714,-0.013800552022081488,-0.4773790951638154,0.8712544470614888,-0.28689738001389836,0.7779515226728405,0.17004680187207663,0.28045121804872436,-0.7214688587543522,0.20664826593063929,0.05004200168006775,0.08544341773671577,-1.9077655771567223,-3.6144541613489682,7.365631139354108,-1.3942955586914973,2.307946187078418,-0.8455553320592446,-1.1777771576531464,-0.5176586904847142,-2.662663116779341,0.32739,-0.059732,-0.9169209999999999,-0.13904699999999992,0.029332999999999998,-0.8208949999999999,0.46643699999999993,0.089065,0.09602599999999994,0.5,0.11808855964438913,flight,-0.8208949999999999
166,1.383333,step_decsent,0.5051002040081671,-0.0002400096003842576,-0.48805952238090483,0.5687735931647007,0.0004546475779116301,0.707938284679195,0.13500540021601498,0.289571582863317,-0.7525501020040902,0.19344773790951178,0.064562582503302,0.06672266890675699,-0.7056564513865758,1.627330183811035,-1.2817025341521118,-4.2051364041836035,1.0944875572534196,-3.7298983859040358,-1.5841267276044193,1.7425394003641412,-2.246579722783985,0.32430600000000004,-0.057317,-0.919125,-0.141644,0.02987300000000001,-0.8162719999999999,0.46595000000000003,0.08719000000000002,0.10285300000000008,0.5,0.14237562805273385,flight,-0.8162719999999999
167,1.391667,step_decsent,0.522798176145911,-0.011999040076794108,-0.5334773218142448,0.36913591049671274,-0.1672086835215568,0.4843549526026039,0.10583153347732027,0.3147348212143005,-0.779817614590824,0.19870410367170366,0.05759539236860772,0.056755459563234655,2.1235867695876753,-1.4109707795068107,-5.449699956004273,-3.500583961926384,3.0193470543536485,-3.2718397632269687,0.6307134343882694,-0.8359959364883883,-1.1959694436671775,0.320831,-0.054594,-0.9211779999999999,-0.14434500000000006,0.030452999999999994,-0.811353,0.46517600000000003,0.08504699999999998,0.10982499999999995,0.5,0.14245539428118975,flight,-0.811353
168,1.4,step_decsent,0.48949957998319704,-0.04020160806432151,-0.5267010680427237,0.4035542077843307,-0.11335965553609939,0.7030129598905525,0.08736349453978316,0.32761310452418435,-0.8096723868954836,0.26209048361934284,0.09072362894515944,0.042121684867393906,-3.995991379180873,-3.384443536244769,0.8131829799017397,-2.216253322637379,1.5454558154186906,-3.5827159851985932,7.606669860511192,3.9755474110826854,-1.756123208429243,0.31748000000000004,-0.051529000000000005,-0.9235359999999999,-0.14624000000000004,0.03154399999999999,-0.806613,0.4637200000000001,0.083073,0.11692299999999989,0.5,0.03245191932074443,flight,-0.806613
169,1.408333,step_decsent,0.49441977679106447,-0.014400576023041749,-0.5645025801031992,0.49140627167090445,-0.02673770968986807,0.8341329014841369,0.08328333133324856,0.32677307092283076,-0.8234729389175465,0.28369134765390513,0.08568342733709107,-0.013080523220931697,0.5904472348334743,3.096247694861312,-4.536362901773058,-0.4896391703509583,-0.10080806448500913,-1.6561324879470336,2.592207372442328,-0.6048483869036697,-6.624529951797028,0.314054,-0.048686,-0.925694,-0.14799600000000002,0.03237799999999999,-0.8020179999999999,0.46205,0.081064,0.12367600000000012,0.5,0.005604941644019701,flight,-0.8020179999999999
170,1.416667,step_decsent,0.5184785217182747,-0.00791936645068369,-0.5839932805375626,0.46235489098664195,-0.10154858590906451,0.7616998983731815,0.07019438444924565,0.3444924406047588,-0.8682505399568158,0.17590592752579737,0.05207583393328845,0.1807055435565198,2.886818445789618,0.777682934048258,-2.338696956367144,-1.570547982241799,2.126154269489848,-5.372882294128889,-12.93321575811253,-4.032588601368282,23.252467815869352,0.310318,-0.045749,-0.928063,-0.15085100000000007,0.032878000000000004,-0.7956449999999999,0.46116900000000005,0.078627,0.13241800000000004,0.5,0.07082352344345771,flight,-0.7956449999999999
171,1.425,step_decsent,0.6378255130205047,0.03000120004800142,-0.5167406696267666,-0.29867227530884705,0.17655740027629876,1.46194000697476,0.07332293291731214,0.3408136325452953,-0.8891155646225726,0.3014520580823264,0.1093243729749165,0.019080763230531317,14.322211844741142,4.550650005842368,8.070636134740774,0.3754408338013235,-0.44147462612065985,-2.5039031160154117,15.066138312315712,6.870099488974804,-19.39574946909704,0.305614,-0.043159,-0.931166,-0.15365399999999996,0.033539,-0.79118,0.45926799999999995,0.076698,0.13998600000000005,0.5,0.0,flight,-0.79118
172,1.433333,step_decsent,0.547821912876525,0.010560422416897341,-0.6137045481819404,0.6004519160039787,0.1371446456229761,0.815208581698557,0.08748349933997862,0.32809312372495203,-0.9000360014400633,0.21672866914676478,0.07644305772230943,0.1696867874714969,-10.800864051839733,-2.3329866351979187,-11.636130871855844,1.69933594415776,-1.526522119325978,-1.3105048382924367,-10.167213360801918,-3.945915666939562,18.073445846749905,0.301778,-0.04051300000000001,-0.9335519999999999,-0.15641300000000002,0.03408799999999999,-0.784652,0.458191,0.074601,0.14889999999999992,0.5,0.02388008353852611,flight,-0.784652
173,1.441667,step_decsent,0.39224862011038414,0.001319894408446969,-0.5837532997360043,-0.48854488195041923,-0.1901710170899745,0.2569259484885727,0.07223422126229744,0.34773218142548307,-0.9397648188144884,0.19510439164866858,0.05267578593712402,-0.011399088072955485,-18.66730174779694,-1.1087746590413128,3.5938623045279434,-1.8297669879626914,2.3564984041913712,-4.767076718793462,-2.594705723313659,-2.851844466664894,-21.72856677999172,0.299111,-0.03762600000000001,-0.9365190000000001,-0.15805599999999997,0.03451599999999999,-0.7798820000000002,0.457167,0.072142,0.15663699999999992,0.5,0.16264755787988594,flight,-0.7798820000000002
174,1.45,step_decsent,0.5207008280331239,-0.006240249609984035,-0.6863074522981018,0.6031380952769014,-0.30730705327739166,1.1092826193818748,0.08736349453978316,0.3379335173406966,-0.9806792271690973,0.34057362294492177,0.1304452178087141,0.1356054242169723,15.414881545990752,-0.907253572354623,-12.306990587075287,1.8155854167149725,-1.1758867256434127,-4.909925399569097,17.457006035791974,9.332705132796207,17.641247124676482,0.29550000000000004,-0.03475800000000001,-0.9389720000000001,-0.15955699999999995,0.03565499999999999,-0.7730330000000001,0.455057,0.070413,0.16593900000000006,0.5,0.0,flight,-0.7730330000000001
175,1.458333,step_decsent,0.5396615864634592,-0.007680307212289376,-0.7077883115324706,0.37421207982585725,-0.11015998895333465,1.0437764143280552,0.08628345133804838,0.3412936517460638,-1.0176407056282057,0.34069362774510814,0.12972518900755786,0.09996399855994403,2.275382026921272,-0.17281382482963106,-2.5778062203730285,-0.12961036862291678,0.40323225793437417,-4.435554837286429,0.014401152068446705,-0.08640691241524344,-4.277142164529899,0.2917219999999999,-0.03185,-0.9415539999999999,-0.161215,0.0368,-0.7663019999999998,0.4529369999999999,0.06865,0.17525200000000007,0.5,0.0,flight,-0.7663019999999998
