frame_id,timestamp,gait_type,root_linear_velocity_x,root_linear_velocity_y,root_linear_velocity_z,root_angular_velocity_x,root_angular_velocity_y,root_angular_velocity_z,left_linear_velocity_x,left_linear_velocity_y,left_linear_velocity_z,right_linear_velocity_x,right_linear_velocity_y,right_linear_velocity_z,root_acceleration_x,root_acceleration_y,root_acceleration_z,left_acceleration_x,left_acceleration_y,left_acceleration_z,right_acceleration_x,right_acceleration_y,right_acceleration_z,left_pos_rel_x,left_pos_rel_y,left_pos_rel_z,right_pos_rel_x,right_pos_rel_y,right_pos_rel_z,step_length,step_width,step_height,left_contact_prob,right_contact_prob,support_type,max_foot_height
<<<<<<< HEAD
<<<<<<< HEAD
1,0.008333,walk,0.007920316812660443,0.03408136325453762,0.0019200768030740432,0.01532653409845516,-0.04079442718945146,0.04693667025297625,-0.00012000480018213529,-0.00012000480018213529,0.0007200288011519335,-0.0018000720028652614,-0.0018000720028785845,-0.0015600624024959945,0.0,0.0,0.0,0.0,0.0,0.0,0.0,0.0,0.0,0.04960500000000012,0.07355199999999995,-0.909254,-0.02710099999999982,-0.14215500000000003,-0.9105829999999999,0.07670599999999994,0.21570699999999998,0.0013289999999999136,0.985477067882127,0.99502385883252,double,-0.909254
2,0.016667,walk,0.009839212862987463,0.037317014638822914,0.0033597312215056393,0.03841282860007013,-0.0019471794033854369,0.061729126853235707,0.0004799616030589126,-0.0008399328053864011,0.00035997120230417564,-0.0007199424046283338,-0.006479481641468501,0.00035997120230417564,0.23024910611075353,0.38824710634572795,0.1727447106349407,0.07199020917219197,-0.0863844498685224,-0.043203455585284115,0.1296051833737614,-0.5614842378917586,0.23038560172788217,0.04952699999999988,0.07323399999999991,-0.909279,-0.02718900000000013,-0.14251999999999998,-0.910608,0.076716,0.2157539999999999,0.0013290000000000246,0.9849896725727807,0.9891178562831635,double,-0.909279
3,0.025,walk,0.017400696027848522,0.033121324853000594,0.004200168006721138,0.022055151738439516,-0.01503073843550368,0.10904519045518782,0.0003600144005996987,-0.0006000240009373228,0.0001200048001921277,-0.00024000960036427057,-0.005520220808831212,0.0004800192007676781,0.9074142763543813,-0.503502914415255,0.10085644848379922,-0.014394240064708257,0.028790208142215078,-0.02879712013825128,0.057594240281298836,0.11511590455265677,0.014406336069063054,0.04938500000000001,0.07295300000000005,-0.909313,-0.027336000000000027,-0.14284200000000002,-0.910639,0.07672100000000004,0.21579500000000007,0.0013259999999999383,0.9855567367128606,0.99075625424354,double,-0.909313
=======
1,0.008333,stand,0.007920316812660443,0.03408136325453762,0.0019200768030740432,0.01532653409845516,-0.04079442718945146,0.04693667025297625,-0.00012000480018213529,-0.00012000480018213529,0.0007200288011519335,-0.0018000720028652614,-0.0018000720028785845,-0.0015600624024959945,0.0,0.0,0.0,0.0,0.0,0.0,0.0,0.0,0.0,0.04960500000000012,0.07355199999999995,-0.909254,-0.02710099999999982,-0.14215500000000003,-0.9105829999999999,0.07670599999999994,0.21570699999999998,0.0013289999999999136,0.985477067882127,0.99502385883252,double,-0.909254
2,0.016667,stand,0.009839212862987463,0.037317014638822914,0.0033597312215056393,0.03841282860007013,-0.0019471794033854369,0.061729126853235707,0.0004799616030589126,-0.0008399328053864011,0.00035997120230417564,-0.0007199424046283338,-0.006479481641468501,0.00035997120230417564,0.23024910611075353,0.38824710634572795,0.1727447106349407,0.07199020917219197,-0.0863844498685224,-0.043203455585284115,0.1296051833737614,-0.5614842378917586,0.23038560172788217,0.04952699999999988,0.07323399999999991,-0.909279,-0.02718900000000013,-0.14251999999999998,-0.910608,0.076716,0.2157539999999999,0.0013290000000000246,0.9849896725727807,0.9891178562831635,double,-0.909279
3,0.025,stand,0.017400696027848522,0.033121324853000594,0.004200168006721138,0.022055151738439516,-0.01503073843550368,0.10904519045518782,0.0003600144005996987,-0.0006000240009373228,0.0001200048001921277,-0.00024000960036427057,-0.005520220808831212,0.0004800192007676781,0.9074142763543813,-0.503502914415255,0.10085644848379922,-0.014394240064708257,0.028790208142215078,-0.02879712013825128,0.057594240281298836,0.11511590455265677,0.014406336069063054,0.04938500000000001,0.07295300000000005,-0.909313,-0.027336000000000027,-0.14284200000000002,-0.910639,0.07672100000000004,0.21579500000000007,0.0013259999999999383,0.9855567367128606,0.99075625424354,double,-0.909313
>>>>>>> 3b0d06690e55fb02323d988053aa126fb7c3a6e7
=======
1,0.008333,stand,0.007920316812660443,0.03408136325453762,0.0019200768030740432,0.01532653409845516,-0.04079442718945146,0.04693667025297625,-0.00012000480018213529,-0.00012000480018213529,0.0007200288011519335,-0.0018000720028652614,-0.0018000720028785845,-0.0015600624024959945,0.0,0.0,0.0,0.0,0.0,0.0,0.0,0.0,0.0,0.04960500000000012,0.07355199999999995,-0.909254,-0.02710099999999982,-0.14215500000000003,-0.9105829999999999,0.07670599999999994,0.21570699999999998,0.0013289999999999136,0.985477067882127,0.99502385883252,double,-0.909254
2,0.016667,stand,0.009839212862987463,0.037317014638822914,0.0033597312215056393,0.03841282860007013,-0.0019471794033854369,0.061729126853235707,0.0004799616030589126,-0.0008399328053864011,0.00035997120230417564,-0.0007199424046283338,-0.006479481641468501,0.00035997120230417564,0.23024910611075353,0.38824710634572795,0.1727447106349407,0.07199020917219197,-0.0863844498685224,-0.043203455585284115,0.1296051833737614,-0.5614842378917586,0.23038560172788217,0.04952699999999988,0.07323399999999991,-0.909279,-0.02718900000000013,-0.14251999999999998,-0.910608,0.076716,0.2157539999999999,0.0013290000000000246,0.9849896725727807,0.9891178562831635,double,-0.909279
3,0.025,stand,0.017400696027848522,0.033121324853000594,0.004200168006721138,0.022055151738439516,-0.01503073843550368,0.10904519045518782,0.0003600144005996987,-0.0006000240009373228,0.0001200048001921277,-0.00024000960036427057,-0.005520220808831212,0.0004800192007676781,0.9074142763543813,-0.503502914415255,0.10085644848379922,-0.014394240064708257,0.028790208142215078,-0.02879712013825128,0.057594240281298836,0.11511590455265677,0.014406336069063054,0.04938500000000001,0.07295300000000005,-0.909313,-0.027336000000000027,-0.14284200000000002,-0.910639,0.07672100000000004,0.21579500000000007,0.0013259999999999383,0.9855567367128606,0.99075625424354,double,-0.909313
>>>>>>> 3b0d06690e55fb02323d988053aa126fb7c3a6e7
4,0.033333,walk,0.011280451218026696,0.032401296051841166,0.007920316812673767,-0.0021717141326414655,-0.033523208695507525,0.01652954560758022,0.001080043201719157,0.0,0.0006000240009598058,-0.0013200528021100738,-0.00408016320652568,0.0006000240009598058,-0.7344587555288403,-0.08640691241562799,0.4464357141428812,0.08640691241083143,0.07200576034289245,0.05760460827645243,-0.12961036862424138,0.17281382482965707,0.014401152069138093,0.04930000000000012,0.07268300000000005,-0.909374,-0.027440999999999827,-0.143146,-0.9107000000000001,0.07674099999999995,0.21582900000000005,0.0013260000000000494,0.9846807916034799,0.9927830639014936,double,-0.909374
5,0.041667,walk,0.02375809935206893,0.05483561315093948,0.006719462442997958,0.06289796322933207,-0.11391959494921097,-0.03595396524974234,0.0013198944084453137,-0.0011999040076872464,0.00011999040076805855,-0.0017998560115308694,-0.004079673626120652,-0.0013198944084469788,1.4971980002450485,2.6919026996758233,-0.1440909970813306,0.02877984241974522,-0.1439769627654483,-0.05759942406908414,-0.05757177938814441,5.8744949007448626e-05,-0.2303717793864632,0.04911299999999996,0.07221600000000006,-0.9094289999999999,-0.027654000000000067,-0.14363700000000001,-0.910767,0.07676700000000003,0.21585300000000007,0.0013380000000000614,0.9836403054904042,0.9922494910906592,double,-0.9094289999999999
6,0.05,walk,0.014280571222846542,0.04188167526701592,0.009120364814601704,0.039997320338443956,-0.008055029260356691,0.002386305517206021,0.0013200528021100738,0.0004800192007551876,-0.0004800192007676781,-0.0012000480019279385,-0.003840153606134763,0.0004800192007676781,-1.137348869461465,-1.5545347274599253,0.288119809384825,1.9008000091225328e-05,0.20159884896705074,-0.07200403234558223,0.07197984034596555,0.028743552140392273,0.2159982730366803,0.049004999999999965,0.07187099999999991,-0.909509,-0.027783000000000113,-0.14401799999999998,-0.9108390000000001,0.07678800000000008,0.2158889999999999,0.0013300000000000534,0.984226037666146,0.9932469526716644,double,-0.909509
7,0.058333,walk,0.015360614424565698,0.04644185767431012,0.004680187207489649,0.03794548895356893,-0.0001856122127663501,0.006108617893219116,0.0018000720028919079,-0.0013200528021100738,0.0006000240009598058,-0.00024000960036427057,-0.005040201608062701,-0.0004800192007676781,0.12961036862104358,0.5472437786264484,-0.5328426265585089,0.057604608278151205,-0.21601728103507276,0.12961036862204295,0.1152092165563024,-0.1440115206921803,-0.11520921655290485,0.04889200000000016,0.0714729999999999,-0.9095430000000001,-0.027912999999999855,-0.144447,-0.9108820000000001,0.07680500000000001,0.2159199999999999,0.001338999999999979,0.982757573846089,0.9915521772543173,double,-0.9095430000000001
8,0.066667,walk,0.029757619390451878,0.06371490280776915,-0.0009599232061444684,-0.04971709025312947,-0.04947878151047031,-0.032499104630360924,0.00035997120230084524,-0.00011999040075806734,-0.00011999040076805855,-0.0014398848092300241,-0.0034797216222770284,0.0004799616030714016,1.7275023957146842,2.0725996080464397,-0.6767591089073814,-0.17279827220915076,0.14399596848476198,-0.08639481662201395,-0.14397350718331575,0.18724261888476992,0.11518848138217898,0.04864700000000011,0.07094100000000003,-0.909536,-0.028173000000000004,-0.145007,-0.9108700000000001,0.07682000000000011,0.21594800000000003,0.0013340000000000574,0.98599672810369,0.9936727893690083,double,-0.909536
9,0.075,walk,0.02244089763589792,0.05484219368775244,-0.0004800192007685112,-0.01552398574050804,-0.003309222875235119,0.016356121053590553,-0.0002400096003909172,0.0,0.0003600144005763834,-0.0008400336013282406,-0.005640225609026676,0.0004800192007685112,-0.8780417322157644,-1.0647676851094097,0.05759078427648597,-0.0720005763460654,0.01439942406793081,0.057602880276544144,0.07198502434918805,-0.2592708492439277,6.9120001331519226e-06,0.04845800000000011,0.07048399999999999,-0.909529,-0.02836699999999981,-0.14551100000000006,-0.9108620000000001,0.07682499999999992,0.21599500000000005,0.0013330000000000286,0.9859488608993363,0.9904623232788781,double,-0.909529
10,0.083333,walk,0.024000960038425518,0.05436217448697051,0.003600144005757166,0.036856139812332434,-0.06728990012891362,-0.020293852934573146,0.0007200288011461039,-0.00012000480018213519,0.0007200288011519328,-0.0009600384015370207,-0.004920196807867239,-0.00048001920076851036,0.1872149769023878,-0.05760460827816279,0.48963917034989485,0.11520921655310457,-0.014401152067938927,0.04320345620731419,-0.014401152071136451,0.08640691241562895,-0.11520921655310462,0.04826399999999986,0.07003000000000015,-0.9095530000000001,-0.028575000000000017,-0.14600499999999994,-0.910896,0.07683899999999988,0.2160350000000001,0.001342999999999983,0.9848611308961813,0.9916068101690717,double,-0.9095530000000001
11,0.091667,walk,0.025077993760487624,0.0616750659947222,0.007799376049913821,0.034421004647182486,-0.09314971414273998,-0.050261549956106676,0.0,0.00035997120230084556,0.0010799136069108625,-0.0008399328053864017,-0.004559635229179568,0.0,0.12923370795081676,0.8774767827875803,0.5038675358959273,-0.08639654441397941,0.057592512896925976,0.04318272207330573,0.014411518616584965,0.04326392832825432,0.057597696276519166,0.04805499999999996,0.06951900000000011,-0.909609,-0.02879100000000001,-0.14655699999999994,-0.910961,0.07684599999999997,0.21607600000000005,0.0013520000000000199,0.984582785181087,0.9922727465457318,double,-0.909609
12,0.1,walk,0.027121084843400853,0.05640225609025334,0.004200168006721135,0.0032098241683887626,0.009017098654642366,0.004390600899414483,0.0002400096003909168,0.0008400336013282392,0.00024000960038425518,-0.0013200528021100728,-0.004680187207489645,0.0003600144005763828,0.2451807371790744,-0.6327624990362246,-0.4319222420728049,0.028802304139075554,0.057609792274978186,-0.10079251248369216,-0.05761670427501148,-0.014466816069852026,0.0432034562074142,0.04783099999999996,0.0690559999999999,-0.9096420000000001,-0.029028000000000054,-0.14706600000000003,-0.910993,0.07685900000000001,0.21612199999999993,0.001350999999999991,0.9849799727118757,0.9918731750654373,double,-0.9096420000000001
13,0.108333,walk,0.029761190447621048,0.06732269290770708,0.008280331213246825,0.011268093065209235,-0.04473467735076076,0.029108153715120356,0.00012000480018213538,0.0004800192007818344,0.0004800192007685112,-0.0012000480019279396,-0.0049201968078805705,-0.0002400096003842556,0.31682534552024444,1.3105048382879816,0.48963917034989723,-0.014401152071136627,-0.04320345620381676,0.028802304138276273,0.01440115206793871,-0.028802304139076654,-0.07200576034569049,0.04758399999999985,0.06849900000000009,-0.909707,-0.029286000000000145,-0.14766800000000002,-0.911064,0.07687,0.2161670000000001,0.0013569999999999416,0.9852810415123392,0.9915498099226694,double,-0.909707
14,0.116667,walk,0.032037437005041636,0.06539476841852858,-0.0021598272138183914,-0.04954083463015239,-0.02786590918481046,-0.03222771172705949,0.0008399328053864003,0.0,0.00011999040076722585,0.001079913606929178,-0.005639548836082095,0.0008399328053755765,0.27312773667153656,-0.2313324321068513,-1.2527187937443252,0.08638444986852223,-0.057597696278117824,-0.04320000000015419,0.27357350718227924,-0.08631533815713033,0.12958272207341387,0.04732399999999992,0.06795400000000007,-0.909688,-0.029544000000000015,-0.14825999999999995,-0.911039,0.07686799999999994,0.21621400000000002,0.001350999999999991,0.985075899565644,0.990328131917984,double,-0.909688
15,0.125,walk,0.025561022440873257,0.06852274090963502,0.0007200288011461051,0.0033124108152453916,-0.02039929784968198,0.0038962875352526586,0.00048001920075518796,0.0006000240009639698,0.0004800192007685112,-0.002760110404428932,-0.0036001440057704956,0.0010800432017283174,-0.7772008357336354,0.37537171380132517,0.3455965456575662,-0.04319136021015392,0.07200576034609028,0.043205184207522576,-0.4608213142155422,0.24473836917215905,0.02881440013833446,0.04711500000000002,0.06738800000000011,-0.90969,-0.029779999999999918,-0.14886100000000002,-0.911036,0.07689499999999994,0.21624900000000014,0.0013459999999999583,0.9850299727118609,0.992227945426701,double,-0.90969
16,0.133333,walk,0.03744149765991716,0.0824432977319084,-0.0006000240009639688,0.01807652977446222,-0.11907641755792034,-0.05049704853755232,0.0002400096003909168,0.0009600384015370207,0.0009600384015361881,0.0118804752190173,0.012480499219967946,-0.005160206408256491,1.425714054847461,1.6705336400184043,-0.15841267276011917,-0.028802304135877952,0.04320345620701436,0.05760460827645224,1.7569405524356438,1.9297543772637018,-0.7488599075944801,0.046804999999999986,0.06670900000000013,-0.909677,-0.029992999999999936,-0.14944400000000002,-0.9110739999999999,0.07679799999999992,0.21615300000000015,0.0013969999999999816,0.9837320830247025,0.9700214760951409,double,-0.909677
17,0.141667,walk,0.023758099352042348,0.07799376049916498,0.003839692824577883,-0.0571491041374372,-0.10835112833417611,-0.09792023011274148,0.0007199424046016923,-0.000479961603085557,-0.0002399808015361177,-0.012838972882178966,-0.01871850251979054,0.0051595872330215346,-1.641876446829235,-0.5339017557887475,0.532723401192928,0.05758732951893168,-0.1727861776604969,-0.14399078510586857,-2.966096484424805,-3.743580722313242,1.2382761748593771,0.046613000000000016,0.06605499999999997,-0.9097109999999999,-0.030297999999999936,-0.15025,-0.911063,0.07691099999999995,0.21630499999999997,0.0013520000000000199,0.9849834567687445,0.9612041346107643,double,-0.9097109999999999
18,0.15,walk,0.029641185647438863,0.07800312012480966,-0.0014400576023055312,-0.09319868073179212,-0.0031633213942214456,-0.0371585929930124,0.0019200768030740415,0.0018000720028919063,0.0008400336013440605,0.0002400096003909168,-0.003000120004806521,0.001680067202688121,0.7059985953913969,0.0011232000053612622,-0.6335953950418108,0.14402188869222945,0.273614977316388,0.12960691262212617,1.569540679535566,1.8862813530522025,-0.41755910600424945,0.04638199999999992,0.06542000000000003,-0.909692,-0.030542999999999987,-0.1509250000000001,-0.911037,0.07692499999999991,0.21634500000000012,0.0013450000000000406,0.9819454700454984,0.9942552075617545,double,-0.909692
19,0.158333,walk,0.036481459258380144,0.08520340813632399,-0.0037201488059526245,-0.07527977337553639,0.0869171807589536,0.05147447563566485,0.0021600864034649584,0.00024000960036427038,-0.0009600384015361881,0.00036001440057305197,-0.0030001200047931973,0.001320052802111738,0.8208656679396706,0.8640691241466848,-0.2736218893132235,0.028802304139075568,-0.18721497690239225,-0.21601728103687112,0.014401152067938927,1.5988891944365601e-12,-0.04320345620741421,0.046095999999999915,0.06471199999999988,-0.909669,-0.030844000000000094,-0.15166000000000002,-0.910995,0.07694000000000001,0.2163719999999999,0.0013260000000000494,0.9827800436270904,0.9945043275074981,double,-0.909669
20,0.166667,walk,0.036957043436522036,0.0824334053275729,-0.005999520038396261,-0.12717311657040414,-0.11277923673322607,-0.0014077180972339141,0.00527957763378125,0.005759539236866806,-0.000959923206143635,-0.0004799616030855554,-0.002519798416132558,0.000959923206143635,0.05706553613413616,-0.33237374715035817,-0.2735026676798218,0.37430900291772123,0.6622905731344528,1.3822341319056425e-05,-0.10078905731444764,0.05763397992088301,-0.043212094548608436,0.04583199999999987,0.06407299999999994,-0.909627,-0.031156000000000184,-0.15236800000000006,-0.910937,0.07698800000000006,0.216441,0.0013100000000000334,0.9737800740205949,0.9954352802933581,double,-0.909627
21,0.175,walk,0.036121444857780564,0.0780031201247966,0.00240009600384256,-0.03197639510029687,-0.003540995306226542,0.0029797646795444504,0.003600144005757178,0.0015600624025009946,-0.00024000960038342327,0.0002400096003909176,-0.00408016320652569,0.002880115204608574,-0.10027584048259611,-0.5316554905527796,1.0079942448384547,-0.20154009696676783,-0.5039573784190354,0.08639308841476222,0.08640000041719366,-0.18725126489777225,0.23043225710607748,0.04556099999999996,0.06343600000000005,-0.9096489999999999,-0.03145500000000001,-0.15305199999999997,-0.910933,0.07701599999999997,0.216488,0.0012840000000000629,0.9806084021944256,0.9916666000016028,double,-0.9096489999999999
22,0.183333,walk,0.030001200048011913,0.08328333133326327,0.00888035521421078,-0.019397949048997387,-0.0692675958185045,0.04017475816806953,0.0028801152046110624,0.0008400336013548856,0.0008400336013440605,0.0004800192007818336,-0.002760110404415604,0.004560182407295853,-0.7344587555224585,0.6336506910436414,0.7776622117326552,-0.08640691241403038,-0.08640691241402958,0.12961036862204284,0.028802304139075457,0.1584126727601206,0.20161612896763198,0.0453349999999999,0.06274900000000005,-0.909716,-0.03170099999999998,-0.15376900000000004,-0.910969,0.07703599999999988,0.2165180000000001,0.0012530000000000596,0.982277490305304,0.991080001951686,double,-0.909716
23,0.191667,walk,0.03359731221502972,0.08879289656827,-0.011759059275263068,-0.18330133871306395,0.03256332915114175,0.04286437300822238,0.004919606431480405,0.0021598272138050696,0.00035997120230334275,0.00011999040075806724,-0.002399808015361169,0.0038396928245737075,0.43149894012692636,0.6610949406055585,-2.476531616207563,0.24471936967474692,0.15836256448886282,-0.05760287965451371,-0.04320000000285169,0.04323282806028731,-0.08645183377995494,0.0450959999999998,0.06202699999999994,-0.909615,-0.03198000000000012,-0.15452900000000003,-0.910839,0.07707599999999992,0.21655599999999997,0.0012240000000000029,0.9787851957154357,0.9924507695031678,double,-0.909615
24,0.2,walk,0.05544221768870299,0.08952358094324059,-0.0015600624024876663,-0.09039810499877725,0.09870483751215689,0.04633161688256639,0.006480259210368228,0.0021600864034649584,-0.0008400336013440605,0.0006000240009639688,-0.0033601344053795727,0.005760230409217128,2.6214935165814537,0.08768563242176779,1.2239285818763224,0.1872858248995346,3.110400334678649e-05,-0.1440063366911559,0.05760633627815927,-0.11524377655327045,0.2304737291063745,0.04468799999999984,0.06129899999999999,-0.909609,-0.03243700000000005,-0.15530300000000008,-0.9107780000000001,0.07712499999999989,0.21660200000000007,0.0011690000000000866,0.9768395804160606,0.9888407006403706,double,-0.909609
25,0.208333,walk,0.03804152166085461,0.07680307212288198,0.00240009600384256,-0.03648603238563366,0.04853486654777339,0.08245265161334694,0.00648025921036825,0.0012000480019279415,-0.0013200528021117424,-0.0012000480019279415,-0.003360134405366261,0.004920196807872252,-2.088167050023812,-1.5265221193278096,0.47523801828035955,2.6021893015372784e-15,-0.11520921655310443,-0.05760460827645303,-0.2160172810382713,1.5974840122137354e-12,-0.10080806448396476,0.04442499999999994,0.060669000000000084,-0.90964,-0.032764000000000015,-0.15597099999999997,-0.910757,0.07718899999999995,0.21664000000000005,0.0011170000000000346,0.9776277663386992,0.9898704290074865,double,-0.90964
26,0.216667,walk,0.04163666906648631,0.0759539236861044,-0.010199184065274976,-0.10611875872232246,0.09082544713901061,0.08578697037785911,0.0074394048476129635,0.0027597792176486924,-0.0007199424046075181,-0.001199904007660602,-0.002039836813060324,0.007079433645307955,0.43138317802156206,-0.10188966124041031,-1.5117926648809124,0.11508826940781287,0.18715277366459676,0.07200748710153873,1.727792984634531e-05,0.15842303723373355,0.259087693476806,0.044139999999999846,0.060058999999999974,-0.9095610000000001,-0.033120999999999956,-0.156621,-0.910613,0.0772609999999998,0.21667999999999998,0.0010519999999999419,0.9762010020790133,0.9875591304575699,double,-0.9095610000000001
27,0.225,walk,0.05904236169446016,0.09468378735149874,-0.007320292811723114,-0.07592161905564788,-0.0015898252354730358,0.05540903518685606,0.00912036481461502,-0.00012000480018213519,-0.0003600144005763828,-0.0014400576023188543,-0.0012000480019146143,0.010200408016320854,2.088766666023501,2.24767354678919,0.34548076965700947,0.20172326497084547,-0.3455879056559253,0.04319308820726449,-0.028819584142355935,0.10077868848502448,0.37453190579777945,0.043724000000000096,0.059269000000000016,-0.909503,-0.033625000000000016,-0.15742,-0.9104669999999999,0.07734900000000011,0.21668900000000002,0.0009639999999999649,0.9751462392449434,0.982714633291879,double,-0.909503
28,0.233333,walk,0.0368414736589532,0.07632305292211321,-0.0024000960038292286,-0.037744152065897034,0.019523955728993347,0.11551889887064107,0.009240369614770509,0.0009600384015370207,-0.0014400576023038656,-0.00252010080403801,-0.0010800432017324792,0.012000480019201102,-2.6642131327861445,-2.203376266576925,0.5904472348366592,0.01440115206474122,0.12961036862104344,-0.12961036862204273,-0.12961036862104344,0.01440115206793892,0.21601728103687104,0.04349399999999992,0.058641000000000054,-0.909495,-0.03395300000000012,-0.158065,-0.910347,0.07744700000000004,0.21670600000000007,0.0008519999999999639,0.9758115718855513,0.9794838192535633,double,-0.909495
29,0.241667,walk,0.03911687065035388,0.08567314614830743,-0.016198704103684614,-0.10757167398876871,0.12971233237266908,0.15467506390911925,0.009239260859143861,0.002399808015347855,-0.0017998560115192175,-0.005639548836082114,0.002639788816890634,0.013798896088312614,0.2730257969043302,1.1219214334286347,-1.6557005159413747,-0.00013304003199516743,0.17275853297466257,-0.04317235531741693,-0.37430381953973013,0.44634413470399825,0.21579266488019155,0.04324499999999998,0.05794699999999997,-0.9093749999999999,-0.03432600000000008,-0.15875700000000004,-0.9100969999999999,0.07757100000000006,0.216704,0.0007220000000000004,0.9765899394864184,0.9747687071868425,double,-0.9093749999999999
30,0.25,walk,0.055802232089276045,0.0822032881315308,-0.015960638425529656,-0.06980881762546164,0.05224626465922085,0.06923920665039188,0.008880355214197458,0.0016800672026831248,0.0014400576023038656,-0.006960278411150062,0.004800192007685103,0.01704068162726463,2.0023234656092823,-0.4163996179979149,0.028569024139560563,-0.04307040020957673,-0.08637235241386412,0.3888051858662043,-0.15849388876370424,0.25925875324546593,0.3890298258672764,0.04285399999999995,0.05727599999999988,-0.90923,-0.03484900000000013,-0.15940200000000004,-0.909822,0.07770300000000008,0.21667799999999993,0.0005920000000000369,0.9788268491020335,0.9682951042514655,double,-0.90923
31,0.258333,walk,0.04848193927755309,0.0830433217328593,-0.009720388815552376,-0.09698202409894373,-0.008199937700989111,0.1666645690781504,0.009120364814588404,0.00204008160328283,-0.002400096003840062,-0.009000360014379623,0.007320292811709816,0.0205208208328339,-0.8784702762178052,0.10080806448200011,0.7488599075935792,0.0288023041390792,0.04320345621021314,-0.4608368662119209,-0.24481958517095476,0.30242419345070426,0.41763341000471366,0.042526000000000064,0.05660100000000012,-0.909169,-0.035327999999999804,-0.16003299999999998,-0.90957,0.07785399999999987,0.2166340000000001,0.0004009999999999847,0.9799083119902996,0.9607112804254452,double,-0.909169
32,0.266667,walk,0.0481161507079548,0.08807295416366831,-0.024958003359729513,-0.1385278815473066,0.12364299958704261,0.2088139455933809,0.008759299256058275,0.0008399328053597571,-0.0015598752099830946,-0.011639068874491678,0.006719462443011273,0.027717782577394025,-0.04389111706242988,0.6035076110881931,-1.8283674759031825,-0.043324401071529725,-0.1440063352439491,0.10081842978845292,-0.31661973363475543,-0.07209387673368631,0.8635663240412907,0.04219799999999996,0.05587399999999998,-0.9089740000000001,-0.035825999999999913,-0.16071099999999994,-0.909131,0.07802399999999987,0.21658499999999992,0.00015699999999996272,0.9835355546105433,0.9486597793907077,double,-0.9089740000000001
33,0.275,walk,0.04488179527182226,0.07956318252729706,-0.0085203408136377,-0.03968880983492673,0.0358723609758749,0.1802598424293897,0.006360254410186072,0.00012000480020878121,-0.009120364814592507,-0.004680187207502953,0.018480739229567604,0.018000720028800758,-0.38813817786301785,-1.0212134449023413,1.972598409467388,-0.2878968973805584,-0.08639481641077318,-0.9072950443548998,0.8350992040068037,1.4114096707735848,-1.166094149597171,0.04187699999999994,0.05521200000000015,-0.908979,-0.03623900000000013,-0.16121999999999992,-0.90891,0.07811600000000007,0.21643200000000007,6.899999999998574e-05,0.9814671244311912,0.9556106548382454,double,-0.90891
34,0.283333,walk,0.050042001680054085,0.0813632545301895,-0.02316092643705739,0.03268185781486608,0.0989599661999848,0.18520719708806813,0.012480499219954665,-0.0018000720028919124,-0.0013200528021125753,-0.0190807632305317,0.0213608544341788,0.03636145445817814,0.6192495389693792,0.2160172810383344,-1.7569405524324644,0.7344587555224539,-0.23041843310940818,0.9360748844929738,-1.7281382482933856,0.3456276496593306,2.2033762665759546,0.041563999999999934,0.054518999999999984,-0.908797,-0.03681500000000004,-0.16171999999999997,-0.9084139999999999,0.07837899999999998,0.21623899999999996,0.0003830000000000222,0.9788690814079851,0.9190244485704683,double,-0.9084139999999999
35,0.291667,walk,0.049916006719459026,0.08975281977441447,-0.036477081833449804,-0.05424118095606872,0.06253432181059074,0.18428679116411686,0.006479481641468495,-0.0013198944084453126,-0.005039596832253459,-0.025557955363573137,0.024958003359729513,0.046676265898728114,-0.01511818581654176,1.0066672959233223,-1.5978108227012722,-0.7200645042579991,0.05761670199743213,-0.4463095788505976,-0.7772008798945803,0.43162334119878937,1.2376783585973077,0.04120199999999996,0.05376000000000003,-0.908535,-0.03744400000000003,-0.16225999999999996,-0.907721,0.078646,0.21602,0.0008139999999999814,0.9861432587782425,0.8938976374383247,double,-0.907721
36,0.3,walk,0.05544221768870318,0.07428297131885728,-0.03420136805471984,0.11784569215106981,0.17751178388864555,0.2897148606113399,0.007440297611905274,-0.00648025921036825,-0.004200168006719483,-0.0472818912756518,0.03960158406335561,0.08460338413536614,0.6631718431830275,-1.8564560729097848,0.2730965773106884,0.1153025285535559,-0.6192685469726329,0.10073548848361671,-2.6069765885129863,1.757299976434193,4.551436245846408,0.040802000000000005,0.053086999999999995,-0.908285,-0.0383,-0.16254900000000005,-0.9067310000000001,0.079102,0.21563600000000005,0.0015539999999999443,0.9821275196591741,0.809963937404451,double,-0.9067310000000001
37,0.308333,walk,0.050282011280471314,0.08124324972998018,-0.032401296051841035,0.01823594766107722,0.1374412091958427,0.21866419362674672,0.0038401536061480703,-0.007920316812687057,-0.007800312012480774,-0.020760830433214687,0.06492259690387753,0.06588263530541122,-0.6192495389693801,0.8352668200075448,0.21601728103669754,-0.43203456207334556,-0.17281382483124932,-0.432034562073836,3.1826546072767314,3.038643086586081,-2.2465797227834923,0.04041499999999987,0.052343999999999946,-0.90808,-0.03889200000000015,-0.16268499999999997,-0.905912,0.07930700000000002,0.21502899999999991,0.0021679999999999477,0.9803981955462006,0.8203249464223126,double,-0.905912
38,0.316667,walk,0.029997600191968187,0.10163186945044961,-0.035637149028076964,-0.13759220836139743,0.27681112440369554,0.2439284314508146,0.0022798176145897952,-0.01223902087830874,-0.01283897288216985,-0.044996400287978924,0.06287497000239643,0.09851211903047839,-2.433934615851121,2.4464386513642364,-0.3882712954446782,-0.1872253409597173,-0.5182030316320744,-0.6045909370877256,-2.908035739712548,-0.24569557253193025,3.9152248290217613,0.040184,0.05139500000000008,-0.9078900000000001,-0.039517000000000024,-0.16300800000000004,-0.9047940000000001,0.07970100000000002,0.21440300000000012,0.0030959999999999877,0.9701936609517854,0.7603231830262631,double,-0.9047940000000001
39,0.325,walk,0.04200168006721121,0.08280331213248117,-0.02340093603744815,-0.04407066614926121,0.2772423315039497,0.2304567455371733,0.002640105604220137,-0.016680667226702348,-0.020520820832832933,-0.030961238449522185,0.08820352814113022,0.0972038881555256,1.4405472069174332,-2.2595172588465573,1.4684042950472536,0.0432362882071691,-0.5330188825625333,-0.9218586284247031,1.684286792086485,3.0395485585903854,-0.15699398475372528,0.03985599999999989,0.050566,-0.907866,-0.040124999999999966,-0.16296299999999997,-0.903789,0.07998099999999986,0.21352899999999997,0.004076999999999997,0.9557055651732809,0.7344643409519889,double,-0.903789
40,0.333333,walk,0.04356174246968584,0.07776311052443233,-0.011640465618626424,-0.08506301587272033,0.23001278468318814,0.20049058521499388,0.003000120004819854,-0.01692067682706673,-0.014280571222849075,-0.03768150726030821,0.09996399855993936,0.12480499219968821,0.18721497689603203,-0.6048483869013386,1.4113129027747215,0.04320345621021457,-0.028802304135891417,0.7488599075943686,-0.8064645158749598,1.4113129027732108,3.3122649758985583,0.039518000000000164,0.04977699999999996,-0.907888,-0.040802000000000005,-0.1627780000000001,-0.902652,0.08032000000000017,0.21255500000000005,0.005236000000000018,0.9627603579359822,0.6738345993376944,double,-0.902652
41,0.341667,walk,0.0021598272138317128,0.08759299256058276,-0.007199424046070185,-0.14478441430003816,-0.27724628230332776,0.5226611447431059,0.004199664026878715,-0.012598992080636145,-0.010799136069114437,-0.04091672666185798,0.09863210943124413,0.15298776097912214,-4.967832404110162,1.1794914850192486,0.5328823581180986,0.14393376794562754,0.5185606847168923,0.41773879934420854,-0.3881952725641669,-0.15981391033060027,3.381661720594421,0.0395350000000001,0.04894200000000004,-0.907918,-0.041161,-0.162686,-0.901317,0.0806960000000001,0.21162800000000004,0.006600999999999968,0.9714715970368593,0.6230428513066751,double,-0.901317
42,0.35,walk,0.01176047041880856,0.05400216008641097,-0.003480139205575043,0.1622189366880165,0.11262507365837589,0.40693259683219113,0.00012000480018213558,-0.0070802832113322205,-0.0020400816032636777,-0.04668186727468783,0.1050042001680154,0.16224648985959467,1.1521232695280057,-4.031061139346198,0.4463320341407838,-0.48957869035120477,0.6622715551786797,1.0511285810453355,-0.6918445473214767,0.7646814756715806,1.1110919093330787,0.039438000000000084,0.04843299999999995,-0.907906,-0.04164799999999991,-0.162261,-0.899936,0.08108599999999999,0.21069399999999994,0.007970000000000033,0.9877178150183199,0.5889349685814089,double,-0.899936
43,0.358333,walk,0.008640345613833159,0.07092283691347723,0.023040921636875097,0.05171250171576211,-0.06823274538636394,0.37278284243992954,0.0075603024120873595,-0.0013200528021100684,0.00012000480019129449,-0.07188287531501424,0.12384495379815535,0.16536661466458558,-0.37442995379519833,2.0305624417456123,3.1826546072782946,0.8928714282857545,0.6912552993186282,0.2592207372440854,-3.0242419345165366,2.2609808748517795,0.3744299537970594,0.039428999999999936,0.04783099999999996,-0.908097,-0.042318999999999996,-0.16181999999999996,-0.89875,0.08174799999999993,0.20965099999999992,0.009346999999999994,0.9872073031777848,0.5419494282373287,double,-0.89875
44,0.366667,walk,0.00863930885530021,0.07511399088073133,-0.006839452843782662,-0.25644417249159146,-0.357367018753416,0.38945098083814,0.006239500839952361,0.002519798416132558,0.0029997600191989634,-0.061195104391649865,0.13066954643627243,0.19630429565634797,-0.00012440107186817743,0.5028982442109545,-3.585358109030205,-0.1584835099754016,0.4607452865661894,0.3455429828422925,1.2824299164104103,0.8188856057255904,3.7122247410322005,0.03940900000000003,0.04722599999999999,-0.908015,-0.04290100000000008,-0.16135700000000008,-0.897057,0.0823100000000001,0.20858300000000007,0.010958000000000023,0.9877209171801873,0.4843728364131241,single,-0.897057
45,0.375,walk,-0.008880355214224133,0.07560302412096735,-0.03540141605663446,-0.07293641920924337,0.591823142817096,0.39226973390021,0.008280331213233516,0.004080163206512367,0.0008400336013440632,-0.06816272650904875,0.14244569782791935,0.20340813632545376,-2.10244378609437,0.05868633628177446,-3.427572688449762,0.24490944117138602,0.18725126489617336,-0.25917753724407844,-0.8361481000118692,1.4131946947854255,0.8524949800919016,0.03955200000000003,0.04662999999999984,-0.907713,-0.04339499999999985,-0.16080000000000005,-0.8950670000000001,0.08294699999999988,0.2074299999999999,0.012645999999999935,0.9845514048423657,0.44435535947597654,single,-0.8950670000000001
46,0.383333,walk,-0.004560182407294202,0.05916236649465582,0.00888035521421081,-0.08092642451024695,-0.07063371762483252,0.37494335915800153,0.004440177607112066,0.004320172806929931,0.007320292811712314,-0.06780271210850236,0.08148325933037164,0.28753150126005056,0.5184414744905725,-1.9729578334707278,5.314025113505986,-0.4608368662092235,0.02880230414227344,0.7776622117326613,0.04320345620381547,-7.3157852511157895,10.095207600455659,0.03962700000000008,0.04617300000000002,-0.907726,-0.04392200000000002,-0.16061400000000003,-0.892745,0.0835490000000001,0.20678700000000005,0.014981000000000022,0.9840168702555856,0.35019,single,-0.892745
47,0.391667,walk,-0.026277897768174827,0.06743460523157559,0.0002399808015294561,0.007561183549531851,0.44790082392626807,0.33880502143437735,0.003959683225335938,0.005759539236866806,0.006719462443004612,-0.13198944084471775,0.13678905687545342,0.21742260619150378,-2.6059173699160794,0.9925892412910681,-1.0367619885626764,-0.0576547134360605,0.17271015478004245,-0.07209387673478534,-7.701791305041437,6.6361648122248305,-8.412394416672273,0.039879,0.045659000000000116,-0.907672,-0.044802999999999926,-0.16003599999999996,-0.890935,0.08468199999999992,0.20569500000000007,0.016737000000000002,0.9838408471938103,0.35129779703940733,single,-0.890935
48,0.4,walk,-0.02496099843993581,0.08028321132845649,0.010200408016320819,-0.0802950838140924,0.8177859371331544,0.19791230896212517,0.00552022080883119,0.001560062402474338,0.0022800912036479186,-0.11712468498740955,0.17016680667226983,0.20940837633505377,0.15803424075831154,1.5418944074019982,1.195299077738068,0.18727200089946544,-0.503957378422231,-0.5327458585571433,1.7838420565592394,4.005490195225761,-0.9617460526161014,0.040132999999999974,0.045002999999999904,-0.907738,-0.04557100000000003,-0.15928699999999996,-0.889275,0.085704,0.20428999999999986,0.018463000000000007,0.9897117315495837,0.3251126922587796,single,-0.889275
49,0.408333,walk,-0.019320772830922615,0.06288251530060845,0.018600744029763184,-0.08070748301057912,0.189029752881572,0.23468976897128374,0.003960158406330232,0.0016800672027097766,0.003360134405376253,-0.07668306732269985,0.10344413776550108,0.1058442337693503,0.6768541472474752,-2.0881670500237703,1.00808064483888,-0.1872149768991914,0.014401152074335644,0.1296103686221453,4.853188247295068,-8.007040550434287,-12.428194235653873,0.040327,0.044493000000000116,-0.907865,-0.04604900000000001,-0.158949,-0.888548,0.08637600000000001,0.20344200000000012,0.01931700000000003,0.9909023837629113,0.5290211914729116,double,-0.888548
50,0.416667,walk,-0.030717542596569676,0.0631149508039388,0.003479721622263704,-0.2661016481928791,-0.041339816429191024,0.27564206232922445,0.003359731221518958,-0.0009599232061444676,0.002159827213823387,-0.22186225101991694,0.2337413006959514,0.2663786897048233,-1.3675029716399147,0.027890029197304846,-1.8143775386968402,-0.07204549853746978,-0.3167735071819345,-0.14402534095906705,-17.420108434991235,15.634408798950105,19.26259370476036,0.04061099999999995,0.04395900000000008,-0.9078759999999999,-0.047642000000000184,-0.15752699999999997,-0.886357,0.08825300000000014,0.20148600000000005,0.021518999999999955,0.993153650600479,0.28481,single,-0.886357
51,0.425,walk,-0.04332173286932157,0.07260290411616083,0.021120844833801205,-0.21790388765329624,0.6561084715263485,0.13669918093274902,0.002520100804038019,-0.002280091203647101,-0.0018000720028802544,-0.2740909636385406,0.19464778591143841,0.2558502340093604,-1.5125633352636414,1.1385999414643053,2.117019466163152,-0.10075968048493235,-0.15842649676018683,-0.47520691428100936,-6.267696222083735,-4.69140943051879,-1.263465222064434,0.04099300000000006,0.04333500000000012,-0.9080670000000001,-0.04956500000000008,-0.15650999999999993,-0.884401,0.09055800000000014,0.19984500000000005,0.023666000000000076,0.9935903754714286,0.2633400000000001,single,-0.884401
52,0.433333,walk,-0.036601464058562155,0.05508220328812976,0.020520820832823774,-0.010003452348440802,-0.09039412315214754,0.19645704259054114,0.0010800432017191524,-0.002880115204611053,-0.0002400096003842544,-0.3996159846393905,0.2738509540381611,0.2709708388335534,0.806464515871761,-2.102568202091803,-0.07200576034770532,-0.1728138248312565,-0.07200576034608776,0.18721497689859515,-15.063605064304502,9.50476036562131,1.8145451607095777,0.04130699999999998,0.04285200000000011,-0.9082399999999999,-0.05259000000000014,-0.1546869999999999,-0.8823139999999999,0.09389700000000012,0.19753900000000002,0.025926000000000005,0.9948578102595381,0.24073999999999995,single,-0.8823139999999999
53,0.441667,walk,-0.046316294696424246,0.08255339572834483,0.011639068874491756,-0.45143457390871566,0.12339704544779351,0.1407979789292201,0.00035997120230084735,-0.001919846412288948,0.0,-0.37329013678904266,0.32253419726421023,0.2323014158867296,-1.1656864216297271,3.2962793904745893,-1.0657249770016881,-0.08640172779197373,0.11522303723567438,0.02879884813825963,3.1588490341190316,5.841521865376697,-4.6399595568543335,0.041695999999999955,0.042148000000000074,-0.908337,-0.055315,-0.15268700000000002,-0.880475,0.09701099999999996,0.1948350000000001,0.027861999999999942,0.9967444963210721,0.22138000000000002,single,-0.880475
54,0.45,walk,-0.05256210248409176,0.06696267850714702,0.021720868834751706,-0.2567608657362094,0.12482504211938565,0.09090308511356948,0.00204008160325617,-0.002520100804038002,-0.002160086403455791,-0.4200168006720322,0.3187327493099701,0.18888755550222,-0.7495269155967224,-1.870960904979929,1.2098643898067813,0.20162131296715655,-0.07203340834622002,-0.25922073724418365,-5.6074239629172355,-0.456192002188903,-5.209871641006769,0.04215099999999983,0.04156899999999997,-0.9085359999999999,-0.05837700000000012,-0.15058900000000008,-0.8790819999999999,0.10052799999999995,0.19215800000000005,0.02945399999999998,0.9935066670343832,0.20546000000000003,single,-0.8790819999999999
55,0.458333,walk,-0.06816272650907541,0.06264250570023086,0.04488179527182256,-0.30507908146460655,-0.11061765468709564,0.08104234627314115,-0.00012000480018213558,0.00036001440057305316,0.0010800432017274866,-0.47773910956438526,0.36049441977679275,0.1578063122524901,-1.8721497689888027,-0.5184414744889195,2.7794223493424832,-0.259220737242087,0.3456276496593138,0.388831105866229,-6.926954145248197,5.0116009200555345,-3.729898385903035,0.042718000000000034,0.04104999999999992,-0.9089010000000001,-0.06179000000000001,-0.1481070000000001,-0.8781410000000001,0.10450800000000005,0.18915700000000002,0.03076000000000001,0.9980920452789814,0.19240000000000002,single,-0.8781410000000001
56,0.466667,walk,-0.06899448044156367,0.06599472042235888,0.003359731221492315,-0.06468522533578977,0.25303229990189435,0.03689140446753084,0.0,-0.0007199424046016899,-0.0013198944084469777,-0.5265178785697077,0.5229181665466859,0.20458363330933485,-0.09980248769957488,0.4022335879683241,-4.982249106111135,0.014399424067930822,-0.12958444986497983,-0.2879694756628824,-5.85298404191533,19.489290469149626,5.612829500461329,0.043293000000000026,0.04049400000000003,-0.90894,-0.06560299999999997,-0.14429899999999996,-0.8764639999999999,0.10889599999999999,0.18479299999999999,0.03247600000000006,0.9974942076461653,0.17524000000000006,single,-0.8764639999999999
57,0.475,walk,-0.08052322092884794,0.09300372014880261,0.03924156966279588,-0.6260823193975171,0.24248162181986704,-0.08616465826017539,-0.010080403216125428,-0.003480139205575043,0.012840513620544372,-0.6252250090003674,0.4274570982839269,0.07800312012480493,-1.3835041986420609,3.241209615557878,4.305992852670545,-1.2096967738060067,-0.33123686559142684,1.6993169361564124,-11.84532946485779,-11.455786422988023,-15.190269192911344,0.04388000000000014,0.03969,-0.9091600000000001,-0.07014199999999993,-0.14151199999999997,-0.8761410000000001,0.11402200000000007,0.18120199999999997,0.03301900000000002,0.9721809074390528,0.16981000000000002,single,-0.8761410000000001
58,0.483333,walk,-0.08112324492978472,0.07620304812193082,0.0364814592583667,-0.2193253937297719,0.07777875722008146,-0.04673907727743253,0.0007200288011461016,0.005280211208440274,0.007560302412096519,-0.7147485899435901,0.493699747989925,0.04656186247449872,-0.07200576034282737,-2.0161612896761927,-0.331226497591404,1.296103686220027,1.0512841010458756,-0.6336506910413814,-10.74325944356443,7.9494359421574226,-3.7731018421104134,0.04456199999999999,0.039098999999999884,-0.909401,-0.07542199999999999,-0.13803299999999996,-0.876057,0.11998399999999998,0.17713199999999985,0.03334400000000004,0.9845838068142465,0.16656000000000004,single,-0.876057
59,0.491667,walk,-0.08603311735062132,0.05831533477321646,-0.0007199424046150115,0.31434290624773387,0.21802027840088617,-0.017735591708692794,0.0020398368130470023,0.007079433645312118,0.004319654427645941,-0.7069834413246944,0.46520278377728635,0.029157667386609895,-0.5891375594956315,-2.1463538935342386,-4.463811094670227,0.15836429228472518,0.21588942127091948,-0.38884665040203675,0.9317432948039068,-3.41936215654411,-2.088336343639166,0.045296,0.03867199999999993,-0.9093589999999999,-0.08059699999999992,-0.13464200000000004,-0.8758079999999999,0.12589299999999992,0.17331399999999997,0.033551,0.9857659710028983,0.16448999999999997,single,-0.8758079999999999
60,0.5,walk,-0.0884435377415084,0.08364334573382327,0.003720148805952637,-0.18951774591920753,0.08218121381833175,-0.18678344264035593,-0.001320052802110077,0.0007200288011727528,0.0030001200048007017,-0.8036721468858717,0.47137885515421246,0.05028201128045167,-0.2892620173871462,3.039482894588609,0.5328322585584615,-0.4032028819341279,-0.7631591076610322,-0.15835046476001954,-11.60310879169298,0.741158211559597,2.535022668167746,0.04602200000000001,0.037981000000000154,-0.909365,-0.08655699999999988,-0.13141099999999994,-0.87542,0.1325789999999999,0.1693920000000001,0.033945,0.9944069236952972,0.16054999999999997,single,-0.87542
61,0.508333,walk,-0.09732389295570523,0.08784351374055717,-0.017040681627262078,-0.2410445481225959,0.1915621395774017,-0.1755008463921401,-0.001440057602292203,0.0010800432017191524,-0.0014400576023046935,-0.887795511820471,0.535821432857305,-0.03324132965318592,-1.0656852531137402,0.5040403224209622,-2.4913993079580736,-0.014401152067937779,0.043203456203815924,-0.5328426265577075,-10.095207600455888,7.733418661117516,-10.023201840110072,0.046821,0.03725800000000001,-0.909235,-0.093144,-0.12767800000000007,-0.875555,0.139965,0.16493600000000008,0.03368000000000004,0.9961579717764301,0.16319999999999996,single,-0.875555
62,0.516667,walk,-0.10187185025199239,0.07775377969762247,0.01415886729062433,0.04570214842918065,0.021207674614260413,-0.1457986088477169,0.0,0.0022798176145897952,-0.0002399808015352859,-0.8654907607391488,0.5646748260139339,-0.08255339572834317,-0.5457112186569689,-1.2106712314536547,3.7436463784361154,0.17279308882795913,0.14396141263146744,0.1439976962766276,2.6763560212769817,3.462130208378822,-5.916974571053219,0.0476700000000001,0.03662900000000002,-0.909355,-0.09950799999999993,-0.12361999999999995,-0.8763610000000001,0.14717800000000003,0.16024899999999997,0.03299399999999997,0.9961793110202116,0.17006000000000004,single,-0.8763610000000001
63,0.525,walk,-0.10332413296531825,0.09684387375495006,0.026401056042241338,-0.4252037070890076,0.13833321353580438,-0.30147518966812237,0.0006000240009639668,0.0016800672026831191,0.0007200288011519304,-0.9671186847473905,0.631345253810145,-0.05436217448697866,-0.17428089683497705,2.290902922996221,1.4691214150506369,0.07200576034608955,-0.07197292834593468,0.11520576055288759,-12.195838714537537,8.000771366399945,3.3830818722386162,0.048536000000000135,0.03583599999999998,-0.9095690000000001,-0.10670599999999997,-0.119166,-0.8770340000000001,0.1552420000000001,0.15500199999999997,0.03253499999999998,0.9967936278367424,0.17465000000000003,single,-0.8770340000000001
64,0.533333,walk,-0.11028441137644313,0.08364334573382384,-0.04776191047642063,0.4189386398108579,-0.2514249191938683,-0.1892145552669646,-0.003480139205575066,0.004200168006721177,0.0013200528021117513,-0.9690387615504641,0.5653426137045559,-0.030001200048002222,-0.8352668200077924,-1.5841267276042645,-8.899911978718666,-0.48963917035150245,0.30242419345230787,0.07200576034559299,-0.2304184331061584,-7.920633638016285,2.9234338700320004,0.04942599999999997,0.03517400000000004,-0.9091600000000001,-0.11386200000000002,-0.11515199999999992,-0.876886,0.163288,0.15032599999999996,0.032274000000000025,0.99064655150118,0.17725999999999997,single,-0.876886
65,0.541667,walk,-0.11723062155027576,0.10451163906888163,-0.017998560115188664,-0.4124263766867873,-0.0069451546703025585,-0.16828585259651155,0.00311975041997616,0.002759779217675317,-0.0010799136069116863,-1.004439644828408,0.5436765058795197,-0.08339332853371681,-0.833478542576504,2.5039948806164656,3.5713163380407655,0.7919234011940455,-0.17283282805925718,-0.2879729312483104,-4.247766172059483,-2.599724961007443,-6.406542894854113,0.05042900000000006,0.03432600000000008,-0.909019,-0.12125600000000003,-0.11149200000000004,-0.8774310000000001,0.1716850000000001,0.14581800000000011,0.03158799999999995,0.9928284052967343,0.18411999999999995,single,-0.8774310000000001
66,0.55,walk,-0.11364454578183454,0.08736349453977534,0.0510020400816041,-0.2641936424846385,0.46002821763345764,-0.22460075723344144,-0.005640225609039971,0.005280211208440274,-0.0006000240009598033,-1.070562822512891,0.5462618504740168,-0.03948157926316988,0.43034630606518737,-2.0578596578790616,8.280403239744686,-1.0512391730488533,0.3024639374492915,0.05758905627647678,-7.9350987260869505,0.31025376149011125,5.269620697293502,0.05132899999999996,0.03364200000000006,-0.9094490000000001,-0.12922999999999996,-0.10766799999999999,-0.878185,0.18055899999999991,0.14131000000000005,0.03126400000000007,0.9870843759422576,0.18735999999999997,single,-0.878185
67,0.558333,walk,-0.11784471378855722,0.07464298571943083,0.002880115204597768,0.05195504084385957,0.05757622905061868,-0.20621089289127642,0.008040321612869298,0.01188047521901742,0.0,-1.0867634705388391,0.5892235689427595,-0.004800192007681821,-0.5040403224196233,-1.5265221193261278,-5.774861979720002,1.6417313358825627,0.792063363803817,0.07200576034559088,-1.9441555293349786,5.155612440746807,4.161932947976524,0.052378000000000036,0.03311900000000012,-0.909473,-0.13730399999999998,-0.10338000000000003,-0.878249,0.18968200000000002,0.13649900000000015,0.03122400000000003,0.9760908860317951,0.1877600000000001,single,-0.878249
68,0.566667,walk,-0.12155027597791251,0.08783297336213827,-0.006479481641468453,-0.02299844057497635,0.19329558349188444,-0.1313605455311182,0.01319894408447968,0.019078473722077872,0.03503719702423787,-1.129109671226297,0.5952723782097512,-0.039356851451882946,-0.4446318921712578,1.5826719033726113,-1.123061776585811,0.6189851777790188,0.8636907251092388,4.204127312723494,-5.081137591487574,0.7257990481151486,-4.146467415910831,0.05350100000000002,0.03254599999999985,-0.909127,-0.14570100000000008,-0.09915099999999999,-0.8785229999999999,0.1992020000000001,0.13169699999999984,0.030604000000000076,0.9299641865458881,0.19396000000000002,single,-0.8785229999999999
69,0.575,walk,-0.14160566422656543,0.08292331693267772,0.042241689667589365,-0.13683626415500738,0.34829543458320283,-0.12456824745391723,0.0007200288011461112,-0.0006000240009373283,-0.00048001920076768247,-1.1502460098403986,0.4659786391455665,-0.05064202568102672,-2.4067428595527534,-0.5891823388288244,5.846774428064114,-1.4975297351894497,-2.361514187329339,-4.2622364364581635,-2.536462092175913,-15.51586932247521,-1.3542750785004054,0.05468699999999993,0.031850000000000045,-0.909483,-0.15410600000000008,-0.09595900000000002,-0.879297,0.208793,0.12780900000000006,0.030186000000000046,0.998244936920027,0.19813999999999998,single,-0.879297
70,0.583333,walk,-0.13248529941197518,0.09648385935436368,-0.003960158406330205,-0.36090384493420374,-0.008418299898855395,-0.15342080935650468,-0.004680187207502953,-0.0006000240009639668,0.0036001440057596523,-1.1640465618624747,0.5279011160446313,-0.00996039841593823,1.0944875572531154,1.6273301838096605,-5.5444435466121895,-0.6480518431116095,-3.1967375131524946e-12,0.48963917035009213,-1.6561324879486412,7.430994467666455,4.881990551432656,0.0557519999999998,0.031041000000000096,-0.90942,-0.16270200000000012,-0.092364,-0.8793470000000001,0.21845399999999993,0.1234050000000001,0.030072999999999905,0.9901081939126346,0.19927000000000006,single,-0.8793470000000001
71,0.591667,walk,-0.15370770338373865,0.08003359731222451,-0.036357091432691495,0.1507917336143627,0.1718389265894923,-0.06967472441361151,0.00923926085914377,-0.008159347252214599,0.0005999520038402883,-1.1763858891288517,0.5295176385889089,-0.023278137748979872,-2.5464847578309713,-1.9738735351738719,-3.8873209774851265,1.670200151985435,-0.9070462264519528,-0.35999424069106567,-1.4806008238993151,0.19396718793827264,-1.5980008798945933,0.057109999999999994,0.030306000000000055,-0.909112,-0.17122499999999996,-0.08861800000000009,-0.879238,0.22833499999999995,0.11892400000000014,0.029874000000000067,0.9794317645646632,0.2012600000000001,single,-0.879238
72,0.6,walk,-0.15792631705269494,0.09012360494419214,0.02544101764070466,-0.18718392746245413,0.2163560306833867,-0.12080819526888213,0.003360134405366283,0.008640345613806626,0.00816032641305643,-1.2091683667346906,0.5010200408016414,-0.03588143525740987,-0.5062538904303765,1.210849349810119,7.41606973159687,-0.7055233953891203,2.0160437856739923,0.9072812203547596,-3.9340546748877077,-3.419848528413263,-1.5124561992595837,0.058454000000000006,0.02962699999999996,-0.909256,-0.17998499999999995,-0.08519399999999999,-0.879749,0.23843899999999996,0.11482099999999995,0.02950699999999995,0.9794156880991197,0.20493000000000006,single,-0.879749
73,0.608333,walk,-0.1542061682467269,0.1274450978039125,-0.037081483259330666,-0.5070274039388776,0.07675887656593477,-0.20160982147796536,0.002400096003855867,-0.006240249609977291,-0.007560302412096519,-1.2216488659546292,0.43165726629064516,-0.13860554422176868,0.44643571414472977,4.4787582934981645,-7.503000228013329,-0.11520921654991143,-1.7857428565683253,-1.8865509210551883,-1.4977198151852267,-8.323865895955354,-12.327386171169854,0.05975900000000012,0.02851300000000001,-0.90901,-0.18887999999999994,-0.08265900000000004,-0.880595,0.24863900000000005,0.11117200000000005,0.028414999999999968,0.9831791012440461,0.21585000000000004,single,-0.880595
74,0.616667,walk,-0.18154547636187715,0.08447324214063379,0.007079433645312165,0.12684082473758762,0.5783947525199261,-0.10211804338158562,-0.0014398848092300326,0.0016798656107461687,-0.0016798656107511643,-1.21310295176386,0.4960403167746707,-0.019318454523637556,-3.280454537455053,-5.156210182778852,5.298886117667757,-0.4607608367033743,0.9503377994628635,0.7055959684839679,1.0254276686788049,7.725348030240689,14.313305699319871,0.06125999999999987,0.02782299999999993,-0.909083,-0.197477,-0.079229,-0.880815,0.2587369999999999,0.10705199999999992,0.02826799999999996,0.9953700356360253,0.21732,single,-0.880815
75,0.625,walk,-0.18864754590185076,0.0882035281411169,-0.002280091203647086,0.08131832208096294,0.05421308427580482,-0.09280315128904243,0.0018000720028919003,0.002280091203647086,0.0006000240009598033,-1.2124084963398587,0.5071402856114166,0.00864034561382483,-0.8522824360942735,0.44765222614701755,-1.1231879093914812,0.3888103698694251,0.07202995234620362,0.2735976973132075,0.08333798439954031,1.3320495423911927,3.3551902241044367,0.0628470000000001,0.027106999999999992,-0.9090590000000001,-0.20600799999999997,-0.07573799999999997,-0.8807240000000001,0.26885500000000007,0.10284499999999996,0.028335,0.9950561194070424,0.21664999999999995,single,-0.8807240000000001
76,0.633333,walk,-0.15696627865112917,0.10152406096243968,-0.07332293291731977,-0.24635460089592714,-0.4553108927521378,-0.12100478292642242,-0.007920316812687057,-0.025921036841472827,-0.03228129125164974,-1.2130085203408092,0.5124204968198702,0.011400456018240426,3.8019041462524257,1.5985278796739144,-8.525482024921683,-1.1664933176021741,-3.3842707362438254,-3.9459156669398068,-0.07200576034447279,0.6336506910420804,0.33122649758977374,0.06408899999999984,0.026044999999999985,-0.908717,-0.2148080000000001,-0.07231399999999999,-0.880018,0.27889699999999995,0.09835899999999997,0.02869900000000003,0.9297482041703606,0.21300999999999998,single,-0.880018
77,0.641667,walk,-0.21118310535157114,0.08819294456444028,0.03215742740581323,0.27550613438869626,0.5125851410209555,-0.12091891815469676,-0.007319414446828302,-0.0045596352291795905,-0.011159107271418686,-1.2072234221262352,0.5131989440844732,0.03383729301655774,-6.505498764151942,-1.599605999279995,12.656630708319367,0.07210251570179488,2.5631631404239688,2.5344593208820703,0.6941562532486191,0.09340619925641595,2.6922050633930215,0.06578799999999996,0.02527199999999996,-0.909078,-0.2231090000000001,-0.06877200000000006,-0.880004,0.28889700000000007,0.09404400000000002,0.029074000000000044,0.976495285557843,0.20926000000000006,single,-0.880004
78,0.65,walk,-0.2074882995319914,0.09492379695187601,-0.038401536061440734,0.03250073233919948,0.1751603613902906,-0.134021854217892,0.001440057602292203,-0.004320172806903256,-0.004680187207487964,-1.1999279971198773,0.5450618024721021,0.03696147845913854,0.4433944341269312,0.8077345958761195,-8.467414312642946,1.051178693042178,0.0287366401387656,0.7775015077319927,0.8754860202037569,3.823695954353629,0.37491724979968644,0.06752899999999995,0.02444500000000005,-0.9087970000000001,-0.231379,-0.065021,-0.879376,0.29890799999999995,0.08946600000000005,0.02942100000000003,0.9891165503736994,0.20579000000000008,single,-0.879376
79,0.658333,walk,-0.19776791071641509,0.09528381135245034,-0.061922476899085165,-0.029829973148143858,-0.19007931998783031,-0.1335363682189129,0.004680187207503015,-0.004200168006721177,-0.006600264010560422,-1.1876875075003028,0.5258610344413821,0.06348253930157284,1.1664933176018737,0.043203456207168214,-2.8226258055495794,0.38883110586953584,0.014401152067932273,-0.2304184331060213,1.4689175110493915,-2.3041843310596657,3.1826546072764366,0.06921599999999994,0.02361600000000008,-0.9083359999999999,-0.23962800000000006,-0.06143299999999996,-0.878331,0.308844,0.08504900000000004,0.03000499999999995,0.9848059726106442,0.19995000000000007,single,-0.878331
80,0.666667,walk,-0.2045836333093418,0.09551235901128063,-0.03467722582193203,0.1448533140289878,0.019962357306447232,-0.10379427590438883,0.0017998560115042128,-0.00455963522917953,-0.011159107271418538,-1.1747060235181188,0.5338372930165589,0.08915286777057858,-0.8178212854483624,0.02742352517762056,3.2691685957706897,-0.3456120945522895,-0.04313261608571512,-0.547017429908577,1.5576534655848233,0.9570744630641647,3.080193000840598,0.07093599999999989,0.02278200000000008,-0.90814,-0.24771300000000007,-0.05777999999999994,-0.8772989999999999,0.31864899999999996,0.08056200000000002,0.030841000000000007,0.9796861137956522,0.19158999999999993,single,-0.8772989999999999
81,0.675,walk,-0.18300732029281078,0.0972038881555231,-0.0972038881555231,-0.07574645840963908,-0.4682181938122547,-0.158876588499398,0.00012000480020878121,0.0016800672026831191,-0.0038401536061439066,-1.155166206648264,0.5198607944317754,0.1038041521660851,2.589261132429008,0.20299161697377358,-7.503499620015697,-0.2015902089638095,0.7487942435932584,0.8783095722158408,2.3448718192553417,-1.677246920050822,1.7582244564390324,0.07246200000000003,0.02198600000000006,-0.907362,-0.2558140000000001,-0.05425799999999992,-0.875624,0.3282760000000001,0.07624399999999998,0.031738000000000044,0.9930111583624751,0.18262000000000006,single,-0.875624
82,0.683333,walk,-0.1968078723149047,0.16404656186249017,-0.09492379695187728,-0.7176794553147766,1.633684286344922,-0.4209082852718923,-0.0004800192007818384,0.0024000960038292525,-0.003960158406336086,-1.143045721828871,0.5516620664826598,0.11928477139085777,-1.656132487950805,8.021441702504223,0.27362188931307346,-0.07200576034928897,0.08640691241403335,-0.014401152069144477,1.4545163589815306,3.816305298318102,1.8577486169174144,0.074098,0.020638999999999852,-0.906604,-0.2636989999999999,-0.05102800000000007,-0.873839,0.3377969999999999,0.07166699999999993,0.03276499999999993,0.9922408237364484,0.17235,single,-0.873839
83,0.691667,walk,-0.22366210703141967,0.09839212862968738,-0.09935205183585849,0.03128231369543426,0.7615817302138509,-0.2599080239864125,0.0014398848092300135,0.001799856011530856,0.000839932805375571,-1.1169906407487329,0.5424766018718458,0.13942884569234312,-3.222250385950895,-7.877901755795811,-0.5313480782314831,0.23037005159729268,-0.07202303723282841,0.5759648682159372,3.12635962084688,-1.1021675798912853,2.417095548534341,0.07597399999999999,0.01983400000000013,-0.9057689999999999,-0.27114400000000005,-0.0473269999999999,-0.871849,0.34711800000000004,0.06716100000000003,0.03391999999999995,0.9959113174345242,0.16080000000000005,single,-0.871849
84,0.7,walk,-0.2732509300372141,0.07620304812194516,0.08004320172806663,0.9892021804664748,-0.6644920522244414,0.13945693597107764,0.0007200288011461112,0.0003600144005730556,-0.002880115204608593,-1.0952838113524637,0.5457818312732555,0.15732629305172263,-5.9508967965672515,-2.662796172776002,21.52829155933358,-0.08638617641712575,-0.17278790483113085,-0.44642361814282944,2.6049237245013104,0.396643393904931,2.147779594309333,0.07825700000000002,0.01920199999999994,-0.9064599999999999,-0.27799399999999996,-0.043414000000000064,-0.871205,0.356251,0.062616,0.035254999999999925,0.9950158263153042,0.14745000000000008,single,-0.871205
85,0.708333,walk,-0.15804632185287495,0.13128525141004727,-0.15564622584903243,-1.009564561344646,0.5756334495734096,-0.5369463441268427,-0.000240009600390916,0.00012000480018213478,-0.0014400576023038609,-1.0672026881075247,0.533541341653658,0.16020640825632992,13.825105986360096,6.610128799724214,-28.283862663758317,-0.11520921655310491,-0.02880230413907594,0.17281382482956031,3.3698695841760262,-1.4689175110521433,0.34562764965885995,0.07957199999999998,0.01810899999999993,-0.905175,-0.28557,-0.04006200000000004,-0.8685729999999999,0.36514199999999997,0.05817099999999997,0.03660200000000002,0.997558591220502,0.13398000000000004,single,-0.8685729999999999
86,0.716667,walk,-0.21250299976001363,0.11303095752339708,-0.026037916966631876,0.2830042687211765,-0.6238281517181752,-0.11377237613318737,-0.000479961603058909,0.005159587233023149,0.0019198464122872573,-1.0406767458603283,0.5407967362610996,0.170386369090472,-6.5342786065680665,-2.1903400391948704,15.551752925653895,-0.028791936965201725,0.6047015158196515,0.4031562292525909,3.1828584409882645,0.8705777066764541,1.2214975802906167,0.08133900000000005,0.017209999999999948,-0.904942,-0.29247200000000007,-0.036497,-0.866936,0.3738110000000001,0.05370699999999995,0.038005999999999984,0.9907898736583707,0.11994000000000005,single,-0.866936
87,0.725,walk,-0.23112924516982022,0.039961598463928924,0.11412456498259124,0.6397179557427061,0.04243131617951067,-0.4923632288176465,0.0012000480019013031,-0.0003600144005730556,0.0019200768030715625,-1.011160446417858,0.5227409096363934,0.1740069602784119,-2.2352388587311607,-8.768673834089622,16.82017064073256,0.20160921696390588,-0.6623786911791977,2.7648000036630638e-05,3.5420976170011427,-2.1667858663994166,0.43448832208567445,0.08327499999999999,0.016874000000000056,-0.9058769999999999,-0.2989719999999999,-0.03247399999999989,-0.866437,0.3822469999999999,0.04934799999999995,0.03943999999999992,0.9961788525192101,0.10560000000000008,single,-0.866437
88,0.733333,walk,-0.252370094803787,0.15972638905558473,-0.0642025681027181,-0.728420076898398,-1.3962969314286806,0.0947928015279126,0.000240009600390916,0.002160086403464951,-0.0010800432017274793,-0.9869194767790681,0.5089403576142951,0.16500660026401,-2.549003916232655,14.372349764989236,-21.40011197471602,-0.11520921654990797,0.30242419345229765,-0.3600288017279526,2.9090327179635023,-1.6561324879513057,-1.0800864051844286,0.08538000000000001,0.015560999999999936,-0.905351,-0.30509299999999995,-0.029564000000000146,-0.864527,0.39047299999999996,0.04512500000000008,0.04082399999999997,0.9959550885202957,0.09176000000000012,single,-0.864527
89,0.741667,walk,-0.2543796496280192,0.097672186225087,-0.008759299256058334,0.18852502347130354,-0.02549072669677632,-0.14785094635154358,-0.0005999520038436266,0.0015598752099881005,-0.00239980801535952,-0.9481641468682517,0.5380369570434448,0.17338612910967244,-0.24112728872476158,-7.445908666966413,6.6526600487953065,-0.10078732952178396,-0.0720195816506904,-0.1583591089071332,4.650267567892566,3.49131262648786,1.0054630244375418,0.08749499999999988,0.014760000000000106,-0.905298,-0.310875,-0.025893999999999973,-0.863009,0.3983699999999999,0.04065400000000008,0.04228900000000002,0.9951259668798613,0.07711000000000001,single,-0.863009
90,0.75,walk,-0.25837033481340005,0.11280451218047965,-0.05376215048601969,-0.0008945425255425997,0.09185717238533282,-0.15029964974890603,-0.00012000480018213478,0.0006000240009639668,-0.0014400576023038609,-0.9236769470778871,0.5067802712108436,0.16104644185767314,-0.47890137830083457,1.8159517527172198,-5.400558169922137,0.05759596827810991,-0.11518675255299769,0.11517465655294072,2.9385815181044666,-3.7509523380056504,-1.480821703108034,0.08964700000000003,0.013825000000000198,-0.904862,-0.316419,-0.022610999999999937,-0.8612190000000001,0.40606600000000004,0.036436000000000135,0.04364299999999999,0.9973922147265071,0.06357000000000007,single,-0.8612190000000001
91,0.758333,walk,-0.2636505460218403,0.1160446417856904,0.013200528021114006,0.40733287644911403,-0.1908901972710988,-0.10747152846426199,0.0012000480019279335,0.005760230409195459,-0.005640225609024149,-0.885875435017397,0.48049921996879763,0.15432617304692237,-0.6336506910404682,0.38883110586952324,8.035842854570193,0.15841267276011792,0.6192495389693352,-0.5040403224193293,4.536362901774863,-3.153852303137625,-0.8064645158707243,0.0918540000000001,0.012905999999999862,-0.905019,-0.321604,-0.01957400000000009,-0.860043,0.4134580000000001,0.03247999999999995,0.044976000000000016,0.9864156427283025,0.05024000000000001,single,-0.860043
92,0.766667,walk,-0.2685385169186435,0.1135109191264575,-0.04991600671945936,-0.13118307045583696,-0.20188661976122085,-0.12465026465069869,-0.0008399328053864059,0.0017998560115308798,-0.0019198464122872829,-0.8520518358531395,0.4652027837773028,0.14854811615070915,-0.5865095868494402,-0.3040223973161652,-7.573378298604959,-0.24477811462855184,-0.47520691116685887,0.4464097908251605,4.05850721913339,-1.8354255089386766,-0.6933113626365792,0.09408499999999997,0.011975000000000069,-0.904619,-0.32646700000000006,-0.016642999999999963,-0.858389,0.42055200000000004,0.028618000000000032,0.04622999999999999,0.9953960225448892,0.037699999999999956,single,-0.858389
93,0.775,walk,-0.30049201968079337,0.1140045601824076,-0.0429617184687349,0.25884106102889637,0.36664881908692837,-0.07665416151769347,-0.002760110404428918,-0.002280091203647086,-0.00444017760710371,-0.8335533421336828,0.4448577943117725,0.13716548661946315,-3.834573714406544,0.05923929628586256,0.8345479720058117,-0.23043052910626474,-0.48961325035136793,-0.3024518414516281,2.2199080426564968,-2.44149639571945,-1.3659701825568162,0.09656599999999993,0.011006000000000071,-0.904298,-0.330909,-0.013885999999999954,-0.856888,0.42747499999999994,0.024892000000000025,0.04741000000000006,0.99049383204262,0.02590000000000009,single,-0.856888
94,0.783333,walk,-0.2857314292571689,0.12708508340332783,-0.07980319212768903,-0.26133374123809755,-0.6575088927104472,-0.0936122179678416,-0.0034801392055484196,-0.0002400096003909192,-0.0038401536061447904,-0.7958718348733987,0.41425657026280227,0.13104524180967475,1.7713417045031348,1.569725575533464,-4.421153685221945,-0.08640691241083742,0.24481958517414923,0.07200576034548485,4.5219617497041185,-3.6722937776275693,-0.7344587555248357,0.09891800000000006,0.009945000000000093,-0.9036649999999999,-0.33516,-0.011492999999999975,-0.855131,0.4340780000000001,0.021438000000000068,0.048533999999999966,0.9913532676022381,0.01465999999999995,single,-0.855131
95,0.791667,walk,-0.3287736981041449,0.11447084233262708,-0.0417566594672441,-0.037434031677124016,0.20074572328767085,-0.006434012981449947,-0.003839692824577845,-0.000479961603058909,-0.0031197504199661683,-0.7736981041516631,0.3863690904727593,0.1235901127909745,-5.164659088909972,-1.5135878414567618,4.565218701757217,-0.04314298284490311,-0.02879193696520134,0.08644146702407207,2.6606348358213947,-3.3462298764150176,-0.8945439187305253,0.101626,0.008987000000000078,-0.903343,-0.33886800000000006,-0.009227000000000096,-0.853753,0.44049400000000005,0.018214000000000174,0.04959000000000002,0.9917157366701805,0.004100000000000048,single,-0.853753
96,0.8,walk,-0.30301212048481807,0.12180487219488587,-0.04836193447737064,0.305985050245532,-0.1629651220640582,-0.14319655807358847,-0.0037201488059659354,0.00012000480018213478,-0.002160086403455791,-0.7401896075842944,0.35233409336373905,0.10896435857434324,3.0915129748382024,0.8801187882225793,-0.7926647078034935,0.014345856067671775,0.07199884834285868,0.11516428855278688,4.021180435301633,-4.0843630276035165,-1.7551607124242408,0.10411999999999988,0.007973000000000008,-0.902958,-0.342511,-0.007306000000000035,-0.852442,0.4466309999999999,0.015279000000000043,0.050516000000000005,0.9928275446709514,0.0,single,-0.852442
97,0.808333,walk,-0.33553342133685904,0.12060482419295954,-0.0680427217088804,0.14931771303552155,0.49167403381286723,-0.15671557161609373,-0.009840393615734576,0.00312012480500201,0.0025201008040322066,-0.7275891035641541,0.33553342133685904,0.09948397935917484,-3.902712210733381,-0.14401152069198853,-2.3617889393387665,-0.7344587555224644,0.36002880173045754,0.5616449306957927,1.5121209672555456,-2.0161612896772074,-1.137691013460756,0.10683399999999998,0.006994000000000167,-0.9023699999999999,-0.34577800000000003,-0.005514999999999937,-0.851046,0.452612,0.012509000000000103,0.051323999999999925,0.9822894073304936,0.0,single,-0.851046
98,0.816667,walk,-0.31773458123349696,0.13126949844014182,-0.06371490280776868,0.07208980397421813,-0.5023945317249588,-0.18942717740081952,-0.0077993760499137565,-0.004079673626120621,-0.0005999520038402883,-0.6966642668586434,0.3051355891528609,0.08423326133909322,2.1356899572068566,1.2796585369789064,0.5192967243954513,0.24490251569724064,-0.8639066991987733,-0.37437638683374985,3.7106835499772597,-3.647448066234453,-1.829939767228403,0.10941699999999999,0.005865999999999927,-0.901844,-0.348936,-0.004066000000000125,-0.849813,0.458353,0.009932000000000052,0.05203099999999994,0.9852960751582609,0.0,single,-0.849813
99,0.825,walk,-0.3570142805712334,0.11472458898355521,-0.03792151686067273,0.16337939822435674,-0.10644352654208047,-0.07982790111965495,-0.005880235209404319,-0.005160206408258207,-0.002040081603263691,-0.6687867514700709,0.29161166446659986,0.06216248649945943,-4.7137524706272425,-1.985468553532553,3.095330126856616,0.23030611310565888,-0.12966912062133634,-0.1728224648294031,3.345435664055283,-1.6229358797865279,-2.6485989247130672,0.11234300000000008,0.004866999999999955,-0.901545,-0.351534,-0.0025919999999999277,-0.848979,0.4638770000000001,0.007458999999999882,0.052566,0.9865250407914736,0.0,single,-0.848979
100,0.833333,walk,-0.3483739349573955,0.13872554902195247,-0.0715228609144412,0.41220965805635607,0.0218586974609723,-0.21345607969659636,0.006720268810759123,0.018960758430349434,0.04440177607104209,-0.6548661946477753,0.2688107524300718,0.055562222488899936,1.036882948978505,2.880230413824212,-4.032322579355373,1.5121209672582971,2.894631565895541,5.5732458507507,1.6705336400210717,-2.736218893139082,-0.7920633638016878,0.11530200000000013,0.0038690000000001223,-0.900579,-0.35408799999999996,-0.0015080000000000648,-0.84792,0.4693900000000001,0.005377000000000187,0.05265900000000001,0.9187563662082804,0.0,single,-0.84792
101,0.841667,walk,-0.35193184545235673,0.11735061195106047,-0.0691144708423346,-0.2508824912094995,-0.42922364344606434,-0.19508063396084294,-0.008399328053757375,0.0015598752099614365,0.00011999040076805765,-0.6283897288216951,0.2585793136549211,0.03827693784497209,-0.42691510618685014,-2.564787265525778,0.28898368995759255,-1.814206487222988,-2.0879389513304374,-5.3133892092961,3.1769217453899694,-1.22767443906295,-2.0740682318127805,0.11816500000000008,0.0029039999999997956,-0.900002,-0.35639200000000004,-0.00033100000000008123,-0.8470249999999999,0.4745570000000001,0.003234999999999877,0.05297700000000005,0.9857603526766554,0.0,single,-0.8470249999999999
102,0.85,walk,-0.36697467898716346,0.13896555862234525,-0.0804032161286397,0.1177959969474462,0.3051701916268718,-0.2852158725285634,-0.0032401296051841467,-0.0003600144005730556,-0.006840273610944679,-0.6048241929677163,0.246129845193813,0.02640105604224169,-1.805212232666131,2.5938973564484544,-1.3547036225015237,0.6191285789719518,-0.23039596910290527,-0.8352650920092165,2.8279774215743454,-1.4939959751719911,-1.4251628228405748,0.12119600000000008,0.001742999999999828,-0.899389,-0.35837399999999997,0.0005619999999999514,-0.846135,0.47957000000000005,0.0011809999999998766,0.053254000000000024,0.9873709557303196,0.0,single,-0.846135
103,0.858333,walk,-0.3669746789871586,0.1461658466338577,-0.07980319212768798,0.47826950952664354,0.13490638754974618,-0.3129526990258497,-0.010440417616725059,0.0020400816032828165,0.001560062402496821,-0.5798631945277857,0.23844953798151358,-0.00252010080403134,5.862212058503142e-13,0.8640691241464571,0.07200576034461935,-0.8640691241498718,0.28802304138435886,1.0080806448387694,2.995439630376875,-0.9216737324252242,-3.470677648658695,0.12416699999999992,0.0005420000000000424,-0.898711,-0.360148,0.001330999999999971,-0.845491,0.48431499999999994,0.0007889999999999286,0.053220000000000045,0.9820805779127042,0.0,single,-0.845491
104,0.866667,walk,-0.3974082073434126,0.13306935445164783,-0.06527477801775762,-0.26639108208010615,-0.5829496195602786,-0.14114183015772935,-0.00899928005757447,0.002039836813047016,0.002279817614590628,-0.5515958723302122,0.22678185745139887,-0.013558915286777374,-3.6517312642493627,-1.571453345597546,1.7432702315731272,0.17292267328420893,-2.937247849776189e-05,0.08636371635394902,3.3918073191233025,-1.4000096628407466,-1.3245517737876285,0.12740400000000007,-0.0005500000000000504,-0.898148,-0.361433,0.0021119999999998917,-0.84506,0.4888370000000001,0.002661999999999942,0.05308799999999991,0.9841582878192555,0.0,single,-0.84506
105,0.875,walk,-0.39433577343093695,0.14124564982599047,-0.07668306732268601,0.2563216255394921,0.03502425064311726,-0.2422593070069914,-0.00804032161286919,-0.002880115204611053,0.0027601104044164275,-0.5219008760350449,0.22512900516020412,-0.03948157926317154,0.3687068177697856,0.9811946927088211,-1.3690494785705438,0.11507961654929495,-0.5904178588333192,0.05763744027670678,3.563542097103953,-0.19835020895172667,-3.1108441109317244,0.13062300000000004,-0.001751000000000058,-0.897486,-0.36249600000000004,0.002810999999999897,-0.8447500000000001,0.4931190000000001,0.004561999999999955,0.052735999999999894,0.9850407920706221,0.0,single,-0.8447500000000001
106,0.883333,walk,-0.3876155046201911,0.1405256210248444,-0.08808352334093476,-0.2017425767524187,-0.5434321284035853,-0.22942625678386144,-0.008280331213260108,0.00204008160325617,0.002400096003840046,-0.49225969038760614,0.2090483619344924,-0.04644185767430659,0.8064645158701313,-0.08640691241402551,-1.3681094465677073,-0.02880230413907547,0.5904472348334576,-0.04320345620741391,3.5570845610750754,-1.9297543772604904,-0.8352668200090029,0.13378400000000001,-0.0029050000000001575,-0.8967320000000001,-0.3633679999999999,0.003381999999999996,-0.844403,0.4971519999999999,0.006287000000000154,0.05232900000000007,0.9852345863232046,0.0,single,-0.844403
107,0.891667,walk,-0.4296856251499839,0.1395488360930897,-0.06491480681545678,0.22793398784497979,-0.12482720224924446,-0.1251621584556103,-0.009839212862960876,0.00035997120230084735,0.006119510439164361,-0.458243340532762,0.22618190544755523,-0.08507319414446908,-5.048010622725341,-0.11720481542532844,2.7800235811708807,-0.18705083389738153,-0.20159712034501226,0.44629402871662305,4.08163545174518,2.0558607527073365,-4.635389545255904,0.13728300000000004,-0.004064999999999985,-0.89614,-0.363606,0.0041040000000001076,-0.8445710000000001,0.500889,0.008169000000000093,0.051568999999999976,0.9806790199635946,0.0,single,-0.8445710000000001
108,0.9,walk,-0.4178567142685672,0.12744509780392582,-0.0879635185407393,-0.012109433813411985,-0.33710832373914457,-0.22129173638675068,-0.009120364814588344,0.004560182407320818,0.005400216008640727,-0.443417736709467,0.20628825153006347,-0.11400456018240593,1.4195260868134691,-1.4525066949674594,-2.765956045275703,0.0862652164133601,0.5040455064226512,-0.08631878441421226,1.7791436245403751,-2.3873339634575395,-3.471902800664434,0.14068900000000006,-0.005088999999999899,-0.895362,-0.363819,0.004761000000000015,-0.8447880000000001,0.5045080000000001,0.009849999999999914,0.0505739999999999,0.9807690461553371,0.0,single,-0.8447880000000001
109,0.908333,walk,-0.4344173766950799,0.14412576503060345,-0.08088323532942153,0.19664691536540446,-0.13499480191042418,-0.13666254221145743,-0.008400336013442354,0.0015600624024743586,-0.004320172806912473,-0.4069362774511057,0.1646465858634275,-0.11556462258490512,-1.987358985540966,2.0017601376068384,0.8496679720770239,0.08640691241401605,-0.36002880173364776,-1.1664933175990988,4.377950229012553,-4.99719976798708,-0.1872149768989802,0.14423900000000012,-0.006277000000000088,-0.894724,-0.36358999999999997,0.0049319999999999364,-0.845077,0.5078290000000001,0.011209000000000024,0.049647,0.9840431717054408,0.003530000000000033,single,-0.845077
110,0.916667,walk,-0.4539236861051058,0.1321094312455016,-0.08807295416366773,0.110574359867782,-0.1884518644036062,-0.22786033649452245,-0.00623950083995232,0.0010799136069291708,0.005279577633789541,-0.3692104631629437,0.14878809695225828,-0.14194864410847066,-2.3405698836124014,-1.4418447066356816,-0.8626972443299907,0.25927947846052535,-0.05761324640570964,1.1518779026520207,4.526735575733349,-1.9028664400250908,-3.165829316482523,0.14796999999999993,-0.007368999999999959,-0.8939459999999999,-0.362884,0.005071000000000048,-0.845526,0.5108539999999999,0.012440000000000007,0.04841999999999991,0.9862591925555253,0.015800000000000092,single,-0.845526
111,0.925,walk,-0.45577823112923943,0.13464538581544014,-0.1117244689787605,-0.004571437525748117,-0.4367400763446863,-0.08635807860802844,-0.008520340813624377,0.004440177607085391,0.008640345613823998,-0.33205328213127955,0.13320532821312128,-0.16212648505940064,-0.22255430506823676,0.30432672146148293,-2.8382953096235055,-0.2737117453104582,0.4032478099311419,0.4033082899357305,4.459040085403096,-1.870007048978391,-2.4214377716224518,0.15169699999999997,-0.008454000000000184,-0.8929429999999999,-0.361853,0.005058999999999925,-0.845946,0.51355,0.013513000000000108,0.046996999999999955,0.9784640509142205,0.03003,single,-0.845946
112,0.933333,walk,-0.4944197767910777,0.13428537141484223,-0.11556462258489679,0.05686911029780348,-0.28445711493606235,-0.1496208834650628,-0.01068042721708947,0.0033601344053929296,0.012240489619585479,-0.3030121204848221,0.11772470898834844,-0.18204728189127786,-4.637170966259283,-0.04320345620999773,-0.4608368662110078,-0.25922073724530337,-0.12961036861784123,0.43203456207386465,3.485078800726952,-1.8577486169174344,-2.390591243475028,0.15572799999999998,-0.009544999999999915,-0.8918780000000001,-0.36025799999999997,0.004920999999999953,-0.8465,0.515986,0.014465999999999868,0.04537800000000003,0.9723518327466443,0.046220000000000094,single,-0.8465
113,0.941667,walk,-0.47096232301415003,0.10739140868731502,-0.08627309815215019,0.5536495737143101,-0.3967828569312165,-0.15720555552476864,-0.011759059275249667,-0.0004799616030855522,0.005519558435324824,-0.2632589392848587,0.09935205183585849,-0.20470362371010153,2.8146692796889217,-3.2270173659139676,3.5147017557891025,-0.12942549293978742,-0.4607746590446907,-0.8064472263331658,4.770000143984054,-2.2045424948991856,-2.7185435347760376,0.159555,-0.01044400000000012,-0.891113,-0.35852700000000004,0.004853999999999914,-0.847487,0.518082,0.015298000000000034,0.043626000000000054,0.9783351690841638,0.06374000000000002,single,-0.847487
114,0.95,walk,-0.48181927277091413,0.1196447857914225,-0.08532341293652031,0.2808234672427352,0.20481184671152197,-0.24176032982700227,-0.01092043681748039,0.0018000720028919243,0.011040441617665023,-0.22836913476539128,0.08460338413536087,-0.22452898115924813,-1.3028860862551541,1.4704640710557535,0.11396678454696861,0.10063872048113352,0.27361497731639234,0.6625324831801571,4.186944020096934,-1.769910920496551,-2.37913805941999,0.16347899999999993,-0.011425999999999936,-0.8903099999999999,-0.35641500000000004,0.004561999999999955,-0.8486469999999999,0.519894,0.01598799999999989,0.041663000000000006,0.9739451672955088,0.08337000000000006,single,-0.8486469999999999
115,0.958333,walk,-0.49897995919836524,0.1135245409816524,-0.0789631585263331,0.3074614288127879,-0.5149893796827123,-0.1522969959294548,-0.0134405376214916,0.002400096003829221,0.011280451218048299,-0.1872074882995319,0.06684267370696488,-0.24780991239649452,-2.05936474588396,-0.7344587555226293,0.763261059664849,-0.302424193449082,0.072005760342889,0.028802304138158458,4.9395951597094925,-2.1313705062277584,-2.7938235014096118,0.16752500000000003,-0.01235200000000014,-0.8895580000000001,-0.35381700000000005,0.004172999999999982,-0.8500540000000001,0.5213420000000001,0.016525000000000123,0.039503999999999984,0.9704827220059027,0.10496,single,-0.8500540000000001
116,0.966667,walk,-0.5021598272138184,0.12934965202782628,-0.11615070794337323,-0.4778536736103144,-0.0015648619109582655,-0.3672107209213291,-0.017158627309815593,0.0019198464122889224,0.008039356851451537,-0.1477081833453291,0.05507559395248184,-0.26637868970482154,-0.38155363756336563,1.8988614166275202,-4.462148958128132,-0.4461350717931322,-0.05762534095755876,-0.38890021197465047,4.73953743150978,-1.4119366156087052,-2.2280750309967448,0.17156700000000003,-0.013414000000000037,-0.888523,-0.35086300000000004,0.003554000000000057,-0.8513059999999999,0.5224300000000001,0.016968000000000094,0.037217000000000056,0.9682573035526758,0.12782999999999994,single,-0.8513059999999999
117,0.975,walk,-0.5433817352694262,0.1287651506060376,-0.05844233769349678,0.16228603951767778,-0.05765321961624639,-0.3200420040479462,-0.019320772830922744,0.0025201008040380353,0.0037201488059526618,-0.09972398895956243,0.046681867274688135,-0.28921156846274226,-4.94682683974658,-0.07014297633369494,6.925281441242888,-0.2594678412465104,0.07203340834622805,-0.5183256984878093,5.758333659638438,-1.0072874928349675,-2.740055053152638,0.17593400000000003,-0.01446600000000009,-0.888005,-0.347166,0.002869999999999928,-0.853229,0.5231,0.017336000000000018,0.03477600000000003,0.9669393369871775,0.1522400000000001,single,-0.853229
118,0.983333,walk,-0.5119404776191017,0.11556462258488193,-0.06912276491059864,-0.15699986778644257,-0.5038565220228534,-0.3562896117749551,-0.014640585623419532,0.0008400336013548828,0.015960638425537094,-0.05904236169445996,0.03588143525741606,-0.3129725189007546,3.7731018421126175,-1.584126727607779,-1.2817025341535844,0.5616449306976109,-0.20161612896713615,1.468917511050568,4.881990551434333,-1.2961036862200928,-2.8514281096858576,0.18007800000000007,-0.015421999999999825,-0.8872960000000001,-0.3433919999999999,0.0022060000000001523,-0.855261,0.52347,0.017627999999999977,0.032035000000000036,0.9638754322286982,0.1796500000000001,single,-0.855261
119,0.991667,walk,-0.5371970242380584,0.13282937365010505,-0.08447324214063379,-0.4749486728461267,0.08907805348977753,-0.5113222481955406,-0.016558675305972194,-0.006119510439167692,0.007079433645308002,-0.015478761699069652,0.021478281737452632,-0.32049436045116486,-3.0305431508227567,2.071604399474829,-1.841909914811043,-0.23015234971834322,-0.835078478584427,-1.0656593208818268,5.2272138223410805,-1.7282401631825661,-0.902548782146663,0.18441700000000005,-0.016579999999999817,-0.886533,-0.339044,0.0012780000000001124,-0.857228,0.5234610000000001,0.01785799999999993,0.029305000000000025,0.9683001701440768,0.20694999999999997,single,-0.857228
120,1.0,walk,-0.5624624984999372,0.09600384015362182,-0.051122044881799555,-0.3343636675331631,-0.3388461969005508,-0.4778711917471893,-0.02772110884436473,-0.009600384015370176,0.004080163206528161,0.023040921636861774,0.01488059522381045,-0.3232929317172676,-3.031978190553073,-4.419240789209538,4.0023037632106195,-1.3395456064313558,-0.4177215380058166,-0.3599268497275685,4.62254690218784,-0.7917540517991306,-0.3358419856117498,0.18887299999999996,-0.01746000000000003,-0.886073,-0.33416500000000005,0.0006019999999999914,-0.8594959999999999,0.523038,0.018062000000000022,0.026577000000000073,0.9506352864274603,0.23423,single,-0.8594959999999999
121,1.008333,walk,-0.5492619704788305,0.12036481459256862,-0.10116404656185465,-0.2825992332504475,-0.16934747527055635,-0.45574122567741965,-0.02340093603743514,-0.006360254410186157,0.015000600024001111,0.010200408016320954,0.01800072002878601,-0.32269290771631126,1.5841267276019246,2.923433870028444,-6.00528041282318,0.5184414744905351,0.38883110586632047,1.3105048382902975,-1.5409232713957683,0.3744299537952225,0.07200576034517321,0.19325500000000007,-0.018515999999999977,-0.885105,-0.329503,-0.0002510000000000012,-0.861342,0.5227580000000001,0.018264999999999976,0.02376299999999998,0.9524758936997209,0.26236999999999994,single,-0.861342
122,1.016667,walk,-0.585913126949836,0.12011039116870914,-0.06287497000240892,-0.04668799166706677,-0.14020829544253893,-0.463592250158291,-0.01463882889368305,-0.0035997120230350688,0.029157667386608868,-0.08963282937364249,0.012718982481420772,-0.2613390928725681,-4.397786953564339,-0.030528368593649744,4.59432164140214,1.0513687477504225,0.33123858737113837,1.6987121865379948,-11.97903016438237,-0.633757805059419,7.361868831742581,0.19801600000000008,-0.01954699999999998,-0.884338,-0.32536699999999996,-0.0011459999999998693,-0.862996,0.523383,0.01840100000000011,0.021341999999999972,0.9452931345600475,0.3256210415944941,single,-0.862996
123,1.025,walk,-0.5843033721348923,0.09768390735630623,-0.07512300492018602,-0.3859085699815327,-0.20511441411281472,-0.45885783984953565,-0.002640105604246818,0.00432017280692996,0.0378015120604831,-0.20280811232450446,0.03528141125645256,-0.18984759390375788,0.19317830492544788,-2.69128570891673,-1.469822983052587,1.4399043909079974,0.9504241965636747,1.0373028529790365,-13.58157721719225,2.707599756994119,8.579323049179274,0.2028629999999999,-0.020324999999999926,-0.883397,-0.32218800000000003,-0.0016659999999999453,-0.863952,0.5250509999999999,0.01865899999999998,0.019444999999999935,0.936434889794834,0.3388297134497356,single,-0.863952
124,1.033333,walk,-0.5915036601463909,0.09144365774629978,-0.07812312492500381,-0.13174450090544773,0.20144753241982535,-0.3585873628979537,-0.013080523220918374,0.0034801392055483268,0.051482059282370256,-0.2913716548661878,0.0572422896915673,-0.14040561622464706,-0.8640691241447868,-0.7488599075970649,-0.3600288017301982,-1.2529002300097651,-0.10080806448837376,1.641731335879865,-10.628050227010897,2.6354108286468683,5.933274652479294,0.20768299999999995,-0.02105800000000002,-0.882317,-0.31968700000000005,-0.001951000000000036,-0.864471,0.52737,0.019106999999999985,0.01784600000000003,0.9112805000049083,0.32154,single,-0.864471
125,1.041667,walk,-0.5988720902328022,0.08891288696905648,-0.05927525797936211,-0.01173570593866495,-0.006098504537045752,-0.3947274408806273,-0.01739860811135883,0.009359251259902085,0.06779457643388694,-0.2896568274538125,0.036477081833463855,-0.09143268538517078,-0.8841408790990454,-0.30366819981321663,2.2615631084283727,-0.5181287365539404,0.7054370115615395,1.9573454705443953,0.20576282845876687,-2.4916256129234267,5.876281598209409,0.21252899999999997,-0.0217210000000001,-0.881258,-0.31711,-0.0023880000000000567,-0.8647389999999999,0.529639,0.019333000000000045,0.01651900000000006,0.8823091179047516,0.33481000000000005,single,-0.8647389999999999
126,1.05,walk,-0.6408256330252978,0.06972278891154836,-0.01644065762629789,0.23563814702850103,0.17957619743338174,-0.2534634453553645,-0.029281171246838676,0.011400456018235278,0.0770430817232672,-0.24540981639264703,0.04572182887314989,-0.048121924876994064,-5.034626520160194,-2.302903883056257,5.140357656673883,-1.42596461484215,0.24495436917474583,1.1098650293267849,5.309853721488622,1.109414021323158,5.197499160947554,0.21762499999999996,-0.022207000000000088,-0.880479,-0.31381500000000007,-0.0025880000000000347,-0.8650030000000001,0.53144,0.019619000000000053,0.015475999999999934,0.8613257831740118,0.4215256594117611,single,-0.8650030000000001
127,1.058333,walk,-0.6531861274451142,0.07680307212288248,0.034441377655097666,0.2685070014457592,-0.05665844186944745,-0.13477267375298738,-0.022680907236289027,0.010800432017298254,0.0820832833313345,-0.21396855874234913,0.02064082563303283,-0.10740429617184868,-1.4833186631245003,0.8496679720789857,6.106088477306614,0.7920633638005172,-0.07200576034285727,0.6048483869035576,3.7731018421094666,-3.009840782445373,-7.114169122147505,0.22287900000000005,-0.022756999999999916,-0.8800819999999999,-0.31015499999999996,-0.0030559999999999476,-0.866185,0.533034,0.01970099999999997,0.013896999999999937,0.8569310744268736,0.46052937352919876,single,-0.866185
128,1.066667,walk,-0.6431485481161362,0.061195104391649456,0.010199184065274909,0.42257394136517895,0.13856760819258984,-0.2663561428506478,-0.027237820974319114,0.026997840172776337,0.09071274298056083,-0.15634749220062924,0.02843772498200635,-0.1379889608831281,1.2044131664240338,-1.8728063032436892,-2.9088305243367616,-0.546785905691151,1.943533495977677,1.0354523217214142,6.9139748670169725,0.9355530776306048,-3.6698661760594162,0.228012,-0.023042000000000007,-0.8794109999999999,-0.3060980000000001,-0.0033289999999999154,-0.86742,0.5341100000000001,0.01971300000000009,0.011990999999999974,0.8358558898365938,0.5293202280650633,double,-0.86742
129,1.075,walk,-0.6607464298572017,0.07740309612384647,-0.0012000480019146262,-0.20525152596449042,0.14474584706742122,-0.10133003642449814,-0.026761070442828067,0.020280811232459773,0.10080403216128743,-0.07884315372613869,-0.011160446417871308,-0.19872794911796543,-2.1118302821391612,1.9450368093360324,-1.3679625665654194,0.057212352273017096,-0.8060757158666297,1.211003141812876,9.300892652645057,-4.751970646811235,-7.2889701469864265,0.23329499999999992,-0.023517999999999928,-0.878561,-0.301249,-0.004067000000000043,-0.869066,0.5345439999999999,0.019450999999999885,0.009495000000000031,0.8229177914116774,0.5482369606644181,double,-0.869066
130,1.083333,walk,-0.6692667706708216,0.06924276971079318,0.02604104164166794,0.01400827274356111,0.3594476152430709,-0.13033028270027486,-0.03372134885395065,0.03360134405374188,0.10008400336013198,-0.055922236889483896,-0.01476059042360147,-0.20964838593543525,-1.022481796906254,-0.9792783407000046,3.2690615196906383,-0.8352668200074957,1.5985278796690112,-0.0864069124151485,2.750620045200335,-0.4320345620700947,-1.310504838289887,0.238591,-0.02381500000000014,-0.8779440000000001,-0.296138,-0.004766999999999966,-0.8710300000000001,0.534729,0.019048000000000176,0.006913999999999976,0.8152856001873081,0.5683930768588438,double,-0.8710300000000001
131,1.091667,walk,-0.6540676745860436,0.04847612191025662,-0.029157667386608813,-0.2981745824865114,0.020769235167281807,-0.05520714332799263,-0.024598032157429162,0.04391648668107696,0.12407007439405086,-0.0560355171586278,-0.008279337652999529,-0.2026637868970516,1.8237456305229511,-2.49179839219306,-6.6233152181758825,1.0947104267484595,1.2377180978324072,2.8780982762082234,-0.013592544893676997,0.7776881174228539,0.8380848378190269,0.24383699999999997,-0.023853000000000124,-0.8766670000000001,-0.291154,-0.0052400000000001334,-0.872476,0.534991,0.01861299999999999,0.004191000000000056,0.7768464383448744,0.6073719384357414,double,-0.872476
132,1.1,walk,-0.6827073082923131,0.04008160326410999,0.0043201728069031985,0.23990902863886843,0.004984905823289818,0.12197444687744696,-0.04524180967239471,0.03444137765509674,0.12780511220448634,-0.07800312012479503,-0.022680907236288423,-0.19128765150605667,-3.4368935204930913,-1.007382532838891,4.017501523282303,-2.477352395891658,-1.137058565460225,0.44822246615089567,-2.636217804652208,-1.7282574802938488,1.3651908545535512,0.24914899999999984,-0.023900000000000032,-0.8756379999999999,-0.286115,-0.005762999999999963,-0.8741059999999999,0.5352639999999999,0.01813700000000007,0.0015319999999999778,0.7668621262546825,0.6383104321129793,double,-0.8741059999999999
133,1.108333,walk,-0.6978279131165328,0.06504260170407385,0.061442457698316646,-0.2626978847056315,-0.16377741565535625,0.048358938902525093,-0.04020160806431985,0.04800192007682487,0.1460458418336742,-0.08832353294132685,-0.047161886475469976,-0.09696387855514348,-1.8145451607128127,2.9954396303809054,6.8549483849050725,0.6048483869044652,1.6273301838147427,2.1889751145071425,-1.2384990779469471,-2.937835022102697,11.31930552633074,0.2546289999999999,-0.024041999999999897,-0.8749330000000001,-0.28103600000000006,-0.006698000000000093,-0.875426,0.535665,0.017343999999999804,0.0004929999999999657,0.7302338790847062,0.7676970144663835,double,-0.8749330000000001
134,1.116667,walk,-0.700743940484764,0.07487401007918805,0.05843532517398746,-0.3078440730448043,0.12869276525335288,0.015668755192612772,-0.0490760739140723,0.048356131509470615,0.14878809695224246,-0.11231101511878207,-0.04979601631867399,-0.14074874010079008,-0.34989529256433083,1.179674631043212,-0.36082703675655914,-1.0648507139131733,0.04250197175974838,0.3290442906849345,-2.878267599886614,-0.3160702955608342,-5.2537630844307985,0.26006000000000007,-0.024262999999999924,-0.8741800000000001,-0.27613199999999993,-0.007736999999999883,-0.877086,0.536192,0.01652600000000004,0.002905999999999964,0.697664222116342,0.6886248457862878,double,-0.8741800000000001
135,1.125,walk,-0.6951878075122992,0.07464298571944415,0.07308292331692982,-0.19604433409423283,0.09880155670534681,-0.003944718954784478,-0.05436217448698438,0.0566422656906315,0.16068642745710057,-0.10032401296052641,-0.0486019440777622,-0.12468498739949774,0.6667626272008594,-0.027724032130553196,1.7577820884366373,-0.6343574430471773,0.9943758767743863,1.4278567748539808,1.438497798902648,0.14329440068544327,1.927727433252429,0.26539999999999997,-0.024413000000000018,-0.8734500000000001,-0.27117500000000005,-0.008763999999999994,-0.878734,0.536575,0.015649000000000024,0.005283999999999955,0.6490934514722542,0.7212458140451086,double,-0.8734500000000001
136,1.133333,walk,-0.736589463578547,0.05892235689427861,0.07572302892115,0.013656131972950602,0.44085225252781274,0.14979994005174874,-0.06276251050042674,0.044041761670467965,0.17688707548302132,-0.08172326893074977,-0.04164166566663871,-0.10152406096243936,-4.968397463848334,-1.8865509210567244,0.316825345520245,-1.008080644838885,-1.5121209672583285,1.944155529331681,2.232178570716046,0.8352668200076268,2.779422349341004,0.2710149999999999,-0.02453700000000003,-0.8726069999999999,-0.265718,-0.00960200000000011,-0.880211,0.5367329999999999,0.01493499999999992,0.007604000000000055,0.6026439260846685,0.7719657922924911,double,-0.8726069999999999
137,1.141667,walk,-0.7336213102951784,0.06275497960161089,0.04415646748260525,-0.3519036990223736,0.27577862908648154,0.037939258008176796,-0.07691384689223503,0.060595152387805835,0.17146628269738287,-0.06167506599472169,-0.032397408207342264,-0.0677945764338843,0.35614990201207253,0.45987793464509813,-3.787684357876711,-1.698024525054978,1.98624798624163,-0.6504430988287029,2.405591904970954,1.1092221573429777,4.047214366277275,0.27648800000000007,-0.024554999999999882,-0.8715459999999999,-0.26011799999999996,-0.010394999999999932,-0.881144,0.536606,0.01415999999999995,0.009598000000000106,0.5749295090728488,0.8379856794922109,double,-0.8715459999999999
138,1.15,walk,-0.7286691467658732,0.050762030481227176,0.05880235209408315,-0.15014880337404954,0.19470333020850789,0.14460041278799843,-0.0830433217328865,0.07488299531980842,0.18804752190087762,-0.04740189607584757,0.026521060842437147,-0.06012240489619657,0.5942833948524193,-1.439211462904575,1.7575764564356215,-0.7355664035343251,1.7146097362297754,1.9898282975512898,1.7128489042210786,7.070499105937832,0.9206974124190324,0.2818679999999999,-0.024353999999999987,-0.8704689999999999,-0.25444100000000003,-0.010596999999999968,-0.882135,0.5363089999999999,0.01375700000000002,0.011666000000000065,0.5187034733450339,0.8649587512575025,double,-0.8704689999999999
139,1.158333,walk,-0.7511100444017647,0.031441257650303596,0.09828393135725427,0.25984196751855687,0.30733450563273984,0.20344855089264235,-0.09024360974437186,0.06300252010081597,0.22440897635905002,-0.025081003240130934,0.041521660866428826,-0.07116284651385969,-2.6930154369243993,-2.3185854831301143,4.737979030741681,-0.864069124143193,-1.4257140548412628,4.3635490769436895,2.678614284857344,1.8001440086393157,-1.3249059903591656,0.28737500000000005,-0.024090999999999863,-0.869418,-0.24839100000000003,-0.010512999999999995,-0.883547,0.5357660000000001,0.013577999999999868,0.014128999999999947,0.4421346256369253,0.8564608476892364,single,-0.869418
140,1.166667,walk,-0.770338372930178,0.03947684185265538,0.07079433645308263,0.16092139926585783,0.33094052873613133,0.3635861344972622,-0.09791216702665773,0.09443244540435398,0.24058075353972055,-0.01703863690904466,0.0609551235901083,-0.06923446124310118,-2.307214846221952,0.9641929688447252,-3.2984875094999,-0.9201532616133925,3.771289333277971,1.9404580250384977,0.9650067591896362,2.33182898052314,0.23138772147330863,0.2929789999999999,-0.023633000000000015,-0.868003,-0.24211300000000002,-0.010334000000000065,-0.884714,0.5350919999999999,0.01329899999999995,0.01671100000000003,0.3722642837465477,0.8436594452340757,single,-0.868003
141,1.175,walk,-0.7475099003960076,0.029161166446656544,0.044641785671430755,-0.1354533844421507,0.09515361479397204,0.269889408594615,-0.12240489619582155,0.09072362894515369,0.273370934837389,-0.019560782431299818,0.08196327853113851,-0.061442457698307515,2.7395262851518085,-1.2379305659424766,-3.1384316310634124,-2.939245070102412,-0.4450757781351527,3.9349791548863404,-0.30266956945339196,2.5210794361010245,0.9350778284883624,0.2981880000000001,-0.02312000000000003,-0.866097,-0.236047,-0.00989400000000007,-0.885598,0.5342350000000001,0.01322599999999996,0.01950099999999999,0.30499000000000004,0.8261883295304788,single,-0.866097
142,1.183333,walk,-0.7383895355814257,0.023160926437070864,0.06588263530541542,0.06256186081195325,0.48960019270648364,0.26795941609585705,-0.11148445937839772,0.11076443057722496,0.26845073802952396,-0.016680667226689247,0.06852274090964891,-0.04752190087603554,1.0944875572521273,-0.7200576034544264,2.5490039162348332,1.310504838284403,2.404992395544396,-0.5904472348332036,0.345627649659258,-1.6129290317400362,1.6705336400182529,0.3034119999999999,-0.022390000000000132,-0.864409,-0.23003300000000004,-0.00951600000000008,-0.8865430000000001,0.533445,0.012874000000000052,0.022134000000000098,0.27866,0.8582652933610535,single,-0.864409
143,1.191667,walk,-0.7595392368610523,0.02063834893206595,0.0889128869690408,0.1655830805307264,0.46788120207331946,0.3914981710647962,-0.16282697384207107,0.10883129349651839,0.3002159827213805,-0.015358771298298058,0.05387568994479461,-0.0430765538756894,-2.537761132664555,-0.30268508579372394,2.7634091269048717,-6.1606088869298,-0.2319578930533421,3.8115244410674705,0.15861482222116371,-1.7575055153412755,0.533398968124083,0.30838500000000013,-0.02165499999999998,-0.8626480000000001,-0.223831,-0.009238999999999997,-0.8876430000000001,0.5322160000000001,0.012415999999999983,0.02499499999999999,0.25005,0.8822187607300646,single,-0.8626480000000001
144,1.2,walk,-0.7357494299772055,0.032521300852050246,0.06072242889715721,0.25577318882086814,0.28734521846113387,0.38536829652424875,-0.19860794431779663,0.10656426257050378,0.3654146165846658,-0.010080403216125496,0.02856114244571999,-0.045361814472578886,2.85489102170251,1.4260112708489625,-3.3829902882375915,-4.293888212615612,-0.27205459330548853,7.824149029555488,0.6334295070409949,-3.037867214577565,-0.2742422413163935,0.31286099999999994,-0.021038000000000112,-0.860109,-0.21778399999999998,-0.009271999999999947,-0.8885270000000001,0.5306449999999999,0.011766000000000165,0.028418000000000054,0.21582000000000012,0.9090933384813324,single,-0.860109
145,1.208333,walk,-0.7435497419896641,0.03612144485777984,0.06468258730348575,0.21139002765772003,0.38294918542072043,0.4399529423249646,-0.21672866914675898,0.08196327853113851,0.305532221288847,-0.010440417616698273,0.015840633625320608,-0.04068162726509061,-0.9360748844903911,0.4320345620700269,0.4752380182801475,-2.174573962433941,-2.9522361741707472,-7.186174882493429,-0.043203456206980746,-1.5265221193326726,0.5616449306958115,0.31725099999999995,-0.020656000000000008,-0.858102,-0.21167499999999995,-0.009441000000000033,-0.889405,0.5289259999999999,0.011214999999999975,0.03130299999999997,0.18696999999999997,0.9251868477360938,single,-0.858102
146,1.216667,walk,-0.7066234701224077,0.046796256299510425,0.05003599712023142,-0.05279317477499551,0.18769032170353359,0.34463686091538465,-0.2315814734821243,0.09539236861052511,0.33981281497480864,-0.008999280057601233,0.016438684905214346,-0.04019678425725959,4.430798160218034,1.280874903015453,-1.7574502259724751,-1.7821939447282935,1.6113619005743767,4.11334217494148,0.17292267327778585,0.07176041275422969,0.05817650681917788,0.32121,-0.02025100000000002,-0.855687,-0.20586099999999996,-0.009694000000000091,-0.890157,0.527071,0.010556999999999928,0.03447,0.1553,0.9260818984056466,single,-0.855687
147,1.225,walk,-0.7099483979358956,0.03924156966278177,0.08016320652825996,0.28527869752952234,0.16842402980113985,0.38126316421699125,-0.29461178447135855,0.10908436337453892,0.37909516380654507,-0.009360374414979136,0.030601224048975372,-0.03060122404896205,-0.39900729791045997,-0.9065986603538367,3.615409745353176,-7.5639398763030306,1.6431050958854638,4.714070422625193,-0.04333305620759586,1.6995726801584996,1.1515132855271055,0.32467100000000004,-0.019668999999999937,-0.853196,-0.20002300000000006,-0.009765999999999941,-0.89108,0.5246940000000001,0.009902999999999995,0.03788400000000003,0.12115999999999999,0.9262043656105488,single,-0.853196
148,1.233333,walk,-0.6804272170886975,0.032761310452414524,0.04980199207969015,0.021543211431554278,0.2300968260647482,0.2034644907534628,-0.35257410296413466,0.11676467058681142,0.39409576383055794,-0.008280331213246894,0.036361454458171724,-0.02472098883955355,3.5426834090001673,-0.777662211732546,-3.643491473487351,-6.955756449391172,0.9216737324220056,1.8001440086419074,0.12961036862261505,0.6912552993155412,0.7056564513870818,0.327403,-0.018969000000000014,-0.850327,-0.19442199999999998,-0.009735999999999967,-0.8917010000000001,0.521825,0.009233000000000047,0.04137400000000002,0.08625999999999995,0.9254300003628191,single,-0.850327
149,1.241667,walk,-0.6605471562274946,0.04571634269258001,0.043316534677218854,0.1704423159897252,0.02083578870117945,0.3262152684653098,-0.4767218622510168,0.1390688744900556,0.4430045596352242,-0.004319654427650075,0.023998080153584886,-0.024838012958962957,2.3854164700267235,1.5544795104590095,-0.7781926328859183,-14.896539391274443,2.676290365160067,5.8685860096791345,0.4752431948160294,-1.483486237651397,-0.014041770987449648,0.328935,-0.018190999999999846,-0.846996,-0.18895300000000004,-0.009916999999999954,-0.892269,0.517888,0.008273999999999893,0.04527300000000001,0.04727000000000009,0.9419891257037428,single,-0.846996
150,1.25,walk,-0.6555862234489435,0.03768150726030846,0.02844113764551121,-0.007759456524129803,-0.13370317076941837,0.10939901220964691,-0.46777871114844505,0.1557662306492033,0.37213488539542,-0.0019200768030607374,0.017400696027848682,-0.0224408976359056,0.5953357468560166,-0.9642188206254197,-1.7851190485668764,1.073221061151068,2.0037628896133293,-8.504701096820458,0.28796083338405853,-0.7917177637989037,0.2876653453807007,0.3305,-0.017207000000000194,-0.844132,-0.18350599999999995,-0.01008600000000004,-0.8926930000000001,0.514006,0.007121000000000155,0.048561000000000076,0.014390000000000014,0.9525639376549739,single,-0.844132
151,1.258333,walk,-0.6105844233769384,0.059642385695424724,0.04164166566662539,-0.13126360333877038,-0.003666846337809991,0.10111885267980426,-0.5435017400696084,0.3312132485299557,0.47005880235209885,-0.0019200768030740608,0.013800552022064833,-0.018600744029761643,5.400432025921692,2.635410828647122,1.5841267276028201,-9.087126955617908,21.054484325063484,11.751340088405104,-1.5988631725435607e-12,-0.43203456207654883,0.46083686621192754,0.331059,-0.014944000000000068,-0.840562,-0.17843399999999998,-0.010468000000000144,-0.8931950000000001,0.509493,0.0044759999999999245,0.05263300000000004,0.0,0.9612655188959452,single,-0.840562
152,1.266667,walk,-0.605111591072712,0.05327573794095099,0.020518358531321206,-0.0943161179813164,-0.03546862514250506,0.0036313549314411866,-0.6220302375809981,0.21994240460762654,0.43508519318454075,-0.0005999520038436186,0.01631869450445584,-0.011639068874489936,0.6566873415198486,-0.763936615607594,-2.534594088709386,-9.422665888095642,-13.351433156026916,-4.196497380316514,0.15840230372335395,0.3021529256528663,0.8353341918972468,0.33091799999999993,-0.013554999999999984,-0.837107,-0.173396,-0.010775999999999897,-0.893463,0.5043139999999999,0.002779000000000087,0.05635599999999996,0.0,0.9665781318677512,single,-0.837107
153,1.275,walk,-0.60146405856235,0.041401656066247794,0.006600264010550429,-0.12489692341413129,-0.09425594372518335,0.07080484196108905,-0.6794671786871338,0.3273730949238076,0.5550222008880411,0.001560062402501005,0.01680067202688471,-0.008400336013440689,0.43772141009984605,-1.4249468228373097,-1.6702381520185892,-6.8927086410819935,12.892198525882883,14.393016645085977,0.259212097245247,0.057839616276115856,0.3886634898655078,0.3302680000000001,-0.01117199999999996,-0.832537,-0.16837099999999994,-0.010980999999999908,-0.8935879999999999,0.49863900000000005,0.00019100000000005224,0.061050999999999966,0.0,0.9685860071697804,single,-0.832537
154,1.283333,walk,-0.6242649705988045,0.03852154086163568,0.04932197287892032,0.06904578802961295,0.16317494484708742,0.17533750671650644,-0.6924276971078785,0.27997119884793925,0.5972638905556112,0.000720028801146092,0.011760470418808323,0.0002400096003842512,-2.7362188931302187,-0.34562764965943404,5.126810136609761,-1.5553244234662813,-5.688455067306797,5.069205528329461,-0.1008080644851672,-0.6048483869046318,1.0368829489769336,0.3297,-0.009160000000000057,-0.827971,-0.16316300000000006,-0.011203999999999992,-0.893997,0.49286300000000005,0.0020439999999999348,0.06602600000000003,0.0,0.980358440422126,single,-0.827971
155,1.291667,walk,-0.6087113030957633,0.045596352291823156,0.019798416126706728,0.034402500321141324,0.18685072407417638,0.14178328931579773,-0.7222222222222355,0.28173746100312713,0.6220302375810063,-0.00011999040077139125,0.006599472042226695,-0.00755939524838034,1.866290797101213,0.848909458865804,-3.5425434067931545,-3.575057009162173,0.21193450386224078,2.971723905135051,-0.10079424069084464,-0.6192702635687217,-0.9358537135546844,0.328754,-0.007192000000000087,-0.822952,-0.1580910000000001,-0.011529000000000122,-0.894225,0.4868450000000001,0.004337000000000035,0.07127300000000003,0.0,0.9832741147507453,single,-0.822952
156,1.3,walk,-0.5985839433577362,0.051242049681981004,0.02952118084722959,0.03246451702726383,0.08450064424390806,0.009878750357518737,-0.8593543741749488,0.3541341653665996,0.709468378735137,0.001800072002878553,0.003720148805965886,-0.004920196807872153,1.2153317818344958,0.67751078725042,1.166778437600227,-16.4565164949851,8.68795204169821,10.49299665836184,0.23041670510619353,-0.3455326096556772,0.3167164815202377,0.3265810000000001,-0.0046680000000001165,-0.817286,-0.153088,-0.011924999999999963,-0.894512,0.4796690000000001,0.007256999999999847,0.07722600000000002,0.0,0.9892906968036779,single,-0.817286
157,1.308333,walk,-0.5641425657026279,0.051602064082555424,0.005040201608062748,0.022464767846339617,0.007291704707138407,-0.029370678600294124,-0.8862354494179818,0.32113284531383024,0.6653066122644958,0.0043201728069166365,0.0037201488059393386,-0.002280091203647949,4.133130643838793,0.04320345620717904,-2.937835022100932,-3.2258580634865375,-3.9603168190051177,-5.299623961435448,0.30242419345231086,-3.1858083180860807e-12,0.3168253455207282,0.3238970000000001,-0.002421999999999924,-0.811784,-0.148351,-0.012324000000000002,-0.894573,0.4722480000000001,0.009902000000000077,0.082789,0.0,0.9897663116080995,single,-0.811784
158,1.316667,walk,-0.5703143748500085,0.051715862730989555,-0.0026397888168906074,-0.044740902540454444,0.029679310457660077,0.003814375995596645,-0.9985601151907967,0.363450923926077,0.6555075593952429,0.005879529637624834,-0.00023998080151613289,0.0,-0.7405578530574194,0.013654745432461026,-0.9215251289840768,-13.477881662204704,5.077763212412576,-1.175792280927874,0.18710785105689767,-0.4751775386915577,0.27358905731316674,0.32032799999999995,0.00017599999999995397,-0.806299,-0.14354900000000004,-0.012756999999999907,-0.894551,0.463877,0.012932999999999861,0.088252,0.0,0.9901926247218391,single,-0.806299
159,1.325,walk,-0.5747029881195219,0.05988239529581564,0.04284171366855334,0.19089560437090605,0.1488633594583757,0.004366546434692449,-1.0571222848913866,0.4339373574943114,0.6919476779071252,0.006120244809795237,0.00012000480018213638,-0.0030001200048007217,-0.5266546585279602,0.9800231087034874,5.457998618198052,-7.027741473729804,8.458710376603271,4.37298914099156,0.028886976139494282,0.04320000020380086,-0.36002880172815904,0.31630800000000003,0.0032929999999999904,-0.80089,-0.13870900000000008,-0.013255000000000017,-0.894933,0.4550170000000001,0.016548000000000007,0.09404299999999999,0.0,0.9886382075789197,single,-0.80089
160,1.333333,walk,-0.5552622104884155,0.05796231849274004,0.01920076803071345,0.017181632666273768,0.18747479232521147,-0.0003577900242181281,-1.149885995439795,0.4634585383415294,0.608184327373083,0.006240249609990531,0.0008400336013282252,-0.007440297611904292,2.3329866351981363,-0.23041843310639207,-2.837026957619042,-11.132090549430801,3.542683409002458,-10.052004144250652,0.014401152069517767,0.0864069124140257,-0.5328426265574815,0.3113530000000001,0.006672000000000011,-0.795982,-0.13402999999999998,-0.01373100000000016,-0.8951549999999999,0.4453830000000001,0.02040300000000017,0.09917299999999996,0.0,0.983754966553841,single,-0.795982
161,1.341667,walk,-0.545836333093366,0.06491480681544431,0.020878329733622605,0.11225421979732392,0.03370807227971062,-0.07221859813738073,-1.284977201823888,0.5304775617950674,0.5183585313175033,0.005879529637624991,0.0027597792176753907,-0.006959443244540036,1.1310148062214662,0.8342318601757145,0.20129130104501888,-16.209647994251927,8.041639483266058,-10.77823326800833,-0.04328293404914173,0.23035104587799402,0.057697908251051776,0.30519300000000005,0.010552000000000117,-0.791836,-0.129432,-0.014248999999999956,-0.8953869999999999,0.43462500000000004,0.024801000000000073,0.10355099999999995,0.0,0.9841343224779613,single,-0.791836
162,1.35,walk,-0.571942877715091,0.07092283691347628,0.04296171846873433,0.27693571832535,0.20261631933997615,0.09071993233672854,-1.3909756390255388,0.53594143765748,0.4166566662666437,0.005880235209404162,0.0024000960038291887,-0.0002400096003842512,-3.1329106710337884,0.7209924514618822,2.6501126527194696,-12.720321277048942,0.6556913311427454,-12.204711994582722,8.467200038053797e-05,-0.04316371221003189,0.8063642918703549,0.29836799999999997,0.014426999999999968,-0.7887219999999999,-0.12461700000000009,-0.014820000000000055,-0.895747,0.42298500000000006,0.029247000000000023,0.10702500000000004,0.0,0.9894071261435669,single,-0.7887219999999999
163,1.358333,walk,-0.5330613224529098,0.08016320652827542,0.04104164166567474,0.28605498113576006,0.05638373981820829,0.06861177579389774,-1.4633385335413596,0.6323052922116904,0.31525261010440925,0.005040201608076071,0.004080163206539041,0.003480139205568404,4.6659732703926,1.1088887093242799,-0.23041843310447718,-8.683894697686481,11.56412511150981,-12.168973498408183,-0.10080806448195113,0.2016161289703429,0.4464357141428884,0.290616,0.019027999999999823,-0.786437,-0.12013299999999993,-0.015454000000000079,-0.89606,0.4107489999999999,0.0344819999999999,0.10962299999999991,0.0,0.9877341108792421,single,-0.786437
164,1.366667,walk,-0.5251979841612588,0.07511399088073083,0.0506359491240737,0.2630085356547224,0.02211105804198395,-0.048237926823366244,-1.5283177345812216,0.6611471082313516,0.21286297096232112,0.0029997600191914503,0.010079193664503522,-0.0034797216222703414,0.9435251129890712,-0.605857409112618,1.1512247970241045,-7.796880374353431,3.4607410630742694,-12.285773835143669,-0.24483340399383308,0.7198260688702226,-0.8351164900214414,0.28225599999999995,0.023911999999999933,-0.785085,-0.11573100000000003,-0.01599600000000012,-0.8965110000000001,0.397987,0.039908000000000055,0.11142600000000003,0.0,0.9815385410721715,single,-0.785085
165,1.375,walk,-0.566662666506666,0.088443537741509,0.06684267370693912,0.48393626211480856,0.22616324009537384,0.273692510564888,-1.569542781711277,0.7487099483979288,0.09312372494899868,0.0038401536061481215,0.009240369614797248,-0.009480379215169015,-4.975960919885695,1.599609607677702,1.9448847453336817,-4.9472035437484525,10.5079611384349,-14.369284292970544,0.10085126448538088,-0.10066291248125304,-0.7201077154564658,0.273899,0.02941399999999983,-0.784866,-0.11097699999999999,-0.016656000000000004,-0.8971469999999999,0.384876,0.04606999999999983,0.11228099999999996,0.0,0.9770260533792268,single,-0.784866
166,1.383333,walk,-0.5210608424337103,0.08580343213728882,0.07272290891635677,0.4011151896792973,0.08670609347012781,0.1368064858928806,-1.6265450618024948,0.7922716908676416,0.03108124324972805,0.0016800672026831415,0.00540021600862248,-0.007080283211328105,5.4724377862661795,-0.316825345520245,0.7056564513881797,-6.840547232835509,5.227618201093626,-7.445395619737332,-0.25922073724528977,-0.46083686621562503,0.2880230413825672,0.264687,0.035300999999999805,-0.7852129999999999,-0.10662099999999997,-0.017326000000000175,-0.8978119999999999,0.37130799999999997,0.05262699999999998,0.112599,0.0,0.9848970781802246,single,-0.7852129999999999
167,1.391667,walk,-0.5119990400767791,0.09755219582432763,0.08327333813295874,0.5100589864326075,0.07577816606813612,0.18258505974363487,-1.6822654187664765,0.7535397168226561,-0.10715142788576891,-0.0007199424046016851,0.00311975041997616,-0.004319654427645913,1.0873292964880183,1.4097388633355796,1.2659502299738292,-6.68590796304071,-4.647465088191171,-16.586593608770805,-0.287978114625007,-0.2736339799191628,0.3312489541255305,0.254934,0.040767999999999915,-0.7868,-0.10236,-0.018113000000000046,-0.8985420000000001,0.357294,0.05888099999999996,0.11174200000000001,0.0,0.9910385743130834,single,-0.7868
168,1.4,walk,-0.4989799591983719,0.10272410896435566,0.08940357614304602,0.4899694781868066,0.12953211628022454,0.1309831744064075,-1.7509900396016025,0.8087123484939532,-0.15720628825152885,-0.002400096003842576,0.004200168006721177,-0.003600144005760533,1.5623521994968577,0.6206544029794886,0.7356579875299809,-8.247284391590856,6.620980639781311,-6.006823516831921,-0.2016264969687875,0.12965529662126812,0.08634470441442291,0.24450099999999997,0.046651,-0.7888550000000001,-0.09822200000000003,-0.018934000000000006,-0.899317,0.342723,0.065585,0.11046199999999995,0.0,0.9899497223677709,single,-0.7888550000000001
169,1.408333,walk,-0.5075003000119962,0.10896435857433014,0.09864394575782731,0.6131388268724591,0.1162264009040245,0.2739137933276602,-1.7373094923796601,0.7694707788311499,-0.2307692307692277,-0.0019200768030740096,0.002520100804037968,-0.004560182407295776,-1.0224817969067737,0.7488599075932278,1.1088887093221087,1.6417313358864876,-4.709176726605383,-8.827906218372442,0.05760460827655802,-0.20161612896714026,-0.1152092165528893,0.23425300000000004,0.05215500000000017,-0.7916000000000001,-0.09400900000000001,-0.019820999999999867,-0.900177,0.32826200000000005,0.07197600000000004,0.10857699999999992,0.0,0.9907454415766509,single,-0.7916000000000001
170,1.416667,walk,-0.5046796256299644,0.10415166786658356,0.09071274298056074,0.46411210963300303,0.09965033409661182,0.29100154132006695,-1.8920086393088917,0.8437724982001513,-0.3104151667866637,-0.003359731221505704,0.0017998560115042607,-0.006719462443004746,0.3384538495358617,-0.5774766867946568,-0.9516681998160211,-18.562412638497065,8.915493084833555,-9.55674778226992,-0.1727447106349558,-0.08642246130714196,-0.25909287685493293,0.22269100000000008,0.05831900000000001,-0.794943,-0.089831,-0.02067400000000008,-0.900989,0.3125220000000001,0.07899300000000009,0.10604600000000008,0.0,0.9871246951421357,single,-0.794943
171,1.425,walk,-0.4736589463578368,0.11028441137644018,0.08604344173766412,0.5573934565317242,0.05819993536917554,0.28549569567146804,-1.8893555742229469,0.8634345373814877,-0.4224168966758591,0.009600384015370047,0.01824072962920309,0.03576143045721762,3.722630417871961,0.7359586595291633,-0.5603385626900922,0.3183805455352005,2.359539083323654,-13.440745216511871,1.5552760394666416,1.9729837534739638,5.097911064469174,0.21089399999999991,0.06459500000000018,-0.79918,-0.08580399999999999,-0.02144099999999982,-0.901408,0.2966979999999999,0.086036,0.10222799999999999,0.0,0.9312053882319369,single,-0.79918
172,1.433333,walk,-0.47245889835594806,0.10380415216610148,0.08316332653306864,0.4325171883337588,-0.055850290030388626,0.2710356366305232,-2.009240369614797,0.8102724108964275,-0.5313812552502134,-0.005280211208453667,0.003120124804975364,-0.0038401536061439577,0.14401152068747528,-0.7776622117291211,-0.3456276496574473,-14.386750917058846,-6.379710366621939,-13.07624607876579,-1.7857428565731248,-1.8145451607137721,-4.752380182810746,0.19808800000000004,0.07048199999999993,-0.804301,-0.08191099999999996,-0.022280000000000078,-0.9021330000000001,0.279999,0.09276200000000001,0.09783200000000003,0.0,0.9879396668413345,single,-0.804301
173,1.441667,walk,-0.44516438684904763,0.1339092872570058,0.052435805135591235,0.4321655938962917,-0.27638882999928466,0.18235167598961866,-2.120950323974069,1.0155987520998275,-0.5043196544276434,-0.004439644828408142,0.0014398848092300135,-0.0026397888168947707,3.2750793744780684,3.612327224730512,-3.6870076070886935,-13.404122193337058,24.637189969210272,3.247132328122129,0.10085989681371708,-0.20161267047580245,0.14403225212973098,0.184122,0.07783000000000007,-0.808941,-0.07823799999999992,-0.02338399999999985,-0.9025920000000001,0.2623599999999999,0.10121399999999992,0.09365100000000004,0.0,0.9910631537590986,single,-0.808941
174,1.45,walk,-0.45949837993519815,0.1128045121805078,0.06060242409696175,0.296948295931273,-0.15025204781744728,0.26736154941499035,-2.1974078963158687,0.8643945757830477,-0.5603024120964898,-0.005160206408258207,0.0007200288011461112,-0.005040201608064413,-1.7201479762571286,-2.5326743161524288,0.9800334767035394,-9.175275692043733,-18.14522696709243,-6.718199648247562,-0.08647084841594527,-0.08638617641712575,-0.28806105738265503,0.16964,0.08409299999999997,-0.814115,-0.07445199999999996,-0.024318000000000062,-0.903139,0.24409199999999998,0.10841100000000004,0.08902399999999999,0.0,0.9879181260766106,single,-0.814115
175,1.458333,walk,-0.4660986439457495,0.12156486259449333,0.04992199687987096,0.2521025069642814,-0.0465821683902049,0.2703533641631155,-2.168366734669349,0.8625945037801328,-0.6739469578783012,-0.005520220808831116,-0.0010800432017191379,-0.004440177607104484,-0.7920633638007013,1.0512841010422864,-1.2817025341522392,3.4850788007343203,-0.21601728104102302,-13.637891009457505,-0.04320345620699657,-0.2160172810350675,0.07200576034560409,0.155455,0.09026800000000001,-0.820147,-0.07061399999999995,-0.025339999999999918,-0.903592,0.22606899999999996,0.11560799999999993,0.08344499999999999,0.0,0.9880563233514708,single,-0.820147
176,1.466667,walk,-0.4706023518118617,0.12239020878330217,0.04727621790256935,0.29168354774662086,-0.10995863851886746,0.38574072500614154,-2.22378209743225,0.9138468922486456,-0.6537077033837427,-0.011279097672191058,0.014518838492898728,-0.020998320134389833,-0.5404017117965312,0.09903361996746626,-0.31746807982981273,-6.649311586621322,6.149794632651036,2.4285162580464146,-0.6910099428077816,1.8717160660688938,-1.986818157821654,0.14084399999999997,0.09686400000000006,-0.825989,-0.06678600000000001,-0.026239000000000123,-0.904161,0.20762999999999998,0.12310300000000018,0.07817200000000002,0.0,0.9534840480185075,single,-0.825989
