frame_id,timestamp,gait_type,root_linear_velocity_x,root_linear_velocity_y,root_linear_velocity_z,root_angular_velocity_x,root_angular_velocity_y,root_angular_velocity_z,left_linear_velocity_x,left_linear_velocity_y,left_linear_velocity_z,right_linear_velocity_x,right_linear_velocity_y,right_linear_velocity_z,root_acceleration_x,root_acceleration_y,root_acceleration_z,left_acceleration_x,left_acceleration_y,left_acceleration_z,right_acceleration_x,right_acceleration_y,right_acceleration_z,left_pos_rel_x,left_pos_rel_y,left_pos_rel_z,right_pos_rel_x,right_pos_rel_y,right_pos_rel_z,step_length,step_width,step_height,left_contact_prob,right_contact_prob,support_type,max_foot_height
1,0.008333,stand,-0.006480259210368234,-0.11724468978759219,0.011400456018235477,-0.03021182801961296,0.42191935616385196,0.09368039295828307,0.0003600144005730523,0.0010800432017258185,-0.0006000240009598058,-0.0003600144005730523,0.0009600384015370216,-0.002400096003840056,0.0,0.0,0.0,0.0,0.0,0.0,0.0,0.0,0.0,-0.058948,-0.09468100000000002,-0.9105749999999999,0.015471000000000013,0.17146000000000006,-0.90459,0.07441900000000001,0.26614100000000007,0.005984999999999907,0.9978551531471779,0.9358001133703489,double,-0.90459
2,0.016667,stand,0.001439884809203381,-0.11975041996640254,-0.019438444924405503,0.03048028619880919,-0.026821271217106903,0.17943272181283884,-0.00011999040078471056,0.00035997120230750603,0.0002399808015352845,-0.00047996160308555583,0.002159827213818393,-0.0011999040076789203,0.9503412550481897,-0.3006635683717726,-3.700372083350249,-0.057595968485452696,-0.08640172779197414,0.10079251289837896,-0.014392512900468385,0.14396314042253075,0.1440115186178468,-0.05896100000000004,-0.09367999999999999,-0.910411,0.015454999999999997,0.17247600000000002,-0.904438,0.07441600000000004,0.266156,0.005973000000000006,0.9992517283843626,0.9360751001993057,double,-0.904438
3,0.025,stand,-0.005640225609013348,-0.11748469938797644,0.0015600624025009907,0.04046643581853337,0.24978488201795662,0.11780319875064174,-0.0007200288011461046,0.0010800432017258185,0.0012000480019204443,-0.0007200288011461046,0.0022800912036470954,-0.00180007200288025,-0.8496472360754505,0.2718973453049439,2.519921676095823,-0.072007488342901,0.08641209641405406,0.11521267255312129,-0.028809216135911288,0.014432256069687064,-0.07202304034577339,-0.05892000000000008,-0.092692,-0.9104140000000001,0.015495999999999954,0.17347400000000002,-0.904466,0.07441600000000004,0.266166,0.005948000000000064,0.9970536981754017,0.9355318149072639,double,-0.904466
4,0.033333,stand,-0.012600504020163416,-0.13404536181447008,-0.0037201488059526275,-0.07962425252439727,0.13676048065704474,0.07705188294728013,-0.0006000240009639692,-0.000840033601341563,0.0019200768030723776,-0.0003600144005730523,0.004320172806916597,-0.0019200768030723776,-0.8352668200108087,-1.9873589855386578,-0.6336506910420758,0.014401152067938959,-0.23041843310541,0.08640691241472859,0.04320345620701455,0.24481958517574717,-0.014401152069138072,-0.058820000000000094,-0.091582,-0.910367,0.015598,0.17462700000000003,-0.904451,0.0744180000000001,0.26620900000000003,0.005916000000000032,0.996366674242052,0.9329377854053544,double,-0.904451
5,0.041667,walk,-0.011999040076792533,-0.13726901847852577,-0.018958483321333267,0.013420381177585353,0.06669624979165943,0.06535948196101077,-0.0013198944084453137,-0.0007199424046083513,0.001919846412286439,-0.00035997120230084524,0.0049196064314804095,-0.0019198464122872716,0.07216989961253696,-0.3868078550582782,-1.8284538655364337,-0.08637753869466575,0.014409790824719432,-2.7644682738024954e-05,5.183377994607136e-06,0.07192628084518993,2.7644682638112874e-05,-0.05873100000000009,-0.09044399999999997,-0.910193,0.015695000000000014,0.17581200000000002,-0.904309,0.0744260000000001,0.266256,0.005884,0.9959358448458342,0.9323380077593422,double,-0.904309
6,0.05,walk,-0.009120364814588382,-0.11748469938796978,0.01080043201728483,-0.02763995533940008,0.3713321277056064,0.08152402284719398,-0.0009600384015370216,-0.000840033601341563,0.0008400336013440611,-0.00048001920078183396,0.005520220808831212,-0.0018000720028794174,0.3454548496584845,2.3742132593970946,3.571212689141737,0.043184448206923326,-0.014411520068788163,-0.1295827206219102,-0.014406336071161494,0.07207660834643018,0.014373504069105267,-0.05866300000000013,-0.089472,-0.9102760000000001,0.015766999999999864,0.17683699999999997,-0.904414,0.07443,0.26630899999999996,0.005862000000000034,0.99745431376028,0.9316698227177582,double,-0.904414
7,0.058333,walk,-0.008040321612869225,-0.13272530901236,0.0014400576022922092,-0.04171078467691211,0.2504871183010399,0.10076098937487897,-0.0008400336013282398,-0.0020400816032695016,0.0016800672026881223,0.0026401056042201477,0.004200168006721138,-0.0006000240009606385,0.12961036862104358,-1.8289463127793362,-1.1232898613935702,0.014401152071136658,-0.14401152069218032,0.10080806448386669,0.3744299537983897,-0.15841267276011928,0.1440115206910811,-0.05860299999999996,-0.08838300000000004,-0.9102739999999999,0.01585599999999987,0.17797799999999997,-0.904431,0.07445899999999983,0.266361,0.005842999999999932,0.9953781271217697,0.9332414017306087,double,-0.904431
8,0.066667,walk,-0.015838732901370407,-0.14146868250540448,-0.005039596832251798,-0.06519930764277371,0.1358535329576912,0.019787207385062504,-0.00251979841613256,-0.0013198944084453137,0.0016798656107511545,-0.0010799136069025357,0.006479481641468501,-0.0016798656107511545,-0.9357344958604727,-1.0491208894941795,-0.7774963324386857,-0.20155565332425246,0.08641555013489176,-2.4189097308348765e-05,-0.44636659600704137,0.2734957565091628,-0.12957062752465995,-0.05849199999999999,-0.08721499999999999,-0.910218,0.015978999999999965,0.179211,-0.904403,0.07447099999999995,0.266426,0.005815000000000015,0.9944940805143783,0.930549576678199,double,-0.904403
9,0.075,walk,-0.013200528021127396,-0.13968558742349685,-0.002280091203647097,0.02398850044409349,0.26169883351138884,0.04550414106494708,-0.0007200288011461051,-0.001200048001921278,0.0010800432017283174,0.003120124805001984,0.008880355214210794,-0.0001200048001921278,0.31659724951914225,0.2139799690276771,0.33115392158942797,0.2159809930380963,0.014382144068647034,-0.07198156834547434,0.5040247704193596,0.28811635338321073,0.1871907848984793,-0.058387999999999884,-0.086061,-0.9101899999999999,0.0161150000000001,0.18044900000000003,-0.904385,0.07450299999999999,0.26651,0.005804999999999949,0.9970536981753981,0.9262611603111728,double,-0.904385
10,0.083333,walk,-0.015120604824201415,-0.13392535701428115,-0.004920196807867239,-0.0505612363998346,0.232934479075975,0.03878901811092944,-0.0014400576023188543,-0.0014400576023055312,0.0012000480019204432,-0.0004800192007818336,0.010200408016320854,-0.0036001440057596644,-0.23041843310620627,0.6912552993178555,-0.3168253455202376,-0.08640691241722652,-0.028802304138275888,0.014401152069137852,-0.4320345620765408,0.1584126727601174,-0.4176334100045042,-0.05827399999999994,-0.084957,-0.910139,0.016237000000000057,0.18165000000000003,-0.904374,0.074511,0.26660700000000004,0.00576500000000002,0.9960602992912364,0.9243037800976717,double,-0.904374
11,0.091667,walk,-0.020398368130549988,-0.14938804895608315,-0.0014398848092167038,-0.05994450350292206,0.15200565001189614,0.04079899922188875,-0.0016798656107461602,-0.001559875209981432,0.0026397888168939597,-0.0034797216222770314,0.008279337652986055,-0.0034797216222703705,-0.6332809342870862,-1.8553746030479972,0.4176040315155433,-0.028774659038553647,-0.014376962764086985,0.17275507739063084,-0.35993549573976485,-0.23051000279995199,0.014449530056310778,-0.05811799999999989,-0.083725,-0.910105,0.016378000000000004,0.18296400000000002,-0.904391,0.0744959999999999,0.266689,0.005714000000000108,0.9941729452506527,0.9268076241712402,double,-0.904391
12,0.1,walk,-0.01716068642745759,-0.15300612024480614,0.019560782431300144,-0.00835476318208074,0.45103772425353916,-0.07903043971931206,-0.00012000480018213519,-0.0013200528021100728,0.0,0.0015600624025009894,0.012000480019199436,0.002040081603263671,0.3885373458649218,-0.4341859220836418,2.520180876097063,0.1871907848990788,0.028779840138168616,-0.31678732952045574,0.6047982749043582,0.4465549461434511,0.6624028831794115,-0.057975999999999805,-0.082461,-0.9102680000000001,0.01653400000000005,0.18433899999999998,-0.904537,0.07450999999999985,0.2668,0.005731000000000042,0.9977908394301446,0.9222363091934979,double,-0.904537
13,0.108333,walk,-0.01800072002878586,-0.14256570262810792,0.003960158406330225,0.008549939390483294,0.39058280451957483,0.004688877444062597,-0.0012000480019279396,-0.0010800432017258194,0.0015600624024968287,-0.0019200768030740447,0.01020040801632087,-0.0008400336013440619,-0.10080806448197163,1.2529002300129888,-1.8721497689871514,-0.1296103686242416,0.02880230413827596,0.18721497689869554,-0.41763341000540466,-0.21601728103666967,-0.34562764965891457,-0.057836,-0.08128199999999997,-0.910288,0.016667999999999905,0.185612,-0.904577,0.0745039999999999,0.26689399999999996,0.005711000000000022,0.9962581929409376,0.9255341912477157,double,-0.904577
14,0.116667,walk,-0.017158627309815707,-0.15634749220062363,-0.011159107271419444,0.047964955857312586,0.09570647644640075,0.04155633978014851,-0.0011999040076872453,-0.002399808015361169,0.0007199424046075181,-0.0021598272138050696,0.009359251259901898,0.0008399328053755765,0.10104304283299168,-1.6536824541055561,-1.8141667479901193,1.7277926649184794e-05,-0.15835910890752922,-0.10080633523989799,-0.028767747867893524,-0.1009307363113716,0.2015798424189629,-0.05770300000000006,-0.07999899999999999,-0.9101889999999999,0.016793000000000058,0.18699300000000002,-0.904477,0.07449600000000012,0.266992,0.005711999999999939,0.995370035636024,0.9268101935245514,double,-0.904477
15,0.125,walk,-0.01776071042842159,-0.16272650906035874,0.024480979239167422,-0.04458056885565049,0.3657982943757446,-0.06431054797316776,-0.0009600384015370224,-0.0010800432017258194,0.00048001920076767846,-0.0006000240009639698,0.007800312012478315,0.0025201008040321854,-0.07225286434727977,-0.76551264367396,4.276981460528849,0.028785024138992334,0.15837811276075253,-0.028791936138226306,0.18718387289584795,-0.18708019289854605,0.20162822496779195,-0.05756300000000003,-0.078652,-0.9103889999999999,0.016936000000000062,0.18841399999999997,-0.9046599999999999,0.07449900000000009,0.26706599999999997,0.005728999999999984,0.9974621829792312,0.9290112769901484,double,-0.9046599999999999
16,0.133333,walk,-0.01932077283092255,-0.15048601944078144,-0.006720268810745822,-0.024093714050368285,0.19379426278439274,-0.07926114120326865,-0.0006000240009639688,-0.0013200528021167343,0.0009600384015361881,-0.0012000480019279376,0.007440297611905249,0.0027601104044164366,-0.1872149768991911,1.4689175110497166,-3.744299537971105,0.04320345620701467,-0.028802304139075332,0.057604608276552165,-0.07200576034608992,-0.04320345620701613,0.028802304138275652,-0.057406999999999986,-0.077409,-0.910325,0.017087000000000074,0.18973,-0.904581,0.07449400000000006,0.267139,0.005744000000000082,0.9971016087151024,0.9291833668489059,double,-0.904581
17,0.141667,walk,-0.019678425725921687,-0.1678665706743445,0.0004799616030722354,0.05154484602882586,0.09511677069092178,-0.036290739606163885,-0.001319894408445317,-0.0019198464122822808,0.0007199424046075204,-0.004799616030722354,0.004199664026878729,0.007439404847612155,-0.04291491420676003,-2.0854993080829245,0.8639585329755308,-0.0863775386946664,-0.0719694756618128,-0.02880921489424864,-0.43191361036650167,-0.3888449226093746,0.5614704155502436,-0.05725400000000014,-0.07602599999999998,-0.910323,0.017210999999999865,0.191164,-0.904523,0.074465,0.26719,0.005800000000000027,0.9959358448458401,0.9256685174120232,double,-0.904523
18,0.15,walk,-0.01584063362534752,-0.16788671546861664,0.0019200768030740415,0.049360489182098545,0.06540298197746904,-0.0739901523746915,-0.0019200768030740415,-0.00024000960038425518,0.0022800912036479264,0.0016800672026831248,0.009120364814588375,0.007560302412096544,0.4605534742078679,-0.0024174720115381918,0.17282073682968976,-0.07202476834618073,0.2015884809670016,0.18722534489864448,0.7775930917323262,0.5905077148337503,0.014508288069649447,-0.05713800000000013,-0.074629,-0.91032,0.017356999999999845,0.19263899999999995,-0.9044760000000001,0.07449499999999998,0.26726799999999995,0.00584399999999996,0.9950158263153,0.9216182896142653,double,-0.9044760000000001
19,0.158333,walk,-0.020640825633032624,-0.1674066962678548,0.002520100804024687,0.13376222574383298,0.15803039546784384,-0.10381809673361145,-0.0021600864034383117,-0.0009600384015370207,-0.0001200048001912949,-0.0014400576022922079,0.004560182407294187,0.005280211208448618,-0.5760460827655226,0.05760460827575296,0.07200576034449119,-0.02880230413587784,-0.0864069124148284,-0.2880230413823616,-0.3744299537951914,-0.5472437786264471,-0.2736218893133235,-0.056983999999999924,-0.07324199999999997,-0.910342,0.017517000000000005,0.19407199999999997,-0.904453,0.07450099999999993,0.26731399999999994,0.005889000000000033,0.9960552256243883,0.9292368674109777,double,-0.904453
20,0.166667,walk,-0.017278617710573773,-0.1873050155987494,0.007919366450685196,0.01654160107881648,0.05924540012448886,-0.09295657668050306,-0.003359731221518958,-0.002639788816897286,-0.0002399808015361169,0.0011999040076872453,0.006359491240710428,0.008159347252219649,0.40343267608097527,-2.3876073111224616,0.6478600487953569,-0.14394586250067737,-0.2015539255291893,-0.014395968483899915,0.3167700515934066,0.21589978802690654,0.3454686877575028,-0.05686800000000014,-0.07170300000000002,-0.9104099999999999,0.017670999999999992,0.19568600000000003,-0.904451,0.07453900000000013,0.26738900000000004,0.005958999999999937,0.992867548796021,0.9230528172048251,double,-0.904451
21,0.175,walk,-0.009120364814588404,-0.16884675387015421,0.000960038401537024,0.07932882866816984,0.054639452014379294,-0.07439876631842172,-0.00444017760708542,-0.001680067202689792,-0.000120004800192128,0.0030001200047932073,0.00408016320652569,0.010200408016320887,0.9790295086985946,2.215080010631853,-0.8351527720086631,-0.1296587526180805,0.1151712005529217,0.014397696069121469,0.2160345610351574,-0.2735303053143818,0.2449370891757162,-0.05682900000000002,-0.07031000000000004,-0.910419,0.0177719999999999,0.197127,-0.904374,0.07460099999999992,0.26743700000000004,0.006044999999999967,0.9920851398306578,0.9205692513074673,double,-0.904374
22,0.183333,walk,-0.012360494419799134,-0.1833673346933911,-0.01680067202688454,0.12167505750576758,-0.10693179869602304,-0.10710589661379048,-0.004920196807893885,-0.0006000240009573072,0.0,0.005760230409222125,0.0037201488059526245,0.011280451218048337,-0.3888311058695221,-1.7425394003644379,-2.1313705062308346,-0.05760460828134704,0.12961036862264297,0.014401152069138112,0.33122649759137346,-0.04320345620701613,0.12961036862203879,-0.05676700000000001,-0.06878699999999999,-0.910279,0.017923000000000133,0.19868600000000003,-0.9041399999999999,0.07469000000000015,0.267473,0.0061390000000000056,0.9917389189854989,0.9166082108563034,double,-0.9041399999999999
23,0.191667,walk,-0.014638828893683148,-0.17878569714422723,0.008999280057601053,0.08965693952075708,0.05956072087425508,-0.09830272433904157,-0.006119510439141007,-0.00227981761458978,-0.0004799616030714012,0.007679385649129097,0.002879769618433403,0.01439884809215286,-0.273378266604753,0.549752525697606,3.0957465904110353,-0.1439061232597937,-0.20155910890718398,-0.05759078510575963,0.23028020637232668,-0.10083743550746589,0.37417769067728834,-0.05669599999999986,-0.06731599999999999,-0.910358,0.01810899999999993,0.20020000000000004,-0.904095,0.07480499999999979,0.26751600000000003,0.0062630000000000186,0.9890866621473522,0.9097519270432388,double,-0.904095
24,0.2,walk,-0.004680187207476322,-0.20352814112564188,-0.026761070442814477,0.055191165685184215,-0.20965184339003257,-0.07907390226631336,-0.006120244809795177,-0.012480499219967946,0.011880475219008141,0.008880355214224103,-0.0016800672026964479,0.017520700828033142,1.1950848057370473,-2.969212046251605,-4.291413716598524,-8.812800362046243e-05,-1.224130757875694,1.4833117511195886,0.14412211269590844,-0.5472023066278467,0.37463731379818543,-0.05670799999999998,-0.065724,-0.9100360000000001,0.01822199999999996,0.20188199999999995,-0.903726,0.07492999999999994,0.26760599999999996,0.006310000000000038,0.9695238732438309,0.9040426360341731,double,-0.903726
25,0.208333,walk,-0.006600264010577032,-0.2019680787231549,-0.004320172806916608,-0.021182775265563468,0.005724658958877773,-0.09988714844120561,-0.008400336013442297,-0.005280211208453632,-0.00048001920076767927,0.009960398415943292,-0.003720148805952637,0.02040081603264094,-0.23041843310941013,0.18721497689751507,2.693015436925228,-0.2736218893132277,0.8640691241466857,-1.483318663119627,0.12961036862104788,-0.24481958517415026,0.34562764965892306,-0.05672299999999986,-0.064085,-0.910004,0.018360000000000154,0.203534,-0.90352,0.07508300000000001,0.267619,0.006484000000000045,0.9834439760897766,0.8968178872901256,double,-0.90352
26,0.216667,walk,-0.005879529637624873,-0.1870650347972133,-0.014638828893683148,0.11344070298954913,-0.14612734554443113,-0.06582368642743532,-0.009359251259901898,-0.004319654427643443,0.0008399328053755765,0.01127909767216419,-0.0017998560115175463,0.028077753779698202,0.08648120625775842,1.788222213335924,-1.2381396792376447,-0.11506062472517392,0.11525759308977535,0.15838157021157362,0.15823125224632792,0.230416701996051,0.9211588369399153,-0.056751999999999914,-0.062562,-0.909875,0.018502999999999936,0.20507799999999998,-0.9031640000000001,0.07525499999999985,0.26764,0.0067109999999999115,0.9827630495706188,0.8823699879235474,double,-0.9031640000000001
27,0.225,walk,-0.004440177607112052,-0.19008760350413692,-0.0019200768030740415,0.00672346511415944,-0.04920883885428864,-0.08232718227244852,-0.00996039841594326,-0.005520220808831208,-0.0007200288011519328,0.012000480019226083,-0.0062402496099773115,0.02784111364454529,0.1727291528276515,-0.3627227537409854,1.5263113033252245,-0.07214054434673724,-0.1440737286916793,-0.1872028808985369,0.0865693444212039,-0.5328685465570336,-0.028397952136434985,-0.056797999999999904,-0.06102400000000002,-0.909865,0.018640000000000212,0.20661000000000002,-0.902916,0.07543800000000012,0.26763400000000004,0.006948999999999983,0.9809824046489495,0.8789218918511696,double,-0.902916
28,0.233333,walk,-0.008880355214197458,-0.1956078243129748,-0.003480139205575031,0.23887701485036952,-0.07663649482136083,-0.021479975851030137,-0.010080403216125395,-0.004200168006721135,-0.0007200288011519328,0.013920556822273477,-0.012000480019199436,0.03516140645625841,-0.5328426265553106,-0.6624529951803521,-0.18721497689919456,-0.014401152067938999,0.15841267276011906,0.0,0.2304184331030112,-0.6912552993186272,0.8784702762166227,-0.05680799999999997,-0.05942900000000001,-0.9098419999999999,0.018830000000000124,0.20814000000000005,-0.902594,0.0756380000000001,0.26756900000000006,0.007247999999999921,0.9817597528526396,0.8613947416111841,double,-0.902594
29,0.241667,walk,0.000479961603085557,-0.18442524598032328,-0.0009599232061444707,0.16854196705995797,-0.07735082006004963,-0.045330939381845015,-0.010439164866804468,-0.0038396928245712225,0.0,0.015118790496742111,-0.014158867290624284,0.03959683225341946,1.1231481662206668,1.3418020557537247,0.30240172779344443,-0.04304795424514916,0.043253561573063724,0.08639654441467896,0.14377653881313132,-0.25898575371068544,0.5322085189778085,-0.05689900000000003,-0.057923999999999976,-0.9098339999999999,0.018951999999999858,0.209559,-0.902256,0.07585099999999989,0.26748299999999997,0.007577999999999974,0.981461795896088,0.849741060517021,double,-0.902256
30,0.25,walk,-0.011280451218053333,-0.2017280691227633,-0.008280331213246811,0.16277826247794253,-0.03196684121174936,-0.10666416280532484,-0.00936037441497929,-0.0014400576023055312,-0.002280091203648759,0.015360614424592332,-0.020400816032641707,0.04644185767430758,-1.4113059907762966,-2.07642183396616,-0.8784841002162888,0.12946003262032602,0.287967745381698,-0.2736218893134234,0.029020032143312186,-0.749063811594554,0.8214359079428915,-0.05688300000000002,-0.056255,-0.9097839999999999,0.019174000000000024,0.21106999999999998,-0.9017999999999999,0.07605700000000004,0.267325,0.007983999999999991,0.9837648194939104,0.8318268566898376,double,-0.9017999999999999
31,0.258333,walk,-0.0016800672026831304,-0.19776791071642708,-0.0008400336013415652,0.052818875731718215,0.07168341974196502,0.04726301436085979,-0.010080403216125428,-0.000240009600384256,-0.0016800672026881264,0.025681027241082083,-0.029281171246852585,0.05688227529101121,1.1520921655310483,0.4752380182810805,0.892871428285763,-0.08640691241403338,0.14401152069138104,0.07200576034568992,1.238499077941891,-1.0656852531154326,1.2529002300136396,-0.05695300000000003,-0.05460900000000002,-0.909791,0.01940199999999992,0.21247399999999994,-0.901319,0.07635499999999995,0.26708299999999996,0.008472000000000035,0.9829628869642464,0.8003827585667778,double,-0.901319
32,0.266667,walk,-0.005639548836108738,-0.2061435085193246,-0.021958243340524722,0.13464330956133802,-0.19558575655051202,-0.04550625509647629,-0.010199184065288299,0.0009599232061444676,-0.001679865610751153,0.023998080153585045,-0.042836573074146914,0.06479481641468662,-0.47509978802803027,-1.004991337040737,-2.533982450105968,-0.01425256169460892,0.14398041834997868,2.4189097309025233e-05,-0.20193749550000437,-1.6265180978274916,0.9494289805226067,-0.056991000000000014,-0.05288299999999996,-0.909622,0.019649000000000028,0.21383500000000005,-0.9005960000000001,0.07664000000000004,0.266718,0.009025999999999978,0.9826982052448702,0.7742445298214369,double,-0.9005960000000001
33,0.275,walk,0.004920196807867223,-0.20772830913236234,-0.027121084843400763,0.12387278635397171,-0.07649130409326091,0.014480376264368463,0.008880355214224074,-0.005400216008642393,0.0015600624024959882,0.030481219248767,-0.05400216008641061,0.06852274090963635,1.2672201660837534,-0.1901836809117665,-0.6195657629756414,2.2896362989934347,-0.7632472356638466,0.38880691386620997,0.7780078117343007,-1.339924038433175,0.4473688341473313,-0.05695799999999984,-0.05119699999999999,-0.909383,0.019862000000000046,0.21511599999999997,-0.899799,0.07681999999999989,0.26631299999999997,0.009584000000000037,0.9824835921070116,0.7501334506772463,double,-0.899799
34,0.283333,walk,0.001080043201745806,-0.19776791071642708,-0.017400696027835245,0.13661540515099238,-0.03892023489738864,-0.025855076816739774,-0.006960278411150086,0.001680067202689792,-0.0013200528021117424,0.03444137765509744,-0.08112324492979858,0.10200408016320721,-0.46083686620921954,1.1952956217371045,1.166493317600569,-1.9009520731278289,0.8496679720787473,-0.3456276496589149,0.47523801828038476,-3.2546603676212698,4.0179214272856045,-0.0570250000000001,-0.049534999999999996,-0.9092490000000001,0.020139999999999825,0.21608799999999995,-0.898804,0.07716499999999993,0.26562299999999994,0.010445000000000038,0.9878652655609061,0.6708772643459235,double,-0.898804
35,0.291667,walk,0.01067914566834721,-0.20266378689704756,-0.04007679385649822,-0.08570695383008056,-0.09506611852100455,-0.042576085272510486,-0.007079433645312118,0.0017998560115175463,-0.00191984641228727,0.03983681305495544,-0.10115190784736337,0.11087113030957443,1.1518001519800092,-0.5874581450228558,-2.7209140663142493,-0.014297484300699864,0.014373507178756208,-0.07196947566301021,0.6474004559464842,-2.4032472903245465,1.0639609006920105,-0.05717300000000014,-0.04783100000000001,-0.9089309999999999,0.020382999999999818,0.21693400000000002,-0.897546,0.07755599999999996,0.26476500000000003,0.011384999999999978,0.9874121230446661,0.627354243596639,double,-0.897546
36,0.3,walk,0.0190807632305317,-0.21420856834273863,-0.11088443537741968,-0.28036057384215507,-0.1934989409336063,-0.05008896742149772,-0.055562222488885316,0.01116044641785791,0.004440177607104572,0.053762150486020045,-0.11040441617665117,0.12228489139565685,1.0082344368396148,-1.385429190650558,-8.497256872785508,-5.818167387924315,1.1233157813921022,0.7632334116634896,1.6711073360211974,-1.1103454133310717,1.369706118574636,-0.05779500000000004,-0.045952999999999966,-0.9079699999999999,0.0206719999999998,0.21779900000000002,-0.8956029999999999,0.07846699999999984,0.263752,0.012367000000000017,0.9052572003713195,0.5874956635916808,double,-0.8956029999999999
37,0.308333,walk,0.00996039841591658,-0.2134885395415778,-0.05976239049561939,-0.039934247877124254,-0.4022693241816653,-0.01201959555173398,-0.003960158406356851,0.013680547221889177,-0.00708028321132801,0.05928237129485088,-0.11880475219009268,0.10536421456858193,-1.0944875572561,0.0864069124157975,6.134890781447267,6.192495389718979,0.3024241934514887,-1.3825105986358495,0.6624529951795046,-1.00808064483877,-2.0305624417466515,-0.057911000000000046,-0.04405999999999999,-0.907531,0.021082999999999963,0.21858799999999995,-0.894227,0.07899400000000001,0.26264799999999994,0.013303999999999983,0.9734915821940782,0.5844583461162274,double,-0.894227
38,0.316667,walk,0.0025197984161325748,-0.17998560115190904,-0.016318694504429413,-0.27919640694010645,0.12049083798332166,0.10955698587166603,0.0013198944084719646,0.00791936645068525,-0.006119510439165194,0.0753539716822746,-0.09719222462202808,0.13942884569234582,-0.8928005759280114,4.0200310042799305,5.212826492823401,0.6335556533271953,-0.6912863896333045,0.11528350997874036,1.9284377714691403,2.593295844500207,4.087428740552445,-0.05792099999999989,-0.042493999999999976,-0.9074460000000001,0.021689999999999987,0.21927799999999997,-0.8929290000000001,0.07961099999999988,0.26177199999999995,0.014517000000000002,0.9831751758928786,0.5449691325378985,double,-0.8929290000000001
39,0.325,walk,0.014760590423628314,-0.20928837153486332,-0.0720028801152097,0.13661282397851832,-0.5369197796931041,-0.01567473762895693,-0.006000240009613022,0.013320532821309464,-0.013920556822272598,0.08016320652827436,-0.1429257170286736,0.14928597143885633,1.4689537990514445,-3.5164731048786946,-6.6823695680763295,-0.8784512682209236,0.6481658911105475,-0.9361630124933843,0.5771312667706386,-5.488238618342174,1.182902405677484,-0.05809400000000009,-0.04063899999999998,-0.906962,0.022235000000000005,0.21983100000000005,-0.891085,0.0803290000000001,0.26047000000000003,0.01587700000000003,0.9663671218622369,0.47177017833276635,single,-0.891085
40,0.333333,walk,0.012840513620527717,-0.18792751710067926,-0.020400816032641773,-0.25727276397180565,0.027151269265808662,0.09611138920232087,-0.0008400336013548883,-0.002760110404415613,-0.020280811232449646,0.09996399855992603,-0.17976719068762786,0.1879275171006851,-0.2304184331093965,2.563405068304826,6.192495389723755,0.6192495389725364,-1.9297543772621044,-0.7632610596636342,2.3761900914018637,-4.421153685221932,4.637170966258113,-0.05820800000000004,-0.03909600000000002,-0.906961,0.02296100000000001,0.219899,-0.889349,0.08116900000000005,0.25899500000000003,0.017612000000000072,0.9658583355649573,0.3595232300140597,single,-0.889349
41,0.341667,walk,0.02771778257740485,-0.18730501559875606,-0.04355651547876192,-0.13016751170748486,-0.3855325254215881,0.15203779552643124,-0.0038396928245512272,0.005039596832251794,-0.012239020878329473,0.09959203263740192,-0.17662586993040885,0.16702663786897,1.7851294644680966,0.07469420469440777,-2.778461656601887,-0.35993031235857165,0.935889997200312,0.9649376474826211,-0.04463234011568445,0.3769283365993532,-2.507904875415773,-0.05847099999999994,-0.037493,-0.9067,0.023560000000000025,0.21998800000000002,-0.887594,0.08203099999999997,0.257481,0.019105999999999956,0.9770305511313435,0.37110070727525085,single,-0.887594
42,0.35,walk,0.019680787231495668,-0.18768750750030166,-0.05088203528140898,-0.009157180727349034,-0.16864738138805557,0.05262682799780657,-0.02604104164168178,0.001800072002878589,-0.014760590423617588,0.09840393615745169,-0.19104764190568124,0.2155286211448462,-0.9644780206299294,-0.045900864220041006,-0.8790975402192576,-2.6642684287928247,-0.3887585298659802,-0.3026004494525526,-0.1425772806852556,-1.7306818643072635,5.820470811937634,-0.058852000000000126,-0.035914,-0.906399,0.024216000000000015,0.21996,-0.885374,0.08306800000000014,0.255874,0.02102499999999996,0.9500208060329894,0.28974999999999995,single,-0.885374
43,0.358333,walk,0.034081363254524155,-0.19824792991719428,-0.057722308892349895,0.13524002129933743,-0.3697566266944767,0.09970351662458138,0.004080163206538986,0.0019200768030740352,0.0022800912036487512,0.12408496339853295,-0.20028801152045045,0.25765030601223976,1.728138248293343,-1.2673013820823922,-0.8208656679396241,3.614689169353251,0.014401152069536252,2.0449635938157047,3.08184654279145,-1.108888709320673,5.054804376262258,-0.05910199999999999,-0.034246,-0.905899,0.024966000000000044,0.21994300000000006,-0.882746,0.08406800000000003,0.25418900000000005,0.02315299999999998,0.9915782618218858,0.26847,single,-0.882746
44,0.366667,walk,0.020158387329007176,-0.16942644588432534,-0.03227741780658441,0.08118423615603797,-0.2548060614249356,0.22339809029727872,0.013558915286780614,0.0,0.0,0.13558915286775286,-0.22474202063835033,0.2999760019198456,-1.6706234611851412,3.4583014198306827,3.0531426788775446,1.1373592608881233,-0.23039078510607552,-0.2735890573132648,1.3803923049219942,-2.934246354439628,5.078677214735515,-0.059156999999999904,-0.03283400000000003,-0.9056299999999999,0.02592799999999995,0.219482,-0.879977,0.08508499999999986,0.25231600000000004,0.025652999999999926,0.9774018078553657,0.24347000000000008,single,-0.879977
45,0.375,walk,0.03756150246009942,-0.18612744509780732,-0.04236169446777122,0.3270845862415096,-0.21977581644068836,0.17237579050053659,0.009360374414979321,0.001560062402494333,0.0013200528021117424,0.1588863554542309,-0.20772830913237036,0.31981279251170136,2.088457354025236,-2.004200073620787,-1.2101616058066524,-0.5038450584184931,0.18721497689839636,0.1584126727603199,2.7957761414230298,2.041727049799593,2.3805100914263564,-0.05939199999999989,-0.03127000000000002,-0.905266,0.026939000000000046,0.219302,-0.876959,0.08633099999999994,0.250572,0.02830699999999997,0.9840318943508005,0.21693,single,-0.876959
46,0.383333,walk,0.05460218408737494,-0.23760950438017361,-0.02064082563303269,0.24458996515523146,-0.33331678791066804,0.10177104569015057,-0.005040201608076038,0.0008400336013482268,-0.0012000480019204473,0.19140765630625428,-0.19236769470779133,0.3355334213368551,2.04496359381682,-6.178094237653477,2.606608524509611,-1.728138248296579,-0.08640691241402954,-0.3024241934516016,3.9027122107312433,1.8433474648480825,1.8865509210552953,-0.05988900000000008,-0.029283000000000003,-0.905104,0.028078999999999965,0.21967899999999996,-0.873991,0.08796800000000005,0.24896199999999996,0.031113000000000057,0.9912520789916881,0.18886999999999993,single,-0.873991
47,0.391667,walk,0.05603551715862668,-0.16114710823134598,0.00839932805375743,0.17670901393394636,-0.3648394752091798,0.2917365200700275,-0.008999280057601053,0.002759779217662014,-0.003479721622269532,0.19798416126708995,-0.3255339572834129,0.4388048956083501,0.17198620965343667,9.174753557574702,3.4845396792404717,-0.47505140983021493,0.23035104587398428,-0.2735389513257839,0.7891174659030076,-15.978673215217354,12.391585585732532,-0.060431000000000124,-0.02791699999999997,-0.905203,0.0292619999999999,0.21830900000000003,-0.870404,0.08969300000000002,0.246226,0.034799000000000024,0.983274114750727,0.15201000000000003,single,-0.870404
48,0.4,walk,0.09612384495377731,-0.17340693627744727,-0.052322092883714165,0.24365469978271842,-0.3215435959431945,0.06609609005648089,-0.0030001200047931873,0.0013200528021100684,0.00048001920076767607,0.20628825153006347,-0.255850234009362,0.3283331333253319,4.810791767088738,-1.471238215060751,-7.2868619869760405,0.7199280034570792,-0.1727740808294659,0.4751879062807143,0.9965306927845294,8.362381288137595,-13.257141759632512,-0.061256999999999895,-0.026461000000000012,-0.904763,0.030180000000000096,0.21762199999999998,-0.867232,0.09143699999999999,0.244083,0.03753099999999998,0.9944789096596615,0.12469000000000002,single,-0.867232
49,0.408333,walk,0.08916356654268115,-0.15504620184807616,0.001320052802110077,-0.031136739755871442,-0.15513553999782187,0.19971328858396462,-0.0012000480019279415,0.0008400336013482268,-0.0013200528021117424,0.24804992199688541,-0.2562102484099368,0.3609744389775596,-0.8352668200043412,2.203376266575202,6.43731497489792,0.21601728103507142,-0.05760460827575217,-0.21601728103677223,5.011600920055447,-0.043203456207219555,3.9171133628018424,-0.06201000000000012,-0.025161999999999962,-0.904785,0.031503999999999976,0.216779,-0.864235,0.0935140000000001,0.24194099999999996,0.040549999999999975,0.9967135331962863,0.09450000000000008,single,-0.864235
50,0.416667,walk,0.11015118790496442,-0.16522678185744663,-0.027477801775862072,0.04552508033789571,0.0036196253524982034,0.13248377899915084,-0.0035997120230350926,0.0017998560115175463,-0.0005999520038402923,0.4226061915046822,-0.29265658747299816,0.40592752579793545,2.518313098426116,-1.2215718753744254,-3.4554661120676893,-0.28793664760104976,0.11516947566226525,0.0864051833779037,20.94507673479681,-4.373210830700906,5.39393890333283,-0.06295800000000007,-0.023770000000000013,-0.904561,0.03410800000000003,0.215717,-0.8606229999999999,0.0970660000000001,0.239487,0.04393800000000003,0.9932182125598754,0.06062000000000006,single,-0.8606229999999999
51,0.425,walk,0.0843633745349694,-0.15180607224289203,0.025921036841473,0.7858862828112813,-0.7873899443830826,0.1332167833134862,0.017520700828030703,0.00408016320652569,0.00960038401536108,0.4042961718468695,-0.2682107284291363,0.37105484219369006,-3.094661390855045,1.6105495757295858,6.408116958758575,2.5345509241648685,0.2736478093133505,1.2240892858756027,-2.197290250547552,2.9336204300806354,-4.1848894280865805,-0.06351499999999999,-0.02247100000000002,-0.904697,0.036774000000000084,0.21474700000000002,-0.8577469999999999,0.10028900000000007,0.23721800000000004,0.04695000000000005,0.9660151151841962,0.03049999999999997,single,-0.8577469999999999
52,0.433333,walk,0.13224528981161093,-0.1582863314532592,-0.004440177607098714,-0.021932242470507495,-0.06564284820665406,0.024769463303228316,-0.0015600624025009842,0.0021600864034582896,0.0003600144005755489,0.48565942637704246,-0.29401176047042515,0.3553342133685322,5.746059675583984,-0.7776622117325281,-3.64349147348753,-2.2897831789909526,-0.23041843310541132,-1.108888709322632,9.763981102864829,-3.096247694862445,-1.8865509210557758,-0.06463000000000019,-0.021133999999999986,-0.904657,0.03971899999999984,0.21361599999999997,-0.854749,0.10434900000000003,0.23474999999999996,0.04990800000000006,0.9955187494494888,0.0009200000000000319,single,-0.854749
53,0.441667,walk,0.1405087592992342,-0.16210703143748487,-0.015718742500599108,-0.07317552419450017,-0.08257156341362597,-0.03094842774261779,-0.0011999040076606101,0.000959923206144474,0.0,0.5829133669306523,-0.3821694264458857,0.3467722582193449,0.9915370155535538,-0.45844732232129565,-1.3533195216583223,0.043215550136834195,-0.1440080630326161,-0.04319827220728953,11.669539303288987,-10.578073671161633,-1.0273524297081098,-0.06581099999999984,-0.019774999999999987,-0.904526,0.043406000000000056,0.21178199999999997,-0.851728,0.1092169999999999,0.23155699999999996,0.05279800000000001,0.9974389551886351,0.0,single,-0.851728
54,0.45,walk,0.14532581303252948,-0.15480619224769088,0.0032401296051841034,0.44759742046408213,-0.28920758750214637,-0.14284538528988405,-0.019920796831886453,0.006840273610941258,-0.008880355214208253,0.6507860314412496,-0.43705748229928093,0.3298931957278279,0.5780695707782615,0.8761357482052032,2.2751556589203323,-2.2465970027872033,0.7056702753866266,-1.0656852531151104,8.14504554309336,-6.586830175614425,-2.0255685217229,-0.06718800000000003,-0.018428,-0.904627,0.04761799999999994,0.20943000000000006,-0.849006,0.11480599999999996,0.22785800000000006,0.05562099999999992,0.9619033320857631,0.0,single,-0.849006
55,0.458333,walk,0.14460578423138434,-0.14916596663866521,0.03672146885875786,0.1707650756156987,-0.282053587083353,-0.16673146881247924,-0.003120124804975343,0.001920076803074048,-0.0018000720028802544,0.7715108604344214,-0.6020640825633099,0.13044521780871157,-0.08640691241391284,0.6768541472489711,4.017921427285952,2.016161289680926,-0.59044723483346,0.8496679720782451,14.487558981539918,-19.80158409504733,-23.93471473888357,-0.06841900000000001,-0.01716899999999999,-0.9049480000000001,0.052841999999999834,0.205656,-0.848225,0.12126099999999984,0.222825,0.05672300000000008,0.9931967873308352,0.0,single,-0.848225
56,0.466667,walk,0.16306695464361493,-0.15526757859371443,-0.011879049676034457,-0.02161817022473601,-0.22932904261128575,-0.29935866360006,-0.0031197504199761807,0.002759779217662014,-0.0017998560115192117,0.8429325653947747,-0.6040316774658001,0.1321094312455008,2.215163236408755,-0.7321348638167995,-5.831595696519351,4.4922606090995746e-05,0.10075622925221563,2.5916889973933305e-05,8.569919001722246,-0.23609250089875314,0.19968963724372926,-0.06980399999999998,-0.015851999999999977,-0.904864,0.058508000000000004,0.20191600000000004,-0.8470249999999999,0.12831199999999998,0.21776800000000002,0.057839000000000085,0.9924375368365668,0.0,single,-0.8470249999999999
57,0.475,walk,0.18480739229570392,-0.1616464658586332,-0.013800552022078066,0.2955647823278273,-0.09745387522529353,-0.42363171889394086,0.0006000240009639708,0.015720628825152114,-0.006360254410176122,0.9223568942757832,-0.6065042601704087,0.06384255370214881,2.608956876525747,-0.7654970916739225,-0.23058950510543788,0.4463907861442651,1.5553641674655145,-0.5472696986267757,9.531300717749751,-0.29672179342476906,-8.192352999322233,-0.07133900000000004,-0.014373999999999998,-0.904802,0.06465399999999999,0.19820900000000002,-0.846378,0.13599300000000003,0.21258300000000002,0.05842400000000003,0.9717181332327731,0.0,single,-0.846378
58,0.483333,walk,0.17136685467418444,-0.16692667706707906,0.01104044161766238,0.0031540271038386987,0.34125833582182213,-0.3076791039246462,-0.00588023520940424,-0.00972038881555231,0.0003600144005763816,1.0034801392055617,-0.681027241089639,0.010560422416895535,-1.6129290317436002,-0.6336506910411411,2.9810384783079735,-0.7776622117326513,-3.0530442386540644,0.8064645158709319,9.73517879872533,-8.94311543492499,-6.394111518691114,-0.07281599999999999,-0.01306400000000002,-0.904891,0.07158799999999998,0.19392500000000001,-0.846382,0.14440399999999998,0.20698900000000003,0.05850900000000003,0.981056169634354,0.0,single,-0.846382
59,0.491667,walk,0.1910247180225359,-0.1613870890328821,0.006119510439167651,0.10591977276978241,-0.04947959555591245,-0.4929196618835025,-0.0004799616030855554,0.0010799136069091957,-0.002399808015358671,1.102711783057358,-0.8060955123590107,-0.07523398128149605,2.3587549014100597,0.6646973883125699,-0.5904645042590261,0.6479809942786992,1.2959326160860924,-0.3311521977363871,11.906844714638384,-15.006991992965153,-10.294504883416307,-0.07441199999999992,-0.011709999999999998,-0.9049619999999999,0.0791860000000002,0.18855200000000005,-0.8470599999999999,0.15359800000000012,0.20026200000000005,0.05790200000000001,0.9955416573054915,0.0,single,-0.8470599999999999
60,0.5,walk,0.2031681267250895,-0.16236649465978598,-0.0152406096243836,0.005015424515844086,-0.06496395547990033,-0.46590124961658486,0.00036001440057305316,-0.001560062402494333,-0.00060002400096064,1.1086043441737525,-0.7827913116524748,-0.09792391695667985,1.4572673349998349,-0.11753337656352827,-2.5633169403037686,0.10080115248513269,-0.31680979352016503,0.21598272103660573,0.7071356193921136,2.796615949422283,-2.7229011970699446,-0.07610200000000011,-0.01036999999999999,-0.90484,0.08673099999999989,0.183382,-0.847749,0.162833,0.19375199999999998,0.057091,0.997150324643234,0.0,single,-0.847749
61,0.508333,walk,0.19548781951276537,-0.181327253090121,0.1534861394455808,1.282142281784184,-1.2684792382504737,-0.6250863816140183,0.000480019200781832,0.0002400096003842544,0.0001200048001921272,1.2248889955598266,-0.7683907356294144,-0.08772350894035671,-0.9216737324281886,-2.275382026921269,20.24801980918801,0.014401152071136247,0.21601728103667106,0.0864069124148283,13.954716354983024,1.7281382482971777,1.2240979258758058,-0.07772699999999988,-0.008857000000000004,-0.906118,0.09530900000000009,0.17849000000000004,-0.849759,0.17303599999999997,0.18734700000000004,0.05635899999999994,0.9990834481989165,0.0,single,-0.849759
62,0.516667,walk,0.1779457643388687,-0.1723062155027599,0.030597552195825134,0.6356534180054099,-0.32914521838993777,-0.451761238309619,0.000959923206144474,-0.000959923206144474,0.00119990400767976,1.254859611231118,-0.7979361651068013,-0.11339092872570275,-2.1048782306091645,1.0824379154501005,-14.74545083390405,0.057583873933602675,-0.14398041834998024,0.12957753869542105,3.5961861856601542,-3.545167923852542,-3.079843986722604,-0.079202,-0.007429000000000019,-0.906363,0.10428400000000004,0.17327599999999999,-0.850959,0.18348600000000004,0.180705,0.05540400000000001,0.9969803078012655,0.0,single,-0.850959
63,0.525,walk,0.2054482179287086,-0.17220688827553265,0.03672146885874429,0.027609489672007853,-0.3432780216806397,-0.4455841039063219,0.0016800672026831191,-0.0018000720028785772,0.0007200288011519304,1.2394095763830373,-0.7423496939877594,-0.10548421936877322,3.3004264478386887,0.011919744057031894,0.7348993955261168,0.08642073641409362,-0.1008218884836313,-0.05758732827647036,-1.8540783449034879,6.670643360019403,0.9488430765546013,-0.08089999999999997,-0.006008999999999987,-0.906663,0.1129,0.16852499999999998,-0.8521439999999999,0.19379999999999997,0.17453399999999997,0.054519000000000095,0.9957243173074132,0.0,single,-0.8521439999999999
64,0.533333,walk,0.2055682227289201,-0.17880715228609204,0.043081723268930935,0.3414302312678402,-0.10026077010926547,-0.28203194266621534,0.005160206408258207,-0.001320052802110086,0.0001200048001921288,1.378975159006363,-0.8048721948877917,-0.14484579383175455,0.014401152071464796,-0.7920633638016851,0.7632610596647909,0.41763341000541465,0.05760460827655053,-0.07200576034559068,16.7485398563935,-7.503000228013066,-4.72357787867295,-0.08257000000000003,-0.0045299999999999785,-0.907021,0.12267799999999984,0.16330800000000006,-0.85371,0.20524799999999987,0.16783800000000004,0.053311,0.9911204556660551,0.0,single,-0.85371
65,0.541667,walk,0.21706263498919315,-0.18934485241180182,-0.03251739860810033,0.29338528578108486,-0.23427375212640872,-0.40367932872409995,0.003839692824577845,0.0013198944084453037,0.001679865610751142,1.4886009119270511,-0.7906167506599492,-0.15778737700983927,1.3792191337020574,-1.2644228612562642,-9.071168931729146,-0.15844895412531226,0.31676832380074027,0.18716832380117604,13.154038027440278,1.7105164660238086,-1.5528657521099858,-0.08434699999999995,-0.002941000000000027,-0.906736,0.13327500000000003,0.15829699999999997,-0.854754,0.21762199999999998,0.161238,0.05198199999999997,0.9926766524983553,0.0,single,-0.854754
66,0.55,walk,0.22452898115924017,-0.1596063842553693,-0.042121684867393344,-0.12530198945471985,0.20312257870360276,-0.1523332557560944,0.002400096003829221,-0.0031201248049886453,0.0009600384015353521,1.488059522380885,-0.8087123484939358,-0.16476659066362576,0.8959973803008503,3.568758929129053,-1.1525604535332983,-0.1727585288309874,-0.5328236185568139,-0.086382720414711,-0.06496934431370614,-2.171558602422482,-0.8375391400199751,-0.086198,-0.0016369999999999996,-0.9063770000000001,0.14380400000000004,0.15288799999999997,-0.8557760000000001,0.23000200000000004,0.15452499999999997,0.05060100000000001,0.9932469526716688,0.0,single,-0.8557760000000001
67,0.558333,walk,0.2205688227529129,-0.16968678747150356,-0.01980079203169126,0.20453504445902862,0.47439805853549893,-0.16005558412678594,0.003960158406330258,0.0002400096003842576,0.0015600624024968417,1.536661466458667,-0.8334333373334984,-0.18588743549742098,-0.4752380182800078,-1.2096967738070752,2.678614284855669,0.1872149768992021,0.40323225793506945,0.07200576034579324,5.832466587997422,-2.9666373262405936,-2.534602764166017,-0.08800300000000005,-0.00022099999999997122,-0.906199,0.154771,0.14735700000000002,-0.8571599999999999,0.24277400000000005,0.147578,0.049039000000000055,0.9928947879241932,0.009610000000000007,single,-0.8571599999999999
68,0.566667,walk,0.26349892008640147,-0.17890568754499744,-0.05735541156707161,-0.07276334538500416,0.050185532908679484,-0.2592100176781362,0.0035997120230350688,0.0009599232061378004,0.0010799136069108537,1.5766738660906923,-0.8401727861771005,-0.19258459323253938,5.151199584051865,-1.1061795144581006,-4.506193848737708,-0.043250105986943385,0.08638272207265867,-0.05761324641060528,4.801103867533583,-0.8086691676988182,-0.8035946406429495,-0.09016900000000017,0.0012780000000000014,-0.905712,0.16571499999999983,0.14184600000000003,-0.858287,0.255884,0.14056800000000003,0.04742499999999994,0.993535225231891,0.02574999999999994,single,-0.858287
69,0.575,walk,0.26017040681626874,-0.18360734429377054,-0.029401176047034915,0.061613206709949596,-0.0756718980485429,-0.28057529413997684,0.011760470418835283,-0.001800072002878601,0.0012000480019204553,1.7506300252010294,-1.093123724949012,-0.40477619104764573,-0.39943756991872764,-0.5642213787079252,3.3546424481023576,0.9793301807032628,-0.33121267358891476,0.014416704069315105,20.875574116205293,-30.355326865704292,-25.464010298224924,-0.09223899999999996,0.00279299999999999,-0.9054570000000001,0.17813499999999993,0.13426699999999997,-0.861415,0.2703739999999999,0.13147399999999998,0.044042000000000026,0.9800703292875255,0.059579999999999966,single,-0.861415
70,0.583333,walk,0.2595703828153013,-0.1834873394935793,-0.054842193687752165,0.2312722225380989,-0.16188055351950686,-0.2621927809920256,-0.01116044641787116,0.004680187207489629,0.0033601344053762307,1.5618624744989733,-0.9068762750509959,-0.15276611064442636,-0.07200576034650458,0.014401152069033118,-3.0530442386556036,-2.75062004520657,0.7776622117326537,0.2592207372441817,-22.653012204734825,22.35058801128229,30.242419345160005,-0.094495,0.004361000000000004,-0.904972,0.18898700000000002,0.128239,-0.862231,0.283482,0.12387799999999999,0.04274100000000003,0.979066890940326,0.0725900000000001,single,-0.862231
71,0.591667,walk,0.3003359731221652,-0.17266618670506512,-0.040916726661871024,-0.2226983327383178,-0.3039626744927615,-0.31925899446456285,-0.0016798656107461464,-0.005639548836095379,0.016078713702903907,1.609431245500362,-0.9311255099591949,-0.18262538996880057,4.891479518462152,1.2984344598649014,1.670922369316179,1.1375786905597483,-1.2382692636890964,1.5261074271091408,5.707795896494892,-2.909675414950658,-3.582826892773456,-0.0970120000000001,0.005753000000000008,-0.904497,0.199897,0.12191800000000003,-0.863412,0.2969090000000001,0.11616500000000002,0.04108500000000004,0.9714638876993447,0.08915000000000006,single,-0.863412
72,0.6,walk,0.27805112204487265,-0.1999279971198867,-0.05244209768391032,0.34551428458946204,0.12884228179253338,-0.17903287129914963,0.004080163206539041,-0.0027601104044156313,-0.0025201008040322066,1.6373454938197665,-0.8707548301932139,-0.1914076563062539,-2.6742891008391645,-3.271548111703089,-1.3830998466385933,0.6912311073185214,0.34554643365891924,-2.2319470187131025,3.3498437920802377,7.244771362772295,-1.053914117059091,-0.09929499999999991,0.007396000000000014,-0.9040809999999999,0.21122400000000008,0.11632800000000004,-0.86457,0.310519,0.10893200000000003,0.03951099999999996,0.9907779176099727,0.10489000000000004,single,-0.86457
73,0.608333,walk,0.314292571702858,-0.2823712948517922,0.12912516500660895,1.9655827644181596,-0.8458980472742377,-0.7637934379778157,0.0025201008040113553,-0.0018000720028785772,-0.0013200528021125664,1.6491059642385533,-0.9307572302892125,-0.1702868114724586,4.349147924875221,-9.893591471487476,21.788943080585444,-0.18721497690239755,0.11520921655310813,0.14401152069118386,1.4113129027705216,-7.200576034561192,2.53460276416599,-0.10189300000000001,0.00973400000000002,-0.905168,0.22234700000000007,0.110925,-0.867065,0.3242400000000001,0.10119099999999998,0.038103,0.9943890715072451,0.11897000000000002,single,-0.867065
74,0.616667,walk,0.29685625149989214,-0.18490520758338946,-0.046316294696424246,0.19888566620866463,-0.4073316895010006,-0.256225322480255,0.0029997600192181333,-0.0017998560115175582,-0.0021598272138225686,1.6353491720662576,-0.8748500119990441,-0.12491000719942479,-2.0921910490719906,11.694994872618583,-21.05129106107922,0.05755450146469652,2.5916889971071414e-05,-0.10076486821574358,-1.6506830060350033,6.7083295284579725,5.444780930289666,-0.10434199999999993,0.011259999999999992,-0.9048,0.2335020000000001,0.10517499999999996,-0.86772,0.33784400000000003,0.09391499999999997,0.03708,0.9931478114954531,0.1292000000000001,single,-0.86772
75,0.625,walk,0.32677307092283925,-0.16752670106804302,-0.030481219248767,-0.7444100609158952,-0.16847424881566114,-0.03145968074766595,0.010560422416880547,-0.003960158406336867,-0.005640225609024982,1.6079443177726969,-0.849513980559219,-0.07728309132365165,3.5901619372311266,2.0855042020096453,1.9002850651214664,0.9073157803506999,-0.2592466572446057,-0.41766451400484805,-3.2887140637898296,3.0404453905946234,5.71545852343369,-0.1069770000000001,0.012622999999999995,-0.9045930000000001,0.244178,0.09949199999999997,-0.86811,0.3511550000000001,0.08686899999999997,0.03648300000000004,0.9789829750792538,0.13516999999999996,single,-0.86811
76,0.633333,walk,0.3072122884915259,-0.18516740669626908,-0.06864274570983014,0.37566051692298247,0.6662181278597609,-0.05010010443514955,0.002760110404428918,-0.004680187207489629,-0.003360134405375398,1.6155046201847842,-0.8772350894035704,-0.06708268330733248,-2.347387787269086,-2.116969354161285,-4.579566357981878,-0.9360748844895712,-0.08640691241482772,0.27362188931352144,0.9072725803536963,-3.326666127967275,1.2240979258753293,-0.10951399999999989,0.014127,-0.904049,0.25508,0.093725,-0.868097,0.36459399999999986,0.079598,0.035951999999999984,0.9893525087769761,0.14048000000000005,single,-0.868097
77,0.641667,walk,0.32793376529878954,-0.18022558195344515,-0.06419486441085508,0.35515052559899934,-0.4769088638456512,-0.17512528197114033,0.0013198944084453212,-0.0022798176145897952,-0.0031197504199670426,1.6018718502520124,-0.8744900407967432,-0.05375569954403726,2.4863783066071248,0.592971531416361,0.5337030596322406,-0.17281209455046856,0.2880213094432263,0.02884377074734303,-1.6358015278104063,0.3293794824606723,1.5991101227856135,-0.112236,0.015610000000000013,-0.90354,0.26569700000000007,0.08793899999999999,-0.86801,0.3779330000000001,0.07232899999999998,0.03553000000000006,0.9931946646159625,0.14470000000000005,single,-0.86801
78,0.65,walk,0.3624144965798644,-0.1459258370334801,0.07896315852634642,0.3042481195693896,-0.9595948745669017,-0.04499801983818033,0.0018000720028652538,-0.002400096003842544,-0.0034801392055683576,1.580343213728541,-0.8253930157206248,-0.010320412816512947,4.137853267859682,4.116134035757218,17.179649938461644,0.05762361627504267,-0.014433984069692566,-0.04324838420752592,-2.5835397244055427,5.891878684281549,5.212442905019096,-0.11524100000000015,0.016805999999999988,-0.904227,0.27584600000000004,0.08227699999999999,-0.868754,0.3910870000000002,0.065471,0.03547299999999998,0.9923420177930885,0.14527000000000007,single,-0.868754
79,0.658333,walk,0.3459738389535576,-0.15648625945037606,-0.23100924036962475,-0.333448836673427,0.43248224137422625,-0.15133771079660494,0.001680067202709788,-0.0002400096003842576,-0.006240249609984035,1.5433817352694263,-0.7825513020520891,0.027601104044162977,-1.972957833470174,-1.2673013820828087,-37.19817579454866,-0.014401152064738632,0.25922073724448647,-0.33122649758978795,-4.435554837287281,5.141211288675882,4.550764053843306,-0.11810999999999994,0.018107999999999957,-0.902354,0.2858240000000001,0.07705999999999996,-0.8665989999999999,0.403934,0.058952000000000004,0.03575500000000009,0.9892218140043054,0.14245000000000002,single,-0.8665989999999999
80,0.666667,walk,0.34581233501320247,-0.17782577393808827,0.05039596832254425,1.2856675105158841,0.08135586775527678,-0.13327614503638563,0.0013198944084453037,0.0005999520038436186,-0.00443964482841397,1.5394768418526277,-0.8963282937364915,-0.012838972882168847,-0.019378922528813673,-2.5605368955737995,33.76592376915849,-0.04321727792950342,0.1007873295209827,0.216055289365257,-0.46854972603775397,-13.65214683038175,-4.852421037476783,-0.120981,0.01959500000000003,-0.902811,0.2957719999999999,0.07107200000000002,-0.8671260000000001,0.41675299999999993,0.051476999999999995,0.03568499999999997,0.9922160225357854,0.14314999999999994,single,-0.8671260000000001
81,0.675,walk,0.3564142565702514,-0.21840873634945165,-0.20544821792872192,-0.6025309661008887,1.148196401403822,-0.12383025395140054,0.002520100804038002,-0.0006000240009639668,-0.005160206408256473,1.4860194407776288,-0.8627145085803397,-0.012480499219969571,1.2722814781049894,-4.870150295375401,-30.702530451369864,0.14403052869227087,-0.14400288069213735,-0.08647084841503667,-6.415144734789227,4.03381557136105,0.04301856020632121,-0.12392999999999987,0.021409999999999985,-0.901142,0.30518500000000004,0.06570300000000001,-0.865518,0.4291149999999999,0.04429300000000003,0.03562399999999999,0.9903767256900469,0.14376,single,-0.865518
82,0.683333,walk,0.3483739349574135,-0.24396975879035468,-0.12108484339374137,0.5009168706777531,1.1065007679758372,-0.3827122189770331,0.006600264010550429,-0.004320172806909975,-0.006000240009599778,1.4580583223328927,-0.82863314532582,0.04476179047161907,-0.964877188628103,-3.06744539072402,10.124009904593942,0.48963917034830967,-0.44643571414209077,-0.10080806448377683,-3.3554684321056523,4.089927187629908,6.869349536972178,-0.12677800000000006,0.02340700000000001,-0.900183,0.3144319999999998,0.060831000000000024,-0.864136,0.4412099999999999,0.03742400000000001,0.03604699999999994,0.9834814701468545,0.13953000000000004,single,-0.864136
83,0.691667,walk,0.37269018478519406,-0.1996640268778481,-0.15070794336452056,-0.7578244945844046,0.038745639204150396,-0.2584302051156577,0.00311975041997616,-0.0008399328053730732,-0.0007199424046075133,1.4304055675545932,-0.8623710103191677,0.009239260859132114,2.9177165620086862,5.31626252849847,-3.5544876374824774,-0.41762822061126026,0.4175953925530208,0.6335850257970032,-3.318065128185651,-4.04821994160637,-4.262362564493244,-0.1298579999999998,0.02506400000000003,-0.898933,0.32324700000000006,0.055308000000000024,-0.862803,0.45310499999999987,0.030243999999999993,0.036129999999999995,0.9944831956546799,0.1387,single,-0.862803
84,0.7,walk,0.39805592223689484,-0.19044761790471854,-0.008760350414015409,-0.38024279040550607,-0.2709884228074849,-0.046002492548021044,0.004080163206512394,-0.0019200768030740608,0.0006000240009598112,1.400336013440542,-0.8125525021000947,0.0782431297251897,3.044010254614307,1.1060133173082494,17.034392529761966,0.1152541445501312,-0.1296224646227046,0.1584023047602708,-3.608490833319511,5.978460124693812,8.280795495746816,-0.13314099999999995,0.02663500000000002,-0.8988550000000001,0.331599,0.050124,-0.862078,0.46473999999999993,0.023488999999999982,0.03677700000000006,0.9924181401572187,0.13222999999999996,single,-0.862078
85,0.708333,walk,0.39133565342615706,-0.21288851554062047,-0.11208448337933355,-0.24510786200160672,0.8813870740766881,-0.15645583442184804,0.005040201608076004,-0.003960158406336867,0.0020400816032636643,1.335533421336868,-0.8005520220808778,0.0855634225369001,-0.8064645158691655,-2.6930154369256973,-12.399391931515385,0.1152092165562949,-0.2448195851749427,0.17281382482945482,-7.776622117325554,1.4401152069142902,0.8784702762162929,-0.13636000000000004,0.028376000000000012,-0.897904,0.33946699999999996,0.04522700000000002,-0.8604310000000001,0.475827,0.016851000000000005,0.03747299999999998,0.9887888423878873,0.12527000000000005,single,-0.8604310000000001
86,0.716667,walk,0.4058075353971647,-0.21190304775617666,-0.10619150467962778,0.06117388581345494,0.3459579480339403,-0.16877397253267157,0.005399568034539282,-0.005639548836095379,0.006239500839933169,1.2684185265178551,-0.7792176625869871,0.10163186945044325,1.7364869175674966,0.1182466743993038,0.7071008758946158,0.04312052153387029,-0.2015107307125629,0.5038899972005606,-8.053143126831326,2.559918345799204,1.9280593848743743,-0.13969700000000018,0.030094999999999983,-0.8969670000000001,0.34665599999999985,0.04049900000000001,-0.858699,0.48635300000000004,0.010404000000000024,0.03826800000000008,0.9833424010695611,0.11732000000000004,single,-0.858699
87,0.725,walk,0.5215408616344654,-0.29869194767791213,-0.257290291611671,-1.5137189896846954,0.513692486164537,-0.7693443243943329,0.006600264010577076,-0.007200288011521066,0.007800312012480878,1.2366494659786516,-0.7770310812432578,0.12060482419296953,13.888554690663845,-10.41508459399211,-18.132579735034753,0.14408928069576452,-0.18729619289880012,0.18730483289904268,-3.812439762294957,0.2624002572578073,2.2768456429288912,-0.143988,0.032524,-0.8947579999999999,0.3526149999999999,0.03651300000000002,-0.85555,0.4966029999999999,0.00398900000000002,0.03920799999999991,0.9791665000039849,0.10792000000000002,single,-0.85555
88,0.733333,walk,0.4395775831033189,-0.2263290531621254,-0.1664466578663172,-0.8243826465969755,0.46520945723624724,-0.06809657531867747,0.009840393615734445,-0.010440417616705073,0.01044041761670424,1.1557662306492145,-0.7358694347773912,0.12504500180007164,-9.835986863212073,8.683894697682279,10.901672116327061,0.3888311058631172,-0.3888311058663138,0.316825345520623,-9.706376494592194,4.939595159710362,0.5328426265573131,-0.14756900000000006,0.03432299999999999,-0.893284,0.3585829999999999,0.03226699999999999,-0.853121,0.5061519999999999,0.0020560000000000023,0.04016299999999995,0.9704272090833961,0.09836999999999996,single,-0.853121
89,0.741667,walk,0.4626829853611569,-0.23782097432205365,-0.19006479481640604,-0.2644390112343315,-0.342963149411011,-0.3441887197755285,0.003839692824577896,-0.02327813774897685,0.014518838492921016,1.090232781377514,-0.799016078713704,0.010079193664506986,2.7724264768224263,-1.3789202255733524,-2.8339497180332325,-0.7200264928193645,-1.5404031836179326,0.4893713554375808,-7.863384841816768,-7.5769911130685275,-13.794793392796413,-0.1513929999999999,0.036111000000000004,-0.891579,0.36381300000000016,0.027590000000000003,-0.851453,0.515206,0.008521,0.040125999999999995,0.9538296749574957,0.09874,single,-0.851453
90,0.75,walk,0.46621864874596447,-0.2318492739709566,-0.1569662786511558,0.39008581121579516,-0.20854042183362403,-0.3333811004848504,0.006000240009613022,-0.03768150726028797,0.02736109444377752,1.1701668066722433,-0.9871594863794524,-0.12948517940717702,0.42429657804003146,0.7166327074399423,3.971980819062773,0.2592760332455438,-1.7284734802965387,1.54113235939715,9.592466734036845,-22.578112044371494,-16.748394704390186,-0.15522799999999992,0.03772900000000001,-0.8900429999999999,0.36967899999999987,0.02129599999999998,-0.851224,0.5249069999999998,0.01643300000000003,0.03881899999999994,0.921745991250334,0.11181000000000008,single,-0.851224
91,0.758333,walk,0.4684987399495849,-0.20976839073563183,-0.10620424816991599,-0.3314284479612167,0.2479572525679868,-0.15332687756210053,0.013320532821309464,0.002760110404415595,0.0363614544581779,0.9750390015600775,-0.7716308652346051,0.09432377295091872,0.2736218893100238,2.649811980718188,6.091687325241764,0.878470276214618,4.853188247294299,1.0800864051842483,-23.41627326439037,25.86446911614621,26.85814860891573,-0.15902099999999986,0.039500000000000035,-0.8888550000000001,0.3739000000000001,0.016614000000000018,-0.849553,0.532921,0.022886000000000017,0.03930200000000006,0.9352953252933356,0.10697999999999996,single,-0.849553
92,0.766667,walk,0.4851211903047806,-0.2276217902567786,-0.09251259899209043,-0.19337752917841525,0.23655660982546267,-0.25720669089231557,0.02027837772976538,-0.004319654427650133,0.011159107271418686,0.9468442524597931,-0.718862491000727,0.07271418286537064,1.9945344798651081,-2.142236563612534,1.6428664720213149,0.834874599046791,-0.8495038195423288,-3.024039739231984,-3.383099244094621,6.331698372195638,-2.5929433747958006,-0.162895,0.04136099999999998,-0.887991,0.377748,0.012519999999999976,-0.8481759999999999,0.540643,0.028841000000000006,0.039815000000000045,0.9607572479154717,0.10185000000000005,single,-0.8481759999999999
93,0.775,walk,0.47497899915997976,-0.2056882275290995,-0.11868474738989722,-0.04724128668077664,0.10046065683095622,-0.2087144841057229,-0.008640345613806511,0.013200528021120669,0.0066002640105603345,0.8054722188887583,-0.5760230409216309,0.13920556822272764,-1.2171116218409719,2.6321328126339867,-3.140783439074365,-3.470385616653279,2.102505994092251,-0.5470830746259849,-16.96532264142976,17.141419666278104,7.97928541429938,-0.166925,0.04318499999999997,-0.8869469999999999,0.3805019999999999,0.009433999999999998,-0.846027,0.5474269999999999,0.033750999999999975,0.040919999999999956,0.9714969301179917,0.0908000000000001,single,-0.846027
94,0.783333,walk,0.46657866314651714,-0.20556822272891345,-0.08412336493459235,0.046882437069657334,-0.08475467358044995,-0.16044345742243893,0.01512060482417492,0.003360134405379606,0.029041161646466022,0.7746309852394286,-0.6109444377775182,0.06228249129965322,-1.0080806448413182,0.01440115206840712,4.147531795908458,2.851428109682185,-1.180894469667725,2.693015436926184,-3.7010960817628646,-4.190735252116593,-9.231138476308068,-0.17068700000000003,0.04492600000000002,-0.886004,0.3830690000000001,0.006056000000000006,-0.844807,0.5537560000000001,0.038870000000000016,0.04119700000000004,0.9451438177482032,0.08803000000000005,single,-0.844807
95,0.791667,walk,0.4667626589872713,-0.18778497720182039,-0.05711543076554215,0.5188325602967268,0.16764474982481276,-0.07610811178602839,0.018118550515960053,0.006959443244540683,0.03203743700503892,0.7072234221262058,-0.6129109671226257,0.03107751379889529,0.022077734671727797,2.133818757750532,3.240692844858411,0.3597247050378102,0.431882510098518,0.3595242810862584,-8.088260512745657,-0.23596464424136468,-3.7442977562704214,-0.17442599999999997,0.04654900000000001,-0.885261,0.385073,0.0025129999999999875,-0.8440719999999999,0.559499,0.04403600000000002,0.04118900000000003,0.9375697479643346,0.08811000000000008,single,-0.8440719999999999
96,0.8,walk,0.5670226809072447,-0.21036841473658913,-0.13260530421217065,-0.7086363540596653,0.7797566407113082,-0.5653003050418137,0.01800072002881242,0.00552022080883119,0.038761550462018776,0.6324252970118908,-0.545541821672864,0.008160326413057988,12.031683897752668,-2.710120909008598,-9.059147179482562,-0.014140224066678695,-0.17271360082917164,0.806925891873254,-8.976134059080131,8.084620838804922,-2.750172493200193,-0.17900099999999997,0.048348,-0.883833,0.385618,-0.00028000000000000247,-0.842899,0.564619,0.048628000000000005,0.040934000000000026,0.9281793020866553,0.09065999999999996,single,-0.842899
97,0.808333,walk,0.5371414856594222,-0.20184807392296078,-0.0786031441257611,-0.6025655730856605,0.32483597261035996,-0.07607098298384178,0.02112084483378802,0.008160326413058097,0.038641545661826336,0.5291011640465529,-0.5556222248890034,0.006600264010560422,-3.5858868652133427,1.0224817969072872,6.48051843110645,0.3744299537952275,0.3168253455210526,-0.014401152069175702,-12.399391931517913,-1.2096967738076847,-0.18721497689878555,-0.18330099999999994,0.05009800000000003,-0.882856,0.385551,-0.0032280000000000086,-0.842189,0.5688519999999999,0.05332600000000004,0.04066700000000001,0.9253554708264338,0.09332999999999991,single,-0.842189
98,0.816667,walk,0.5394768418526543,-0.18310535157186947,-0.05171586273097623,0.000991072721747249,0.4399884453799778,-0.2522456282838656,0.016318694504429198,0.010199184065274909,0.045596352291816945,0.4604031677465876,-0.4948404127669702,-0.05627549796016409,0.2802203255618058,2.248946766389629,3.2262156701205496,-0.576211942567649,0.24464334679827165,0.8345100347960831,-8.243100107987136,7.293233995924249,-7.544487877456686,-0.18766100000000008,0.051709000000000005,-0.882045,0.384892,-0.005825999999999998,-0.8422270000000001,0.5725530000000001,0.057535,0.03981799999999991,0.9175151446855963,0.10182000000000008,single,-0.8422270000000001
99,0.825,walk,0.5203408136325375,-0.18324732989319747,0.00024000960037759599,1.0006236583916197,0.4297539567037587,0.009745839756768212,0.023640945637826056,-0.0044401776071054345,0.04452178087123482,0.39805592223689484,-0.4030961238449576,-0.12552502100084015,-2.296415243023763,-0.017038080082564275,6.234954077925633,0.8787052842189997,-1.7567936724325544,-0.1289537286190013,-7.481968739912799,11.009755060844052,-8.310275175888238,-0.19179999999999997,0.053198999999999996,-0.881676,0.38387300000000013,-0.007657999999999998,-0.843275,0.5756730000000001,0.060856999999999994,0.03840100000000002,0.9156594459649264,0.11598999999999998,single,-0.843275
100,0.833333,walk,0.5661826473058899,-0.20868834753389934,-0.12084483379334884,-0.4496327908493561,-0.07459882150803793,-0.23608031053143275,0.021840873634960487,0.004920196807873884,0.04764190567622703,0.33313332533299866,-0.3649345973838957,-0.17052682107284287,5.501240090405878,-3.053044238653757,-14.530762437744622,-0.21601728103510875,1.1232898613919693,0.37442995379721594,-7.791023269398285,4.579566357981723,-5.40043202592134,-0.19633599999999984,0.054979,-0.8802719999999999,0.381931,-0.008960000000000024,-0.843689,0.5782669999999999,0.06393900000000002,0.03658299999999992,0.9122664501929432,0.13417000000000007,single,-0.843689
101,0.841667,walk,0.5812335013198985,-0.1867050635949112,-0.10847132229421755,-0.3003051143155211,0.0495959607888031,-0.2387437439626758,0.026037916966631876,-0.017158627309815593,0.0596352291816647,0.2410607151428047,-0.3681305495560345,-0.18250539956803252,1.8059580050406185,2.6377830500345527,1.484702603687449,0.5036049114076503,-2.6492469543663675,1.439083693956993,-11.047829396471474,-0.3834835819700961,-1.4373144342680064,-0.200963,0.056392,-0.878871,0.3790960000000001,-0.010472000000000037,-0.844306,0.5800590000000001,0.06686400000000003,0.03456499999999996,0.8878399931314884,0.15435,single,-0.844306
102,0.85,walk,0.5841833673347101,-0.17784711388456168,-0.07668306732268702,-0.3843063526582037,0.09649209599906448,-0.248308237215995,0.03396135845434247,-0.02724108964358992,0.059162366494660376,0.1912876515060468,-0.29929197167886945,-0.25369014760590713,0.3539980817006656,1.0629964851013578,3.81474318631115,0.9508510125657826,-1.2099438778080427,-0.05674579227221052,-5.97300655667327,8.26095978365123,-8.542511465003631,-0.20554800000000006,0.057647000000000004,-0.877739,0.3758219999999999,-0.011483999999999994,-0.845781,0.5813699999999999,0.069131,0.03195800000000004,0.8775750066108168,0.18042000000000002,single,-0.845781
103,0.858333,walk,0.601824072962915,-0.17832713308532114,-0.05880235209408237,-0.1751217853237065,-0.0563513189771202,-0.2462688553298661,0.019800792031677672,-0.01824072962918335,0.09612384495379812,0.10104404176167117,-0.2734909396375814,-0.28105124204968046,2.11696935415874,-0.05760460827546632,2.1457716582988815,-1.699335944157535,1.0800864051849914,4.435554837290002,-10.829666355979269,3.096247694862345,-3.283462671759656,-0.21039800000000008,0.058981000000000006,-0.876448,0.3716489999999999,-0.012276999999999982,-0.8476330000000001,0.582047,0.07125799999999999,0.028814999999999924,0.833628685438694,0.21185000000000004,single,-0.8476330000000001
104,0.866667,walk,0.5902327813774807,-0.1687065034797248,-0.09167266618670401,-0.8773325496321711,0.5537583907872031,0.032589984693594816,0.01691864650827304,-0.008999280057594452,0.12383009359251308,0.05135589152868939,-0.23806095512358977,-0.319414446844254,-1.390843722754299,1.1543832020154063,-3.9441221613417126,-0.34582979642484374,1.1088852377716523,3.324483877935579,-5.962101059873057,4.251258041035739,-4.60321631804341,-0.21517600000000003,0.06031200000000003,-0.8746520000000001,0.3671580000000001,-0.01285499999999995,-0.849531,0.5823340000000001,0.07316699999999998,0.02512100000000006,0.7911598184126498,0.24878999999999996,single,-0.849531
105,0.875,walk,0.671906876275064,-0.1861274450977994,-0.05688227529102166,0.11259266448799339,0.29087768741937203,-0.646844618433473,0.03816152646106314,-0.012360494419779109,0.051362054482178815,-0.02256090243610659,-0.19128765150606422,-0.3528141125645009,9.801283439047513,-2.090596618033666,4.175013908038187,2.549247564237371,-0.4033618579364746,-8.696512553742226,-8.870370090579103,5.6130209549412395,-4.008120211238059,-0.22045700000000013,0.06175999999999998,-0.87375,0.3613709999999999,-0.01289800000000002,-0.851997,0.581828,0.074658,0.021753000000000022,0.8913831330270104,0.2824699999999999,single,-0.851997
106,0.883333,walk,0.6228249129965207,-0.18792751710068467,-0.13008520340813265,1.2302630408972444,-0.5745259365764168,-0.9458656223711496,0.012360494419772447,-0.023760950438014537,0.0939637585503415,-0.08436337453496882,-0.16728669146765876,-0.3801752070082792,-5.890071196273023,-0.21601728103747195,-8.784702762163768,-3.0962476948626647,-1.3681094465661083,5.112408984538883,-7.416593315596061,2.8802304138251964,-3.2834626717602555,-0.2255440000000002,0.06312800000000002,-0.871883,0.35547799999999996,-0.012726000000000015,-0.854081,0.5810220000000001,0.07585400000000003,0.017801999999999985,0.8371558984375455,0.32197999999999993,single,-0.854081
107,0.891667,walk,0.7401007919366435,-0.17170626349892293,0.012359011279093451,-0.5961192034302604,0.3695627799137468,-0.5147953040557837,0.013798896088323484,-0.024838012958964952,0.11567074634029421,-0.1453083753299832,-0.13714902807775517,-0.3926085913126977,14.071979714437663,1.9463947206337695,17.091938407394636,0.17259439267471136,-0.12923716354096726,2.6046301643811898,-7.312815070196151,3.6162303083637823,-1.4918867655889791,-0.23159700000000005,0.06435200000000002,-0.871022,0.34809899999999994,-0.012438000000000005,-0.857456,0.579696,0.07679000000000002,0.013565999999999967,0.801484271684369,0.36434000000000005,single,-0.857456
108,0.9,walk,0.6995079803191933,-0.18000720028801093,-0.028561142445692963,0.3835697685336034,-0.09772625760143946,-0.728484955362107,0.01308052322091855,-0.02652106084243013,0.1314052562102477,-0.1752070082803325,-0.08556342253689676,-0.4004560182407279,-4.8713322473839,-0.9961522607809868,-4.910614871569211,-0.08620819241628842,-0.20197382496881944,1.8882167130629337,-3.5879794732208308,6.1905202857144115,-0.9417289005196408,-0.237317,0.06563100000000005,-0.869689,0.34081000000000006,-0.011650999999999967,-0.860555,0.5781270000000001,0.07728200000000002,0.009134000000000086,0.7755141175212068,0.40866,single,-0.860555
109,0.908333,walk,0.7788311532461498,-0.19044761790471187,-0.013920556822273616,-0.1769288645499095,0.12792694092108817,-0.730586048638724,0.021600864034569858,-0.06816272650906254,0.10392415696627945,-0.09744389775591532,-0.06768270730829402,-0.3294131765270638,9.519161517695583,-1.2529002300133256,1.756940552432435,1.0224817969100428,-4.997199767986654,-3.297863823829174,9.33194654079178,2.1457716582986803,8.525482024920766,-0.24362700000000004,0.06664999999999999,-0.868707,0.3335079999999999,-0.010628000000000026,-0.863184,0.577135,0.07727800000000001,0.005523000000000056,0.7897555324195907,0.44477,single,-0.863184
110,0.916667,walk,0.8826493880489396,-0.17494600431965487,-0.010799136069118528,-3.433882541329312,0.5472139258905786,-0.41528801400177734,0.032637389008885034,-0.0735541156707494,0.11747060235181105,0.10235181185504993,-0.11555075593952295,-0.2571394288456903,12.457191601006592,1.8600448266206961,0.3745405271364368,1.3242770547534308,-0.6469149462067227,1.625443410790916,23.973567267934214,-5.743706339240288,8.672155949288813,-0.2507109999999999,0.06749499999999997,-0.8676379999999999,0.327005,-0.010133000000000003,-0.8652369999999999,0.5777159999999999,0.07762799999999997,0.0024009999999999865,0.7626842848866106,0.4761329191611795,single,-0.8652369999999999
111,0.925,walk,0.7397095883835393,-0.18936757470299018,0.021480859234374115,2.8137608154400757,-0.8030799246374513,-0.702701376380668,0.03840153606142741,-0.07416296651866133,0.11280451218048632,0.3358934357374276,-0.10860434417376519,-0.09492379695187768,-17.153462098331893,-1.7306576723071214,3.8737543865945643,0.6917253153176951,-0.07306502435040522,-0.5599532186877128,28.02611591052162,0.8336027560011681,19.46665449343717,-0.2565550000000001,0.06845499999999999,-0.866877,0.3236399999999999,-0.009459999999999968,-0.866207,0.580195,0.07791499999999996,0.0006700000000000594,0.7660740766408052,0.49329999999999996,single,-0.866207
112,0.933333,walk,0.8713548541941711,-0.1941677667106712,0.08652346093843492,-0.97334731839716,0.2910364183661293,-0.43449069760241465,0.04368174726989491,-0.07632305292211397,0.1330853234129376,0.4272170886835522,-0.13500540021601498,0.010320412816512251,15.79806381982876,-0.5760460827650397,7.805424421464227,0.6336506910437476,-0.2592207372438087,2.4337946996821644,10.959276724604036,-3.1682534552082124,12.629810364621491,-0.263452,0.06943700000000003,-0.866489,0.319939,-0.008967000000000003,-0.866842,0.583391,0.07840400000000003,0.0003530000000000477,0.730611815373575,0.5,single,-0.866489
113,0.941667,walk,0.8240940724742073,-0.18934485241180182,-0.09863210943124348,-1.4406572859269011,0.5208310563273888,-0.4640805083677178,0.012958963282936905,-0.05519558435325323,0.1984641228701692,0.3778497720182439,-0.12790976721861624,0.006839452843772625,-5.670840139184483,0.5787034195907546,-22.21689109307379,-3.6864391633018685,2.535093420789606,7.844828348599845,-5.9236041115080305,0.8514078470600772,-0.4176817821861771,-0.2702120000000001,0.07055499999999998,-0.864013,0.31621999999999995,-0.00845499999999999,-0.865963,0.5864320000000001,0.07900999999999997,0.0019500000000000073,0.6364938012182726,0.5,single,-0.864013
114,0.95,walk,0.6129845193807677,-0.16872674906996654,0.16560662426497785,3.433341232214456,0.4347049337057406,-0.31077313047479194,0.05640225609024058,-0.03348133925356729,0.1560062402496117,0.29785191407657724,-0.15144605784232,-0.05304212168486763,-25.334159737602487,2.4742713718751315,31.709916440204456,5.213403673023409,2.605813644508117,-5.0951497204557645,-9.600126958078407,-2.8244678535586174,-7.186076386492356,-0.27485000000000004,0.07168200000000002,-0.864093,0.31359400000000015,-0.008311000000000013,-0.867785,0.5884440000000002,0.07999300000000004,0.0036920000000000286,0.6810232604012826,0.5,single,-0.864093
115,0.958333,walk,0.8767550702028086,-0.14352574102963758,-0.03600144005761151,-1.908594305407505,0.006072624614094021,-0.11459792507205921,0.0740429617184792,-0.09456378255130296,0.1826473058922344,0.1983679347173764,-0.1455658226329004,-0.11760470418816724,31.653732247934695,3.024241934516843,-24.19393547612967,2.116969354162792,-7.330186403184377,3.197055759345084,-11.938555065306662,0.7056564513884017,-7.747819813188448,-0.281539,0.07208999999999999,-0.862271,0.307941,-0.008328000000000002,-0.8684649999999999,0.58948,0.08041799999999999,0.006193999999999922,0.5737314414000518,0.5454852627679083,double,-0.862271
116,0.966667,walk,0.7724982001439759,-0.11723062155027576,0.029277657787379424,0.6318684633402899,0.16503160261595945,-0.13314096247646207,0.08183345332374205,-0.08675305975522242,0.19330453563714772,0.06179505639549307,-0.08231341492680762,-0.2159827213822873,-12.509823621170144,3.1551619245694287,7.832865112189877,0.9347842098947433,0.9372117585889707,1.2787652681681347,-16.387434403873566,7.589681750191062,-11.804417709877528,-0.28729499999999986,0.07234399999999996,-0.860904,0.3020180000000001,-0.008037000000000016,-0.870509,0.589313,0.08038099999999998,0.009604999999999975,0.5253948118992586,0.60124268307816,double,-0.860904
117,0.975,walk,0.8106324252970273,-0.1526461058442346,0.04068162726508836,-0.35710203387316947,-0.5424719907214642,0.01070430431757056,0.13368534741387825,-0.09636385455418282,0.1321252850114014,-0.007200288011514404,-0.03108124324973138,-0.2592103684147392,4.576290069969012,-4.250028116399756,1.3685310785682274,6.222476189863995,-1.1533415095356405,-7.341803747239517,-8.279772519741762,6.148106525510225,-5.187525144900072,-0.2929360000000001,0.07281299999999996,-0.860142,0.2952030000000001,-0.00702400000000003,-0.873008,0.5881390000000002,0.07983699999999999,0.012866000000000044,0.5193028510880758,0.5647226206100089,double,-0.860142
118,0.983333,walk,0.8047521900876122,-0.14916596663866422,0.052802112084482676,-0.20146743116568383,0.29916638700168197,0.29276099314061715,0.05712228489141258,-0.026881075243009846,0.27085083403336047,0.03252130085202317,-0.006000240009599698,-0.21492859714388496,-0.7056564513878588,0.41763341000484494,1.4545163589816712,-9.187935020096646,8.338267048022642,16.647731791906697,4.7667813348778845,3.009840782447087,5.314025113507029,-0.29916600000000004,0.07383199999999995,-0.858325,0.2887679999999999,-0.005831000000000031,-0.875239,0.587934,0.07966299999999998,0.016913999999999985,0.3673416858047,0.6375701609678279,single,-0.858325
119,0.991667,walk,0.7284617230621517,-0.14290856731461535,-0.0345572354211611,0.5274244244705818,-0.11681804411687378,0.19838305450049867,0.17518598512119332,-0.09623230141588361,0.10451163906887553,0.04295656347493191,-0.03575713942884835,-0.059035277177826036,-9.15412371315826,0.7508278526576558,-10.48228311802787,14.166510706717233,-8.32148142223112,-19.959106667204928,1.2521313442415165,-3.5705422869269046,18.705701939771995,-0.30377699999999996,0.07422099999999998,-0.857166,0.28305500000000006,-0.0049380000000000535,-0.875443,0.586832,0.07915900000000003,0.018276999999999988,0.4413108748342295,0.8645070387521848,single,-0.857166
120,1.0,walk,0.9169566782671279,-0.1029641185647452,0.0787231489259555,1.0466215949118358,0.9295446356961862,-0.3821496732638877,0.1411256450257817,-0.05796231849274081,0.20628825153006014,0.04344173766950341,-0.05016200648025587,-0.083283331333253,22.62029943657451,4.793525591008038,13.594189889249504,-4.087404307621682,4.592581654043278,12.213682042623807,0.05822323227787119,-1.7286531922965869,-2.909882893966982,-0.31024200000000013,0.074596,-0.856103,0.275776,-0.004498000000000002,-0.8767929999999999,0.5860180000000001,0.079094,0.020689999999999986,0.3654743824314238,0.8225213256642147,single,-0.856103
121,1.008333,walk,0.8396735869434758,-0.14712588503540336,0.04008160326413771,-1.169318379770829,0.41818399970801157,0.41235583900447137,0.16248649945998916,-0.04812192487699368,0.2178087123484964,0.030841233649340462,-0.08784351374055167,-0.07044281771270883,-9.274341932515634,-5.299623961437485,-4.637170966256827,2.563405068307651,1.1808944696684531,1.3825105986363109,-1.512120967258258,-4.521961749705526,1.5409232713961702,-0.31588499999999997,0.07542100000000002,-0.854622,0.26903600000000005,-0.0040040000000000076,-0.877714,0.584921,0.07942500000000002,0.023092,0.3091336947535852,0.805421715507288,single,-0.854622
122,1.016667,walk,0.8244540436765082,-0.11939044876409413,0.12610991120709206,-0.1844253422237468,0.18939429095266716,0.5603285192938,0.164146868250543,-0.056155507559397695,0.2774178065754712,0.010079193664503522,-0.1131509479241618,-0.05927525797936137,-1.8261990961084114,3.3279861136679885,10.322571147462646,0.1992283166011312,-0.9639528056640211,7.152519105708465,-2.491245498540531,-3.0366491700995843,1.3399999680042447,-0.321388,0.07594799999999996,-0.8533609999999999,0.26224899999999995,-0.003952000000000011,-0.8792589999999999,0.583637,0.07989999999999997,0.025897999999999977,0.24102000000000007,0.7864435842844202,single,-0.8533609999999999
123,1.025,walk,0.7941917676707156,-0.11280451218049448,0.08592343693748428,0.11110128708212268,-0.3310284904750826,0.5716893434085382,0.196447857914305,-0.04476179047162074,0.2619704788191557,-0.005760230409222182,-0.08268330733229347,-0.04896195847833942,-3.631618385430558,0.7903440037921176,-4.822569815145584,3.8762738106038985,1.3673007425629498,-1.8537534808971154,-1.900806921123947,3.6562631215490957,1.237645445940483,-0.32636900000000013,0.076515,-0.851894,0.2555829999999999,-0.0037009999999999543,-0.880383,0.581952,0.08021599999999995,0.028488999999999987,0.21511000000000002,0.8395580500979971,single,-0.851894
124,1.033333,walk,0.7310692427696963,-0.1264850594023738,0.15660626425056737,0.21719650963807538,-0.5525899935920404,0.753306145206144,0.2416896675867211,-0.10764430577222674,0.3386535461418387,0.0013200528021100508,-0.07152286091444024,-0.030961238449537593,-7.575005988361721,-1.6417313358789267,8.482278568712571,5.429234330063042,-7.5462036842199565,9.202336172168684,0.8496679720787362,1.3393071424280611,2.1601728103685955,-0.33044699999999994,0.07667200000000002,-0.850377,0.2495019999999999,-0.003242999999999996,-0.881946,0.5799489999999998,0.07991500000000001,0.03156899999999996,0.18431000000000008,0.8700869900117364,single,-0.850377
125,1.041667,walk,0.7141828653707788,-0.13714902807775034,0.12838972882169855,0.3381698897466887,-0.6791461346321265,0.8363905689303757,0.27729781617470556,-0.14110871130309968,0.3856491480681629,-0.020278377729765647,-0.033837293016559855,-0.019198464122870587,-2.0262031916148113,-1.2795738751351968,-3.385713394392771,4.27263601967664,-4.015407431110341,5.639021109470258,-2.5916043354782947,4.521906395234113,1.4114200055996196,-0.33408799999999994,0.07663899999999996,-0.848233,0.24338100000000007,-0.0023820000000000507,-0.883176,0.577469,0.07902100000000001,0.034942999999999946,0.15056999999999998,0.9268799308078992,single,-0.848233
126,1.05,walk,0.768870754830186,-0.09636385455418692,0.08964358574342123,-0.2689144502722015,-0.3465960116598161,0.6603968676472318,0.33529341173645916,-0.13248529941197343,0.3846153846153778,0.012840513620527462,-0.004080163206525609,-0.05868234729389113,6.562809247498645,4.894416599491505,-4.649723158319531,6.959749857404606,1.034850820967971,-0.12405657659727469,3.974425939072667,3.570998417140733,-4.738255510742812,-0.33770100000000003,0.07633800000000002,-0.8457749999999999,0.23708099999999988,-0.0016129999999999756,-0.884412,0.5747819999999999,0.07795099999999999,0.03863700000000003,0.11362999999999995,0.8996513798224786,single,-0.8457749999999999
127,1.058333,walk,0.75291011640465,-0.10440417616704546,0.11976479059163128,-0.20677435812436237,-0.13408067101056634,0.8562586333300848,0.398175927037077,-0.15696627865114457,0.351614064562586,0.024000960038399112,-0.028921156846273062,-0.03312132485299424,-1.9153532251933412,-0.9648771886305794,3.614689169352014,7.546203684221578,-2.937835022101448,-3.960316819007816,1.3393071424303074,-2.981038478308854,3.0674453907232837,-0.340657,0.07590000000000002,-0.843843,0.23100699999999996,-0.0009839999999999849,-0.885686,0.571664,0.07688400000000001,0.041842999999999964,0.08156999999999998,0.9165084575788739,single,-0.843843
128,1.066667,walk,0.744540436765055,-0.10439164866810359,0.13222942164625964,-0.18495149048227644,0.11348523802132487,0.9299874947907945,0.4793616510679074,-0.1409887209023312,0.41168706503479285,0.010439164866831007,-0.02627789776818131,-0.02903767698584081,-1.0042812142542528,0.0015031796186551621,1.4956360756693383,9.741507563094528,1.9171535575729846,7.20818340199261,-1.6272852377691387,0.3171657161137185,0.48999854417487365,-0.34286700000000003,0.07559499999999997,-0.841514,0.22488900000000012,-0.0003330000000000277,-0.88703,0.5677560000000001,0.075928,0.045516,0.0448400000000001,0.9324497972910786,single,-0.841514
129,1.075,walk,0.755070202808115,-0.06636265450618394,0.08256330253210467,-0.48489076751998933,-0.009144580057294873,1.0453813539367502,0.468018720748836,-0.20760830433216965,0.489139565582629,0.0007200288011461112,-0.014280571222846672,-0.05292211688467634,1.2636224700660137,4.563661845904236,-5.960172700606676,-1.3612060865320428,-7.994669798372622,9.294671852614528,-1.1663429816014623,1.4397367749111663,-2.8662474377577998,-0.345259,0.07441800000000004,-0.8381259999999999,0.2186030000000001,0.00010100000000001774,-0.8881589999999999,0.5638620000000001,0.07431700000000002,0.050032999999999994,0.0,0.9086337709562861,single,-0.8381259999999999
130,1.083333,walk,0.731429257170296,-0.056882275291007575,0.08028321132845541,-0.46750089214332485,0.0409336123761305,0.981336683021061,0.5348613944557875,-0.19188767550701896,0.48193927757109345,-0.023880955238216338,0.008160326413057879,-0.07620304812192315,-2.837026957616527,1.1376910134616818,-0.2736218893134792,8.021441702502141,1.8865509210548912,-0.8640691241492168,-2.9522361741704093,2.6930154369259762,-2.7938235014096247,-0.346897,0.073293,-0.834779,0.21230899999999986,0.0006430000000000047,-0.889463,0.5592059999999999,0.07264999999999999,0.054683999999999955,0.0,0.8662112414067789,single,-0.834779
131,1.091667,walk,0.7209023278137902,-0.07295416366690773,0.06671466282697522,-0.50613729932717,0.0770800071271914,0.9454079441185084,0.5344372450204035,-0.27573794096473075,0.5875929925606062,0.030237580993538012,-0.031197504199669178,0.005279577633789682,-1.2631304723429444,-1.928472327321869,-1.6280955725318513,-0.05089386073722762,-10.061226956769065,12.677431604213428,6.493704851422531,-4.722561868577851,9.777132920052122,-0.34845100000000007,0.07160299999999997,-0.830438,0.206553,0.0009909999999999641,-0.889975,0.555004,0.07061200000000001,0.05953699999999995,0.0,0.9270565380162987,single,-0.830438
132,1.1,walk,0.7015480619224401,-0.07992319692787571,0.06276251050041173,-0.32218507952921627,-0.09255973044951192,0.9763735340119228,0.5733829353173965,-0.4173766950677931,0.7429497179887068,0.012120484819381369,-0.025801032041277025,-0.020160806432257115,-2.322604811154409,-0.8363174440139038,-0.474277250277621,4.673669782430378,-16.99733038558261,18.64355279348349,-2.1741385064390166,0.6476025631095714,-3.052968206653828,-0.3495189999999999,0.06879099999999999,-0.82477,0.2008080000000001,0.0014419999999999988,-0.890666,0.550327,0.06734899999999999,0.06589599999999995,0.0,0.941808326229157,single,-0.82477
133,1.108333,walk,0.9333973358934518,-0.02700108004320233,0.2006480259210395,1.147556967109124,1.7131663842613942,-0.30219976209847405,0.622584903396138,-0.34549381975279575,0.7028681147245955,-0.0032401296051841467,-0.015000600023999446,-0.026641065642625944,27.82302579755355,6.350908062483363,16.54692372742458,5.904472348342974,8.62629008940334,-4.8099847910850375,-1.8433474648464727,1.2961036862207702,-0.7776622117327359,-0.352109,0.06613699999999997,-0.8205849999999999,0.19300300000000004,0.0015420000000000156,-0.8925599999999999,0.545112,0.06459499999999996,0.07197500000000001,0.0,0.9487581220659989,single,-0.8205849999999999
134,1.116667,walk,0.8260139188864962,-0.06791456683465402,-0.04931605471561508,-1.3279819198993297,-0.5098580378593408,-0.09297030756837063,0.6927045836333074,-0.41660667146627656,0.7853371730261514,-0.002759779217675317,-0.011399088072955485,-0.030357571394288612,-12.884979242495165,-4.909225676920013,-29.993290213181268,8.413688533377595,-8.532859576851484,9.895495356558099,0.05763743550621864,0.43214686237628186,-0.4459450145983489,-0.3532200000000001,0.06323100000000001,-0.813629,0.18609599999999982,0.0020130000000000148,-0.892402,0.5393159999999999,0.061217999999999995,0.07877299999999998,0.0,0.9457593394832745,single,-0.813629
135,1.125,walk,0.7568702748109802,-0.09096363854554369,0.05628225129004512,-0.23040362246314725,-0.5276917535612374,0.047964661660200865,0.758190327613117,-0.4467778711148525,0.8339133565342702,-0.0014400576022922224,-0.011880475219010759,-0.026761070442818075,-8.297569191829668,-2.7659992452765967,12.672303612823853,7.858603621722087,-3.6206887853805627,5.829375195982157,0.1583729287631233,-0.05776876827736445,0.4315973780715912,-0.3532089999999999,0.060265999999999986,-0.8071489999999999,0.17977700000000008,0.0026720000000000077,-0.8930939999999999,0.532986,0.05759399999999998,0.08594500000000005,0.0,0.9511415210198055,single,-0.8071489999999999
136,1.133333,walk,0.7424696987879781,-0.10656426257050378,0.06936277451099049,-0.28985410092274094,-0.4679514911303014,0.20634006623172577,0.82563302532102,-0.4075363014520564,0.745469818792758,0.0009600384015370304,-0.007680307212289581,-0.015240609624384536,-1.728138248290206,-1.8721497689859865,1.5697255755364803,8.09344746284695,4.7091767266046425,-10.613649074944565,0.28802304138116824,0.5040403224194427,1.382510598635983,-0.35251600000000005,0.05775800000000003,-0.801515,0.17359799999999992,0.003495999999999999,-0.893799,0.526114,0.05426200000000003,0.09228400000000003,0.0,0.9715109682738126,single,-0.801515
137,1.141667,walk,0.708423326133893,-0.11771058315334466,0.05363570914326515,-0.1987592036486059,-0.5971519847514726,0.22018623674341967,0.9340052795776282,-0.4550035997120217,0.7233021358291288,-0.00011999040075806644,0.003359731221505614,-0.010799136069114364,-4.085237899458219,-1.3374514738229906,-1.8870968763769156,13.003630220375259,-5.695620141584468,-2.6599091629024447,-0.12959308882830436,1.32469863616452,0.5329341918970647,-0.35063599999999995,0.054946999999999996,-0.795934,0.1676930000000001,0.004505000000000009,-0.894336,0.518329,0.05044199999999999,0.09840199999999999,0.0,0.9811494524529657,single,-0.795934
138,1.15,walk,0.6996279851194114,-0.12636505460218506,0.03396135845434247,-0.15061368264456848,-0.8500354784122373,0.23867030586756033,1.0362414496579895,-0.644905796231854,0.7725909036361525,-0.0045601824072942325,-0.001680067202689803,-0.016680667226689247,-1.0554831410634502,-1.038578116985536,-2.361016523331677,12.268831162889976,-22.789175149386054,5.914888732392185,-0.5328443545585271,-0.6048000029035717,-0.7058119713878479,-0.347831,0.050626000000000004,-0.789779,0.1618250000000001,0.005543999999999993,-0.894758,0.5096560000000001,0.04508200000000001,0.10497900000000004,0.0,0.9710430132916992,single,-0.789779
139,1.158333,walk,0.6906276251049867,-0.1239649585983425,0.03960158406335482,-0.14799537504163637,-0.42869639262497794,0.10728055684058961,1.162006480259203,-0.6098643945757761,0.5444617784711275,-0.00336013440539284,-0.006480259210368121,-0.01500060002400071,-1.0800864051871555,0.2880230413827569,0.6768541472473596,15.092407368440089,4.205136404185433,-27.376590083405848,0.14401152068899217,-0.5760460827646987,0.20161612896777956,-0.34390299999999985,0.04657699999999998,-0.7855719999999999,0.15604200000000001,0.006523000000000001,-0.895213,0.49994499999999986,0.04005399999999998,0.1096410000000001,0.0,0.9721960102914909,single,-0.7855719999999999
140,1.166667,walk,0.6784257259419433,-0.13306935445164628,0.052555795536364025,-0.01848123875683344,-0.29086960686274554,0.0735992594238262,1.266378689704842,-0.7032637389009019,0.49568034557236645,-0.0009599232061444868,-0.0069594432445408685,-0.009839212862970998,-1.4641107707035763,-1.0924401071878989,1.5543810262790323,12.52366324041768,-11.207024757034741,-5.8533036835567565,0.28800230372550983,-0.05749748430198665,0.6193169139704596,-0.33900299999999994,0.04182499999999997,-0.781879,0.15037999999999996,0.007573999999999997,-0.895733,0.4893829999999999,0.034250999999999976,0.11385400000000001,0.0,0.9798501852366845,single,-0.781879
141,1.175,walk,0.6810272410896433,-0.12816512660506357,0.04104164166566032,-0.14683087747042808,-0.13119865498841787,0.013243850964881943,1.4432977319092524,-0.7641905676226897,0.484699387975509,-0.003600144005757106,-0.0038401536061413574,-0.0057602304092162,0.3121943054962165,0.5885308828252271,-1.3817537346338056,21.23113430990128,-7.31151190709069,-1.317767622327766,-0.3168391695202896,0.37432972979712664,0.4894974743495412,-0.33265100000000003,0.036525,-0.7781819999999999,0.1446749999999999,0.008610000000000034,-0.896123,0.4773259999999999,0.027914999999999968,0.11794100000000007,0.0,0.986994865229007,single,-0.7781819999999999
142,1.183333,walk,0.6435857434297438,-0.13608544341773748,0.021600864034569858,-0.2126662060835878,-0.3212507797817908,0.08389648099012013,1.5253810152406135,-0.8665546621864927,0.3904956198247974,-0.006600264010550429,-0.0025201008040380353,-0.0063602544101769975,-4.493159445565799,-0.9504760365623405,-2.332986635196285,9.850388015284041,-12.284182714965073,-11.304904374260463,-0.36002880172727114,0.15841267275931048,-0.0720057603457102,-0.3253030000000001,0.03043800000000002,-0.775108,0.13925699999999996,0.009722999999999982,-0.896356,0.4645600000000001,0.02071500000000004,0.12124800000000002,0.0,0.984156386737723,single,-0.775108
143,1.191667,walk,0.6131509479241551,-0.15310775137988836,0.025677945764331033,-0.1649930022524998,-0.21504063222044542,0.10558904457614275,1.6067914566834447,-0.9284857211423042,0.2940964722822129,-0.004199664026878687,-0.0034797216222703414,-0.00479961603071731,-3.6518833100058155,-2.0425135543737394,0.4892106707176798,9.768471495420032,-7.431132584090599,-11.566972347322265,0.2880489541242769,-0.11514528656495066,0.18726162460519263,-0.31702200000000014,0.023975999999999997,-0.772871,0.134112,0.01096999999999998,-0.89661,0.45113400000000015,0.013006000000000018,0.12373900000000004,0.0,0.9878914682799604,single,-0.772871
144,1.2,walk,0.6089043561742553,-0.12780511220448726,0.019920796831873394,-0.28670800018431025,-0.16036862551796993,0.03325007711675016,1.720148805952262,-0.9649585983439384,0.19572782911316888,-0.0020400816032828434,-0.003600144005757202,-0.0021600864034558203,-0.5096113944437621,3.0364381585745024,-0.6908855073152156,13.603426049300179,-4.376920341009781,-11.804709368660138,0.2591602572417933,-0.014451264068986159,0.3167562255204025,-0.3077620000000001,0.017000000000000015,-0.771406,0.12902099999999983,0.012004999999999988,-0.896794,0.4367829999999999,0.004995000000000027,0.12538799999999994,0.0,0.9922202286736268,single,-0.771406
145,1.208333,walk,0.6069842793711651,-0.13164526581063188,0.0471618864754554,-0.34126736330027274,0.16796194470655929,0.15868928213814476,1.7913116524660568,-0.9867994719788662,0.09840393615744307,-0.0033601344053661936,-0.003600144005757106,-0.0021600864034565953,-0.23041843310815074,-0.46083686621199477,3.269061519690571,8.539883176982304,-2.621009676578355,-11.679334328060015,-0.15841267275690954,1.1501676712794542e-14,-9.300224563694048e-14,-0.2978930000000002,0.009873999999999994,-0.770979,0.1239349999999999,0.013072000000000028,-0.8972049999999999,0.4218280000000001,0.003198000000000034,0.12622599999999995,0.0,0.9910374988990063,single,-0.770979
146,1.216667,walk,0.5957523398128126,-0.14506839452843903,0.03791696664266726,-0.32484911602324046,0.15384724330028232,0.19083138671402938,1.9011279097672777,-1.0602351811855233,-0.042236621070314125,-0.005279577633781356,0.0002399808015294609,-0.0013198944084470041,-1.3477249290079982,-1.6106465944093362,-1.1093016358037329,13.176896724408808,-8.811580178384748,-16.875516825985105,-0.23031476222884556,0.4607781146252268,0.1008149742032166,-0.2870139999999999,0.002246999999999999,-0.771647,0.11892600000000009,0.014282999999999962,-0.897532,0.40593999999999997,0.012035999999999963,0.12588500000000002,0.0,0.990921078743461,single,-0.771647
147,1.225,walk,0.5724228969158596,-0.14484579383175236,0.03864154566183113,-0.33186859329898155,0.09148760283602127,0.16842127754661101,2.0008400336013015,-1.0110404416176488,-0.11724468978759013,-0.005400216008648983,0.0007200288011527536,-0.0004800192007685024,-2.799645133439654,0.026713152128485077,0.08695296041807934,11.965933497422535,5.9036048923405255,-9.00132829920493,-0.014477184071477809,0.05760806427736521,0.10078905648367778,-0.2751109999999999,-0.004971000000000003,-0.772946,0.11411100000000007,0.015495999999999982,-0.897858,0.38922199999999996,0.020466999999999985,0.12491200000000002,0.0,0.9908848123003928,single,-0.772946
148,1.233333,walk,0.5741029641185845,-0.14124564982599236,0.05268210728428792,-0.4051948260437803,0.20935381592938102,0.28421590382871287,2.0207608304332414,-0.9991599663986651,-0.21192847713908627,-0.002760110404402308,-0.00012000480018879799,0.0,0.20161612897215536,0.4320345620736873,1.6849347920865134,2.390591243482552,1.4257140548402532,-11.362508982538943,0.3168253455234248,-0.10080806448356645,0.05760460827655187,-0.26305599999999996,-0.01212000000000002,-0.7751509999999999,0.10930400000000007,0.016671999999999992,-0.898297,0.37236,0.028792000000000012,0.12314600000000009,0.0,0.9953954700455366,single,-0.7751509999999999
149,1.241667,walk,0.5437964962802911,-0.1359491240700761,0.04415646748260525,-0.402772533060259,0.05900388027712392,0.19725866580589987,2.01667866570673,-1.0382769378449637,-0.33429325653947556,-0.0037197024238197784,0.00035997120230084253,-0.001679865610751142,-3.636485221777436,0.6355322481300972,-1.0229949366069835,-0.4898205815348488,-4.6936610806693375,-14.68259892013299,-0.11514183098361686,0.0575925128977246,-0.20156774787030587,-0.2507809999999999,-0.01963999999999999,-0.778305,0.10474099999999997,0.01780799999999999,-0.898679,0.3555219999999999,0.03744799999999998,0.12037399999999998,0.0,0.9931711978725644,single,-0.778305
150,1.25,walk,0.575423016920668,-0.15096603864154481,0.05820232809311918,-0.5404648151861252,0.11603508124011835,0.5270372232578874,1.9866794671786903,-1.0506420256810385,-0.529821192847719,-0.0032401296051841467,0.004560182407300894,0.0001200048001921288,3.7953342902168656,-1.8021018326495695,1.68557069608953,-3.6000478252778048,-1.4838698951247966,-23.46429092862657,0.05755104027788744,0.5040455064202676,0.21599308903675593,-0.23902099999999993,-0.027137000000000022,-0.7832049999999999,0.09991900000000009,0.01910400000000001,-0.8991629999999999,0.33894,0.04624100000000003,0.115958,0.0,0.9906743923941898,single,-0.7832049999999999
151,1.258333,walk,0.515540621624879,-0.16308652346093983,0.04200168006721177,-0.4223152305118932,0.07708421598238803,0.31136315075209803,2.2487699507980596,-1.0613224528981244,-0.4909396375855093,0.0038401536061481215,0.0008400336013415707,-0.016800672026881378,-7.186174882490043,-1.4545163589817738,-1.9441555293300796,31.45211611896937,-1.281702534151692,4.665973270396024,0.8496679720787631,-0.4464357141436886,-2.0305624417465094,-0.22457799999999994,-0.034622000000000014,-0.7876460000000001,0.09565500000000005,0.020469999999999988,-0.899653,0.320233,0.055092,0.11200699999999997,0.0,0.9712426329861454,single,-0.7876460000000001
152,1.266667,walk,0.5304775617950533,-0.15514758819294536,0.05267578593712069,-0.5005797046223734,-0.019934422957941,0.4721377452697342,2.29241660667144,-1.0689944804415565,-0.5254379649627983,-0.0028797696184333834,0.0032397408207342263,-0.0010799136069108537,1.7922894372659246,0.9525960244773707,1.280790241169767,5.237179730427168,-0.9205696596390742,-4.139468127824419,-0.8063262808473067,0.287941830980638,1.8863401031881935,-0.20989400000000002,-0.042238,-0.7924640000000001,0.09121000000000001,0.021790000000000004,-0.900101,0.30110400000000004,0.064028,0.10763699999999998,0.0,0.9925547914290884,single,-0.7924640000000001
153,1.275,walk,0.5457818312732555,-0.15936637465498715,0.05088203528140932,-0.4876802946593778,0.12014437318834602,0.6519545447632095,2.25537021480861,-1.0988839553582241,-0.6029041161646522,-0.0010800432017191667,-0.0008400336013415707,-0.0022800912036487816,1.8365858008163112,-0.5062746264300774,-0.21525868903292777,-4.445744853333759,-3.5868804652187536,-9.296309996622425,0.2159758090380695,-0.48959251434967416,-0.14402707269146034,-0.19564800000000004,-0.050067,-0.797912,0.08665300000000009,0.02311100000000002,-0.900544,0.28230100000000014,0.07317800000000002,0.10263200000000006,0.0,0.9955681187635249,single,-0.797912
154,1.283333,walk,0.5282611304452106,-0.16356654266170398,0.03168126725069451,-0.49130132691785783,0.022885954955824902,0.582796552866015,2.535581423256907,-1.1938077523100696,-0.5702628105124079,-0.0008400336013548716,0.0015600624024943019,-0.002400096003840014,-2.1025682020934364,-0.5040403224189071,-2.3041843310589787,33.62669008139829,-11.391311286672726,3.917113362803762,0.02880230413588034,0.28802304138195495,-0.014401152069030377,-0.17892099999999989,-0.05865199999999998,-0.802928,0.08224399999999998,0.02448700000000001,-0.900828,0.26116499999999987,0.08313899999999999,0.09789999999999999,0.0,0.9950278799573326,single,-0.802928
155,1.291667,walk,0.5088792896568298,-0.16198704103671896,0.043676505879534186,-0.40048399711757127,0.06053807599228413,0.6152509621635909,2.4946004319654738,-1.0035997120230584,-0.6804655627549937,0.0010799136069025565,0.0038396928245712863,-0.00035997120230334996,-2.3256348438182335,0.18952503299556625,1.4393134903815576,-4.917325568926561,22.823138983323116,-13.223272407317962,0.230375234972098,0.2735337679478075,0.24479539255300006,-0.16237199999999996,-0.065666,-0.8089630000000001,0.07801199999999997,0.025868999999999975,-0.9011950000000001,0.24038399999999993,0.09153499999999998,0.09223199999999998,0.0,0.9933252062761949,single,-0.8089630000000001
156,1.3,walk,0.544821792871704,-0.16440657626304886,0.03168126725068119,-0.5182656369546366,0.19273679971428087,0.849694663428174,2.50318012720504,-1.105244209768371,-0.6648265930637113,0.0006000240009639587,0.0010800432017324612,-0.000960038401536172,4.3132729167014885,-0.2903558413932386,-1.4394862149109307,1.0296046129324232,-12.197827642542999,1.8767514330111783,-0.057589056274881714,-0.33117120158871677,-0.0720109443457112,-0.146053,-0.07350599999999999,-0.814767,0.07347700000000001,0.027248000000000022,-0.901467,0.21953,0.10075400000000001,0.0867,0.0,0.9973922147265003,single,-0.814767
157,1.308333,walk,0.6301452058082521,-0.17868714748589992,0.04416176647066342,-0.5133744620021243,0.29647988449225027,1.4248141938363834,2.4686187447498265,-1.096603864154577,-0.6908676347053944,0.0045601824072942325,0.03444137765510433,0.04068162726509086,10.239219121150713,-1.7137370962259924,1.4977198151904894,-4.147531795897475,1.0368829489732496,-3.1250499990019587,0.4752380182803684,4.003520275215669,4.997199767986008,-0.130733,-0.081155,-0.820892,0.06826399999999988,0.029023999999999994,-0.901496,0.19899699999999987,0.110179,0.08060400000000001,0.0,0.9108372500033864,single,-0.820892
158,1.316667,walk,0.5674346052315752,-0.18922486201103708,0.029157667386608035,-0.577520563762944,0.2103291091668016,1.1590580087608147,2.57415406767456,-1.0891528677705702,-0.6623470122390155,0.005519558435323991,0.02591792656587381,0.03551715862730926,-7.52467009559352,-1.2644245890493255,-1.800347862257652,12.663225692912471,0.8940480422374318,3.4222009198918477,0.11511591409044293,-1.0227323121226843,-0.6196866616008588,-0.11400900000000003,-0.08865500000000001,-0.826655,0.06358099999999989,0.030816999999999983,-0.901443,0.17758999999999991,0.119472,0.07478799999999997,0.0,0.9261444164498409,single,-0.826655
159,1.325,walk,0.5498619944797946,-0.1894875795031815,0.012720508820345667,-0.5888154841735791,0.11330597932480069,0.9398052142628551,2.7145085803432485,-1.0717628705148297,-0.6795871834873459,-0.004920196807867288,0.012000480019199556,0.016800672026881378,-2.108797642119379,-0.031527360151738196,-1.9725379294686813,16.84321524885275,2.0868831460147232,-2.068903305931909,-1.2528207420126454,-1.6701603920166064,-2.2460682347807577,-0.09597100000000003,-0.09600700000000001,-0.8324239999999999,0.058957999999999844,0.03249599999999997,-0.9014089999999999,0.15492899999999987,0.12850299999999998,0.06898499999999996,0.0,0.9646257140678984,single,-0.8324239999999999
160,1.333333,walk,0.5713428537141138,-0.19320772830912902,0.012840513620554108,-0.44101565726403746,0.21371650887974541,1.2014771876960697,2.6494659786390775,-1.0874834993399547,-0.6711868474738873,-0.003960158406330152,-0.0028801152046043525,0.002640105604224265,2.577806220367073,-0.446435714142259,0.014401152071095526,-7.80542442147724,-1.8865509210518137,1.008080644840805,0.11520921655311642,-1.7857428565707008,-1.69933594415659,-0.078654,-0.10345900000000001,-0.838124,0.0541640000000001,0.034082,-0.901494,0.1328180000000001,0.13754100000000002,0.06337000000000004,0.0,0.9907281675375126,single,-0.838124
161,1.341667,walk,0.575473962083047,-0.1845452363810944,-0.007199424046083651,-0.4643642096981852,0.12285411658652183,1.079324841782833,2.649148068154603,-1.0893928485721354,-0.6733861291096848,-0.005399568034566068,-0.005399568034559408,-0.0008399328053755933,0.49569334880409716,1.0394158780939262,-2.4046001519844182,-0.038146206440411314,-0.22910357957531852,-0.263892684880904,-0.17271533816126036,-0.30231015478222983,-0.41757120345571447,-0.06137199999999998,-0.111,-0.843676,0.049323000000000006,0.035574999999999996,-0.9014409999999999,0.11069499999999999,0.146575,0.057764999999999955,0.0,0.9871963376509678,single,-0.843676
162,1.35,walk,0.5917436697467817,-0.18456738269530598,-0.0008400336013415484,-0.4982693264961401,0.15119218236754065,1.1529014464614111,2.7117484699387475,-1.0352814112564317,-0.6047041881675164,-0.028081123244910758,0.014400576023041749,-0.0076803072122885434,1.9524430173688245,-0.0026576640119493223,0.7631573796642256,7.512348708045517,6.493632223173254,8.242162599564045,-2.7218955010613572,2.376112331405354,-0.8208777639400973,-0.04370600000000002,-0.11808899999999999,-0.848708,0.04415800000000014,0.037233000000000016,-0.901498,0.08786400000000016,0.15532200000000002,0.052790000000000004,0.0,0.9458676213300927,single,-0.848708
163,1.358333,walk,1.8892355694228018,0.1707668306732294,-0.11748469938797085,-0.19597657335057891,-2.94019579560907,-1.9092821105268445,2.7017880715229032,-1.0258010320412911,-0.5495019800792081,-0.04524180967239592,-0.01548061922476796,-0.07740309612384563,155.70525617137068,42.6418112766757,-13.99791981118809,-1.195295621726194,1.1376910134574154,6.624529951795119,-2.0593647458880735,-3.5858868652118066,-8.367069352161014,-0.03693499999999994,-0.12806,-0.8523080000000001,0.028038000000000007,0.03568100000000002,-0.9011640000000001,0.06497299999999995,0.16374100000000003,0.04885600000000001,0.011440000000000061,0.848363462666912,single,-0.8523080000000001
164,1.366667,walk,0.682265418766503,-0.2632589392848554,0.030117590592752496,-0.01956358932485648,-0.5057433910079601,0.2404311342849124,2.7367410607151146,-0.9250059995200323,-0.5247180225581916,0.015358771298284736,-0.04559635229181528,-0.03647708183345289,-144.82483209218736,-52.078926080883306,17.71085792905234,4.194023181210833,12.094436347643162,2.9738369955623227,7.271487997441827,-3.61359888013524,4.910728856538569,-0.01981300000000008,-0.133575,-0.856932,0.022479999999999833,0.03749500000000003,-0.901719,0.042292999999999914,0.17107000000000003,0.04478700000000002,0.052130000000000065,0.8993700853899028,single,-0.856932
165,1.375,walk,0.7980319212768371,-0.25345013800552285,0.06912276491058625,0.15705889215063645,-0.3439149598953909,-0.7395336750981188,2.807752310092416,-0.9949597983919439,-0.5619824792991762,0.05196207848315513,-0.05160206408256875,-0.011400456018240577,13.89253600268032,1.177103237649421,4.680808150466111,8.521690792907963,-8.394791656295729,-4.471913685465619,4.39257256508709,-0.720714243460161,3.009315470444323,-0.003066000000000013,-0.139754,-0.8621909999999999,0.01626300000000014,0.03917699999999999,-0.9023899999999999,0.01932900000000015,0.17893099999999998,0.040198999999999985,0.09801000000000004,0.8764776109442441,single,-0.8621909999999999
166,1.383333,walk,0.7965918636745716,-0.27985119404776454,0.06732269290772097,0.16169411846841317,-0.2873512013761557,-0.3845947270177047,2.748709948397982,-0.8581543261730553,-0.4612984519380818,0.001320052802110086,-0.004080163206525717,0.0018000720028794339,-0.17281382482485574,-3.16825345520724,-0.21601728103507664,-7.085366818004838,16.417313358801135,12.082566585994883,-6.0772861731723875,5.702856219373991,1.58412672760352,0.013201000000000018,-0.144573,-0.8665959999999999,0.009635999999999978,0.04147500000000001,-0.902936,0.0035650000000000404,0.186048,0.03634000000000004,0.1366,0.9922485609924143,single,-0.8665959999999999
167,1.391667,walk,0.7872570194384436,-0.2580993520518322,0.04103671706264241,0.28600098962731746,-0.5521881985584413,-0.5287924764297554,2.7867770578353315,-0.8770098392128558,-0.4434845212382981,-0.017998560115201987,-0.012838972882172178,-0.039956803455723236,-1.1200917009992666,2.6100122385327773,-3.1540647762273046,4.567687717464478,-2.262480566330735,2.1375006839193085,-2.318048106228933,-1.050973083230909,-5.010424221094595,0.02986499999999981,-0.149731,-0.870634,0.0029249999999998444,0.043518999999999974,-0.903611,0.026939999999999964,0.19324999999999998,0.032977000000000034,0.17023000000000005,0.9238909128419939,single,-0.870634
168,1.4,walk,0.8712348493939623,-0.25981039241569903,0.07956318252729812,-0.015295635620500556,-0.39190903818756134,-0.7111497653382634,2.7211088443538123,-0.8701548061922557,-0.38737549501980373,-0.0008400336013282475,-0.011160446417851324,-0.0027601104044156313,10.077742704370515,-0.20533305698630003,4.623360790190334,-7.880500837815887,0.8226368679467359,6.733352480318602,2.059105545886703,0.20143123296782303,4.46378171742565,0.0452800000000001,-0.154817,-0.874525,-0.004341999999999846,0.04559100000000002,-0.904297,0.049621999999999944,0.20040800000000003,0.02977200000000002,0.20228000000000002,0.9807877765948014,single,-0.874525
169,1.408333,walk,1.0694827793111574,-0.22524900996039657,0.02436097443897152,0.5775956482830236,-1.429115551390907,-1.9959670030096708,2.7341893675746585,-0.8257530301211902,-0.34597383895355255,0.04224168966757492,0.029041161646461085,0.03180127205088164,23.790703218191723,4.147531795908059,-6.624529951797148,1.5697255755245358,5.328426265578395,4.968397463848609,5.170013592812002,4.824385943155131,4.147531795907436,0.05915200000000009,-0.159821,-0.8776109999999999,-0.012901999999999969,0.04771,-0.904235,0.07205400000000006,0.207531,0.026624000000000092,0.23376000000000008,0.8994588210427388,single,-0.8776109999999999
170,1.416667,walk,0.7720182385409375,-0.21082313414926976,-0.00011999040075806964,0.2848566738899103,0.3560564461837457,-0.7473583527616108,2.767338612911013,-0.7784977201824003,-0.2579793616510727,0.001679865610746191,-0.0049196064314871646,-0.004559635229182149,-35.69288946127016,1.7309666200056495,-2.937480782305022,3.9775912330639898,5.6701835779686585,10.55849259689003,-4.867029524457583,-4.074966172060102,-4.362959836820792,0.07578099999999999,-0.164552,-0.8797600000000001,-0.01932200000000006,0.04942599999999997,-0.9042720000000001,0.09510300000000005,0.21397799999999997,0.024511999999999978,0.25488,0.9884752983487525,single,-0.8797600000000001
171,1.425,walk,0.9828393135725161,-0.23064922596903556,0.03060122404896205,0.8275455356536152,0.5880623905928416,-1.100117952625858,2.7538701548061404,-0.6917076683067204,-0.2242889715588579,0.00516020640825807,-0.005760230409215367,-0.001680067202688093,25.2995409854284,-2.379226187419351,3.6866932016944176,-1.616279623769651,10.415222833994765,4.043008531406962,0.4176576020054984,-0.10087891248388191,0.345561985658707,0.09053900000000004,-0.168394,-0.881884,-0.027468999999999966,0.051299999999999985,-0.904541,0.118008,0.21969399999999997,0.022657000000000038,0.27342999999999995,0.9868100827282704,single,-0.881884
172,1.433333,walk,0.7781111244450036,-0.23868954758190436,0.04332173286930853,0.6157624874689939,0.2937212291933501,-0.7490761729239461,2.663266530661253,-0.7046681867274754,-0.25177007080283476,0.0007200288011461112,-0.007200288011521066,-0.0008400336013440688,-24.568365429918916,-0.9648771886318102,1.5265221193263647,-10.872869812179092,-1.5553244234675618,-3.297863823830205,-0.5328426265585022,-0.17281382482967866,0.10080806448386317,0.1062479999999999,-0.172277,-0.884343,-0.03394700000000017,0.05322899999999997,-0.904909,0.14019500000000007,0.22550599999999998,0.020565999999999973,0.29434,0.9878586741783462,single,-0.884343
173,1.441667,walk,0.7949364050875727,-0.24622030237580786,-0.053515718742493765,0.0971362635783537,-0.9569037312478524,-0.7975821461488507,2.7049436045116293,-0.7243820494360397,-0.11975041996640164,0.0021598272138316985,-0.007319414446841525,-0.0010799136069116863,2.018872167334884,-0.9036182858055486,-11.619564628245927,5.0008487941416035,-2.3654742870847234,15.841090813106806,0.1727619885631841,-0.014294028716157696,-0.028783298004273535,0.12216600000000011,-0.176262,-0.8848950000000001,-0.04055399999999998,0.05521999999999999,-0.904472,0.1627200000000001,0.231482,0.019576999999999956,0.30423,0.9871542381787445,single,-0.8848950000000001
174,1.45,walk,0.6719068762750596,-0.1976479059162396,-0.07116284651386909,0.1777825971612569,0.2750194943719429,-0.018896032754891712,2.678987159486392,-0.6467058682347355,-0.1345253810152423,-0.0012000480019279496,-0.010440417616705213,-0.0012000480019196224,-14.764134022862617,5.828920731977524,-2.1177400421667447,-3.1148979989484764,9.321514604740774,-1.773066248510837,-0.4032011539373189,-0.3745353617981179,-0.014416704069115232,0.138891,-0.180004,-0.885423,-0.046163000000000065,0.05678,-0.9038889999999999,0.18505400000000005,0.236784,0.018465999999999982,0.31534000000000006,0.9823709086368069,single,-0.885423
175,1.458333,walk,0.6812672506900208,-0.21624864994599383,-0.09648385935437571,0.03107135616080575,-0.46202120204241354,0.03232168764344575,2.589943597743863,-0.6945877835113282,-0.1208448337933489,0.007320292811722992,-0.01056042241689373,0.0,1.1232898613897777,-2.232178570713297,-3.0386430865842056,-10.685654835296669,-5.746059675578046,1.6417313358806154,1.0224817969099715,-0.014401152068704426,0.1440115206911798,0.15479599999999993,-0.18399000000000001,-0.8856259999999999,-0.05177900000000002,0.05849400000000002,-0.9030849999999999,0.20657499999999995,0.24248400000000003,0.017459000000000002,0.32541,0.9785841953174378,single,-0.8856259999999999
176,1.466667,walk,0.6661867050636078,-0.2191024718022593,-0.10655147588193147,0.07979137036610397,-0.00288444023142341,0.03319994289759324,2.5682745380370164,-0.6706263498920214,-0.0709143268538532,0.007919366450672033,0.0008399328053730955,-0.005639548836093032,-1.8095207135125173,-0.342431228253604,-1.2080173419193594,-2.600079158488979,2.8751420229550346,5.991181538216541,0.07188308602700419,1.3679331920166837,-0.6766917249931772,0.17064800000000002,-0.187753,-0.8853289999999999,-0.05726500000000012,0.06032699999999999,-0.9022439999999999,0.22791300000000014,0.24808,0.016915000000000013,0.33085,0.9837360006308882,single,-0.8853289999999999
177,1.475,walk,0.6697467898715768,-0.2226089043561698,-0.06372254890194874,0.16519651721337866,0.39007453573206047,-0.01107423930783272,2.5037801512060036,-0.6821072842913597,-0.02232089283571288,0.013080523220945021,0.006000240009599618,-0.01632065282611326,0.427227266046913,-0.4207887380187739,5.139676824670824,-7.739636005161611,-1.3777672386101143,5.831445339990335,0.6193635869762267,0.6192616349725708,-1.2817837501524108,0.18593100000000007,-0.191582,-0.884984,-0.06273699999999993,0.06223199999999998,-0.901849,0.248668,0.253814,0.01686500000000002,0.3313499999999999,0.9637345176136607,single,-0.884984
178,1.483333,walk,0.6637465498620082,-0.21660866434657597,-0.12432497299892552,0.055278763207540035,-0.04782088115838765,0.07311486036728365,2.429377175087017,-0.6506660266410715,0.06096243849753981,0.012120484819381692,0.002400096003842576,-0.010200408016320954,-0.7200576034523717,0.720057603455406,-7.272581794909076,-8.92871428284979,3.773101842108298,9.994399535971853,-0.11520921655626282,-0.43203456207333196,0.7344587555253043,0.20064399999999993,-0.195199,-0.88344,-0.06816700000000009,0.064057,-0.900898,0.268811,0.25925600000000004,0.017457999999999974,0.32542,0.9732961230039143,single,-0.88344
179,1.491667,walk,0.6630669546436272,-0.23650107991360517,-0.07871370290376589,0.38777547168575965,0.08536683209254693,0.06569617557435599,2.398608111351081,-0.7221022318214486,0.025917926565874643,0.0021598272138316985,-0.012119030477563832,0.00839932805375571,-0.08154490261351183,-2.3868989161301952,5.472914578252853,-3.6919922889291668,-8.571658888934069,-4.205005031397276,-1.19518329800215,-1.7421558053043313,2.231789785226365,0.21510799999999997,-0.199246,-0.882568,-0.07367500000000005,0.06592699999999999,-0.900172,0.288783,0.265173,0.017603999999999953,0.32396,0.9751625023030623,single,-0.882568
180,1.5,walk,0.7092283691347684,-0.22788911556462607,-0.13428537141485555,-0.20145240059084574,-0.5280642047952082,0.07026529213616653,2.303492139685604,-0.6554662186487521,0.10116404656186381,0.009840393615734576,-0.006720268810752551,0.009600384015361143,5.539591322589898,1.0334770609599393,-6.668866976009861,-11.414373174784366,7.996641446381511,9.029895595342596,0.9217048364218106,0.647877315109964,0.14413248069188103,0.22839299999999996,-0.202809,-0.880606,-0.0795030000000001,0.06777,-0.898973,0.30789600000000006,0.270579,0.018367000000000022,0.31633,0.9744960388346914,single,-0.880606
181,1.508333,walk,0.7437897515900614,-0.24432977319093108,-0.05100204008160478,0.883944817247088,0.7653879040500183,-0.25570597875300277,2.2114484579383378,-0.6591863674547039,0.15216608664346692,0.01092043681748039,-0.0032401296051841467,0.016680667226689247,4.147531795907041,-1.9729578334699576,9.994399535971624,-11.04568363701751,-0.44643571414279054,6.120489629377604,0.1296103686242438,0.41763341000461246,0.8496679720782634,0.24062300000000003,-0.20626599999999998,-0.8789129999999999,-0.08560999999999996,0.06977900000000001,-0.898409,0.326233,0.276045,0.01949600000000007,0.30504,0.9663350231748138,single,-0.8789129999999999
182,1.516667,walk,0.6771058315334799,-0.2468202543796448,-0.10235181185504993,0.482436054865458,0.4666947113032596,0.10741409731247754,2.1321094312454885,-0.6415886729061627,0.1777057835373152,0.008879289656816284,-0.006839452843772625,0.02459803215742684,-8.001430292366333,-0.29883383593876994,-6.1614796944378165,-9.519921609413093,2.111554421471211,3.0645184657845066,-0.24491806583442402,-0.43188423789158276,0.9500077910652188,0.252749,-0.20955600000000002,-0.876579,-0.09117900000000012,0.07177899999999998,-0.897351,0.3439280000000001,0.281335,0.020772000000000013,0.29228,0.9549480828491037,single,-0.876579
183,1.525,walk,0.7202688107524309,-0.22368894755790492,-0.11268450738029902,0.38040292006133253,0.33600981045866,-0.040143998948342675,2.0781231249250194,-0.589343573742955,0.20904836193447934,0.00528021120846699,-0.014400576023038802,0.01968078723148997,5.179764696862037,2.775867853322945,-1.2399730619523794,-6.478615903092472,6.26966268609243,3.761259858054054,-0.431906690069522,-0.9073710763550037,-0.5900929948322231,0.2640640000000001,-0.21260300000000001,-0.873898,-0.09713699999999992,0.073523,-0.8962479999999999,0.361201,0.286126,0.02234999999999998,0.2765000000000001,0.9584137240101804,single,-0.873898
184,1.533333,walk,0.7238689547581821,-0.2484099363974535,-0.12540501620064134,0.19462425970633784,-0.001574518687636915,0.13270726581345432,1.9966398655945805,-0.541821672866905,0.2808112324492933,0.007080283211332079,-0.016320652826115757,0.02520100804032056,0.4320345620726266,-2.9666373262388293,-1.5265221193258256,-9.778382254942692,5.702856219374677,8.611888937335017,0.2160172810350483,-0.23041843310655488,0.6624529951794662,0.27466999999999997,-0.215048,-0.870513,-0.10310999999999992,0.075457,-0.894993,0.3777799999999999,0.290505,0.024480000000000057,0.2552,0.9485870496947734,single,-0.870513
185,1.541667,walk,0.708783297336226,-0.24094072474202305,-0.11219102471802699,0.504927956336191,0.35261651782066,0.010283886549071817,1.9055675545956727,-0.5007199424046175,0.29265658747300816,0.021118310535152066,-0.012359011279096947,0.015718742500600152,-1.8101340799083752,0.8962336999556761,1.5855521337430538,-10.927803095621492,4.931813110425758,1.4213288965340882,1.6844285245764643,0.47535895692571223,-1.1377808422990865,0.284644,-0.21721300000000002,-0.867139,-0.10884099999999997,0.07736199999999999,-0.893927,0.393485,0.294575,0.026788000000000034,0.23211999999999994,0.9515287294295736,single,-0.867139
