frame_id,timestamp,gait_type,root_linear_velocity_x,root_linear_velocity_y,root_linear_velocity_z,root_angular_velocity_x,root_angular_velocity_y,root_angular_velocity_z,left_linear_velocity_x,left_linear_velocity_y,left_linear_velocity_z,right_linear_velocity_x,right_linear_velocity_y,right_linear_velocity_z,root_acceleration_x,root_acceleration_y,root_acceleration_z,left_acceleration_x,left_acceleration_y,left_acceleration_z,right_acceleration_x,right_acceleration_y,right_acceleration_z,left_pos_rel_x,left_pos_rel_y,left_pos_rel_z,right_pos_rel_x,right_pos_rel_y,right_pos_rel_z,step_length,step_width,step_height,left_contact_prob,right_contact_prob,support_type,max_foot_height
<<<<<<< HEAD
<<<<<<< HEAD
1,0.008333,walk,-0.02148085923436088,-0.015120604824194766,-0.0009600384015370216,0.030991035660155687,-0.01757333289793721,0.11530529536627618,0.0,-0.0002400096003842554,-0.0004800192007676781,0.00048001920078183396,0.0015600624024876676,-0.0009600384015361888,0.0,0.0,0.0,0.0,0.0,0.0,0.0,0.0,0.0,-0.07461699999999993,-0.08624500000000002,-0.911658,0.043187000000000086,0.14477099999999998,-0.9072119999999999,0.11780400000000002,0.231016,0.004446000000000061,0.9991055370304817,0.9523839269894734,double,-0.9072119999999999
2,0.016667,walk,-0.020758339332850817,-0.018238540916724916,0.0035997120230484175,0.019841177718673598,0.021953125953430165,0.11301490011265818,0.00035997120230084524,-0.0010799136069091966,0.0004799616030714016,0.0010799136069025357,0.0013198944084453137,-0.0016798656107511545,0.08669545254500387,-0.37412240131151303,0.5471262808477848,0.043193088828995106,-0.10078041834952498,0.11518848138217898,0.07198157020886747,-0.02881785385677393,-0.08637235531737049,-0.07444099999999998,-0.08610200000000001,-0.911684,0.04336899999999999,0.14493399999999995,-0.9072560000000001,0.11780999999999997,0.23103599999999996,0.0044279999999999875,0.9979410386887124,0.9517303317048201,double,-0.9072560000000001
3,0.025,walk,-0.02304092163686187,-0.019920796831873214,0.0031201248049886584,0.026988381299378066,-0.01190400262765154,0.13015681080865518,0.001080043201719157,-0.0010800432017258185,0.0002400096003842554,0.0004800192007551876,0.0031201248050019815,-0.0007200288011519335,-0.2739208333146591,-0.2018787849691945,-0.05755276827790221,0.08641209641405395,-1.5552000074634173e-05,-0.028795392138143073,-0.0719902083460156,0.21603628903836167,0.11518502455288863,-0.07424000000000008,-0.085945,-0.911708,0.043564999999999854,0.14512600000000003,-0.907288,0.11780499999999994,0.23107100000000003,0.0044199999999999795,0.997423077177755,0.9504034891142592,double,-0.907288
4,0.033333,walk,-0.027121084843400874,-0.021960878435136052,0.004920196807867243,0.028148934114458873,-0.012533488338518984,0.1504235173161471,0.00048001920078183396,-0.0007200288011527661,0.0,0.0013200528021367203,0.0034801392055617106,-0.0019200768030723776,-0.48963917035149435,-0.24481958517494756,0.2160172810366716,-0.07200576034289247,0.04320345620701456,-0.02880230413827618,0.10080806448836345,0.04320345620541571,-0.14401152069128095,-0.07400999999999991,-0.08576800000000001,-0.9117489999999999,0.04380200000000012,0.14533799999999997,-0.907345,0.11781200000000003,0.23110599999999998,0.0044039999999999635,0.9985577217986725,0.9489797494433276,double,-0.907345
5,0.041667,walk,-0.02795776337892101,-0.02471802255820008,0.0056395488360954215,-0.006438570610966558,-0.026676971999779996,0.13911780708425467,-0.00023998080154277791,0.0004799616030722342,0.0014398848092150374,0.0008399328053597579,0.0035997120230350957,0.0,-0.10039339279099298,-0.33083082830141913,0.08631533816032862,-0.08639308883184686,0.1439873295206384,0.17277235531737908,-0.05760979082996908,0.01434759028958304,0.23039078510587682,-0.07377900000000004,-0.08555799999999997,-0.911784,0.044041999999999915,0.14557399999999998,-0.907392,0.11782099999999995,0.23113199999999995,0.0043920000000000625,0.99743895518861,0.9499193241337804,double,-0.907392
=======
=======
>>>>>>> 3b0d06690e55fb02323d988053aa126fb7c3a6e7
1,0.008333,stand,-0.02148085923436088,-0.015120604824194766,-0.0009600384015370216,0.030991035660155687,-0.01757333289793721,0.11530529536627618,0.0,-0.0002400096003842554,-0.0004800192007676781,0.00048001920078183396,0.0015600624024876676,-0.0009600384015361888,0.0,0.0,0.0,0.0,0.0,0.0,0.0,0.0,0.0,-0.07461699999999993,-0.08624500000000002,-0.911658,0.043187000000000086,0.14477099999999998,-0.9072119999999999,0.11780400000000002,0.231016,0.004446000000000061,0.9991055370304817,0.9523839269894734,double,-0.9072119999999999
2,0.016667,stand,-0.020758339332850817,-0.018238540916724916,0.0035997120230484175,0.019841177718673598,0.021953125953430165,0.11301490011265818,0.00035997120230084524,-0.0010799136069091966,0.0004799616030714016,0.0010799136069025357,0.0013198944084453137,-0.0016798656107511545,0.08669545254500387,-0.37412240131151303,0.5471262808477848,0.043193088828995106,-0.10078041834952498,0.11518848138217898,0.07198157020886747,-0.02881785385677393,-0.08637235531737049,-0.07444099999999998,-0.08610200000000001,-0.911684,0.04336899999999999,0.14493399999999995,-0.9072560000000001,0.11780999999999997,0.23103599999999996,0.0044279999999999875,0.9979410386887124,0.9517303317048201,double,-0.9072560000000001
3,0.025,stand,-0.02304092163686187,-0.019920796831873214,0.0031201248049886584,0.026988381299378066,-0.01190400262765154,0.13015681080865518,0.001080043201719157,-0.0010800432017258185,0.0002400096003842554,0.0004800192007551876,0.0031201248050019815,-0.0007200288011519335,-0.2739208333146591,-0.2018787849691945,-0.05755276827790221,0.08641209641405395,-1.5552000074634173e-05,-0.028795392138143073,-0.0719902083460156,0.21603628903836167,0.11518502455288863,-0.07424000000000008,-0.085945,-0.911708,0.043564999999999854,0.14512600000000003,-0.907288,0.11780499999999994,0.23107100000000003,0.0044199999999999795,0.997423077177755,0.9504034891142592,double,-0.907288
4,0.033333,stand,-0.027121084843400874,-0.021960878435136052,0.004920196807867243,0.028148934114458873,-0.012533488338518984,0.1504235173161471,0.00048001920078183396,-0.0007200288011527661,0.0,0.0013200528021367203,0.0034801392055617106,-0.0019200768030723776,-0.48963917035149435,-0.24481958517494756,0.2160172810366716,-0.07200576034289247,0.04320345620701456,-0.02880230413827618,0.10080806448836345,0.04320345620541571,-0.14401152069128095,-0.07400999999999991,-0.08576800000000001,-0.9117489999999999,0.04380200000000012,0.14533799999999997,-0.907345,0.11781200000000003,0.23110599999999998,0.0044039999999999635,0.9985577217986725,0.9489797494433276,double,-0.907345
5,0.041667,stand,-0.02795776337892101,-0.02471802255820008,0.0056395488360954215,-0.006438570610966558,-0.026676971999779996,0.13911780708425467,-0.00023998080154277791,0.0004799616030722342,0.0014398848092150374,0.0008399328053597579,0.0035997120230350957,0.0,-0.10039339279099298,-0.33083082830141913,0.08631533816032862,-0.08639308883184686,0.1439873295206384,0.17277235531737908,-0.05760979082996908,0.01434759028958304,0.23039078510587682,-0.07377900000000004,-0.08555799999999997,-0.911784,0.044041999999999915,0.14557399999999998,-0.907392,0.11782099999999995,0.23113199999999995,0.0043920000000000625,0.99743895518861,0.9499193241337804,double,-0.907392
<<<<<<< HEAD
>>>>>>> 3b0d06690e55fb02323d988053aa126fb7c3a6e7
=======
>>>>>>> 3b0d06690e55fb02323d988053aa126fb7c3a6e7
6,0.05,walk,-0.02820112804512003,-0.021960878435136052,0.003000120004806523,0.020841226173660646,0.0025448333019339273,0.18110796806728244,0.0012000480019279385,-0.0009600384015370216,0.0002400096003842554,0.0010800432017458032,0.004200168006721138,-0.0006000240009598058,-0.02920492814100833,0.3308705295888668,-0.3167441295198486,0.17281036883123924,-0.17280691282962388,-0.14399078469108148,0.028814400142331126,0.07205760034633896,-0.07200576034559052,-0.07353399999999999,-0.08538299999999999,-0.911807,0.04428600000000005,0.14579199999999998,-0.9074220000000001,0.11782000000000004,0.23117499999999996,0.004384999999999972,0.9974076000246267,0.9488531335865529,double,-0.9074220000000001
7,0.058333,walk,-0.0258010320412908,-0.029281171246852512,-0.0009600384015370216,0.024417152108963322,0.004635856273384498,0.16322439856546558,0.0,0.0,-0.0001200048001921277,0.0008400336013282398,0.00516020640825816,0.0006000240009598058,0.2880230413811632,-0.8784702762170239,-0.47523801828195666,-0.14401152069218032,0.11520921655310472,-0.04320345620741427,-0.02880230414227329,0.11520921655310479,0.14401152069118103,-0.07331899999999991,-0.08513899999999996,-0.9118,0.04450799999999999,0.14607900000000001,-0.907409,0.1178269999999999,0.23121799999999998,0.004391000000000034,0.9997999919996798,0.9473192443900647,double,-0.907409
8,0.066667,walk,-0.0339572834173306,-0.028917686585072138,0.004319654427636786,-0.00870913463626427,0.030348489803259063,0.16030916822213767,0.00035997120230084524,-0.0016798656107528196,0.0007199424046075187,0.0008399328053864011,0.005159587233023187,-0.0004799616030714016,-0.9786718713750658,0.04361467024002571,0.6335124585041765,0.043193088828995106,-0.20156774787050868,0.10078560172781932,-1.2094545457013866e-05,-7.429508459005845e-05,-0.12958790545130874,-0.0730329999999999,-0.08491199999999999,-0.9118299999999999,0.044798000000000116,0.14636300000000002,-0.907449,0.11783100000000002,0.231275,0.004380999999999968,0.9968954134276723,0.9474408427908799,double,-0.907449
9,0.075,walk,-0.03828153126124546,-0.031081243249731123,0.0027601104044156083,0.029646869234524333,0.023993518818513727,0.22244604200188267,-0.0007200288011461051,-0.0006000240009573081,-0.0009600384015361897,0.0007200288011461051,0.004800192007685112,0.0002400096003834229,-0.5189304984897238,-0.2596371852464882,-0.1871527688972974,-0.129605184621019,0.1295861766225264,-0.20160576096768387,-0.014389056071078368,-0.04312915220665728,0.0864000004145956,-0.0727199999999999,-0.08465799999999996,-0.9118609999999999,0.045123000000000024,0.14666200000000007,-0.90747,0.11784299999999992,0.23132000000000003,0.004390999999999923,0.9977638425762105,0.9479902933191997,double,-0.90747
10,0.083333,walk,-0.03504140165606129,-0.032521300852029936,0.0014400576023055312,0.010279971089659914,0.06800189431910458,0.18200715664839454,0.0006000240009373224,0.0,0.0007200288011519328,0.00048001920075518715,0.005040201608062698,-0.0002400096003834225,0.3888311058663353,-0.17281382482885058,-0.15841267276011953,0.15841267275692142,0.07200576034529073,0.20161612896773323,-0.028802304139075696,0.02880230413747574,-0.05760460827635245,-0.07242300000000013,-0.08438699999999999,-0.911867,0.045418999999999876,0.14697500000000002,-0.907484,0.117842,0.231362,0.004383000000000026,0.9984378875803462,0.9477221772543177,double,-0.907484
11,0.091667,walk,-0.03791696664266657,-0.0322774178065778,-0.0016798656107461602,0.026285731853413208,0.06060255297911523,0.187152535182206,0.00011999040078471066,-0.0004799616030722346,0.0009599232061436366,0.0007199424046283343,0.003839692824564555,-0.0010799136069116952,-0.3450401951770198,0.029263624364307125,-0.3743608366992673,-0.0575994240643883,-0.05759078510585972,0.028785025796940714,0.02878848138626678,-0.14404953005737262,-0.10078041834992481,-0.072106,-0.08412199999999997,-0.911845,0.04574100000000003,0.14727599999999996,-0.907479,0.11784700000000004,0.23139799999999994,0.004365999999999981,0.9982001439884773,0.9495848021142177,double,-0.907479
12,0.1,walk,-0.04740189607586042,-0.036361454458178025,0.007080283211332197,0.023197099501375756,0.09408769630694375,0.24365686044760965,0.0002400096003909168,-0.0012000480019212759,0.00024000960038425518,0.00012000480018213519,0.004680187207489645,-0.0006000240009598053,-1.1382370614657198,-0.4901040023521206,1.0512599090457637,0.014402880067947441,-0.08641382441486146,-0.08639308841466228,-0.0719953923492378,0.10086336048543011,0.057589056276477806,-0.0717089999999998,-0.08382899999999999,-0.911902,0.046137000000000095,0.14761799999999997,-0.907543,0.1178459999999999,0.23144699999999996,0.004359000000000002,0.9979214558891487,0.9485433011563256,double,-0.907543
13,0.108333,walk,-0.043081723268930575,-0.036121444857793825,0.0006000240009506466,-0.021215839539448028,0.04240679344053046,0.189258264284431,-0.0004800192007818344,-0.0007200288011527668,0.0006000240009598062,-0.0007200288011461051,0.006000240009599728,-0.0008400336013440619,0.5184414744905617,0.02880230413826956,-0.777662211734256,-0.0864069124172269,0.0576046082765522,0.04320345620731445,-0.1008080644819682,0.15841267276012047,-0.028802304138276353,-0.07135399999999992,-0.083534,-0.911902,0.04649000000000014,0.14796899999999996,-0.907555,0.11784400000000006,0.23150299999999996,0.00434699999999999,0.9982449369199873,0.9463610141854607,double,-0.907555
14,0.116667,walk,-0.04655627549794007,-0.03659707223422119,0.0011999040076872453,-0.025864740540656038,0.09477207354354533,0.18297171557842115,0.0002399808015427777,-0.00011999040076472805,-0.0002399808015361169,0.0032397408207342476,0.0039596832253492595,-0.004199664026877882,-0.41691291444798345,-0.05707071951372297,0.0719798424209981,0.08639308883184682,0.07199884813871348,-0.10079251289847879,0.47513434387813164,-0.24484722633194939,-0.4031234011919627,-0.07096400000000003,-0.08322999999999997,-0.911914,0.046904999999999974,0.14830700000000002,-0.9076000000000001,0.117869,0.231537,0.004313999999999929,0.9994000479961542,0.9458282038118475,double,-0.9076000000000001
15,0.125,walk,-0.054122164886593015,-0.04332173286931483,0.0008400336013415638,0.02675219706423396,0.08418948432705411,0.21972841767813295,-0.0001200048002087818,-0.0009600384015370224,0.0003600144005763834,-0.0002400096003909172,0.004920196807867247,-0.0013200528021125731,-0.9079430443601282,-0.8069915558734722,-0.04318617620853015,-0.043200000210195585,-0.10080979248437477,0.07200230434567392,-0.41758675400518036,0.11526624055178067,0.3455671696586238,-0.07051400000000019,-0.08287699999999998,-0.911918,0.047353999999999896,0.14870899999999998,-0.907618,0.11786800000000008,0.23158599999999996,0.0042999999999999705,0.9982794661252316,0.9485002482655878,double,-0.907618
16,0.133333,walk,-0.05508220328812994,-0.04452178087123604,0.0006000240009639688,-0.011671918948341561,0.060858870458385714,0.1641878543468355,-0.00048001920075518715,-0.00048001920076851036,0.0006000240009598053,0.00012000480018213519,0.005400216008649072,-0.0019200768030715435,-0.11520921655309303,-0.14401152069137255,-0.02880230413747687,-0.04320345620381676,0.05760460827655245,0.028802304138176128,0.04320345620701453,0.057604608278150095,-0.0720057603454902,-0.0700590000000001,-0.08250999999999997,-0.911918,0.0478139999999998,0.14912500000000006,-0.9076390000000001,0.1178729999999999,0.23163500000000004,0.004278999999999922,0.9984899727118655,0.9476555610924337,double,-0.9076390000000001
17,0.141667,walk,-0.06659467242621604,-0.04763618910486941,0.0004799616030722354,0.09725783322973139,0.12769244541126162,0.15768020621541773,-0.0010799136069025385,0.0,0.0002399808015361177,0.0002399808015427785,0.005039596832251811,-0.0016798656107511586,-1.381385785707479,-0.37369909210863644,-0.014406335240188832,-0.07198157021206536,0.057597696276519256,-0.0432017277926192,0.014395968485798369,-0.04327083950051137,0.02882303723546741,-0.06951299999999994,-0.08211299999999999,-0.9119200000000001,0.04837099999999994,0.14956400000000003,-0.907657,0.11788399999999988,0.23167700000000002,0.004263000000000017,0.9981562386094671,0.9485073010934504,double,-0.907657
18,0.15,walk,-0.059282371294851074,-0.05448217928717263,0.00048001920076851036,0.03878692023974179,0.15297875465929017,0.17140785189217764,-0.003240129605184114,0.01824072962918341,-0.006120244809792679,-0.00180007200286526,0.0054002160086357495,-0.0013200528021125708,0.8775112362132439,-0.821551683943744,6.9120000330001496e-06,-0.25923628924535863,2.188975114506588,-0.7632576036636014,-0.24481612917413137,0.04327603220736084,0.043179264207198795,-0.06904599999999994,-0.081507,-0.9119750000000001,0.04885000000000006,0.150063,-0.907672,0.117896,0.23157,0.004303000000000057,0.9674816268261244,0.947231027381958,double,-0.907672
19,0.158333,walk,-0.06276251050042611,-0.05424216968678838,-0.004200168006721135,0.04090303599096017,0.09022112036146343,0.14909156951478916,-0.0014400576023188543,0.0,-0.0012000480019196105,-0.0014400576023188543,0.005760230409222125,-0.0012000480019196105,-0.4176334100054042,0.02880230413827534,-0.5616449306959848,0.2160172810350724,-2.188975114506588,0.5904472348341611,0.043203456203816784,0.04320345620861335,0.014401152069237986,-0.06853500000000001,-0.08105499999999999,-0.91195,0.04936099999999999,0.15056300000000006,-0.9076470000000001,0.117896,0.23161800000000005,0.004302999999999946,0.9968757751606254,0.9468740525907896,double,-0.9076470000000001
20,0.166667,walk,-0.0651547876169858,-0.05759539236860811,-0.0019198464122889352,0.04093516623532857,0.11094029374486056,0.15067940547086342,-0.0019198464122889352,0.0007199424046083507,-0.0007199424046075181,-0.0016798656107461574,0.005759539236853484,-0.0020398368130553285,-0.2870502899639655,-0.4023545334556906,0.27361670199570404,-0.05757005159228227,0.0863861776587893,0.057608063032408445,-0.028774659038553262,-8.293404951293182e-05,-0.10076659600860538,-0.06800800000000007,-0.080569,-0.91194,0.04988999999999999,0.15109099999999998,-0.907648,0.11789800000000006,0.23165999999999998,0.0042919999999999625,0.9963781356938863,0.9465186481669514,double,-0.907648
21,0.175,walk,-0.07560302412098067,-0.05640225609024686,0.0020400816032561833,0.02030967489265846,0.14928138049686532,0.1017892217439858,-0.001320052802110077,-0.000720028801152768,-0.000480019200768512,-0.0020400816032561833,0.005520220808831226,-0.0006000240009598073,-1.2538385340207487,0.1431820806865776,0.4752103702802266,0.071978112345957,-0.17280345682960785,0.028791936138126323,-0.0432276482071315,-0.028719360137076502,0.17278444882941615,-0.06738899999999992,-0.08010499999999998,-0.9119609999999999,0.05050300000000019,0.151607,-0.90767,0.11789200000000011,0.23171199999999997,0.004290999999999934,0.9973693054846282,0.947230599588897,double,-0.90767
22,0.183333,walk,-0.06852274090962159,-0.06684267370694512,-0.0033601344053662495,0.06161147850707385,0.16112003702889793,0.14897929964011683,-0.0016800672026831248,-0.00024000960038425518,-0.0004800192007676777,-0.003240129605184114,0.0052802112084536145,-0.0014400576023046985,0.8496679720819733,-1.2529002300129901,-0.6480518431084157,-0.04320345620701397,0.057604608276552546,1.0011923337664646e-13,-0.14401152069217926,-0.028802304137478862,-0.10080806448396622,-0.066832,-0.07955000000000001,-0.911937,0.051047000000000065,0.152208,-0.9076540000000001,0.11787900000000007,0.23175800000000002,0.004282999999999926,0.9970604947284574,0.9465695759830319,double,-0.9076540000000001
23,0.191667,walk,-0.06575473962082942,-0.06383489320854714,-0.0032397408207342476,0.032066436649777125,0.1564002974016543,0.09867322949699149,-0.002519798416132558,0.0011999040076805846,-0.0004799616030722338,-0.0031197504199761807,0.005879529637624873,-0.0011999040076789193,0.33213358396834175,0.36090478742476295,0.014446074469882634,-0.10075968483914474,0.17277581090290836,6.911170559622638e-06,0.01444434667721783,0.0719124585038706,0.028816126065008284,-0.06630500000000006,-0.07900799999999997,-0.911914,0.051568999999999976,0.152789,-0.907637,0.11787400000000003,0.23179699999999998,0.004276999999999975,0.9952802080948604,0.9459579252291467,double,-0.907637
24,0.2,walk,-0.0703228129125135,-0.06720268810751817,-0.0022800912036470937,0.06313703383014899,0.14358373839497995,0.1209285774322252,-0.008520340813624405,-0.02172086883475178,0.011160446417857042,-0.003600144005757166,0.004440177607112052,-0.0012000480019204432,-0.5481907226309933,-0.4041515539386808,0.11516256055288047,-0.7200938914546793,-2.750602765202489,1.39690483870506,-0.057649536275169194,-0.1727291528276515,-1.7280000182879828e-05,-0.06579000000000002,-0.078629,-0.911802,0.05212499999999998,0.15338600000000002,-0.9076280000000001,0.11791499999999999,0.23201500000000003,0.0041739999999999,0.9568932876210849,0.9485251357865143,double,-0.9076280000000001
25,0.208333,walk,-0.0770430817232729,-0.07140285611424621,0.0006000240009506475,0.014368033796485326,0.14820810555589006,0.07523195237301604,-0.002400096003855883,-0.0013200528021167386,0.0008400336013440632,-0.003480139205575043,0.004680187207476338,-0.00036001440057555127,-0.8064645158717655,-0.5040403224202628,0.34562764965771614,0.7344587555224453,2.4481958517502806,-1.2384990779446783,0.014401152067937536,0.02880230413587986,0.10080806448396663,-0.06516800000000011,-0.07804500000000003,-0.9117999999999999,0.05273799999999995,0.15401999999999993,-0.907636,0.11790600000000007,0.23206499999999997,0.0041639999999999455,0.9952248744404267,0.9486210273819526,double,-0.907636
26,0.216667,walk,-0.07439404847612963,-0.0838732901367896,-0.0038396928245645486,0.11495656160897996,0.10801544107481702,0.11183605208792262,-0.0016798656107461574,-0.0015598752099814294,0.0007199424046075181,-0.003959683225335938,0.004199664026878715,-0.00035997120230417536,0.3178585609723147,-1.4963323761151157,-0.5327234011897278,0.08642073351448583,-0.028776386832816244,-0.014409790825119393,-0.05754067911697797,-0.057658169018193234,5.183377894877184e-06,-0.06456200000000001,-0.07735900000000001,-0.9117620000000001,0.05332500000000007,0.15475399999999995,-0.907607,0.11788700000000008,0.23211299999999996,0.00415500000000002,0.995995323495228,0.9488112690366541,double,-0.907607
27,0.225,walk,-0.07740309612384569,-0.08736349453978229,-0.008280331213260135,0.0702959796384758,0.1401882545946677,0.0668960285323307,-0.0022800912036470937,-0.0008400336013415624,0.0008400336013440605,-0.003240129605184114,0.0037201488059526245,-0.001320052802111738,-0.36110016173239645,-0.41884128201040305,-0.5328979225603723,-0.07202995234620614,0.08638444841472057,0.014411520069187847,0.0863498884137553,-0.057544128276261874,-0.11521440055292956,-0.06393599999999999,-0.07663799999999998,-0.911686,0.053943000000000074,0.15551299999999996,-0.9075489999999999,0.11787900000000007,0.23215099999999994,0.004137000000000057,0.9957149715417388,0.9501184904072348,double,-0.9075489999999999
28,0.233333,walk,-0.07236289451576967,-0.08292331693267689,-0.00384015360613476,0.02509547389411127,0.14572320543922138,0.07394009458814171,-0.0022800912036470937,-0.0012000480019212759,-0.0010800432017283156,-0.003720148805965948,0.0033601344053795727,-0.00048001920076851036,0.6048483869045974,0.5328426265577095,0.5328426265601071,0.0,-0.04320345620781389,-0.23041843310600918,-0.057604608278151136,-0.04320345620701446,0.10080806448376659,-0.06335200000000007,-0.075957,-0.911663,0.05451499999999987,0.15623199999999998,-0.907521,0.11786699999999994,0.23218899999999998,0.004141999999999979,0.9953436350546735,0.9501868101690432,double,-0.907521
29,0.241667,walk,-0.08147348212144202,-0.0892728581713492,0.0,0.04274586748788905,0.12037103559527716,0.07860070015280449,-0.0020398368130470092,-0.0007199424046083531,0.0009599232061436382,-0.00383969282455124,0.003479721622277037,-0.0004799616030714028,-1.0931830580360415,-0.7618839979208446,0.46078157021055544,0.028828220614361057,0.05760806303250826,0.24477638683368835,-0.014344134699459093,0.014349318082249181,6.911170759245174e-06,-0.06268999999999991,-0.07521899999999998,-0.911655,0.055162000000000155,0.15700500000000006,-0.907525,0.11785200000000007,0.23222400000000004,0.004129999999999967,0.996055698959431,0.9500265944955802,double,-0.907525
30,0.25,walk,-0.07416296651866157,-0.09144365774630796,-0.003840153606148083,0.06665983869626457,0.09531210755208183,0.08644889987519401,-0.00252010080403801,-0.00048001920076851036,0.0008400336013440605,-0.0033601344053928958,0.0019200768030607183,0.0007200288011519328,0.8772969642122223,-0.26050636924982123,-0.46083686621241804,-0.057633984278291195,0.028791936138226636,-0.014387328069072074,0.0575493122714921,-0.18716486490055412,0.14400460869114778,-0.062092999999999954,-0.074461,-0.911616,0.055752000000000024,0.15778299999999995,-0.907487,0.11784499999999998,0.23224399999999995,0.004128999999999938,0.9955009312855614,0.9521492497832342,double,-0.907487
31,0.258333,walk,-0.08088323532939434,-0.10704428177127158,-0.002160086403451642,0.11827154504344534,0.08075727439888049,0.11801929065966306,-0.00276011040440229,-0.001080043201725821,-0.0007200288011519352,-0.003240129605184125,0.003000120004806531,0.000360014400576384,-0.8064645158685696,-1.8721497689863986,0.20161612896873213,-0.02880230413587908,-0.07200576034529128,-0.1872149768985959,0.014401152071135367,0.1296103686242428,-0.04320345620731426,-0.061442,-0.07357799999999998,-0.9116040000000001,0.056398999999999866,0.1587,-0.907466,0.11784099999999986,0.23227799999999998,0.004138000000000086,0.9949164906487927,0.9512359386607494,double,-0.907466
32,0.266667,walk,-0.07199424046078179,-0.10379169666426731,-0.002519798416132558,0.04317490981243625,0.06620186398424441,0.08423869084040862,-0.002879769618433403,-0.0004799616030722338,-0.0004799616030714012,-0.0020398368130470023,0.0029997600192047916,0.0002399808015352843,1.0665940567089687,0.3902789905212702,-0.04316198856262483,-0.01435795704716977,0.07200403151590914,0.02880575930891934,0.1440236131674012,-4.319481662337829e-05,-0.014402879654559586,-0.060865999999999865,-0.07271699999999998,-0.911587,0.05698200000000009,0.15959000000000007,-0.907443,0.11784799999999995,0.23230700000000004,0.0041440000000000365,0.995068863288557,0.9525007817744398,double,-0.907443
33,0.275,walk,-0.07596303852152658,-0.10236409456378125,-0.007080283211332174,0.019548577537066125,0.09994412664702752,0.1017378775876746,-0.002400096003855867,0.0004800192007685088,-0.0012000480019204393,-0.002640105604220137,0.002400096003829221,0.0014400576023046935,-0.47627481828210455,0.17131910482251986,-0.5472800666266168,0.05756313627475506,0.11520230455307075,-0.0864138244148608,-0.0720351363462297,-0.0719625603474821,0.14401497669139618,-0.06025300000000011,-0.07185999999999998,-0.911538,0.057593000000000005,0.16046299999999997,-0.907372,0.11784600000000012,0.23232299999999995,0.004166000000000003,0.9954566915909999,0.9519272556734899,double,-0.907372
34,0.283333,walk,-0.08148325933038496,-0.1098043921756872,-0.006840273610941304,0.10351321503888404,0.024301943767703324,0.07947077371771459,-0.00276011040440229,0.000240009600384256,0.0,-0.003600144005757178,0.0008400336013548883,0.0013200528021117424,-0.662452995182814,-0.8928714282858482,0.02880230413907004,-0.04320345620381901,-0.028802304138275937,0.14401152069128073,-0.11520921655310737,-0.18721497689599623,-0.01440115206923694,-0.0595969999999999,-0.07094299999999998,-0.911481,0.05824200000000013,0.16138500000000006,-0.907304,0.11783900000000003,0.23232800000000003,0.004176999999999986,0.9953824567460468,0.9516875674091789,double,-0.907304
35,0.291667,walk,-0.07703383729302025,-0.11363090952723479,0.0,0.07806397327072624,0.07789242441690325,0.13993080471868083,-0.0019198464122889352,0.0004799616030722338,-0.00035997120230334275,-0.002879769618433403,0.0013198944084453126,0.0017998560115192117,0.5338879334490879,-0.45914535055766503,0.8207671719392005,0.10082361316454931,0.0287919369675999,-0.04319308882929474,0.0864380114379379,0.0575786905556064,0.05757177938654533,-0.058970999999999885,-0.069992,-0.911484,0.058860000000000134,0.16234300000000002,-0.907289,0.11783100000000002,0.232335,0.004194999999999949,0.9966476572645677,0.9519775952121048,double,-0.907289
36,0.3,walk,-0.07212288491537899,-0.11928477139085532,-0.0020400816032561833,0.06961612208934131,-0.018909758514388395,0.11725400294022151,-0.002760110404428936,0.0007200288011461063,-0.0013200528021125753,-0.002280091203647101,0.0007200288011461063,0.0014400576023038704,0.5893378588313061,-0.6784905632569959,-0.24481958517414956,-0.10083571248529978,0.028809216137510276,-0.11521440055313031,0.07196428834589023,-0.07198675234599877,-0.04317753620728935,-0.05839300000000014,-0.06899200000000005,-0.911478,0.059441999999999995,0.16334299999999996,-0.9072600000000001,0.11783500000000013,0.232335,0.004217999999999944,0.9947614701173044,0.953167932577462,double,-0.9072600000000001
37,0.308333,walk,-0.0678027121085019,-0.12132485299412402,-0.005640225609026647,0.07161243487014977,-0.0320338884720557,0.09881643776947384,-0.004200168006721121,-0.0016800672026831191,-0.0009600384015361848,-0.002400096003855867,-0.0004800192007685088,0.0026401056042243,0.5184414744842281,-0.24481958517564978,-0.43203456207493685,-0.17281382482805457,-0.28802304138116114,0.043203456207414975,-0.0144011520711347,-0.14401152069058085,0.14401152069127862,-0.057863,-0.06799499999999997,-0.911439,0.05998700000000001,0.16435,-0.9071910000000001,0.11785000000000001,0.23234499999999997,0.0042479999999999185,0.9922925521548889,0.9515197599903819,double,-0.9071910000000001
38,0.316667,walk,-0.08195344372450121,-0.11903047756179488,-0.0032397408207342692,0.05432918678000649,-0.025429250166715267,0.1282398729845383,-0.0034797216222504056,0.0008399328053730844,-0.0007199424046075229,-0.0027597792176487107,-0.001439884809216711,0.0021598272138225686,-1.6979519577633053,0.2753030276372864,0.28803513178454426,0.08644665040445397,0.302375810901874,0.028809214894248047,-0.04315853297250368,-0.11517465904106164,-0.05762879654448456,-0.05720899999999984,-0.066996,-0.9114180000000001,0.06064700000000012,0.16532999999999998,-0.907146,0.11785599999999996,0.23232599999999998,0.0042720000000000535,0.9939144372231734,0.9509654438029733,double,-0.907146
39,0.325,walk,-0.0729629185167334,-0.11928477139085453,0.0018000720028785772,0.06689773455209878,-0.05830588241064296,0.09052183772305854,-0.004320172806929902,0.0006000240009639668,-0.00048001920076767607,-0.0034801392055750194,-0.0007200288011461016,0.0027601104044164275,1.0789061811793805,-0.030516480146362893,0.6048017309027752,-0.10085817648859868,-0.028790208137419487,0.028791936138227035,-0.08644665641741338,0.0863861764155294,0.0720368643458366,-0.05663700000000005,-0.06599699999999997,-0.911437,0.061226,0.16631800000000002,-0.907138,0.11786300000000005,0.232315,0.004299000000000053,0.9926867053486713,0.9495103667109599,double,-0.907138
40,0.333333,walk,-0.06660266410657441,-0.1254050162006505,-0.0016800672026964535,0.12452575211255533,-0.01321330102942021,0.1612233168828725,-0.003720148805939314,-0.00240009600384256,-0.0013200528021125753,-0.002400096003829237,-0.002280091203647101,0.0027601104044164457,0.7632610596614666,-0.7344587555257401,-0.41763341000540494,0.07200576034928471,-0.36002880172885326,-0.10080806448396752,0.1296103686242392,-0.1872149768991964,2.185839013291314e-15,-0.05611299999999986,-0.06497199999999997,-0.911434,0.06176100000000018,0.16734400000000005,-0.9071009999999999,0.11787400000000003,0.23231600000000002,0.004333000000000031,0.9923003413917026,0.9494863986575298,double,-0.9071009999999999
41,0.341667,walk,-0.06767458603311836,-0.13150947924165884,-0.009959203263732199,0.06832561050818883,-0.10556953080179936,0.06755196610628177,-0.026277897768174827,0.024238060955121165,0.025317974562035356,-0.0032397408207342476,-0.002519798416132558,0.004799616030717342,-0.12862034155794996,-0.732476966763659,-0.9934168539759703,-2.7067133384011868,3.1963231292253056,3.1963075790914215,-0.10074931808315453,-0.028762564493095336,0.2447210974683099,-0.05576799999999982,-0.06367400000000001,-0.9111400000000001,0.06229800000000019,0.16841899999999999,-0.9069780000000001,0.118066,0.232093,0.004161999999999999,0.9269891304533914,0.9478546841317133,double,-0.9069780000000001
42,0.35,walk,-0.06240249609982662,-0.131165246609866,-0.008640345613819893,0.09460526880654974,-0.12019913984378842,0.1346030253478775,-0.006360254410186114,0.004320172806916608,0.0019200768030723824,-0.0021600864034649653,-0.00408016320652569,0.0025201008040321897,0.6326760990389723,0.04130956819786884,0.1582692487594275,2.3902128114711103,-2.390242187472052,-2.807860045477383,0.12956371262081903,-0.18725126489777225,-0.2735527693129915,-0.055301000000000045,-0.06254499999999996,-0.9110520000000001,0.06279999999999997,0.16947800000000002,-0.906885,0.11810100000000001,0.23202299999999998,0.004167000000000032,0.9867918980910273,0.949563806551935,double,-0.906885
43,0.358333,walk,-0.0595223808952418,-0.12732509300371705,-0.0019200768030740352,0.1432886932135912,-0.11098491277918367,0.14173048457906173,-0.00804032161286919,0.003960158406330205,0.004320172806911582,-0.002640105604220137,-0.004200168006721121,0.006840273610944588,0.34562764965616366,0.4608368662125205,0.8064645158701345,-0.20161612896712702,-0.043203456208616535,0.28802304138235807,-0.05760460827495134,-0.014401152069534405,0.5184414744884652,-0.05487200000000003,-0.06145100000000003,-0.911,0.06327400000000005,0.170504,-0.9068120000000001,0.11814600000000008,0.23195500000000002,0.0041879999999999695,0.9834174188342123,0.9440368232791052,double,-0.9068120000000001
44,0.366667,walk,-0.05747540196783006,-0.1286297096232321,-0.004199664026878715,0.09801393883771878,-0.1304227556625367,0.11950045019713053,-0.007919366450671875,0.0021598272138250523,0.005759539236860977,-0.001799856011530868,-0.004199664026878715,0.007559395248380189,0.24561782186365894,-0.15654147102412497,-0.2735285845697958,0.014513458387006864,-0.2160224613037138,0.17271015478154467,0.10082188537188243,6.047274326923268e-05,0.08628769347679383,-0.054459000000000035,-0.060361,-0.910917,0.06373799999999985,0.171541,-0.906714,0.11819699999999989,0.231902,0.004202999999999957,0.9832872710857075,0.9432484062492714,double,-0.906714
45,0.375,walk,-0.060602424096987996,-0.13980559222368588,-0.01368054722189593,0.10151298245714792,-0.14725943936121666,0.05770654083012077,-0.007800312012478328,0.0,0.0019200768030723824,-0.0016800672026831304,-0.005040201608062714,0.007320292811712314,-0.3752576658055853,-1.341159558436793,-1.1377514934618072,0.014287104067388466,-0.2591896332443367,-0.46075392221152095,0.014375232071011376,-0.1008685444838595,-0.028693440137750603,-0.05401899999999982,-0.059196000000000026,-0.910787,0.06422900000000009,0.17266399999999998,-0.906539,0.11824799999999991,0.23186,0.0042480000000000295,0.986611410079463,0.9424449152476442,double,-0.906539
46,0.383333,walk,-0.054962198487921346,-0.131165246609866,-0.00888035521421081,0.0687513403194419,-0.12330064247026482,0.10890879155337031,-0.007440297611905274,-0.001440057602305536,0.002640105604224318,-0.00048001920075518877,-0.003000120004806531,0.009360374414976823,0.6768541472538898,1.036882948976347,0.5760460827655265,0.04320345620701481,-0.17281382482965793,0.08640691241472907,0.14401152069218107,0.24481958517414956,0.24481958517514876,-0.053622999999999976,-0.05811500000000003,-0.9106909999999999,0.06468300000000005,0.17373199999999994,-0.9063869999999999,0.11830600000000002,0.23184699999999997,0.0043039999999999745,0.9866248621966458,0.940558124458119,double,-0.9063869999999999
47,0.391667,walk,-0.055555555555567765,-0.12383009359251643,-0.011999040076792523,0.10111110126399803,-0.21603721474960574,0.13631594494452332,-0.007319414446854896,-0.0035997120230350926,0.0029997600191981307,-0.00035997120232748815,-0.00455963522917956,0.011279097672185838,-0.07119715234538257,0.8801479502459287,-0.3742122465300828,0.014504819420491746,-0.25913779946358945,0.043155077390666235,0.014404607442728642,-0.18712685677622123,0.23022837259527398,-0.05322099999999996,-0.05711299999999997,-0.910566,0.06514299999999995,0.174726,-0.9061929999999999,0.11836399999999991,0.23183899999999996,0.004373000000000071,0.9855153036059134,0.9359846812127322,double,-0.9061929999999999
48,0.4,walk,-0.052802112084482676,-0.11772470898835354,-0.007440297611905225,0.08716572923128292,-0.21608134799230064,0.09296260622927137,-0.008520340813624377,-0.006840273610947919,0.0018000720028802425,-0.0019200768030473887,-0.002760110404415595,0.012960518420737246,0.3304264335875528,0.7326754595179247,0.5470709786256185,-0.14411692868948478,-0.3888829458673722,-0.14396832069097362,-0.18722016089282298,0.21595161703635637,0.20177856096860683,-0.0528519999999999,-0.056189000000000044,-0.910489,0.06556700000000015,0.17568399999999995,-0.9060229999999999,0.11841900000000005,0.231873,0.004466000000000081,0.9815439102290134,0.933024089998611,double,-0.9060229999999999
49,0.408333,walk,-0.06012240489617952,-0.14124564982599808,-0.012720508820345583,0.14132579747938387,-0.13007410579259066,0.09600596587992033,-0.007200288011514356,-0.007200288011514356,0.0015600624024959984,0.001800072002865266,-0.00816032641305138,0.02304092163686526,-0.8784702762146717,-2.822625805549574,-0.6336506910404862,0.15841267276011334,-0.04320345620622083,-0.028802304138274892,0.4464357141380852,-0.6480518431100203,1.2096967738063171,-0.052410999999999985,-0.055071999999999954,-0.91037,0.06608299999999989,0.17679300000000003,-0.905725,0.11849399999999988,0.231865,0.00464500000000001,0.9828307372839008,0.9127008446891626,double,-0.905725
50,0.416667,walk,-0.053755699544036896,-0.1299496040316774,-0.01091912646988999,0.19382221856239154,-0.1525577310628499,0.1445895867640742,-0.006839452843795984,-0.005279577633794572,0.000959923206143635,0.006599472042226563,-0.015838732901370393,0.03203743700503914,0.7639435267749718,1.3554170619535226,0.2161485901674577,0.0432967563856938,0.23046680798173536,-0.07201094268686858,0.5758819341686215,-0.9213350717925372,1.0794954845421008,-0.05202000000000018,-0.054033,-0.9102709999999999,0.06658599999999981,0.177744,-0.9053669999999999,0.11860599999999999,0.231777,0.0049040000000000195,0.9855111625576153,0.8903882826126992,double,-0.9053669999999999
51,0.425,walk,-0.060002400096024026,-0.11856474258970255,-0.008280331213246839,0.18937265296312408,-0.11255795857355994,0.11192704122349922,-0.0060002400095864146,0.000240009600384256,-0.00036001440057555127,0.013920556822273524,-0.025561022440899948,0.037681507260290716,-0.7496340516005215,1.3662380225578883,0.3166680975210797,0.10070956848788808,0.6623769631799883,-0.15839884876025317,0.8785653162182863,-1.1667214136000934,0.6773155232511211,-0.051569999999999894,-0.05304300000000001,-0.9102049999999999,0.06720199999999998,0.17851899999999998,-0.904984,0.11877199999999988,0.231562,0.00522099999999992,0.9899736326577342,0.8684341950615654,double,-0.904984
52,0.433333,walk,-0.06048241929675217,-0.11868474738989722,-0.014040561622455566,0.1223732390512446,-0.14483205105721828,0.11310998388360405,-0.002160086403464951,0.004560182407300833,0.00048001920076767607,0.01752070082805723,-0.023400936037434827,0.03756150246009834,-0.057604608271707505,-0.014401152069442808,-0.6912552993170171,0.4608368662092221,0.5184414744889667,0.10080806448376621,0.432034562076526,0.25922073724530326,-0.014401152069168015,-0.05108400000000013,-0.05201599999999995,-0.910084,0.06785200000000002,0.17931300000000006,-0.9045540000000001,0.11893600000000015,0.231329,0.005529999999999924,0.9915521772543,0.8653721775024261,double,-0.9045540000000001
53,0.441667,walk,-0.05915526757860325,-0.12538996880249204,-0.021478281737465955,0.1050894773453858,-0.10490507684181283,0.1331760757435075,-0.006959443244527454,0.011519078473720367,-0.007199424046076062,0.02027837772976538,-0.0233981281497549,0.038996880249580125,0.15924546654054733,-0.8045622045350198,-0.8924550173998597,-0.5758767507874406,0.8350007279121159,-0.9214594728634247,0.3308947566244499,0.0003369195680257514,0.17223155621331837,-0.050648999999999944,-0.050875000000000004,-0.909965,0.06851399999999996,0.18016299999999996,-0.90405,0.11916299999999991,0.23103799999999997,0.005915000000000004,0.9745619092614188,0.8578600127615204,double,-0.90405
54,0.45,walk,-0.03528141125645209,-0.13704548181927603,-0.049321972878920976,0.3042449434393379,-0.23154250673845828,0.372071630343895,-0.008400336013442242,0.010800432017278124,-0.006000240009600531,0.02580103204129069,-0.027361094443778353,0.03336133445337805,2.864977357752438,-1.3987175107145025,-3.3413765920382703,-0.1729140488317271,-0.0862410244140454,0.1439078406906907,0.6627450271841219,-0.47557497828194367,-0.6762925472461361,-0.05042499999999994,-0.04964299999999999,-0.909604,0.06902300000000006,0.181077,-0.903361,0.119448,0.23071999999999998,0.0062429999999999986,0.9750992047722149,0.8537828792039145,double,-0.903361
55,0.458333,walk,-0.060722428897143486,-0.11376455058202409,-0.03240129605184125,0.08779025546136068,-0.019003375143758654,0.23466055583408904,-0.013080523220945281,0.007920316812673786,-0.003120124804991997,0.04032161286450171,-0.032641305652218844,0.051842073682947666,-3.0530442386525216,2.7938235014102966,2.030562441747242,-0.561644930697594,-0.34562764965850773,0.3456276496590113,1.7425394003613415,-0.6336506910405021,2.217777418645105,-0.05002800000000018,-0.04862899999999998,-0.90936,0.06986499999999984,0.18175300000000005,-0.902659,0.11989300000000003,0.23038200000000003,0.006700999999999957,0.9739889614807729,0.8107551633759325,double,-0.902659
56,0.466667,walk,-0.05963522918168841,-0.11555075593952373,-0.03455723542116087,0.11022006748926798,-0.00594914651394258,0.2701045224801652,-0.011999040076792523,0.007079433645305457,-0.001679865610751153,0.04631629469642393,-0.06875449964003422,0.025317974562034523,0.130453529572243,-0.21432749670022058,-0.25869202895603755,0.12976759589065964,-0.10089790825153926,0.17281727792666696,0.7193042754886266,-4.333236619608272,-3.182637283526892,-0.04963099999999998,-0.04760700000000001,-0.909086,0.07074800000000003,0.182143,-0.90216,0.12037900000000001,0.22975,0.006925999999999988,0.9766121296886054,0.7862737389341827,double,-0.90216
57,0.475,walk,-0.0507620304812002,-0.10944437777510749,-0.04620184807391932,0.04794183412226468,-0.06688360701714355,0.2870981548840593,-0.0014400576022922126,0.011400456018242166,-0.008400336013440632,0.046081843273750506,-0.039241569662782555,0.10704428177127158,1.0648264371160732,0.7327946915176113,-1.3974094147076057,1.2671285820833238,0.5185434264894659,-0.8064887078710543,-0.02813529613265669,3.5416932650008084,9.807549167075154,-0.04922000000000004,-0.04660000000000003,-0.908771,0.07155500000000004,0.182728,-0.900883,0.12077500000000008,0.22932800000000003,0.007888000000000006,0.9762764879602241,0.716168004746417,double,-0.900883
58,0.483333,walk,-0.05376215048601969,-0.11268450738029752,-0.05808232329293627,0.04688341254964681,-0.055026547861801285,0.3527328123433326,-0.006840273610941258,0.0037201488059526123,0.002760110404415595,0.05064202568101772,-0.045121804872199855,0.11760470418816724,-0.36002880173040697,-0.38883110586703684,-1.425714054844222,-0.6480518431116072,-0.9216737324240396,1.3393071424284386,0.5472437786232085,-0.7056564513881286,1.2673013820827568,-0.04882900000000001,-0.045630000000000004,-0.908264,0.07242499999999996,0.18329099999999998,-0.899419,0.12125399999999997,0.22892099999999999,0.008844999999999992,0.9862313702312171,0.685279153893515,double,-0.899419
59,0.491667,walk,-0.04751619870411118,-0.09647228221741908,-0.04811615070794148,0.011446083503202637,-0.10235553648398645,0.3358417545586408,-0.0016798656107461574,0.006119510439167651,0.004559635229182058,0.054355651547880524,-0.09635229181665435,0.11579073674106068,0.7494542574884213,1.9453113946338407,1.1958450425959661,0.6191994240694858,0.28790036395668783,0.21592570491558213,0.4455994560670504,-6.147166660001733,-0.21765868095831029,-0.04844699999999991,-0.04477500000000001,-0.907825,0.07327400000000006,0.18329199999999995,-0.898053,0.12172099999999997,0.22806699999999996,0.009772000000000003,0.986976449759885,0.6353749205941372,double,-0.898053
60,0.5,walk,-0.05016200648026287,-0.08640345613824556,-0.04128165126605206,0.07558166029929309,-0.23599997933703942,0.36945523584160855,-0.004320172806929931,0.003600144005757178,0.0022800912036479337,0.05940237609503341,-0.15204608184327628,0.15132605304212185,-0.3175096335235447,1.208307461799297,0.8201727399363301,-0.3168495375235545,-0.3023360654518756,-0.27355622531310814,0.6056311709051843,-6.683522144080412,4.26440853246865,-0.048065000000000024,-0.044025000000000036,-0.907462,0.074187,0.18274499999999994,-0.896448,0.12225200000000003,0.22676999999999997,0.011013999999999968,0.9898862379456836,0.5188769679721219,double,-0.896448
61,0.508333,walk,-0.04452178087122256,-0.0759630385215399,-0.05760230409216776,-0.026974309509694094,-0.3350770190551079,0.34006338132716185,-0.0019200768030740352,-0.0020400816032628316,0.006000240009600531,0.057842313692558676,-0.14916596663866422,0.16332653306132192,0.6768541472507243,1.2529002300138736,-1.9585566814011321,0.28802304138436163,-0.6768541472482883,0.44643571414287553,-0.18721497689604327,0.3456276496594328,1.4401152069122785,-0.04771000000000014,-0.04340900000000003,-0.906932,0.07504,0.18213499999999994,-0.8946069999999999,0.12275000000000014,0.22554399999999997,0.01232500000000003,0.9889632548011345,0.4956996414937517,single,-0.8946069999999999
62,0.516667,walk,-0.05651547876171261,-0.04631629469643091,-0.10643148548115865,-0.5547553504443153,-0.26856906252092067,0.4386127709108662,0.007559395248397724,-0.0035997120230351165,0.013678905687545432,0.06287497000239643,-0.15442764578832907,0.20026397888169023,-1.4391286165694883,3.5573246730392567,-5.859033044035417,1.1374456505245758,-0.18714067911834578,0.9213661720596286,0.6038704475447306,-0.6313509898805958,4.432138927330037,-0.047175999999999885,-0.04305299999999995,-0.905931,0.07603500000000007,0.18123400000000006,-0.892051,0.12321099999999996,0.22428700000000001,0.013880000000000003,0.9732701350972444,0.42688437976111987,single,-0.892051
63,0.525,walk,-0.02484099363972703,-0.0880835233409281,-0.022320892835715672,0.3017097952451661,-0.694826270654578,0.2133317326466602,0.00972038881555231,0.0020400816032628316,0.011760470418815975,0.07656306252249055,-0.18084723388935914,0.21672866914676522,3.8010902582485833,-5.012267928056764,10.093674864447692,0.25932960124259885,0.6768023072480409,-0.23022144110517806,1.642636807883603,-3.1704773912192437,1.9758418654836103,-0.04688800000000004,-0.042302000000000006,-0.905647,0.07687999999999984,0.18046099999999998,-0.8900589999999999,0.12376799999999988,0.222763,0.015588000000000046,0.9743443445618856,0.3566693170860387,single,-0.8900589999999999
64,0.533333,walk,-0.026281051242072875,-0.07944317772710932,0.006960278411136808,0.5236989721760492,-0.9894439403815457,0.20040578592798472,-0.017880715228603874,-0.001680067202689803,-0.00960038401536031,0.09576383055323218,-0.17856714268571444,0.23148925957038496,-0.17281382483449634,1.0368829489762224,3.5138811048665244,-3.312264975897808,-0.44643571414288596,-2.5634050683039096,2.3041843310622583,0.27362188931293857,1.7713417045025652,-0.046817999999999804,-0.041654000000000024,-0.905785,0.0778970000000001,0.17963499999999993,-0.888188,0.12471499999999991,0.22128899999999996,0.017596999999999974,0.9660592846874319,0.32403,single,-0.888188
65,0.541667,walk,-0.007079433645285428,-0.07427405807535775,-0.0157187425005989,0.14731339849779115,-0.6148997157847604,0.15184981446400916,-0.004199664026878687,-0.0032397408207342263,0.003839692824573682,0.12838972882168181,-0.20926325893927938,0.2603791696664245,2.3040097908312096,0.6202447386310931,-2.7212648082236064,1.64159481662168,-0.18714586249632967,1.6126802063755568,3.914794608645235,-3.6832392912844623,3.466511890573471,-0.046794,-0.04106199999999999,-0.9056219999999999,0.07902599999999982,0.17851,-0.885887,0.12581999999999982,0.219572,0.019734999999999947,0.989086662147314,0.30265,single,-0.885887
66,0.55,walk,0.00024000960036426957,-0.070082803312129,-0.01944077763110462,0.04652145373289446,-0.6136359373860963,0.09085536955146759,0.02628105124204588,-0.0031201248049886453,0.01728069122764966,0.15252610104404377,-0.21984879395175053,0.24276971078843015,0.8783683242109285,0.5029706904150645,-0.44666208214397024,3.657832145556755,0.014354496069312429,1.6129843277422202,2.896480525904458,-1.2703150140970956,-2.1132195941430774,-0.04657699999999987,-0.040503999999999984,-0.905316,0.080295,0.17726200000000003,-0.883702,0.12687199999999987,0.21776600000000002,0.021614000000000022,0.9473203833829462,0.28386000000000006,single,-0.883702
67,0.558333,walk,0.035041401656061635,-0.0970838833553356,-0.03960158406335587,-0.2639622243371227,-0.00920084258735304,0.0027968721359186966,-0.004920196807893935,0.00012000480018879799,0.0016800672026881377,0.15912636505462288,-0.2642505700228078,0.2812912516500693,4.176334100047724,-3.240259215553444,-2.419393547612077,-3.7442995379743307,0.3888311058655314,-1.8721497689861593,0.7920633638040533,-5.328426265577542,4.622769814189307,-0.04691000000000001,-0.03969400000000001,-0.904972,0.0813290000000002,0.175869,-0.881028,0.12823900000000021,0.215563,0.023943999999999965,0.9913324738269109,0.26056,single,-0.881028
68,0.566667,walk,0.023158147348225137,-0.0848332133429335,-0.0019198464122889224,0.10121390860039307,-0.19198008959261517,0.096660448218553,-0.00755939524837098,-0.0010799136069091885,-0.0007199424046083459,0.21514278857690422,-0.26625869930405016,0.2524598032157402,-1.425876446824623,1.4699628044638835,4.521446802383809,-0.3166784785789567,-0.14397869055651277,-0.28797811462640577,6.721433108025067,-0.2409562372501047,-3.4594970523552786,-0.04716600000000004,-0.038995999999999975,-0.904962,0.08292900000000003,0.17435700000000004,-0.878908,0.13009500000000007,0.21335300000000001,0.02605400000000002,0.9872166572158407,0.23946,single,-0.878908
69,0.575,walk,0.031441257650304436,-0.08796351854074047,0.003960158406330258,0.11750517804086001,-0.29920855950963154,0.004248870846985577,-0.0025201008040380353,0.002520100804031374,0.0020400816032645243,0.2502100084003254,-0.3777751110044484,0.2752910116404678,0.9940129967693957,-0.3756516498028314,0.7056288033864436,0.604739522900875,0.43201901007327437,0.331216129589931,4.208234708198911,-13.382504704236078,2.7398546051515473,-0.047449000000000074,-0.038242,-0.904978,0.08475199999999994,0.17194199999999998,-0.876647,0.132201,0.21018399999999998,0.028330999999999995,0.993155750777118,0.21669000000000005,single,-0.876647
70,0.583333,walk,0.048841953678152465,-0.08616344653786072,-0.002520100804024679,0.03936149218547879,-0.13819612018310876,-0.054772227048194407,-0.0010800432017191524,0.0006000240009573052,0.0003600144005763816,0.3156126245049947,-0.41197647905916296,0.2853714148565937,2.0881670500237557,0.21601728103681078,-0.7776622117310584,0.17281382483125848,-0.23041843310621155,-0.20161612896773498,7.84862787767539,-4.10432833969932,1.2096967738060498,-0.047865000000000046,-0.037519000000000025,-0.904954,0.08697500000000002,0.16922699999999996,-0.874248,0.13484000000000007,0.20674599999999999,0.03070600000000001,0.9978551531471875,0.19294000000000006,single,-0.874248
71,0.591667,walk,0.05615550755938437,-0.10751139908807308,0.03455723542116064,0.3518398161409898,-0.3934121449551601,-0.15070125446698837,-0.0028797696184333834,0.015118790496761942,-0.00839932805375571,0.3874490040796618,-0.3938084953203722,0.30309575233981056,0.8775562612469224,-2.5615493820748982,4.448924433067559,-0.21594989401418493,1.7421126104877043,-1.0510370115589183,8.619675974881995,2.1799836499628764,2.126750357957374,-0.04835699999999998,-0.036497,-0.905312,0.08973600000000004,0.16684099999999996,-0.87201,0.13809300000000002,0.20333799999999996,0.033302000000000054,0.970777690652572,0.16698000000000002,single,-0.87201
72,0.6,walk,0.06372254890196377,-0.09600384015360977,0.03588143525741653,0.23493254254477788,-0.4544027339451204,-0.16914327902548734,-0.0002400096003909192,0.0020400816032628585,-0.0015600624024960088,0.45913836553463844,-0.48685947437897686,0.2073682947317904,0.9080812843609106,1.3809623106280353,0.1589103367641787,0.3167838735200394,-1.5695078475338058,0.8207447079394892,8.603067497297165,-11.166564149598644,-11.487754423139451,-0.0488900000000001,-0.03567999999999999,-0.905624,0.09303100000000009,0.163584,-0.870581,0.14192100000000019,0.199264,0.035042999999999935,0.9957009909875993,0.1495700000000001,single,-0.870581
73,0.608333,walk,0.06576263050521909,-0.10896435857433824,0.06360254410175413,0.4536102983290821,-0.0634677876410859,-0.08193164604173898,0.00012000480020878121,-0.0001200048001887964,-0.0016800672026881154,0.5124204968198702,-0.5417016680667226,0.17652706108244257,0.2448195851740443,-1.5553244234643484,3.3266661279656167,0.04320345621021228,-0.2592207372436872,-0.01440115206913549,6.394111518688536,-6.581326495589284,-3.7010960817649936,-0.04943699999999995,-0.034773,-0.906168,0.09675300000000009,0.15997799999999995,-0.86964,0.14619000000000004,0.19475099999999995,0.036528000000000005,0.9971856379696231,0.13472000000000012,single,-0.86964
74,0.616667,walk,0.07835373170146609,-0.0749940004799671,0.009719222462202809,-0.07885701937026028,-0.5623947214294692,-0.3567268547898122,0.0007199424046016947,0.0023998080153545243,-0.00119990400767976,0.5919126469882268,-0.5308375329973612,0.11267098632109607,1.5108112786473566,4.076116881974002,-6.465481358237536,0.07198675358686307,0.3023533495972324,0.05761497420306673,9.53829495660631,1.3035919209696916,-7.662116002081457,-0.05008400000000002,-0.03412799999999999,-0.9062589999999999,0.10103299999999993,0.156179,-0.8687819999999999,0.15111699999999995,0.190307,0.03747699999999998,0.9953700356360414,0.12523,single,-0.8687819999999999
75,0.625,walk,0.07764310572423634,-0.08436337453497549,0.025921036841472827,0.12156128234602284,-0.4266527593118642,-0.28591550782481645,-0.0010800432017191524,-0.0038401536061414086,-0.0066002640105603345,0.6936277451098157,-0.5413416536661495,0.09264370574822893,-0.08527852840870574,-1.1243698613954576,1.9442954973322877,-0.21600691303502215,-0.7488253475934126,-0.6480691231105906,12.206300026591688,-1.2605449020506672,-2.403369803536188,-0.05074000000000001,-0.033457000000000015,-0.90653,0.10616599999999998,0.15237099999999992,-0.8682259999999999,0.156906,0.18582799999999994,0.038304000000000005,0.9871464706483828,0.11696000000000006,single,-0.8682259999999999
76,0.633333,walk,0.08856354254168995,-0.08436337453498215,0.004680187207489629,0.032569835125320946,0.23723636178085858,-0.17198143693118884,0.0,-0.001080043201725814,0.0013200528021117337,0.7539901596063857,-0.5741029641185503,0.049081963278531725,1.3105048382879594,-7.993925534322467e-13,-2.5490039162346227,0.12961036862104258,0.3312264975897735,0.9504760365621068,7.243779490767999,-3.9315145148686774,-5.227618201091686,-0.05147799999999991,-0.03276299999999999,-0.906558,0.11171100000000012,0.14829000000000003,-0.867856,0.16318900000000003,0.18105300000000002,0.038702000000000014,0.997157352213381,0.11297999999999997,single,-0.867856
77,0.641667,walk,0.08027357811375505,-0.10907127429805595,0.04979601631870129,0.45922279401090343,-0.3586100032997074,-0.29291342268710086,0.0026397888168906425,-0.0025197984161325748,-0.0005999520038394636,0.8124550035996999,-0.6185505159587293,0.025077993760499406,-0.9947161540598697,-2.964710794705297,5.413466416032148,0.31674931808143236,-0.17275680518439754,-0.23038214614245361,7.015220061592816,-5.3332795584568355,-2.8802459224900954,-0.05212499999999998,-0.03187500000000004,-0.9069780000000001,0.11781299999999995,0.144044,-0.868062,0.16993799999999992,0.17591900000000005,0.03891600000000006,0.9938360791107004,0.11083999999999994,single,-0.868062
78,0.65,walk,0.09528381135244907,-0.0448817952718156,0.08208328333133506,-0.5284819521463934,-0.07516433703590678,-0.45574632060794906,0.0009600384015370176,-0.002280091203647086,0.0012000480019204393,0.8783151326053096,-0.6602664106564243,-0.009360374414977593,1.8013000406449007,7.703045604973009,3.8746270265971003,-0.20157811296695283,0.0287660161389041,0.21600864103682893,7.903531621938005,-5.0061076080276985,-4.132769491836896,-0.05291099999999993,-0.03151999999999999,-0.907652,0.12433800000000006,0.13891600000000004,-0.868824,0.177249,0.17043600000000003,0.038827999999999974,0.9954172409946846,0.1117200000000001,single,-0.868824
79,0.658333,walk,0.09684387375495135,-0.08928357134285056,0.010200408016320954,0.16639732703157709,0.15822508775980645,-0.22393228474765164,0.001560062402501005,-0.003600144005757202,0.002040081603263691,0.932677307092279,-0.6732269290771697,-0.015360614424577496,0.18721497689935157,-5.328426265574866,-8.626290089405348,0.072005760346093,-0.1584126727601258,0.1008080644837705,6.523721887311886,-1.5553244234664028,-0.7200576034561332,-0.05370499999999989,-0.030806,-0.9077200000000001,0.13130299999999995,0.13405,-0.8690370000000001,0.18500799999999984,0.164856,0.03868300000000002,0.992629494870721,0.11317000000000005,single,-0.8690370000000001
80,0.666667,walk,0.09803215742741318,-0.08855291576673996,0.004319654427636754,0.23612275076185854,0.4073835351553243,-0.11984178480739363,0.002039836813046989,-0.0021598272138250376,0.00011999040076805765,1.0535157187424937,-0.7408207343412486,-0.002279817614589765,0.14258263408469227,0.08767165540083931,-0.7056339799237047,0.05756832379961365,0.17282418909673067,-0.2303925128984424,14.499449442070286,-8.110607783066758,1.5695700515943882,-0.054505000000000026,-0.030086,-0.907755,0.1392659999999999,0.128614,-0.869092,0.19377099999999992,0.1587,0.038663,0.9950445917553206,0.11336999999999997,single,-0.869092
81,0.675,walk,0.12720508820350826,-0.12504500180006997,0.0897635905436312,0.9230080426609277,-0.5856844009376088,-0.29965917843260353,0.0006000240009639668,-0.0008400336013415596,0.0003600144005763816,1.0361214448577936,-0.6942277691107663,-0.035161406456258294,3.5008917288005468,-4.3792254930193035,10.25368248121854,-0.17278444882791505,0.15838156876076714,0.028804032138284287,-2.0873963620184917,5.591379482837165,-3.9459484989401648,-0.05555999999999983,-0.029050999999999993,-0.9085000000000001,0.14684000000000008,0.12387099999999995,-0.870133,0.2023999999999999,0.15292199999999995,0.03836700000000004,0.9981778403977865,0.11633000000000004,single,-0.870133
82,0.683333,walk,0.10584423376935767,-0.12624504980199291,0.05628225129004512,0.7099798740343596,1.087041593732167,0.01970184216984344,0.0006000240009639748,-0.0019200768030740608,-0.0008400336013440688,1.0836433457338506,-0.7193087723508939,-0.06384255370214924,-2.5634050683008263,-0.14401152069158216,-4.017921427287458,9.628100415687995e-16,-0.12961036862264622,-0.144011520691283,5.7028562193756684,-3.0098407824466276,-3.4418753445207257,-0.05643699999999985,-0.028015000000000012,-0.908976,0.15498800000000013,0.118929,-0.871134,0.21142499999999997,0.14694400000000002,0.03784200000000004,0.9963666742420481,0.12158000000000008,single,-0.871134
83,0.691667,walk,0.09035277177825748,-0.08723302135829465,0.18466522678185088,1.5950877695703438,0.15169251101954562,0.3002245300097496,0.00035997120230084253,-0.0004799616030722306,-0.0009599232061436286,1.1373890088792828,-0.7095032397408155,-0.034077273818093404,-1.8588267327933847,4.681068927729537,15.404724681042092,-0.028804031517054286,0.1728000000002183,-0.014385601727808842,6.448963660358995,1.17656978762638,3.571547862257692,-0.05718699999999988,-0.027291999999999983,-0.910523,0.16371400000000014,0.11374300000000004,-0.872957,0.22090100000000001,0.14103500000000002,0.03756599999999999,0.9981133547052133,0.12434,single,-0.872957
84,0.7,walk,0.13044521780872076,-0.09288371534861442,0.03300132005280544,0.47324446069256665,0.7738757778969806,0.04372767883126712,0.0012000480019013031,0.0,-0.0019200768030723952,1.15708628345134,-0.7929917196687943,0.004920196807872285,4.81128597509464,-0.6781104032545087,-18.200396823358556,0.10081324848199548,0.05759769627651926,-0.11522304055307517,2.3637674993468556,-10.019018352091633,4.679883670462744,-0.058264000000000093,-0.026517999999999986,-0.910814,0.172269,0.10790900000000003,-0.8731909999999999,0.2305330000000001,0.13442700000000002,0.03762300000000007,0.9962262565974574,0.12376999999999999,single,-0.8731909999999999
85,0.708333,walk,0.29833193327732843,-0.12048481939277579,0.09636385455418155,1.2602225792265114,0.18247927217380364,-0.8596833890379485,0.004080163206538986,0.0007200288011527632,-0.0008400336013440577,1.2076083043321602,-0.7157086283451338,-0.046081843273731875,20.147211744702624,-3.3122649758983864,7.603808292496801,0.345627649662507,0.08640691241482781,0.12961036862214484,6.062885021099236,9.274341932516524,-6.120489629377649,-0.06071599999999999,-0.025507999999999975,-0.911624,0.17984599999999995,0.10294900000000001,-0.874378,0.24056199999999994,0.128457,0.037246,0.9929541521845465,0.1275400000000001,single,-0.874378
86,0.716667,walk,0.169666426685867,-0.084473242140626,0.05027597792177286,0.40070837843134044,0.06169414788545261,-0.20628050311549145,0.0009599232061444612,0.0009599232061444612,-0.002399808015358655,1.2236621070314464,-0.7056635469162377,-0.044876409887208604,-15.438625700919179,4.321043586771,-5.530102787665987,-0.3743988481394889,0.028785025796939784,-0.18715795704518665,1.9263022197367559,1.2053133463998171,0.14464043514797953,-0.06212200000000001,-0.024795999999999985,-0.9120630000000001,0.18863000000000008,0.09777200000000003,-0.875171,0.2507520000000001,0.12256800000000001,0.036892000000000036,0.9954047175053682,0.13108000000000009,single,-0.875171
87,0.725,walk,0.1695667826712948,-0.08064322572903061,-0.012960518420736587,0.19295895944778058,0.36068389263579015,-0.11961816616643522,-0.0006000240009639748,0.001320052802110086,-0.003600144005760533,1.3237729509180505,-0.8072722908916476,-0.1000840033601355,-0.0119577600590682,0.45962035420561903,-7.588683108425539,-0.18720115289913,0.04321728020708365,-0.14404608069145433,12.013781817665306,-12.19353701853005,-6.625176223800239,-0.06353999999999993,-0.024112999999999996,-0.911985,0.1982480000000002,0.09171699999999999,-0.875897,0.26178800000000013,0.11582999999999999,0.03608800000000001,0.9935313566027453,0.13912000000000008,single,-0.875897
88,0.733333,walk,0.14604584183367558,-0.06696267850714036,-0.06444257770310902,-0.2430772005728068,0.2302873511458376,-0.04418985434259768,0.000480019200781832,0.0007200288011527632,-0.0034801392055683576,1.3076923076922944,-0.7164286571462799,-0.016320652826112645,-2.8226258055465157,1.6417313358802592,-6.178094237654172,0.12961036862424125,-0.07200576034529224,0.014401152069143764,-1.929754377265813,10.901672116328736,10.052004144248471,-0.06475299999999984,-0.023548999999999987,-0.911477,0.2079280000000001,0.08630500000000002,-0.875496,0.27268099999999995,0.10985400000000001,0.03598099999999993,0.9940231398065952,0.14019000000000004,single,-0.875496
89,0.741667,walk,0.1843052555795525,-0.1263498920086365,-0.037916966642666756,0.16500949667968193,0.4996151363125615,-0.1259599123853966,-0.0004799616030855586,0.0027597792176620325,-0.0028797696184300918,1.3081353491720698,-0.6861051115910767,-0.0235181185505163,4.5907623885141735,-7.125895548535695,3.1828187017569487,-0.11518848138557669,0.24475046994351823,0.07203858736960274,0.053160724715066714,3.6385343838736977,-0.8636267967847008,-0.06629299999999994,-0.02247300000000002,-0.911185,0.2172940000000001,0.08163999999999999,-0.875376,0.28358700000000003,0.10411300000000001,0.03580899999999998,0.9933042680414418,0.1419100000000001,single,-0.875376
90,0.75,walk,0.192007680307217,-0.08652346093844043,-0.03180127205089039,0.12868010695461013,-0.18935256435186093,-0.14180950644608858,-0.0003600144005730508,0.0018000720028785772,-0.0027601104044164275,1.2973718948757782,-0.654866194647782,-0.009360374414975928,0.9243279404373533,4.779362902939625,0.7339127075214621,0.014394240071103723,-0.11516947255291628,0.014359680068842404,-1.291666182202269,3.7488199859947913,1.6989972561550837,-0.06789599999999996,-0.021737000000000006,-0.910943,0.22650499999999996,0.07690400000000003,-0.875189,0.2944009999999999,0.09864100000000003,0.03575399999999995,0.9944752880847517,0.14246000000000003,single,-0.875189
91,0.758333,walk,0.21024840993639368,-0.09276371054841773,-0.022320892835715672,0.07805961432311025,-0.168776437797192,-0.1870136404214626,0.0004800192007551856,0.0008400336013482211,-0.0013200528021117337,1.3144125765030534,-0.665906636265451,-0.0033601344053762307,2.1889751145057743,-0.7488599075935759,1.1376910134614995,0.10080806448196722,-0.11520921655230433,0.1728138248295557,2.0449635938167723,-1.3249059903598934,0.7200576034560989,-0.06964400000000004,-0.020957000000000003,-0.9107679999999999,0.23570599999999997,0.07212799999999997,-0.8750309999999999,0.30535,0.09308499999999997,0.03573700000000002,0.997272254550788,0.14263000000000003,single,-0.8750309999999999
92,0.766667,walk,0.23062155027597675,-0.09935205183585315,0.0158387329013705,0.2793237419793751,-0.45215358167621006,-0.22618549866466514,0.001919846412288948,-0.005879529637631573,-0.007559395248380239,1.3590112790977003,-0.7062634989200907,-0.027837772978161437,2.4445812742480424,-0.7905377114753369,4.578788785347539,0.17276544414852057,-0.8062830860306974,-0.7486612006561724,5.351416198061804,-4.842436123666895,-2.9370816622012654,-0.07155,-0.02017800000000003,-0.910963,0.24511000000000016,0.06706999999999996,-0.8753949999999999,0.31666000000000016,0.08724799999999999,0.035568000000000044,0.9837212531597689,0.14432,single,-0.8753949999999999
93,0.775,walk,0.23664946597864833,-0.1176047041881714,-0.028201128045119914,0.24143881414057472,-0.26347776755971575,-0.16925466043680532,0.002280091203647086,0.002280091203647086,-0.008160326413056323,1.324252970118788,-0.6127445097803886,0.06504260170406799,0.7233788194733658,-2.1904058985141215,-5.284994713367363,0.043231104207144655,0.979193668700183,-0.07211462434610355,-4.17116392402642,11.22272760586843,11.146090805499705,-0.0735030000000001,-0.019179,-0.9107959999999999,0.254173,0.062944,-0.874618,0.3276760000000001,0.082123,0.03617799999999993,0.9853761459174932,0.13822,single,-0.874618
94,0.783333,walk,0.25297011880475434,-0.12432497299891886,-0.03660146405856264,0.38503892888890745,-0.16199222374051475,-0.1666390114770262,0.0060002400096131015,0.004200168006721177,-0.011040441617665023,1.3145325813032798,-0.6272650906036277,0.06060242409696342,1.9585566813999948,-0.806464515870337,-1.0080806448389301,0.44643571414449174,0.23041843310621732,-0.3456276496590336,-1.1664933175936967,-1.742539400364715,-0.5328426265576157,-0.07556099999999999,-0.018108000000000013,-0.910583,0.2630190000000001,0.058753,-0.873808,0.3385800000000001,0.07686100000000001,0.036775,0.9779183558777687,0.1322500000000001,single,-0.873808
95,0.791667,walk,0.23422126229900875,-0.14974802015838942,-0.11639068874490269,-0.5292589358142172,0.3684173339051453,-0.13489523950219692,0.0029997600191914503,-0.0017998560115175344,-0.007079433645308741,1.3011759059274983,-0.605111591072712,0.0831533477321807,-2.249682806064969,-3.050521617407052,-9.573941047076966,-0.36002879654687164,-0.7199452865657147,0.4752829340480264,-1.60267283126726,2.658207287126896,2.7058943646768783,-0.077488,-0.016874999999999973,-0.9096719999999999,0.271911,0.05495800000000001,-0.872145,0.349399,0.07183299999999998,0.03752699999999998,0.9868389861740923,0.12473000000000006,single,-0.872145
96,0.8,walk,0.24432977319094448,-0.1330853234129325,-0.057242289691581384,-0.20180392642082876,-0.005213359714116671,-0.07381008478580389,0.0030001200047931873,-0.0008400336013415596,-0.008040321612864195,1.2827313092523585,-0.5633025321012788,0.12612504500180077,1.213069829825476,1.9996035935985663,7.09809181007093,4.320000020845615e-05,0.11518329655297861,-0.11531116855339611,-2.2134401386223197,5.017287768082682,5.156809944752178,-0.07949900000000021,-0.01577299999999998,-0.909262,0.2805639999999998,0.051373,-0.870617,0.360063,0.06714599999999998,0.03864500000000004,0.9856286214095096,0.11354999999999998,single,-0.870617
97,0.808333,walk,0.2493699747989705,-0.12540501620065134,-0.04068162726508836,-0.23259642481309942,-0.19109013133461017,-0.1368467076317071,0.002400096003855899,-0.0013200528021167475,-0.005520220808832095,1.2694107764310927,-0.5697827913116613,0.13212528501140056,0.604848386898603,0.9216737324230448,1.9873589855386027,-0.07200576034288896,-0.057604608277354176,0.30242419345159277,-1.598527879667094,-0.7776622117343804,0.7200576034561188,-0.08155699999999988,-0.014739000000000002,-0.908969,0.2890640000000002,0.04766999999999999,-0.8691770000000001,0.3706210000000001,0.06240899999999999,0.03979199999999994,0.9897292435085546,0.10208000000000006,single,-0.8691770000000001
98,0.816667,walk,0.31077513798896955,-0.1781857451403891,-0.059635229181674694,0.19943596526561674,0.035589211000442864,-0.2793086678454418,-0.0002399808015427761,0.0003599712023075034,-0.005759539236860939,1.23950083993279,-0.5711543076553816,0.1472282217422602,7.3680301403885995,-6.333180818303019,-2.2742502899671453,-0.31678387393792357,0.2015867535906213,-0.02871591409033381,-3.5889052673749005,-0.16456879574276764,1.8122074311086536,-0.08414900000000003,-0.013250999999999957,-0.90852,0.29680400000000007,0.04439500000000002,-0.8674529999999999,0.3809530000000001,0.057645999999999975,0.041067000000000076,0.9903737248647632,0.08933000000000002,single,-0.8674529999999999
99,0.825,walk,0.2727709108364323,-0.15036601464058083,-0.05880235209408315,-0.22698506020500733,0.07237254020782444,-0.13646369301107897,-0.00216008640346498,0.015240609624383703,-0.01572062882515305,1.2127685107404345,-0.5713428537141556,0.14520580823233095,-4.560689685891949,3.338501200025023,0.09994924848092505,-0.23042188910623085,1.7857480405707833,-1.1953785657376939,-3.208007823395634,-0.022626432110170954,-0.2426993291646774,-0.08644000000000007,-0.01187100000000002,-0.908161,0.30463700000000005,0.04088699999999995,-0.865753,0.3910770000000001,0.05275799999999997,0.042408,0.9633302908212482,0.07591999999999999,single,-0.865753
100,0.833333,walk,0.2727709108364287,-0.15576623064922787,-0.055202208088311895,-0.10123322552911372,0.14476880564767697,-0.15171303767023525,0.000480019200781832,0.0037201488059526123,-0.0048001920076809245,1.1867274690987635,-0.5763830553222107,0.16896675867034522,-4.3300429977580026e-13,-0.6480518431113667,0.43203456207503216,0.31682534552343705,-1.3825105986356705,1.3105048382901814,-3.1250499990004648,-0.6048483869020823,2.8514281096860876,-0.08870899999999993,-0.010541999999999996,-0.907741,0.3122530000000001,0.03738199999999997,-0.863885,0.40096200000000004,0.04792399999999997,0.043856000000000006,0.9898467617532695,0.06144000000000005,single,-0.863885
101,0.841667,walk,0.28869690424767364,-0.13114950803935713,-0.01931845452364729,-0.11129483544975066,-0.26970533494232535,-0.18243195688433392,0.003959683225335912,0.005279577633787876,-0.005639548836092881,1.17422606191502,-0.6413486921046254,0.11783057355411439,1.9109663320428165,2.9537704115515426,4.305705971282017,0.4175262808440188,0.18711649002102854,-0.10071476222845574,-1.5000488581405556,-7.795252793666216,-6.135851345839986,-0.09108200000000011,-0.009404999999999997,-0.907627,0.31963299999999983,0.03312999999999999,-0.862742,0.41071499999999994,0.04253499999999999,0.04488499999999995,0.9855318796514854,0.051150000000000084,single,-0.862742
102,0.85,walk,0.3092523700947862,-0.13080523220928716,-0.021720868834751998,-0.07535205228201439,-0.14212278335688608,-0.2281770288005796,0.0038401536061481215,0.006120244809795237,-0.002760110404416464,1.1186847473899122,-0.6091443657746329,0.17136685467419005,2.4667545718364012,0.04131475219848378,-0.2883012493825427,-0.014344128067657658,0.10088409648474367,0.34554643365851956,-6.665224351987076,3.8646737465489953,6.424610718837892,-0.0936269999999999,-0.008263999999999994,-0.907469,0.32637800000000006,0.029144000000000003,-0.8611329999999999,0.42000499999999996,0.037408,0.046336000000000044,0.9871091779316525,0.03663999999999995,single,-0.8611329999999999
103,0.858333,walk,0.349453978159128,-0.20700828033121624,-0.08916356654265391,-0.06060282807808865,0.4871139018826568,-0.23176952308705814,0.00204008160325617,0.017400696027835127,-0.009360374414975928,1.0871234849394111,-0.5911436457458323,0.1778471138845543,4.824385943158723,-9.144731563894007,-8.09344746284671,-0.21601728103827483,1.3537082944965608,-0.7920633638016845,-3.7875029941798783,2.1601728103684774,0.7776622117321751,-0.096522,-0.006394000000000011,-0.906804,0.3325250000000002,0.025942999999999994,-0.858908,0.4290470000000002,0.032337000000000005,0.04789600000000005,0.9668939933114851,0.021040000000000003,single,-0.858908
104,0.866667,walk,0.32025437964963377,-0.142188624910007,-0.04487640988722086,-0.033884833046285284,-0.03287681239698279,-0.27601046169166704,0.005159587233023217,0.0023998080153611848,-0.000479961603072237,1.059035277177832,-0.5446364290856714,0.22354211663066959,-3.503671527417133,7.777736431630623,5.314033675957919,0.3743107307135907,-1.799962564491724,1.065564292285066,-3.370315306165026,5.580419565654086,5.482961692598458,-0.09914800000000001,-0.005188999999999999,-0.906434,0.33868200000000015,0.022589000000000026,-0.856671,0.43783000000000016,0.027778000000000025,0.049763,0.9904823581839082,0.0023700000000000943,single,-0.856671
105,0.875,walk,0.31477259090363985,-0.12900516020640684,-0.031081243249717644,-0.10807505117856268,-0.19823179909443261,-0.22156283543344416,0.004680187207502953,0.0037201488059526123,-0.0014400576023038609,1.0279611184447157,-0.53798151926077,0.22248889955598233,-0.6578409631577941,1.582079047593916,1.6554862159490167,-0.05753030427460246,0.15844723276028105,-0.1152161285529365,-3.7290482099023308,0.798621123833126,-0.12639110460665393,-0.10173199999999993,-0.004083000000000003,-0.9061870000000001,0.34462499999999996,0.019181000000000004,-0.854558,0.4463569999999999,0.023264000000000007,0.051629000000000036,0.9897506876472318,0.0,single,-0.854558
106,0.883333,walk,0.33481339253570847,-0.17772710908436384,-0.07860314412577336,-0.25940872221398464,0.3970858395111604,-0.25109678251440354,0.007440297611905225,-0.001200048001921272,-0.0001200048001921272,0.9909996399856071,-0.5433817352694057,0.20208808352334068,2.4049923955440455,-5.846867740064418,-5.7028562193754375,0.33122649758817474,-0.590447234834257,0.1584126727603178,-4.435554837286502,-0.6480518431100076,-2.4481958517510582,-0.10446,-0.002612000000000003,-0.905533,0.350093,0.016134000000000037,-0.852219,0.454553,0.01874600000000004,0.053314000000000084,0.987437650508065,0.0,single,-0.852219
107,0.891667,walk,0.3596112311015039,-0.15382769378449876,-0.06455483561315593,-0.04880708957904254,0.011679499552674721,-0.17987721253562616,0.005879529637624912,-0.010559155267575893,0.0032397408207342692,0.9526037916966599,-0.5386369090472818,0.1855051595872331,2.975502587688453,2.8677004199502303,1.685662168540618,-0.18727717473965944,-1.12300303163603,0.40313722353328724,-4.607133224015777,0.5693335999668752,-1.9897916889978011,-0.10740799999999995,-0.0014179999999999748,-0.904968,0.355035,0.012927000000000022,-0.850135,0.46244299999999994,0.014344999999999997,0.05483300000000002,0.9791459736561485,0.0,single,-0.850135
108,0.9,walk,0.3349333973358906,-0.14796591863674294,-0.06060242409696095,-0.06682908596413498,0.10895996243928677,-0.20605191502904133,0.009840393615734445,-0.0020400816032628316,0.0066002640105603345,0.9057962318492834,-0.5115804632185286,0.1552862114484577,-2.9614585102139896,0.7034411553769107,0.4743083542775674,0.4753226902807533,1.0223297329068795,0.40327891393568355,-5.617131866959835,3.2469033755853958,-3.6264188334063694,-0.11011700000000002,-0.00020199999999997997,-0.904408,0.3597920000000001,0.00989699999999999,-0.848336,0.46990900000000013,0.010098999999999969,0.05607200000000001,0.9799612344809661,0.0,single,-0.848336
109,0.908333,walk,0.3699747989919567,-0.17940717628705602,-0.07320292811712528,0.17030227021218738,0.22263101327159465,-0.39617348629798593,0.013680547221882697,-0.015240609624390365,-0.0075603024120966195,0.8645145805832298,-0.49177967118685084,0.12696507860314568,4.205136404184134,-3.7731018421112887,-1.5121209672584242,0.46083686621244296,-1.5841267276044226,-1.6993359441566163,-4.953996311778941,2.376190091405005,-3.398671888313005,-0.11308600000000002,0.0011660000000000004,-0.903861,0.36391300000000015,0.007294000000000023,-0.846668,0.4769990000000002,0.006128000000000022,0.05719300000000005,0.9636150318516783,0.0,single,-0.846668
110,0.916667,walk,0.26757859371252213,-0.16030717542595851,-0.1353491720662358,-0.10730089085189234,0.32371852050491334,-0.6138169210922675,0.009359251259901835,-0.0027597792176619956,0.003599712023038399,0.8324934005279381,-0.46616270698343437,0.1015118790496752,-12.286561708595364,2.291816757991044,-7.456952717675793,-0.5185140343149544,1.497579842419999,1.33909460464782,-3.8422342278967494,3.073789801225855,-3.0541396152472156,-0.11523800000000017,0.0024789999999999535,-0.9027029999999999,0.36862099999999987,0.004744999999999999,-0.844694,0.48385900000000004,0.0022660000000000458,0.05800899999999998,0.9826658740465664,0.0,single,-0.844694
111,0.925,walk,0.33865354614182985,-0.1550462018480751,-0.0874834993399708,-0.14592630947493535,0.12047601060922569,-0.2580196316598279,0.009960398415943227,-0.0002400096003842544,0.0015600624024959882,0.8162726509060299,-0.4263770550822049,0.09324372974918957,8.529335464935489,0.6313420830293277,5.744110491571441,0.07214054434674054,0.30238444945130577,-0.2447677451748953,-1.9465678173416727,4.774469206915792,-0.9922176047624613,-0.117977,0.003768999999999967,-0.901961,0.37260099999999996,0.0024839999999999862,-0.8431879999999999,0.49057799999999996,0.0012849999999999806,0.058773000000000075,0.9831921863481194,0.0,single,-0.8431879999999999
112,0.933333,walk,0.39541581663267467,-0.13200528021120844,-0.06180247209887638,0.11729144126973043,0.053327085261588324,-0.1736706208919961,-0.01284051362055445,0.00492019680787395,-0.007080283211328105,0.7880715228609204,-0.4130565222608943,0.06168246729869258,6.811744928698587,2.7650211972719156,3.0818465427930692,-2.7362188931354714,0.6192495389725491,-1.0368829489768596,-3.384270736242613,1.5985278796724767,-3.78750299417944,-0.12137900000000013,0.00490999999999997,-0.901505,0.3758729999999999,0.00014199999999997548,-0.842159,0.497252,0.0047679999999999945,0.05934600000000001,0.974222235194063,0.0,single,-0.842159
113,0.941667,walk,0.42092632589393325,-0.1210703143748536,-0.06299496040316699,-0.21525502612427552,-0.1115495334133209,-0.03972895425905367,0.010439164866831007,-0.0020398368130536497,-0.0015598752099830842,0.7474202063834884,-0.36585073194144474,0.051355891528677054,3.0610162300526027,1.3120909330879234,-0.14308714954290808,2.7933379514501175,-0.835137223533423,0.6623959684839187,-4.877767755871337,5.664241698997983,-1.2390899652046374,-0.12480000000000002,0.005902000000000018,-0.900993,0.3785939999999999,-0.0018980000000000108,-0.841206,0.5033939999999999,0.007800000000000029,0.059787000000000035,0.9820827280713484,0.0,single,-0.841206
114,0.95,walk,0.4446177847113742,-0.20448817952718096,-0.08736349453978982,-0.23425517759248413,0.12864468315899769,-0.28212905565974267,0.008040321612869298,0.0014400576023055455,-0.0010800432017283265,0.7241089643585924,-0.3464538581543261,0.016200648025920732,2.843088781644205,-10.010544240048976,-2.9243410700375683,-0.28787270538362303,0.41760403400446744,0.0575821442763425,-2.7974609414252005,2.3277179631727836,-4.218797972249687,-0.12843799999999983,0.007618000000000014,-0.900274,0.3809230000000001,-0.0030810000000000004,-0.840343,0.509361,0.010699000000000014,0.05993100000000007,0.9862677355943981,0.0,single,-0.840343
115,0.958333,walk,0.4370574822993076,-0.16848673946958004,-0.10608424336973385,-0.3019582430810778,0.14709436526296543,-0.2875608211870798,0.009840393615734445,0.0006000240009573052,-0.0018000720028802425,0.6758670346813676,-0.3553342133685322,0.035161406456258294,-0.9072725803512048,4.320345620736922,-2.246579722782185,0.21601728103505816,-0.10080806448436778,-0.08640691241472614,-5.78926313179223,-1.0656852531148526,2.2753820269215748,-0.13199800000000006,0.009027000000000007,-0.899405,0.38291299999999984,-0.0046379999999999755,-0.839166,0.5149109999999999,0.013664999999999983,0.06023900000000004,0.983297236212575,0.0,single,-0.839166
116,0.966667,walk,0.460403167746561,-0.15994720422365766,-0.07631389488840473,0.16889672208357343,0.0007344946138642822,-0.005350654217164228,0.010079193664503522,0.0017998560115175344,-0.00011999040076805765,0.664026877849785,-0.2889368850491964,-0.025437964962803244,2.801258153018146,1.0246622565301555,3.572156045275845,0.028653713555204532,0.1439683238013223,0.20159366476027982,-1.4207051633768275,7.96704203495744,-7.2713428628583,-0.13575099999999996,0.010374999999999968,-0.8987700000000001,0.3846100000000001,-0.005713000000000024,-0.838742,0.5203610000000001,0.01608799999999999,0.06002800000000008,0.9829344381636063,0.0,single,-0.838742
117,0.975,walk,0.4725789031561302,-0.1842073682947345,-0.08040321612865302,-0.06195092569324806,0.23072857869858038,-0.11114658588469352,0.01092043681748039,-0.0008400336013415707,-0.0013200528021117513,0.6361454458178385,-0.2550102004080172,-0.044641785671426945,1.4611466950161218,-2.9113361419749264,-0.4907381783569331,0.10095321648588446,-0.3167994255201163,-0.14401324869119222,-3.3459056800608113,4.071365011542004,-2.3045506670615477,-0.1395979999999999,0.011902999999999997,-0.898111,0.3859730000000001,-0.006303000000000003,-0.838444,0.525571,0.018206,0.059667000000000026,0.9816134004007502,0.0,single,-0.838444
118,0.983333,walk,0.4950198007920484,-0.2100084003360161,-0.11988479539181182,-0.21869213570901458,0.12209228499773556,-0.206518563579247,0.007680307212269494,-0.004560182407294172,0.0032401296051841034,0.6038641545661712,-0.23580943237729346,-0.04944197767910644,2.693015436927646,-3.0962476948615723,-4.7379790307402665,-0.38883110586954067,-0.446435714142876,0.5472437786266453,-3.873909906596329,2.304184331060081,-0.5760460827648479,-0.1436590000000002,0.013615000000000044,-0.897085,0.3868799999999999,-0.006517999999999968,-0.837857,0.5305390000000001,0.020133000000000012,0.05922800000000006,0.9841639631851007,0.0,single,-0.837857
119,0.991667,walk,0.5069594432445341,-0.20806335493160158,-0.08555315574753633,-0.25717086625298863,0.1188161795219619,-0.07030396975529592,0.007079433645312165,-0.006839452843776047,0.004199664026877911,0.5621550275978014,-0.19270458363331,-0.06407487401008036,1.4326424828996653,0.23338677758753532,4.1194671999370875,-0.072099060110071,-0.273490573131976,0.1151349198096728,-5.004694860615544,5.172168075831978,-1.7558070951492677,-0.1478250000000001,0.015291999999999972,-0.896337,0.38734,-0.006390000000000007,-0.837678,0.5351650000000001,0.02168199999999998,0.05865900000000002,0.9821632655985162,0.0,single,-0.837678
120,1.0,walk,0.5132605304212251,-0.2160086403456158,-0.1080043201728079,-0.06961676188338337,0.0616345807560513,-0.1629494228570704,0.006240249610003937,-0.011640465618626345,0.004080163206528161,0.5473418936757493,-0.18432737309492084,-0.10392415696627723,0.7561607076312195,-0.953472388577244,-2.694247500932614,-0.10070611248148624,-0.5761445787651841,-0.014340672068852664,-1.7776471765333168,1.0053054768257683,-4.782105238953163,-0.15205000000000002,0.016994999999999982,-0.895403,0.38762399999999997,-0.006125999999999965,-0.837644,0.539674,0.023120999999999947,0.057758999999999894,0.9769608493353474,0.0,single,-0.837644
121,1.008333,walk,0.5180607224288905,-0.1742469698787978,-0.0808832353294082,-0.04153093388604259,0.05970907677070075,-0.14166268531296472,0.004200168006721177,-0.014880595223803986,0.004800192007680155,0.5012600504020057,-0.15756630265210855,-0.16716668666746887,0.5760460827631577,5.011600920055005,3.254660367622697,-0.2448195851773405,-0.388831105865555,0.08640691241473665,-5.530042394545057,3.21145691141396,-7.589407140428683,-0.15633199999999992,0.018323000000000034,-0.8946890000000001,0.38748399999999994,-0.005986999999999965,-0.8383630000000001,0.5438159999999999,0.02431,0.05632599999999999,0.9730167043025804,0.0,single,-0.8383630000000001
122,1.016667,walk,0.5309575233981122,-0.2378209743220505,-0.12886969042476737,-0.051477102399564774,0.15782076131959477,-0.2514990635674513,0.005519558435323991,-0.01679865610751475,0.006839452843772625,0.46616270698345436,-0.11027117830573507,-0.16174706023518018,1.5474923169212438,-7.628270271568537,-5.7579139783247895,0.15831418629743269,-0.23014889413375916,0.24469172499309505,-4.211344302681917,5.674960924690799,0.6503031476228277,-0.16071099999999983,0.02016499999999999,-0.8935580000000001,0.3869440000000002,-0.004923999999999984,-0.8386370000000001,0.547655,0.025088999999999972,0.054921,0.9684018949433457,0.0,single,-0.8386370000000001
123,1.025,walk,0.5238209528381392,-0.201128045121808,-0.11976479059163128,-0.1850284722584594,0.13428723646893587,-0.18260166127005284,0.009360374414979384,0.013320532821316304,-0.010440417616705213,0.41497659906396167,-0.09612384495379857,-0.16200648025921233,-0.856422724105728,4.403327637134622,1.0926316852437503,0.46091635421281985,3.614447249349733,-2.073667401953438,-6.142578653485318,1.697747912148882,-0.031131648149783985,-0.16499799999999998,0.021952000000000027,-0.892647,0.38603699999999996,-0.004048999999999969,-0.838989,0.5510349999999999,0.026000999999999996,0.053657999999999983,0.9677658081877689,0.0,single,-0.838989
124,1.033333,walk,0.5598223928956964,-0.21216848673946487,-0.12072482899315178,-0.017249081455270498,0.2778245809161132,-0.3115745850051388,0.005640225609013249,-0.011400456018241939,0.006600264010561079,0.3920556822272713,-0.10692427697108065,-0.23292931717268262,4.320345620731608,-1.3249059903584137,-0.11520921655111928,-0.4464357141444941,-2.9666373262399865,2.044963593815672,-2.7506200452046077,-1.2961036862212754,-8.511080872851199,-0.169616,0.023625000000000007,-0.891586,0.38463899999999995,-0.003172000000000008,-0.839924,0.5542549999999999,0.026797000000000015,0.051661999999999986,0.9761168337204292,0.0,single,-0.839924
125,1.041667,walk,0.5597552195824343,-0.18106551475882066,-0.10811135109191958,-0.15191707035888685,0.058299693533049035,-0.2886697085417743,0.007199424046070329,-0.01151907847372052,0.010799136069114652,0.3466522678185981,-0.0811135109191292,-0.22126229901608274,-0.00806015277921822,3.732058073031534,1.5134962684464168,0.18708884533922604,-0.01423355597295212,0.5038243410791521,-5.447973891129595,3.097044162701216,1.3999301843772611,-0.17422099999999996,0.025038000000000005,-0.890595,0.3828630000000002,-0.0023390000000000355,-0.840867,0.5570840000000001,0.02737700000000004,0.049727999999999994,0.9710775838896291,0.0027200000000000557,single,-0.840867
126,1.05,walk,0.5815432617304744,-0.14616584663386242,-0.07932317292691841,0.06805550913618723,0.09855760161728427,-0.11467468994879484,0.00516020640825807,-0.01596063842553605,0.005640225609024074,0.30385215408615557,-0.07176287051481783,-0.23424936997479434,2.614669644550547,4.1881277001029185,3.4547195685828225,-0.24471590517367375,-0.5330085145584367,-0.6190940189716174,-5.1362190966568795,1.1221217333866802,-1.558510855479584,-0.17902400000000007,0.026123000000000007,-0.889887,0.380549,-0.001719000000000026,-0.842158,0.5595730000000001,0.027842000000000033,0.04772900000000002,0.970505092056838,0.022710000000000008,single,-0.842158
127,1.058333,walk,0.5829833193327821,-0.190567622704914,-0.11928477139084945,-0.191546461077984,0.20269185481607113,-0.4656025532289938,0.005040201608076071,-0.015480619224774622,0.00816032641305643,0.2696507860314303,-0.04560182407296231,-0.2509300372014898,0.17281382482991858,-5.328426265576862,-4.7955836390173285,-0.0144011520679228,0.05760460827570294,0.3024241934516236,-4.10432833970066,3.1394511510687346,-2.00176013760898,-0.18384,0.027581999999999995,-0.888825,0.3779379999999999,-0.0005109999999999837,-0.843255,0.5617779999999999,0.02809299999999998,0.04557,0.9696481681405782,0.04429999999999995,single,-0.843255
128,1.066667,walk,0.6208303335733109,-0.183465322774177,-0.112191024718024,0.14564891747538514,0.3665198347414996,-0.4102841225510841,0.008279337652972665,-0.01991840652747759,0.011639068874489936,0.23338132949364898,-0.04943604511639313,-0.26757859371250214,4.541278406590885,0.8522078150632311,0.8511815062185496,0.38866523216901483,-0.5324918769741941,0.4174157021158483,-4.351986625603674,-0.4600697196341242,-1.9976669679640267,-0.18894500000000014,0.028945,-0.887793,0.37470899999999996,0.0006059999999999954,-0.84455,0.5636540000000001,0.028339000000000003,0.04324300000000003,0.9591493820653663,0.06757000000000007,single,-0.84455
129,1.075,walk,0.6093843753750104,-0.16080643225729271,-0.13596543861755203,0.36360148370032896,0.28281645697411056,-0.568339511162494,0.03864154566184549,-0.03792151686067273,0.051722068882755885,0.19788791551662385,-0.01944077763110488,-0.26641065642625944,-1.3735699265931254,2.7191756290512994,-2.8530437896949774,3.6436107054929914,-2.1604596583697715,4.810152407088242,-4.259380052445152,3.599576081277874,0.14015808067235266,-0.1937009999999999,0.029969000000000023,-0.8862289999999999,0.37128000000000005,0.0017840000000000078,-0.845637,0.564981,0.028185000000000016,0.04059199999999996,0.8752070280907067,0.09408000000000005,single,-0.845637
130,1.083333,walk,0.6363854554182126,-0.1579263170526774,-0.08040321612863754,-0.1299294736453355,0.06951212467757449,-0.46853193683418287,0.01800072002878553,-0.019560782431299818,0.027121084843392904,0.1376455058202315,-0.02760110404416224,-0.32017280691227135,3.2402592155528196,0.34562764965981796,6.667733408005942,-2.476998155893387,2.2033762665753738,-2.952236174170473,-7.229378338700505,-0.9792783407004942,-6.451716126966394,-0.1988540000000001,0.031121999999999983,-0.885333,0.367124,0.0028699999999999837,-0.847635,0.5659780000000001,0.028252,0.03769800000000001,0.9367060786233982,0.12302000000000007,single,-0.847635
131,1.091667,walk,0.6401487880969485,-0.13186945044396897,-0.13450923926086633,-0.6483038061409633,-0.031588488730064604,-0.32961942630226754,-0.011159107271406347,-0.016198704103671562,0.029877609791217178,0.09071274298056074,-0.00575953923686026,-0.3239740820734396,0.45156379634461674,3.1265738671357,-6.49220339959561,-3.498899364073966,0.4034171259453227,0.33075653321626186,-5.631481022278815,2.6207781146271176,-0.45611653001779584,-0.20428199999999985,0.032086,-0.8839629999999999,0.3625450000000001,0.003921000000000008,-0.8492139999999999,0.566827,0.028164999999999996,0.03474900000000003,0.9403809487810478,0.15250999999999998,single,-0.8492139999999999
132,1.1,walk,0.6533061322452789,-0.17088683547341366,-0.06180247209887473,0.8252534200874175,0.2964892323398085,-0.474056387903004,0.02508100324011761,-0.012360494419772283,0.03900156006240251,0.04116164646585578,-0.0025201008040313068,-0.35185407416296083,1.5789444555778391,-4.682273494473059,8.725161065881474,4.348987220871633,0.46060358621135394,1.0949178292553912,-5.9463694365419535,0.3887481618659422,-3.345732880057693,-0.20951699999999995,0.03340700000000002,-0.883123,0.3574440000000001,0.005323999999999995,-0.851631,0.566961,0.028083000000000025,0.031491999999999964,0.9200180535451696,0.18508000000000008,single,-0.851631
133,1.108333,walk,0.7311892475699246,-0.14544581783271354,-0.08052322092884848,0.029604984009518914,-0.005682646670743521,-0.544723902430973,0.034081363254524606,-0.0031201248049953488,0.033481339253569796,0.003600144005757202,0.008400336013442354,-0.3636145445817855,9.34634769286529,3.053044238653588,-2.2465797227857816,1.0800864051850567,1.108888709321615,-0.6624529951797391,-4.507560597635776,1.3105048382903828,-1.4113129027750837,-0.21532600000000013,0.034592999999999985,-0.882173,0.35138099999999994,0.006606000000000001,-0.8539899999999999,0.5667070000000001,0.027986999999999984,0.02818300000000007,0.9202038260054921,0.21816999999999998,single,-0.8539899999999999
134,1.116667,walk,0.7329013678905635,-0.14326853851692095,-0.08207343412525818,0.16574967007205305,0.03172939922654759,-0.5495691002180114,0.034317254619631185,0.0032397408207342263,0.04319654427645746,-0.0029997600191914503,0.006239500839932337,-0.3825293976481856,0.2054380034363834,0.261252617685694,-0.18601070271294587,0.028304699436834304,0.7631228252615223,1.1657313442389714,-0.7919251289835136,-0.25927947846292315,-2.2696007999040044,-0.22114800000000012,0.03581400000000001,-0.881129,0.345248,0.007852000000000026,-0.8564940000000001,0.5663960000000001,0.027961999999999987,0.024634999999999962,0.9078933088049805,0.25364999999999993,single,-0.8564940000000001
135,1.125,walk,0.7451098043921716,-0.2241689667586701,-0.11424456978280002,-0.5632543044203896,0.23113660472793826,0.3137588677479785,-0.010320412816516415,0.019800792031684597,0.08520340813632651,0.0578423136925328,-0.012240489619583813,-0.33265330613224875,1.465070983032304,-9.70843972659905,-3.860690706533318,-5.356734361712229,1.9874056415397243,5.0410253041965,7.3013408990429385,-2.217687562644464,5.985370396728347,-0.22744300000000006,0.03784700000000002,-0.879467,0.33952099999999996,0.009618000000000015,-0.858314,0.566964,0.028229000000000004,0.021152999999999977,0.8531988964256705,0.28847,single,-0.858314
136,1.133333,walk,0.760470418816764,-0.16980679227169237,-0.008160326413051434,1.0072836605207234,0.45734690260351335,0.0006996816889580687,0.03672146885877143,0.004680187207489692,0.06792271690867745,0.23028921156846532,-0.06816272650906254,-0.2869314772590927,1.8433474648497068,6.523721887312878,12.73061842910711,5.645251611099037,-1.8145451607098337,-2.0737658979538254,20.694455523333026,-6.710936864212076,5.486838938336311,-0.23347399999999996,0.03930100000000003,-0.878833,0.33510299999999993,0.010465000000000002,-0.860637,0.5685769999999999,0.02883600000000003,0.01819599999999999,0.8710742472529763,0.31804000000000004,single,-0.860637
137,1.141667,walk,0.867050635949112,-0.10391168706503136,-0.18310535157187613,-1.8609505933059194,-0.1729187572731721,-0.470775936988011,0.05423566114709545,0.01523878089752667,0.05975521958243276,0.3188144948404261,-0.08387329013678904,-0.1742260619150457,12.78860296764425,7.90678008239267,-20.991723681164313,2.1015349518027224,1.2669298884133544,-0.9800212774471592,10.622184217897782,-1.885116825981088,13.523567955849067,-0.24024800000000002,0.040293999999999996,-0.876809,0.3305340000000001,0.010631999999999975,-0.860563,0.5707820000000001,0.02966200000000002,0.016245999999999983,0.8631260347512463,0.33754000000000006,single,-0.860563
138,1.15,walk,0.7493099723989194,-0.17292691707668773,-0.1722068882755283,-0.0217399749621949,0.2835389024253666,0.2143090623605208,0.10056402256091733,0.02232089283570931,0.032521300852034425,0.36685467418695467,-0.144005760230408,-0.1032041281651275,-14.129444803815398,-8.28215888775435,1.307867910278163,5.559625754688864,0.8498874280790477,-3.2682009756868577,5.765052123668425,-7.216185058636688,8.522972968909018,-0.24565400000000004,0.041920999999999986,-0.8751030000000001,0.32734699999999983,0.010873000000000022,-0.859988,0.5730009999999999,0.031047999999999965,0.0151150000000001,0.8199615789482975,0.34885000000000005,single,-0.859988
139,1.158333,walk,0.811832473298907,-0.2582503300131945,0.009000360014392765,-0.2469097920584758,-1.0049855063626911,0.9396018573808508,0.08364334573382161,0.0013200528021167124,0.07320292811712334,0.34057362294492605,-0.039961598463941185,-0.07128285131405099,7.5030002280074966,-10.239219121145476,21.745739624375123,-2.030562441749121,-2.5202016120955513,4.881990551432642,-3.1538523031355044,12.485798843929558,3.83070645038713,-0.251722,0.04408400000000001,-0.874568,0.32342000000000004,0.012691999999999981,-0.860657,0.575142,0.03139200000000003,0.013911000000000007,0.8147327717572629,0.36089000000000004,single,-0.860657
140,1.166667,walk,0.8369330453563818,-0.1858651307895431,-0.1252699784017223,-0.6422385563200065,-0.8857530724738112,0.4472170501571438,0.07727381809456457,0.005279577633788017,0.09731221502279994,0.28221742260618604,-0.04247660187184692,-0.18274538036957433,3.011827700680984,8.68552906451317,-16.11115171779669,-0.7642821741369279,0.47510497140285324,2.8928829980414035,-7.002183865939658,-0.30177626684734576,-13.374433531980497,-0.25805299999999987,0.04567700000000002,-0.8727130000000001,0.318797,0.013887000000000038,-0.861136,0.5768499999999999,0.031789999999999985,0.01157700000000006,0.792710722154155,0.38423,single,-0.861136
141,1.175,walk,0.8438737549501745,-0.13032521300851516,-0.016680667226688803,-0.13267656079674925,-0.18652194171443576,0.34837102512036017,0.09036361454458064,-0.007920316812673628,0.1431657266290626,0.1476059042361746,-0.05196207848314042,-0.23232929317172282,0.8329184679938257,6.665056735992675,13.031238590547414,1.570838407538202,-1.584050695603194,5.50264149841136,-16.154028365535712,-1.1383027254642188,-5.950307548559658,-0.2643319999999998,0.04669699999999999,-0.8713810000000001,0.31299500000000013,0.014539999999999997,-0.8629330000000001,0.5773269999999999,0.03215699999999999,0.008448000000000011,0.7175270930730104,0.4486615244443299,single,-0.8629330000000001
142,1.183333,walk,0.8042721708868678,-0.11448457938317762,-0.0295211808472437,0.3433459585017496,-0.5154877005622498,0.18370179991858504,0.10608424336972194,-0.059642385695424724,0.0757230289211575,0.053762150486020406,-0.061442457698309985,-0.28549141965678876,-4.752380182804162,1.9009520731234468,-1.5409232713974577,1.8865509210538158,-6.20689654179186,-8.0934474628472,-11.261700918055329,-1.1376910134608968,-6.379710366622636,-0.2701500000000001,0.04715400000000003,-0.870504,0.30674099999999993,0.014981999999999995,-0.865066,0.576891,0.032172000000000034,0.005437999999999943,0.7611075441184496,0.4507269275688075,single,-0.865066
143,1.191667,walk,0.8437724982001288,-0.11291096712262569,0.003359731221505614,0.28604244714819305,-0.27170124116841193,0.2005562562656658,0.11987041036716636,-0.042836573074153284,0.19294456443484354,0.03707703383727986,-0.032397408207342264,-0.2402207823374108,4.739660104782905,0.18881836579696631,3.9453938167445486,1.6542077030770717,2.016536191657225,14.065459024920225,-2.002053833542167,3.4851271287458,5.4320419149721175,-0.27618300000000007,0.047738,-0.868924,0.3000179999999999,0.015652999999999972,-0.867096,0.576201,0.03208500000000003,0.0018280000000000518,0.6147457829948817,0.5730285829833031,double,-0.867096
144,1.2,walk,0.9018360734429386,-0.09672386895476255,0.05148205928237329,-0.10943955506981382,0.052626672372412885,0.3908896308761858,0.10188407536302742,-0.0566422656906315,0.2148085923436957,0.0960038401536231,-0.027121084843394462,-0.15564622584903534,6.967907745447058,1.942529481322847,5.774910363718722,-2.1584465383582274,-1.6567493839527594,2.623788300594308,7.071499617945971,0.6331841310389835,10.149352752715256,-0.2828489999999999,0.048072000000000004,-0.867563,0.2933030000000001,0.016232999999999997,-0.868822,0.576152,0.031839000000000006,0.0012590000000000101,0.5800763856389841,0.6918782789745173,double,-0.867563
145,1.208333,walk,0.8913956558262163,-0.0972038881555218,0.05388215528621443,-0.0485797368883654,-0.2727538767714352,0.28636481468711855,0.04704188167525994,-0.05496219848794023,0.3186127445097754,0.1194047761910284,-0.04332173286931404,-0.13248529941197426,-1.2529002300158572,-0.05760460827544057,0.28802304138258705,-6.581326495591806,0.20161612896810807,12.456996539790936,2.8082246534747273,-1.9441555293314885,2.7794223493412544,-0.28988499999999995,0.04842399999999997,-0.865357,0.28686999999999996,0.016681999999999975,-0.870375,0.5767549999999999,0.03174199999999999,0.005017999999999967,0.44982,0.694101379918888,single,-0.865357
146,1.216667,walk,0.8933285337173371,-0.07799376049916629,0.053515718742495194,-0.07068148950462994,-0.36038655569355244,0.32406706310525174,0.08555315574753747,-0.09179265658746996,0.2921766258699359,0.09179265658748995,0.01871850251979751,-0.13858891288697206,0.23192679279108233,2.305030916289403,-0.043968867736889974,4.62098321001659,-4.419301427829426,-3.172080470343169,-3.313189297280896,7.444232708076881,-0.7323750269975899,-0.29661700000000013,0.048309000000000046,-0.8633679999999999,0.28018999999999994,0.017488000000000004,-0.871976,0.5768070000000001,0.030821000000000043,0.00860800000000006,0.41391999999999995,0.7211971977505862,single,-0.8633679999999999
147,1.225,walk,0.9061562462498177,-0.0804032161286442,0.09672386895476663,-0.12876115915790126,-0.36801222706457454,0.44734664654912715,0.09864394575784063,-0.11004440177606925,0.30385215408615807,0.049321972878906994,0.02844113764551045,-0.12048481939277336,1.539387079380821,-0.2891462413870007,5.1851854328897975,1.570957639541934,-2.190297034513257,1.4011194307238615,-5.096685912466364,1.1667628856009564,2.172578122428703,-0.3033459999999999,0.04806200000000005,-0.861642,0.27305,0.01839500000000005,-0.8737860000000001,0.5763959999999999,0.029667,0.012144000000000044,0.37856,0.777900503881783,single,-0.861642
148,1.233333,walk,0.8946357854314242,-0.07980319212768237,0.10944437777510155,0.17637507469381963,-0.23368978944946023,0.49660742953014814,0.06180247209886306,-0.07416296651866232,0.5021000840033647,0.0038401536061481215,0.006360254410172833,-0.04968198727949136,-1.3825105986311814,0.07200576034583438,1.526522119324977,-4.421153685224758,4.305944468667618,23.79070321819374,-5.458036634196482,-2.649811980719767,8.49667972078275,-0.31028600000000006,0.04810900000000001,-0.85837,0.26562700000000006,0.01911299999999999,-0.875112,0.5759130000000001,0.028996000000000022,0.016742000000000035,0.33258,0.9162759248098508,single,-0.85837
149,1.241667,walk,0.9199664026877888,-0.06659467242620871,0.1382289416846692,0.05959285412822476,-0.51107990648139,0.5531468142298206,0.11135109191265093,-0.14650827933765517,0.35769138468922185,0.02123830093590957,-0.09095272378209444,-0.06947444204463628,3.039430916290432,1.5848955725310245,3.4538713594393373,5.9453587489545825,-8.68074307883277,-17.327657705080604,2.0876106707177007,-11.676623253211728,-2.3749045794510164,-0.3170250000000001,0.04744300000000001,-0.856541,0.25813699999999984,0.018910000000000038,-0.876843,0.575162,0.028532999999999975,0.020302000000000042,0.29698,0.8059913984764839,single,-0.856541
150,1.25,walk,0.9884795391815823,-0.06264250570022462,0.2422896915876649,0.7751634449138551,-0.13396065471437255,0.5628727042995609,0.17580703228129882,-0.1800072002880133,0.38497539901596445,0.011160446417871308,-0.11412456498260456,-0.05340213608544402,8.221905255465504,0.4742789782772273,12.487789499939595,7.735022245127623,-4.0200313152956255,3.2742126877166506,-1.2093909178013147,-2.780732173348174,1.9287538652576985,-0.3237970000000001,0.04646499999999998,-0.855352,0.2499929999999999,0.01848099999999997,-0.8793070000000001,0.57379,0.02798400000000001,0.02395500000000006,0.26044999999999996,0.7891764822100196,single,-0.855352
151,1.258333,walk,0.8994359774390827,-0.04476179047162074,0.18444737789511875,0.15291163354767928,0.10223908261651711,0.6539661538107647,0.25033001320053416,-0.14076563062522385,0.3118924756990313,0.010080403216125496,-0.0064802592103682935,-0.050642025681027554,-10.685654835293462,2.1457716582988167,-6.941355297317493,8.94311543492572,4.709176726603843,-8.770301610096464,-0.1296103686242436,12.91783340600471,0.3312264975898829,-0.3292059999999999,0.04566500000000001,-0.85429,0.24258200000000008,0.018799999999999983,-0.881266,0.571788,0.026865000000000028,0.026976,0.23023999999999994,0.9132656825973214,single,-0.85429
152,1.266667,walk,0.8873290136789038,-0.0471562275017967,0.15070794336453386,-0.0883994610560164,-0.309970437724285,0.5786246383814275,0.19042476601871766,-0.07967362610991036,0.3834893208543276,0.02171826253899512,-0.0026397888168906074,-0.006719462443004568,-1.4527194336667557,-0.28730945886440445,-4.0484082710084754,-7.18805461744853,7.330454105509122,8.590934143903977,1.3964314042320058,0.46081958165078674,5.2702859656854635,-0.3350139999999999,0.04539399999999999,-0.85235,0.23536800000000002,0.019170999999999994,-0.8825780000000001,0.570382,0.026222999999999996,0.030228000000000033,0.19772000000000006,0.9618554435136892,single,-0.85235
153,1.275,walk,0.8973958958358531,-0.052922116884678835,0.1406456258250284,-0.03453814982106323,-0.37717050766069066,0.6218570641776183,0.30961238449538586,-0.14292571702868218,0.4392175687027517,-0.008040321612869298,0.034201368054720065,-0.023640945637825223,1.2080741818011975,-0.6919344033219951,-1.2075264057968975,14.303086340653941,-7.590554532433985,6.687657248100879,-3.571172945141569,4.42111566922009,-2.030659209746887,-0.339912,0.04464400000000002,-0.849862,0.2278229999999999,0.019896999999999998,-0.883947,0.5677349999999999,0.02474700000000002,0.03408500000000003,0.15915000000000012,0.9294215436729489,single,-0.849862
154,1.283333,walk,0.8783151326052713,-0.03780151206048293,0.0636025441017666,-1.1338853640911697,-0.6624089949255308,0.41405205659414485,0.4395775831033131,-0.25573022920916316,0.4677787111484393,-0.004560182407294111,0.03012120484819355,-0.010440417616704934,-2.28978317899694,1.8145451607099057,-9.245539628376388,15.596447690858627,-13.53708294497528,3.427474192450148,0.4176334100054154,-0.48963917034998733,1.5841267276035111,-0.3435679999999999,0.04282800000000003,-0.8464940000000001,0.22046600000000005,0.02046300000000001,-0.884564,0.5640339999999999,0.022365000000000024,0.03806999999999994,0.11929999999999996,0.9463270043818373,single,-0.8464940000000001
155,1.291667,walk,0.8200143988481086,-0.03659707223422192,0.1523878089752841,-0.26877067583765973,0.03372725259701405,0.8448108119534682,0.4062874970002344,-0.27969762419007344,0.5400767938565006,-0.003479721622277095,0.013198944084473372,-0.009359251259899587,-6.995528408586972,0.14452121745392713,10.653379514461143,-3.9944907731076658,-2.8758573291229577,8.675075918894018,0.1296449226082357,-2.030508850938385,0.12972958444988814,-0.347016,0.040802000000000005,-0.843263,0.213603,0.020878000000000008,-0.885912,0.560619,0.019923999999999997,0.04264900000000005,0.07351000000000002,0.9724159782734678,single,-0.843263
156,1.3,walk,0.9085563422536735,-0.07884315372614324,0.17640705628224476,0.14668454898075256,-0.0806445218397164,-0.11204525068877334,0.4970598823952979,-0.3733349333973264,0.5696627865114506,0.003000120004819794,-0.003960158406336814,-0.0115204608184324,10.625458226996692,-5.069732568333203,2.882424973834184,10.89312197228632,-11.236926581933433,3.550461137039418,0.7776120997356025,-2.059174665883822,-0.2593555212447828,-0.3504449999999999,0.03834799999999999,-0.839986,0.20605700000000016,0.021501999999999966,-0.887478,0.556502,0.016846000000000028,0.04749199999999998,0.025080000000000047,0.9790898355315174,single,-0.839986
157,1.308333,walk,0.8456738269530889,-0.047161886475463315,0.15600624024960755,0.5276727228251566,-0.21294792877655466,0.10135298734193271,0.6057842313692533,-0.3955358214328635,0.5455418216728729,0.016320652826102868,-0.03132125285011564,-0.03264130565222655,-7.546203684217595,3.801904146247476,-2.448195851750558,13.047443774625751,-2.664213132789788,-2.8946315658919897,1.5985278796691702,-3.2834626717603594,-2.534602764165888,-0.352444,0.035445000000000004,-0.8367399999999999,0.19914600000000005,0.021633999999999987,-0.88905,0.55159,0.013811000000000018,0.05231000000000008,0.0,0.91984668469716,single,-0.8367399999999999
158,1.316667,walk,0.8023758099352122,-0.07103431725461685,0.06839452843773292,-1.0969117840497769,0.014260676224180223,0.32584383791401056,0.6655867530597463,-0.5004799616030655,0.6430285577153765,0.0009599232061444612,-0.00959923206143129,-0.010679145668346306,-5.195346414432012,-2.864462536495483,-10.512564412271894,7.175728544575545,-12.592289437269168,11.697472527298157,-1.8431401031867398,2.606433979923708,2.635248378195354,-0.3535840000000001,0.031866000000000005,-0.831951,0.19246699999999994,0.022146,-0.8897090000000001,0.5460510000000001,0.009720000000000006,0.05775800000000009,0.0,0.976014422103141,single,-0.831951
159,1.325,walk,0.7599903996159822,-0.04824192967718914,0.09624384975398736,-0.3172255668911971,0.14556663551311522,0.36505498662321795,0.717868714748615,-0.5207008280331306,0.6566662666506726,-0.012480499219954748,0.0038401536061414597,-0.012480499219968903,-5.0864526964154955,2.735195917128036,3.342052240040166,6.274086366118943,-2.4266010356492536,1.6365905358569866,-1.6129152077402293,1.6127907917404143,-0.2161710730376351,-0.3539349999999999,0.02792899999999998,-0.827281,0.18603000000000014,0.02257999999999999,-0.890615,0.539965,0.005348999999999993,0.063334,0.0,0.9698949754434719,single,-0.827281
160,1.333333,walk,0.7161886475458861,-0.06396255850233966,0.10116404656186528,-0.2133211738860658,0.13480753634625625,0.49601632076894775,0.7893915756630094,-0.5435017400695873,0.7578303132125154,-0.012120484819408016,0.003960158406336814,-0.007560302412096418,-5.256420505231659,-1.8865509210548712,0.5904472348347334,8.583086633192508,-2.736218893130485,12.140171194268689,0.043203456203855205,0.014401152069525053,0.5904472348340812,-0.3533249999999999,0.023933000000000038,-0.821809,0.17996100000000004,0.023146,-0.891521,0.5332859999999999,0.0007870000000000377,0.069712,0.0,0.9752935467593804,single,-0.821809
161,1.341667,walk,0.6846652267818691,-0.038636909047275625,0.0935925125989942,-0.14464793510643742,0.31937501224100595,0.5336961814505825,0.9076073914086931,-0.5016798656107662,0.5403167746580368,-0.005519558435324138,0.0003599712023075129,-0.005639548836093032,-3.782507891050819,3.0388348278215163,-0.9085113946329763,14.18476310843363,5.018223477180457,-26.09953666360483,0.7920478022658992,-0.4319879054510883,0.23047199136110186,-0.351467,0.02007399999999998,-0.8180860000000001,0.17420900000000006,0.02347100000000002,-0.892348,0.525676,0.003397000000000039,0.07426199999999994,0.0,0.9868344287731929,single,-0.8180860000000001
162,1.35,walk,0.7302292091683681,-0.0673226929077125,0.08976359054361668,-0.038341218699826596,0.13402526240983476,0.38551277628353786,1.0343213728549145,-0.615504620184796,0.6673466938677443,0.0021600864034649224,-0.007800312012484833,-0.0025201008040321394,5.467896602243868,-3.4424317605227865,-0.4594890262063427,15.20628602498731,-13.659516929560526,15.24420007316755,0.921594244424448,-0.9792731567013324,0.37434873779681244,-0.34893299999999994,0.015505999999999964,-0.813273,0.168142,0.02396699999999996,-0.893117,0.517075,0.008460999999999996,0.07984400000000003,0.0,0.985871448447968,single,-0.813273
163,1.358333,walk,0.6528261130445144,-0.05160206408256875,0.06996279851194113,-0.020357082606614174,0.2590329419157249,0.4518855758192823,1.1579263170526684,-0.6981879275171059,0.5808232329293221,-0.0009600384015370304,-0.001920076803067399,-0.002280091203647949,-9.288743084585906,1.8865509210541105,-2.3761900914047436,14.83318663119584,-9.922393775628302,-10.383230641836422,-0.3744299537983897,0.705656451388154,0.028802304138268654,-0.34472400000000003,0.010118000000000016,-0.809016,0.16269400000000012,0.02438100000000004,-0.893719,0.5074180000000001,0.014263000000000026,0.08470300000000008,0.0,0.9947805958835599,single,-0.809016
164,1.366667,walk,0.6629469642428558,-0.081713462922964,0.04367650587953302,-0.44716613734199756,0.3072527005720391,0.31667209428973553,1.2225821934245171,-0.7585793136549012,0.5368370530357537,-0.004319654427663397,0.0040796736261072995,-0.005879529637628997,1.2144049914016448,-3.6130788145422392,-3.1541027876659364,7.758084517860365,-7.246386625605329,-5.27791935367988,-0.4031216734012888,0.719912458504278,-0.43189806023290384,-0.34006000000000003,0.004477000000000009,-0.804906,0.15713299999999997,0.025096000000000007,-0.894132,0.497193,0.020619,0.08922600000000003,0.0,0.9860684191662586,single,-0.804906
165,1.375,walk,0.6408256330253416,-0.08556342253690456,0.0369614784591357,-0.2475391526641042,0.0372717813706226,0.22668713193199497,1.4857794311772843,-1.0447617904716273,0.5417016680667265,-0.010320412816489767,0.0098403936157479,-0.0025201008040322066,-2.654665932739044,-0.46201363421824077,-0.8058355238686404,31.584931927609453,-34.34327094884541,0.583777154802933,-0.7201198114516291,0.6913140513189311,0.40314758593505595,-0.33301899999999995,-0.0035159999999999636,-0.8007,0.15170700000000004,0.025891000000000053,-0.8944610000000001,0.484726,0.029407000000000016,0.0937610000000001,0.0,0.9758652408755603,single,-0.8007
166,1.383333,walk,0.6825873034921358,-0.12360494419776609,0.07500300012000388,-0.17488630885535436,0.2717341819263454,0.3005595750469439,1.399735989439578,-0.8043921756870366,0.2682107284291414,-0.011040441617662525,0.012240489619583813,0.0016800672026881377,5.011600920052157,-4.565165205911661,4.56516520591246,-10.325626033566191,28.84550759445493,-32.82022556553313,-0.0864069124172284,0.2880230413819675,0.5040403224193427,-0.327043,-0.009189000000000003,-0.79909,0.14592700000000014,0.02702300000000002,-0.895072,0.4729700000000001,0.03621200000000002,0.09598200000000001,0.0,0.9723844064257114,single,-0.79909
167,1.391667,walk,0.6809455243580578,-0.13654907607390973,0.0772738180945492,-0.3964353339180918,0.10452619370373416,0.08883108128094491,1.593112550995906,-0.9188864890808663,0.18298536117110475,-0.008399328053757375,0.009959203263738794,0.002399808015358655,-0.19699773627046122,-1.5531715714115122,0.27247635883672866,23.203331120269574,-13.738218549775484,-10.226225972886489,0.3169082750066151,-0.2737324641042718,0.08636198856137653,-0.3194410000000001,-0.01570900000000003,-0.798209,0.14018200000000003,0.02824399999999999,-0.8956959999999999,0.4596230000000001,0.04395300000000002,0.09748699999999999,0.0,0.9779210054631053,single,-0.798209
168,1.4,walk,0.6269050762030413,-0.12696507860314568,0.07680307212288248,-0.3024930941770342,0.0396996925889597,0.257608613592723,1.6807872314892705,-0.8859954398175975,0.010920436817470397,-0.00624024961000402,0.006000240009599778,0.005520220808832095,-6.485113183129367,1.1501257015197572,-0.05649177627105703,10.521382514504399,3.94708379494409,-20.648616867110995,0.2590997772414946,-0.4750945942804575,0.3744645137973681,-0.310659,-0.022033999999999998,-0.798758,0.13490599999999997,0.02935199999999999,-0.8962899999999999,0.445565,0.05138599999999999,0.09753199999999995,0.0,0.9828879158076473,single,-0.798758
169,1.408333,walk,0.6189847593903643,-0.11160446417857021,0.07620304812192981,-0.4139216471992065,-0.10382653312328306,0.3096284971695402,1.7115084603383832,-0.932197287891499,-0.04404176167046346,-0.0034801392055483268,0.004560182407294111,0.005400216008640655,-0.9504760365626749,1.8433474648476176,-0.0720057603447333,3.6866949296906553,-5.544443546609946,-6.595727647657854,0.33122649759458117,-0.1728138248296702,-0.014401152069055305,-0.301555,-0.028871999999999953,-0.79976,0.12971900000000014,0.030320000000000014,-0.89688,0.43127400000000016,0.05919199999999997,0.09711999999999998,0.0,0.9868693567245495,single,-0.79976
170,1.416667,walk,0.6856251499880136,-0.12562994960402982,0.09119270458363299,-0.48433891177322064,0.0055798989220105484,0.4866729707029326,1.8934485241181218,-0.9920806335493413,-0.19942404607632064,-0.008399328053757598,0.002039836813053704,-0.004679625629949377,7.996207175144051,-1.682923617165811,1.7986148862135187,21.831061168675554,-7.185426644809623,-18.644382578096966,-0.5902554413498158,-0.3024172779266205,-1.2094842378917956,-0.2914889999999999,-0.03609300000000004,-0.802182,0.12393500000000013,0.03138399999999997,-0.897679,0.415424,0.06747700000000001,0.09549700000000005,0.0,0.9836183925955724,single,-0.802182
171,1.425,walk,0.6905076203048045,-0.13440537621504745,0.06672266890675521,-0.5047768703767627,0.034301799099898944,0.41613883526690076,1.9632785311412029,-0.9644785791431442,-0.1857674306972239,-0.010680427217089186,-0.0001200048001887948,-0.0063602544101768275,0.58591987480989,-1.0530933170547792,-2.936521742094966,8.37993604021119,3.3123790239045525,1.6388593998675745,-0.2737428493137583,-0.2591913612435451,-0.20168352096812925,-0.280883,-0.04300999999999999,-0.8042860000000001,0.11809200000000009,0.032503000000000004,-0.898288,0.3989750000000001,0.075513,0.09400199999999992,0.0,0.9792810632207996,single,-0.8042860000000001
172,1.433333,walk,0.7723508940357815,-0.16980679227169237,0.10464418576742972,-1.0079067692762906,-0.12134157027126381,0.8883446486266751,2.0520820832833637,-0.9203168126725164,-0.2943717748709955,-0.015600624024956758,-0.005040201608062748,0.005880235209408482,9.821585711145776,-4.248339860391846,4.550764053843136,10.656852531160645,5.299623961433836,-13.03304262255761,-0.5904472348335074,-0.5904472348342732,1.4689175110506927,-0.270219,-0.049264,-0.807611,0.11152600000000001,0.03387600000000002,-0.899111,0.381745,0.08314000000000002,0.09150000000000003,0.0,0.9709712657519436,single,-0.807611
173,1.441667,walk,0.5920326373890037,-0.13390928725701912,0.0781137508999356,-0.5762137572865902,0.291893610187895,0.782837514511051,2.0831533477321607,-0.9953203743700424,-0.36273098152147526,-0.005039596832265082,-0.005759539236866767,0.004319654427645913,-21.636459880822706,4.307356013279696,-3.1833975122982867,3.728253473577717,-8.99970742710888,-8.202448602169339,1.2672218853721617,-0.08631361036765219,-0.18725471343443215,-0.257792,-0.05644299999999999,-0.811285,0.10654999999999992,0.034943999999999975,-0.899726,0.36434199999999994,0.09138699999999997,0.08844099999999999,0.0,0.9853533049967023,single,-0.811285
174,1.45,walk,0.57290291611663,-0.14784591383655613,0.06492259690386507,-0.49276141817250896,0.17322053357387837,0.6896886606847281,2.062042481699281,-0.999039961598473,-0.4665786631465321,-0.003600144005757202,-0.00972038881555244,-0.0033601344053762754,-2.295658379020022,-1.6724620880279775,-1.583001799600462,-2.5334052601560075,-0.446368322144559,-12.46222028381829,0.1727412488309004,-0.4753209622807763,-0.9216115244236479,-0.2453829999999999,-0.06353599999999998,-0.8157139999999999,0.10174600000000011,0.03609499999999999,-0.900295,0.347129,0.09963099999999997,0.08458100000000002,0.0,0.9818388770836423,single,-0.8157139999999999
175,1.458333,walk,0.6026641065642618,-0.14484579383175236,0.08196327853115183,-0.35992618769520945,0.1762463098773841,0.6580295077906005,2.2242889715588197,-0.9949597983919207,-0.5153006120244711,-0.0016800672026830968,-0.009000360014399427,-0.004320172806912358,3.571485713144281,0.3600288017285145,2.044963593818129,19.470357597448217,0.48963917035307497,-5.846867740062176,0.23041843310621285,0.08640691241485664,-0.11520921655299,-0.23187000000000002,-0.07061999999999999,-0.8206910000000001,0.09671000000000007,0.03722700000000001,-0.9010140000000001,0.3285800000000001,0.107847,0.08032300000000003,0.0,0.9831268623022736,single,-0.8206910000000001
176,1.466667,walk,0.6221502279817727,-0.12706983441324654,0.07259419246460021,-0.41162464040366437,0.07032085398709118,0.6725394939174533,2.2477801775858492,-1.0491960643148717,-0.5127189824814111,-0.000479961603085565,-0.007679385649149233,-0.00791936645068369,2.3381475182998797,2.1329444946611664,-1.1242003919548598,2.818719225705548,-6.5078312842514965,0.3097707635061206,0.14400115185955778,0.158504243490547,-0.43186868775754755,-0.2183219999999999,-0.07830499999999999,-0.825569,0.09152099999999996,0.03822199999999998,-0.9016850000000001,0.30984299999999987,0.11652699999999996,0.07611600000000007,0.0,0.9815971249174809,single,-0.825569
177,1.475,walk,0.5394215768630549,-0.14268570742829412,0.07788311532461291,-0.5553824331314601,0.3318239564221335,0.739294520394086,2.3720148805951764,-1.0686427457098127,-0.5041401656066167,-0.001440057602292184,-0.00864034561381972,-0.010920436817472604,-9.927835247655862,-1.8739797209945162,0.6346961310467549,14.90876071154746,-2.333695115197486,1.0294992049435134,-0.11521612854993427,-0.1153198085527985,-0.36014284972865246,-0.20305099999999987,-0.08602100000000001,-0.830419,0.08701400000000015,0.03933900000000001,-0.902425,0.290065,0.12536000000000003,0.07200600000000001,0.0,0.9766675429623725,single,-0.830419
178,1.483333,walk,0.5825033001320269,-0.138725549021961,0.07656306252250489,-0.36230916191048673,0.37737145932410593,0.44987891325044843,2.4086163446538023,-1.0673226929077242,-0.5634225369014801,-0.0016800672026831415,-0.004560182407300894,-0.0033601344053762754,5.170013592820396,0.4752380182807106,-0.15841267275987436,4.3923513810903865,0.15841267275752782,-7.114169122148567,-0.02880230413908072,0.48963917034907756,0.907272580354782,-0.18783400000000006,-0.09375900000000001,-0.835752,0.08214600000000005,0.040456999999999965,-0.9030910000000001,0.2699800000000001,0.13421599999999997,0.06733900000000004,0.0,0.9901527792110919,single,-0.835752
