frame_id,timestamp,gait_type,root_linear_velocity_x,root_linear_velocity_y,root_linear_velocity_z,root_angular_velocity_x,root_angular_velocity_y,root_angular_velocity_z,left_linear_velocity_x,left_linear_velocity_y,left_linear_velocity_z,right_linear_velocity_x,right_linear_velocity_y,right_linear_velocity_z,root_acceleration_x,root_acceleration_y,root_acceleration_z,left_acceleration_x,left_acceleration_y,left_acceleration_z,right_acceleration_x,right_acceleration_y,right_acceleration_z,left_pos_rel_x,left_pos_rel_y,left_pos_rel_z,right_pos_rel_x,right_pos_rel_y,right_pos_rel_z,step_length,step_width,step_height,left_contact_prob,right_contact_prob,support_type,max_foot_height
<<<<<<< HEAD
1,0.008333,walk,0.004680187207487984,-0.03852154086163635,0.000840033601341563,-0.11754077606738303,0.0366296005821583,0.034688466715427226,-0.0008400336013448938,0.00024000960039091698,0.0008400336013440611,-0.0007200288011523498,-0.00216008640346496,-0.0013200528021121555,0.0,0.0,0.0,0.0,0.0,0.0,0.0,0.0,0.0,0.024581000000000006,-0.06790699999999994,-0.9097770000000001,-0.087878,0.14522999999999997,-0.904467,0.112459,0.2131369999999999,0.005310000000000037,0.9979800182130528,0.9425134820993795,double,-0.904467
2,0.016667,walk,0.0008399328053747447,-0.03371730261578782,-0.010319174466046374,-0.028283526808242313,0.12088048360849422,0.0434543409309687,-0.0016798656107528196,-0.00011999040077138896,0.0007199424046075187,-0.0005999520038394602,-0.003359731221492318,-0.0015598752099830959,-0.46079366476040784,0.5764624725040234,-1.3389978482586917,-0.10077177938660016,-0.04319654441592343,-0.014409790825119081,0.014408063032504154,-0.14394586249428337,-0.028776386833566155,0.02456,-0.06762699999999999,-0.909685,-0.08789,0.14548300000000003,-0.9043939999999999,0.11245,0.21311000000000002,0.005291000000000046,0.9969473767053659,0.9408359020194087,double,-0.9043939999999999
3,0.025,walk,0.008520340813632739,-0.036721468858757766,-0.0004800192007685108,-0.056523424663706336,0.05802209795157932,0.04487911980275984,-0.0007200288011494354,0.00012000480019545849,0.0001200048001921277,-0.0009600384015361888,-0.0018000720028785845,-0.001200048001920028,0.9216858284240962,-0.36051436973118267,1.1807458616678101,0.11518502455338825,0.028800576139067256,-0.07199539234554074,-0.04321209620745574,0.1871665928973639,0.04318099220725644,0.02448300000000002,-0.06731999999999994,-0.9096799999999999,-0.08796899999999999,0.14577400000000007,-0.9044,0.11245200000000001,0.213094,0.005279999999999951,0.9987670678821248,0.9432552256243636,double,-0.9044
4,0.033333,walk,0.012240489619585368,-0.03876155046201395,-0.004200168006721138,-0.05660499780931234,-0.0035708315979633403,0.014648117508932362,-0.0014400576023055323,0.0007200288011461046,0.00036001440057596674,0.0,-0.0019200768030740432,-0.001560062402496411,0.4464357141428812,-0.2448195851741486,-0.446435714142881,-0.08640691241522824,0.07200576034449131,0.028802304138226213,0.11520921655300477,-0.014401152069537822,-0.04320345620741427,0.024369000000000002,-0.06699100000000002,-0.909642,-0.088071,0.14608100000000002,-0.904378,0.11244,0.21307200000000004,0.005263999999999935,0.9972503445968126,0.9432367294435573,double,-0.904378
5,0.041667,walk,0.0062395008399323834,-0.03527717782577591,0.0,-0.07662193900664391,0.09818451571181341,0.02821592721165563,-0.001079913606912527,0.0007199424046016905,-0.0002399808015361171,-0.0009599232061436358,-0.0013198944084453137,-0.0004799616030718179,-0.7200610486744641,0.41809126904704025,0.503979842419143,0.04321382234137332,-1.0366755989214272e-05,-0.07199366476026924,-0.11518157021161936,0.07201612606536231,0.12960172779272774,0.024307999999999996,-0.06669100000000006,-0.909644,-0.088131,0.14636400000000005,-0.904382,0.112439,0.2130550000000001,0.005261999999999989,0.997800175985925,0.9445447374452552,double,-0.904382
6,0.05,walk,0.013800552022081362,-0.032041281651268114,0.014160566422664406,-0.03476969309267678,0.05069981366193023,0.019076653342155168,-0.0007200288011527661,0.0003600144005863755,-0.00036001440057596674,-0.001440057602303867,0.0004800192007685108,-0.0007200288011519335,0.9073624363553315,0.3883230738638904,1.6993359441574951,0.043187904207339596,-0.043193088205366006,-0.014404608069104721,-0.0576184322765188,0.2159982730365804,-0.0288092161382594,0.024186999999999986,-0.06642099999999995,-0.909765,-0.088258,0.14663500000000007,-0.904506,0.11244499999999999,0.21305600000000002,0.005259000000000014,0.9985302473642167,0.94460988799552,double,-0.904506
7,0.058333,walk,0.0024000960038408885,-0.034081363254524294,0.000840033601341563,-0.015480388125221291,0.08002962716974468,0.0606047573515391,-0.0002400096003809246,0.0004800192007685108,0.0004800192007680944,-0.0015600624024959945,-0.0007200288011594278,-0.0004800192007680944,-1.3681094465667194,-0.2448195851741486,-1.598527879673928,0.05760460827695207,0.014401152067938952,0.10080806448386669,-0.014401152069138072,-0.14401152069218032,0.028802304138226216,0.024165000000000006,-0.066133,-0.909768,-0.08829100000000001,0.14691299999999996,-0.904517,0.11245600000000001,0.21304599999999996,0.005251000000000006,0.998799951998081,0.9445166673172242,double,-0.904517
8,0.066667,walk,-0.002639788816895623,-0.025917926565874005,-0.002879769618433405,-0.01542108342007288,0.07874942174267509,0.03946576104519327,-0.001079913606912527,0.00035997120230084524,-0.0002399808015357008,-0.0014398848092154538,0.0008399328053730795,-0.0005999520038394602,-0.6047377994644242,0.9795340399148413,-0.4463406791186666,-0.10078041835032425,-0.014404607447524063,-0.08639308882934907,0.014420157581058404,0.1871804183504328,-0.014390785105755428,0.024178000000000005,-0.06591400000000003,-0.9097459999999999,-0.088281,0.14713599999999993,-0.904498,0.112459,0.21304999999999996,0.005247999999999919,0.9980610831703798,0.9445672716062267,double,-0.904498
9,0.075,walk,0.00756030241209739,-0.03060122404896261,0.013080523220931938,-0.09737136841736695,-0.0578564873508925,0.09780440611816646,-0.0007200288011527668,0.00036001440057305256,0.00048001920076767846,-0.001920076803071963,0.0001200048001954586,-0.0009600384015361897,1.2240599098755576,-0.5620181786977811,1.9153117531939703,0.043187904207339554,5.184000024880231e-06,0.08640345641466217,-0.05762534427655222,-0.08639481641397113,-0.04321209620745588,0.02410899999999999,-0.06565600000000005,-0.909851,-0.08836000000000001,0.14739199999999997,-0.9046150000000001,0.112469,0.21304800000000002,0.005235999999999907,0.9984378875803231,0.9440565620890495,double,-0.9046150000000001
=======
1,0.008333,stand,0.004680187207487984,-0.03852154086163635,0.000840033601341563,-0.11754077606738303,0.0366296005821583,0.034688466715427226,-0.0008400336013448938,0.00024000960039091698,0.0008400336013440611,-0.0007200288011523498,-0.00216008640346496,-0.0013200528021121555,0.0,0.0,0.0,0.0,0.0,0.0,0.0,0.0,0.0,0.024581000000000006,-0.06790699999999994,-0.9097770000000001,-0.087878,0.14522999999999997,-0.904467,0.112459,0.2131369999999999,0.005310000000000037,0.9979800182130528,0.9425134820993795,double,-0.904467
2,0.016667,stand,0.0008399328053747447,-0.03371730261578782,-0.010319174466046374,-0.028283526808242313,0.12088048360849422,0.0434543409309687,-0.0016798656107528196,-0.00011999040077138896,0.0007199424046075187,-0.0005999520038394602,-0.003359731221492318,-0.0015598752099830959,-0.46079366476040784,0.5764624725040234,-1.3389978482586917,-0.10077177938660016,-0.04319654441592343,-0.014409790825119081,0.014408063032504154,-0.14394586249428337,-0.028776386833566155,0.02456,-0.06762699999999999,-0.909685,-0.08789,0.14548300000000003,-0.9043939999999999,0.11245,0.21311000000000002,0.005291000000000046,0.9969473767053659,0.9408359020194087,double,-0.9043939999999999
3,0.025,stand,0.008520340813632739,-0.036721468858757766,-0.0004800192007685108,-0.056523424663706336,0.05802209795157932,0.04487911980275984,-0.0007200288011494354,0.00012000480019545849,0.0001200048001921277,-0.0009600384015361888,-0.0018000720028785845,-0.001200048001920028,0.9216858284240962,-0.36051436973118267,1.1807458616678101,0.11518502455338825,0.028800576139067256,-0.07199539234554074,-0.04321209620745574,0.1871665928973639,0.04318099220725644,0.02448300000000002,-0.06731999999999994,-0.9096799999999999,-0.08796899999999999,0.14577400000000007,-0.9044,0.11245200000000001,0.213094,0.005279999999999951,0.9987670678821248,0.9432552256243636,double,-0.9044
4,0.033333,stand,0.012240489619585368,-0.03876155046201395,-0.004200168006721138,-0.05660499780931234,-0.0035708315979633403,0.014648117508932362,-0.0014400576023055323,0.0007200288011461046,0.00036001440057596674,0.0,-0.0019200768030740432,-0.001560062402496411,0.4464357141428812,-0.2448195851741486,-0.446435714142881,-0.08640691241522824,0.07200576034449131,0.028802304138226213,0.11520921655300477,-0.014401152069537822,-0.04320345620741427,0.024369000000000002,-0.06699100000000002,-0.909642,-0.088071,0.14608100000000002,-0.904378,0.11244,0.21307200000000004,0.005263999999999935,0.9972503445968126,0.9432367294435573,double,-0.904378
5,0.041667,stand,0.0062395008399323834,-0.03527717782577591,0.0,-0.07662193900664391,0.09818451571181341,0.02821592721165563,-0.001079913606912527,0.0007199424046016905,-0.0002399808015361171,-0.0009599232061436358,-0.0013198944084453137,-0.0004799616030718179,-0.7200610486744641,0.41809126904704025,0.503979842419143,0.04321382234137332,-1.0366755989214272e-05,-0.07199366476026924,-0.11518157021161936,0.07201612606536231,0.12960172779272774,0.024307999999999996,-0.06669100000000006,-0.909644,-0.088131,0.14636400000000005,-0.904382,0.112439,0.2130550000000001,0.005261999999999989,0.997800175985925,0.9445447374452552,double,-0.904382
6,0.05,stand,0.013800552022081362,-0.032041281651268114,0.014160566422664406,-0.03476969309267678,0.05069981366193023,0.019076653342155168,-0.0007200288011527661,0.0003600144005863755,-0.00036001440057596674,-0.001440057602303867,0.0004800192007685108,-0.0007200288011519335,0.9073624363553315,0.3883230738638904,1.6993359441574951,0.043187904207339596,-0.043193088205366006,-0.014404608069104721,-0.0576184322765188,0.2159982730365804,-0.0288092161382594,0.024186999999999986,-0.06642099999999995,-0.909765,-0.088258,0.14663500000000007,-0.904506,0.11244499999999999,0.21305600000000002,0.005259000000000014,0.9985302473642167,0.94460988799552,double,-0.904506
7,0.058333,stand,0.0024000960038408885,-0.034081363254524294,0.000840033601341563,-0.015480388125221291,0.08002962716974468,0.0606047573515391,-0.0002400096003809246,0.0004800192007685108,0.0004800192007680944,-0.0015600624024959945,-0.0007200288011594278,-0.0004800192007680944,-1.3681094465667194,-0.2448195851741486,-1.598527879673928,0.05760460827695207,0.014401152067938952,0.10080806448386669,-0.014401152069138072,-0.14401152069218032,0.028802304138226216,0.024165000000000006,-0.066133,-0.909768,-0.08829100000000001,0.14691299999999996,-0.904517,0.11245600000000001,0.21304599999999996,0.005251000000000006,0.998799951998081,0.9445166673172242,double,-0.904517
8,0.066667,stand,-0.002639788816895623,-0.025917926565874005,-0.002879769618433405,-0.01542108342007288,0.07874942174267509,0.03946576104519327,-0.001079913606912527,0.00035997120230084524,-0.0002399808015357008,-0.0014398848092154538,0.0008399328053730795,-0.0005999520038394602,-0.6047377994644242,0.9795340399148413,-0.4463406791186666,-0.10078041835032425,-0.014404607447524063,-0.08639308882934907,0.014420157581058404,0.1871804183504328,-0.014390785105755428,0.024178000000000005,-0.06591400000000003,-0.9097459999999999,-0.088281,0.14713599999999993,-0.904498,0.112459,0.21304999999999996,0.005247999999999919,0.9980610831703798,0.9445672716062267,double,-0.904498
9,0.075,stand,0.00756030241209739,-0.03060122404896261,0.013080523220931938,-0.09737136841736695,-0.0578564873508925,0.09780440611816646,-0.0007200288011527668,0.00036001440057305256,0.00048001920076767846,-0.001920076803071963,0.0001200048001954586,-0.0009600384015361897,1.2240599098755576,-0.5620181786977811,1.9153117531939703,0.043187904207339554,5.184000024880231e-06,0.08640345641466217,-0.05762534427655222,-0.08639481641397113,-0.04321209620745588,0.02410899999999999,-0.06565600000000005,-0.909851,-0.08836000000000001,0.14739199999999997,-0.9046150000000001,0.112469,0.21304800000000002,0.005235999999999907,0.9984378875803231,0.9440565620890495,double,-0.9046150000000001
>>>>>>> 3b0d06690e55fb02323d988053aa126fb7c3a6e7
10,0.083333,walk,-0.002280091203648759,-0.027721108844351496,-0.00636025441017277,-0.019275411776330433,0.037349882247478136,0.05435036209016943,0.00012000480019212759,-0.00024000960037759357,-0.0003600144005759664,-0.002040081603264087,0.0007200288011461039,-0.0007200288011519328,-1.1808944696683235,0.3456276496593199,-2.332986635197971,0.10080806448396659,-0.07200576034449126,-0.10080806448381664,-0.014401152069137644,0.07200576034449116,0.02880230413827633,0.024128999999999998,-0.06542700000000001,-0.9098010000000001,-0.08835799999999999,0.1476289999999999,-0.904568,0.112487,0.2130559999999999,0.005233000000000043,0.9992516385881944,0.943869847993923,double,-0.904568
11,0.091667,walk,-0.0007199424046083519,-0.03071754259659637,-0.0043196544276501115,-0.024923870170020145,0.047210231721730174,0.08677347054752917,-0.0005999520038402933,0.00035997120230084556,0.0,-0.0009599232061436366,0.0,-0.0010799136069116952,0.18720287965447663,-0.3595432868064406,0.24485240970994238,-0.08638790545145444,0.07199193696645542,0.04319827220733941,0.1296086389633371,-0.08639654441397941,-0.04318272207340564,0.02413,-0.065168,-0.909765,-0.08836,0.14788499999999993,-0.904541,0.11248999999999999,0.21305299999999994,0.005224000000000006,0.9988339029087999,0.9453518737343423,double,-0.904541
12,0.1,walk,-0.0034801392055683693,-0.027121084843400853,-0.006960278411136739,-0.012838068223880115,0.01415442874309223,0.06866237758974103,-0.0012000480019179452,0.0007200288011461039,0.0,-0.001440057602304282,-0.00036001440057305197,-0.0006000240009598053,-0.3312368655898254,0.43159219407122457,-0.3168875535205358,-0.07201440034533198,0.043208640207039246,0.0,-0.05761843227656847,-0.04320345620701448,0.057589056276477806,0.024149000000000018,-0.064936,-0.909707,-0.08834299999999999,0.14810800000000002,-0.904488,0.11249200000000001,0.213044,0.005219000000000085,0.9976675259431078,0.9451415604495936,double,-0.904488
13,0.108333,walk,-0.0031201248049919916,-0.03144125765030417,-0.0034801392055617136,-0.04782112541519884,0.051224099927722554,0.07517679954685115,-0.0007200288011527668,0.0004800192007685112,0.0,-0.001080043201727901,0.00036001440057305256,-0.0012000480019200288,0.04320345620741366,-0.5184414744873782,0.41763341000540355,0.0576046082761525,-0.028802304137476652,0.0,0.043203456207414045,0.08640691241402917,-0.07200576034564071,0.02416900000000001,-0.06467,-0.9096780000000001,-0.08832599999999999,0.14837299999999998,-0.9044690000000001,0.11249500000000001,0.21304299999999998,0.005209000000000019,0.998557721798685,0.9451530799727821,double,-0.9044690000000001
14,0.116667,walk,-0.0010799136069108608,-0.028077753779692374,-0.002399808015361169,-0.048346256123014186,0.0522017008775213,0.08020322415383069,-0.0005999520038402923,0.0010799136069158564,0.00035997120230375903,-0.0004799616030718175,-0.0011999040076739237,-0.000599952003839876,0.2448057593089907,0.40358817741922187,0.12962937247426726,0.01440806303245433,0.0719815702120644,0.043193088829344695,0.07200403151620866,-0.1871752349708393,0.07200575930887357,0.024173,-0.06442700000000001,-0.909655,-0.088321,0.14859699999999998,-0.904454,0.112494,0.213024,0.005201000000000011,0.9978554105082,0.9456153215568754,double,-0.904454
15,0.125,walk,0.0004800192007685112,-0.02760110404416941,-0.0002400096003909172,-0.05053529016881098,0.06415390199182162,0.07755804415324778,-0.0004800192007685112,0.00036001440057305256,-0.00048001920076767846,-0.00048001920076809484,-0.0004800192007685112,-0.0008400336013440619,0.18719942489852073,0.05720025627300672,0.25918617724352017,0.01439251206909651,-0.08639136041555315,-0.10080288048379192,-6.912000033279897e-06,0.08638963241394614,-0.028810944138267867,0.024164999999999992,-0.06419399999999997,-0.9096569999999999,-0.088329,0.14882300000000004,-0.904459,0.112494,0.213017,0.005197999999999925,0.9987193239254726,0.9462199279971195,double,-0.904459
16,0.133333,walk,-0.002040081603264504,-0.027721108844351496,-0.00024000960037759357,-0.037630584141573824,0.06205675401974349,0.06811355758806767,-0.0010800432017291483,0.00048001920076851036,0.0,-0.0006000240009598053,-0.0007200288011461039,0.00012000480019212759,-0.30242419345169963,-0.01440115206793317,1.598898952646441e-12,-0.07200576034569023,0.014401152069537706,0.057604608276452425,-0.014401152069088001,-0.028802304137476607,0.11520921655300476,0.024172999999999986,-0.06395899999999999,-0.909655,-0.088317,0.14904800000000007,-0.904456,0.11248999999999998,0.21300700000000006,0.005198999999999954,0.9980301496456246,0.9464351354306226,double,-0.904456
17,0.141667,walk,0.0041996640268770645,-0.02663786897047576,0.00035997120230084616,-0.04610521011069044,0.027299080127998594,0.09052575815764238,-0.0010799136069091992,0.0004799616030722354,-0.00011999040076805884,-0.0005999520038398779,-0.00107991360691586,-0.0014398848092154572,0.748709578850682,0.12997838659416103,0.07199193696645562,1.5550134383144527e-05,-6.911170659346105e-06,-0.014397696276464977,8.638963274220086e-06,-0.04318272207460487,-0.18717177938655968,0.02412900000000001,-0.06373300000000004,-0.909659,-0.08835699999999999,0.14926099999999998,-0.904471,0.112486,0.21299400000000002,0.00518799999999997,0.9980202593919294,0.9449579753018029,double,-0.904471
18,0.15,walk,0.005520220808832873,-0.026401056042241425,0.0008400336013415624,-0.04158690113823514,0.05692451312069543,0.11073739507164114,-0.0012000480019212759,0.0006000240009639688,0.00024000960038383885,-0.0006000240009598053,-0.0007200288011594272,-0.00048001920076809403,0.15847315276080734,0.02841868813564573,0.05760979227657696,-0.014416704069611975,0.014408064069570783,0.043201728207355974,-8.639999991281648e-06,0.04318790420694019,0.1151884805529056,0.024072999999999997,-0.06350800000000001,-0.909664,-0.088408,0.1494749999999999,-0.904482,0.112481,0.21298299999999992,0.00518200000000002,0.9977283457955071,0.9464249369199902,double,-0.904482
19,0.158333,walk,-0.0012000480019196105,-0.02664106564263234,-0.011520460818430925,-0.01791885150383546,0.06380518446335781,0.09644645364387408,-0.0003600144005763828,0.0007200288011461039,0.0006000240009602216,0.0,-0.0008400336013415624,-0.00012000480019171124,-0.8064645158709323,-0.028802304139075568,-1.483318663119222,0.10080806448396644,0.01440115206793892,0.04320345620741419,0.07200576034559039,-0.014401152067938933,0.0432034562074142,0.02407999999999999,-0.06328,-0.909563,-0.088398,0.14969,-0.904387,0.112478,0.21297,0.005175999999999958,0.998326613011459,0.9468257298668257,double,-0.904387
20,0.166667,walk,0.00419966402687705,-0.026397888168946216,-0.0009599232061444676,-0.076362295138135,0.10758254073810766,0.11588308085762165,-0.00011999040076805845,0.0014398848092167015,-0.0004799616030718175,-0.0010799136069116935,-0.0002399808015294561,-0.000959923206143635,0.6479136103667693,0.02917896252533303,1.2671631404231398,0.028800575930924423,0.08637581090359933,-0.12958790545140847,-0.12957926648808404,0.07200057593137818,-0.10078214614253936,0.024043999999999996,-0.06304799999999999,-0.909559,-0.08844199999999999,0.14990800000000004,-0.9043869999999999,0.11248599999999999,0.21295600000000003,0.0051720000000000654,0.9974624874929083,0.9458388841661213,double,-0.9043869999999999
21,0.175,walk,0.003120124804991997,-0.023760950438021358,-0.01944077763110475,0.05743110201972987,0.09064466210269527,0.09022875144611273,-0.000480019200768512,0.0001200048001954588,-0.001200048001920031,0.0,-0.000480019200768512,-0.0006000240009598073,-0.12954988862175154,0.31644518551840445,-2.2177912426449455,-0.04320518420742283,-0.1583919367600199,-0.08641382441476242,0.12959481662206843,-0.02880576013909234,0.04318963220734773,0.024013999999999994,-0.06284899999999993,-0.909407,-0.08846799999999999,0.15010200000000007,-0.90423,0.11248199999999998,0.212951,0.005176999999999987,0.9978365826980288,0.9469493239254703,double,-0.90423
22,0.183333,walk,0.0043201728069132625,-0.027841113644533632,0.007800312012478302,-0.09756549393450142,0.10228886903639306,0.08789016818349009,-0.0007200288011494347,0.00036001440057305197,-0.00024000960038425518,0.0,-0.0007200288011594272,-0.0006000240009602216,0.1440115206913794,-0.48963917034828636,3.269061519690751,-0.028802304137876218,0.028802304137476656,0.11520921655295512,0.0,-0.02880230413907536,-4.971482660586954e-14,0.023972000000000007,-0.06261400000000006,-0.909474,-0.088504,0.1503279999999999,-0.9043,0.112476,0.21294199999999996,0.005174000000000012,0.9985999439977656,0.9466978875803123,double,-0.9043
23,0.191667,walk,0.008639308855291883,-0.02627789776818815,0.0005999520038436226,-0.012486107100125933,0.06619327966225398,0.07543116649881124,-0.0007199424046083507,0.0005999520038436226,0.0,-0.0008399328053755765,0.00035997120231416656,-0.00011999040076805845,0.5182548654162006,0.1875708994894985,-0.863974083109512,1.0366755589630992e-05,0.028790209175734393,0.028798848138259534,-0.10078387393515427,0.12958963324617143,0.05759942406913399,0.023894,-0.062389999999999946,-0.909479,-0.08858300000000001,0.15055000000000007,-0.904306,0.11247700000000001,0.21294000000000002,0.005172999999999983,0.998438075018812,0.9467338937389205,double,-0.904306
24,0.2,walk,0.011160446417856209,-0.02796111844472909,-0.004560182407294187,0.03237520446749652,0.008999043365532417,0.08892069714713352,-0.0008400336013448932,-0.00036001440057305197,-0.0003600144005759664,0.00024000960038425518,-0.0007200288011594272,0.0,0.302548609452097,-0.20199456096735138,-0.6192408989724956,-0.014411520069187847,-0.11520057655306298,-0.043203456207364224,0.1295982726220846,-0.12960518462421608,0.014399424069129767,0.023793999999999996,-0.06215999999999999,-0.909444,-0.088674,0.15077699999999994,-0.9042680000000001,0.112468,0.21293699999999993,0.005175999999999958,0.9983628639601846,0.9469750383374543,double,-0.9042680000000001
25,0.208333,walk,0.010800432017279862,-0.027721108844364913,-0.002880115204611072,-0.0033382422752346124,0.03493130943136957,0.09530862626988884,-0.000840033601344896,0.0,0.0,0.00012000480019171164,-0.00024000960037759439,0.0007200288011523517,-0.043203456207410035,0.02880230413586685,0.20161612896713305,-3.382846091998462e-16,0.04320345620701462,0.04320345620736437,-0.014401152069188029,0.0576046082781512,0.086406912414779,0.023696999999999996,-0.0619289999999999,-0.90942,-0.088763,0.15100600000000008,-0.904238,0.11245999999999999,0.21293499999999999,0.00518200000000002,0.9985999439977585,0.9468993239254734,double,-0.904238
26,0.216667,walk,0.015958723302136785,-0.028077753779692374,-0.005999520038396261,0.00906979094560507,0.029161141725556464,0.09965641102640897,-0.0005999520038369618,-0.00011999040077138885,0.0002399808015361169,-0.0014398848092150361,-0.0002399808015427777,-0.0007199424046079344,0.6189454385477464,-0.04279396872179754,-0.3742986361633293,0.02880748710198391,-0.014397696276864498,0.028795392552929767,-0.18717177938645863,3.4555837313041847e-06,-0.17278272207346826,0.02355900000000001,-0.06169599999999997,-0.909368,-0.088908,0.15123799999999998,-0.904194,0.11246700000000001,0.21293399999999996,0.005173999999999901,0.9989046425135916,0.9455472850239464,double,-0.904194
27,0.225,walk,0.012480499219967946,-0.026521060842436883,-0.007440297611905249,0.020269498139651163,0.04816314073415681,0.10476014892331821,-0.0003600144005763828,0.00048001920076851036,-0.0008400336013440605,0.0,-0.00048001920076851036,0.00024000960038425518,-0.41740358600370053,0.1868106248956545,-0.17290022483007156,0.028793664137834973,0.07200403234608169,-0.12960691262212606,0.17279308882935737,-0.028805760137493395,0.11519884855300477,0.023452000000000015,-0.06147099999999994,-0.909313,-0.089012,0.151455,-0.90413,0.11246400000000001,0.21292599999999995,0.005183000000000049,0.9982794661252359,0.9472755370304804,double,-0.90413
28,0.233333,walk,0.013560542421697096,-0.024480979239167384,-0.004560182407294187,0.010728916187112377,0.03919205511232845,0.10186326746168675,0.00012000480019212759,-0.00036001440057305197,-0.00012000480019212759,0.00012000480019171124,0.0,0.0,0.1296103686222428,0.24481958517574676,0.3456276496593135,0.057604608276552255,-0.10080806448356673,0.08640691241472846,0.0144011520690881,0.057604608276552255,-0.028802304138276127,0.023340000000000014,-0.061269999999999936,-0.909276,-0.089124,0.151659,-0.904092,0.11246400000000001,0.21292899999999992,0.005183999999999966,0.9993366485078736,0.9479599919996805,double,-0.904092
29,0.241667,walk,0.010199184065275011,-0.02543796496280183,-0.008039356851456613,-0.0169512273709353,0.10957742805972996,0.0981797284340998,-0.0002399808015361177,0.00035997120230084616,-0.0005999520038398779,-0.0007199424046075204,-0.0004799616030722354,0.0002399808015357014,-0.40333073631174615,-0.11482910050809338,-0.4174675358966203,-0.043194816622059776,0.0863913610359851,-0.05758905731314513,-0.10078560172776982,-0.05759078510585991,0.028795392552880005,0.02325300000000001,-0.06105499999999997,-0.909214,-0.089215,0.15186699999999997,-0.904023,0.11246800000000001,0.21292199999999994,0.005190999999999946,0.9987672158221425,0.9465934567687487,double,-0.904023
30,0.25,walk,0.015240609624385216,-0.026041041641668372,-0.0016800672026831248,-0.018557853810291642,0.08973847349574503,0.12013552197213624,-0.002760110404415604,0.00024000960037759357,-0.0014400576023038656,0.0007200288011519328,-0.00024000960037759357,0.00024000960038425518,0.6049952669039003,-0.0723720963478387,0.7631452836641645,-0.3024276494515161,-0.014395968069513078,-0.1008167044838578,0.17280345682940743,0.028795392139042555,3.4560000664556043e-06,0.023103000000000012,-0.060836,-0.909212,-0.089336,0.15208200000000005,-0.904007,0.11243900000000001,0.21291800000000005,0.005205000000000015,0.994795947105383,0.9466232970157418,double,-0.904007
31,0.258333,walk,0.02088083523340862,-0.029161166446657127,0.004560182407294202,-0.037362445288811025,0.029183519773558615,0.13210483564739017,0.001920076803070717,0.0002400096003909176,0.001080043201727903,-0.0016800672026881264,0.0008400336013415652,0.00012000480019171164,0.6768541472487001,-0.3744299537968034,0.7488599075935849,0.5616449306955877,1.59894774369585e-12,0.302424193451551,-0.28802304138246315,0.12961036862104422,-0.014401152069188029,0.022945000000000007,-0.06059099999999995,-0.909241,-0.08952399999999999,0.15233200000000002,-0.904044,0.112469,0.21292299999999997,0.005197000000000007,0.9963066152020852,0.9448929970916139,double,-0.904044
32,0.266667,walk,0.01787856971442406,-0.02675785937124706,-0.004679625629950949,0.005395732638759904,0.0017330117780364042,0.11655292117943329,-0.0021598272138217216,-0.00011999040077138885,-0.001319894408447394,0.0007199424046079344,0.0002399808015294561,0.00011999040076805845,-0.36024304283472014,0.28837377914687606,-1.1086882694078644,-0.4895493180816456,-0.04319654441592346,-0.2879694756629823,0.2879781146263569,-0.07200057593137851,-1.7277926149731726e-06,0.022778000000000007,-0.060369000000000006,-0.909213,-0.089667,0.15255699999999994,-0.904004,0.11244500000000002,0.21292599999999995,0.005209000000000019,0.9957765954559763,0.9466294775943087,double,-0.904004
33,0.275,walk,0.020040801632065258,-0.029281171246852387,-0.0034801392055616963,0.01599906097250551,-0.021255822181706473,0.14746007895351626,0.0020400816032628316,0.000240009600390916,0.0009600384015361848,0.0007200288011519304,0.000120004800195458,0.0006000240009598033,0.2594782092453127,-0.3028095374541363,0.14394412869185738,0.504009218418881,0.043201728208604746,0.2736028813132808,1.0367999999525145e-05,-0.01439769606792243,0.0576063362764602,0.022627999999999995,-0.060122999999999927,-0.9091760000000001,-0.089828,0.152802,-0.90397,0.112456,0.21292499999999992,0.005206000000000044,0.9962209601128669,0.9463651354306145,double,-0.90397
34,0.283333,walk,0.02004080163206539,-0.02652106084243697,-0.0008400336013548883,-0.03036210329075034,0.05272042958398367,0.12281158623196475,-0.002760110404415613,-0.0002400096003909176,-0.001200048001920031,-0.0006000240009602237,0.0,-0.0003600144005759676,1.5821310953346655e-14,0.33122649758975453,0.3168253455186385,-0.5760460827647254,-0.0576046082781513,-0.25922073724423633,-0.1584126727603693,-0.014401152069537777,-0.11520921655295491,0.022438,-0.05990399999999996,-0.909179,-0.09000000000000001,0.15302300000000002,-0.9039659999999999,0.11243800000000001,0.21292699999999998,0.005213000000000023,0.9949679004658549,0.9467037629715496,double,-0.9039659999999999
35,0.291667,walk,0.020638348932084407,-0.02591792656587398,-0.0016798656107461574,0.00820552804019829,0.02520504812890772,0.1329799856308788,-0.00011999040076805845,-0.0005999520038436226,-0.0007199424046075181,0.00035997120230417536,-0.00011999040077138885,-0.00035997120230375903,0.0716999400070814,0.07237032356167374,-0.10077177938460143,0.3167890573131212,-0.043189633243665065,0.0576080630324589,0.11519020917499377,-0.014397696276864498,5.1833779947892626e-06,0.022265000000000007,-0.059692999999999996,-0.909171,-0.090169,0.15323799999999999,-0.903955,0.112434,0.21293099999999998,0.005215999999999998,0.9984253243992416,0.9469682899480943,double,-0.903955
36,0.3,walk,0.01776071042841829,-0.025201008040313572,-0.005040201608062714,-0.0028874384740544524,0.06986676052965834,0.11788004111179967,-0.000960038401537024,-0.00024000960037759439,-0.0003600144005759676,0.00024000960038383963,-0.00012000480018213558,0.000240009600384256,-0.3453304336572813,0.08603366441382573,-0.4032564499359852,-0.10080979248397548,0.04319481620857184,0.043193088207314455,-0.01439596806916309,-1.7279984095446285e-06,0.0720005763456158,0.02210899999999999,-0.05948500000000001,-0.909132,-0.090315,0.153447,-0.903911,0.112424,0.212932,0.005221000000000031,0.9982449369199994,0.9471899759990454,double,-0.903911
37,0.308333,walk,0.013440537621503258,-0.023880955238216657,-0.004560182407294172,0.02614768371069421,0.018975001414953226,0.16145373071678026,0.0004800192007685088,0.0,-0.0002400096003842544,0.0009600384015361848,-0.0003600144005730508,-0.0009600384015361848,-0.5184414744887812,0.1584126727585395,0.057604608276555905,0.1728138248296564,0.028802304137476704,0.014401152069088288,0.08640691241477765,-0.028802304139075266,-0.14401152069127995,0.022001000000000007,-0.05928599999999995,-0.909096,-0.090419,0.15364300000000009,-0.903881,0.11241999999999999,0.21292900000000003,0.00521499999999997,0.9991055370304804,0.9455089663765122,double,-0.903881
38,0.316667,walk,0.026277897768179997,-0.02951763858890927,-0.006839452843769386,0.031977633839360656,0.014225267280597975,0.14084245565290546,-0.000479961603072237,0.0005999520038436266,0.0004799616030718207,0.0016798656107511643,0.0,0.0007199424046075229,1.5403599888021133,-0.6763478942515774,-0.2734905731311768,-0.11518848138237955,0.07198848138272498,0.08638963324406998,0.08637235531737264,0.04319827220698978,0.20158157021162915,0.021777999999999992,-0.05903499999999995,-0.909035,-0.09062400000000001,0.15388900000000005,-0.903818,0.112402,0.212924,0.005217000000000027,0.998490153900629,0.944783934442899,double,-0.903818
39,0.325,walk,0.027001080043200308,-0.030241209648389406,-0.006960278411136715,0.04268961989010333,-0.025637529993201052,0.1610596616131005,-0.0007200288011527632,0.0,0.0004800192007680924,0.0006000240009598033,0.0003600144005730508,0.0006000240009602196,0.08678534441621365,-0.08683200041763259,-0.01449964807000223,-0.028809216138308558,-0.07199712034604874,6.912000032603293e-06,-0.12958617662202765,0.04320345620701419,-0.014390784069039098,0.021546999999999997,-0.05878299999999992,-0.908973,-0.090844,0.15414400000000006,-0.9037550000000001,0.11239099999999999,0.21292699999999998,0.005217999999999945,0.9985577217986853,0.9462837093988042,double,-0.9037550000000001
40,0.333333,walk,0.028801152046082405,-0.027361094443778537,-0.0016800672026964535,-0.0005040173600340545,0.009974690258391468,0.11269113998358875,0.0,0.00012000480018213558,0.0006000240009598073,0.001320052802112159,-0.0001200048001954588,0.00024000960038383963,0.21601728103709367,0.3456276496592915,0.6336506910404746,0.0864069124148284,0.014401152067939023,0.01440115206908859,0.08640691241477949,-0.05760460827655236,-0.043203456207414004,0.021306999999999993,-0.058553999999999995,-0.908954,-0.091073,0.15437100000000004,-0.903739,0.11238,0.21292500000000003,0.005215000000000081,0.9989801553034972,0.9456049157645656,double,-0.903739
41,0.341667,walk,0.026397888168946216,-0.026997840172776517,-0.006959443244540729,0.028319410157642222,0.02073459447569802,0.11337817932366442,-0.00035997120230417536,-0.00035997120230084497,0.0007199424046079344,0.0010799136069112771,-0.0004799616030722338,0.0007199424046075181,-0.28836859576868096,0.04358702555819768,-0.6334744470655471,-0.04319308882939465,-0.05759251289692585,0.01438905731319018,-0.02881439827224401,-0.04319136103633005,0.057587329520479714,0.02108399999999999,-0.05833200000000005,-0.90889,-0.091284,0.15459199999999995,-0.903675,0.112368,0.212924,0.00521499999999997,0.9985304237204338,0.9455436719873069,double,-0.903675
42,0.35,walk,0.029161166446658792,-0.027001080043205485,-0.006960278411136762,0.02153517131109208,0.05114904701452489,0.11066859970083533,-0.00048001920076518116,-0.0001200048001954588,0.0003600144005759676,0.0010800432017283193,0.00036001440057305316,0.0006000240009602237,0.3316066575918136,-0.0003888000034761941,-0.00010022400048400614,-0.014406336068763482,0.02879712013745191,-0.043193088207364415,1.555200012506464e-05,0.10080115248353402,-0.014390784069038126,0.02083700000000001,-0.05810800000000005,-0.908829,-0.091518,0.15481999999999996,-0.903612,0.11235500000000001,0.212928,0.005217000000000027,0.9989801553034963,0.945685153147174,double,-0.903612
43,0.358333,walk,0.030361214448578203,-0.029041161646461474,0.0007200288011594248,-0.05091761256031094,0.12887228626471187,0.11362533424171621,0.0,-0.0007200288011461016,-0.0002400096003842544,0.0004800192007680924,-0.0003600144005730508,0.0007200288011519304,0.14401152069115639,-0.24481958517412467,0.9216737324248355,0.05760460827615255,-0.07200576034449062,-0.07200576034564017,-0.07200576034564075,-0.08640691241402867,0.014401152069087517,0.020584000000000005,-0.057872000000000035,-0.908837,-0.091767,0.15505899999999995,-0.9036120000000001,0.112351,0.21293099999999998,0.005224999999999924,0.9987350383374753,0.9461878875803238,double,-0.9036120000000001
44,0.366667,walk,0.03179745620350218,-0.02615790736741676,0.003359731221492315,-0.07090879593256726,0.08471941508000898,0.11799858258782481,-0.0008399328053764092,-0.0004799616030722338,0.0004799616030718175,0.0010799136069112771,0.00035997120230084497,0.0002399808015361169,0.17233522377297544,0.3459628364584485,0.31673895132384056,-0.10078387393525418,0.028805759308119454,0.08638963324406902,0.07198157021156518,0.08639136103598453,-0.057601151861748634,0.02031200000000001,-0.05765799999999999,-0.9088609999999999,-0.092023,0.15527999999999997,-0.9036379999999999,0.112335,0.21293799999999996,0.005222999999999978,0.9982001439884794,0.9458310831703816,double,-0.9036379999999999
45,0.375,walk,0.02976119044761943,-0.030361214448571743,-0.007320292811709816,0.023907679347978737,0.0016865666745993243,0.1256440263329305,-0.000120004800192128,-0.00036001440057305316,-0.00024000960038383963,0.0007200288011519352,0.000960038401537024,-0.0006000240009602237,-0.24436166517253766,-0.5044170264196559,-1.2816541501502647,0.08639481641477055,0.014394240069504493,-0.08640000041469567,-0.04318790420728943,0.0720109443461155,-0.10080460848390047,0.020062999999999998,-0.057408000000000015,-0.908802,-0.09226500000000001,0.15554099999999993,-0.903582,0.11232800000000001,0.21294899999999994,0.005220000000000002,0.9992516385881929,0.9455638425762021,double,-0.903582
46,0.383333,walk,0.031321252850113765,-0.03492139685587927,-0.013440537621505011,0.04949579327099545,0.0455160701316406,0.13927750297021127,-0.00060002400096064,-0.0006000240009639708,0.0007200288011519352,0.000240009600384256,0.0021600864034649653,0.0006000240009602237,0.18721497689839647,-0.5472437786280497,-0.7344587555256463,-0.057604608276552643,-0.028802304139075748,0.11520921655295539,-0.05760460827645271,0.144011520692181,0.14401152069128167,0.019796999999999995,-0.057122000000000006,-0.9086839999999999,-0.092524,0.15585000000000004,-0.903465,0.112321,0.21297200000000005,0.005218999999999974,0.9981452021089813,0.9440521908420083,double,-0.903465
47,0.391667,walk,0.034557235421165865,-0.02915766738660823,-0.0044396448284081715,-0.044591860915038195,0.049349204802211145,0.08009630959921907,-0.0007199424046083507,-0.00011999040077138885,0.000959923206143635,-0.0002399808015361169,0.002519798416119236,0.00035997120230375903,0.3882868455786053,0.6915922089358094,1.0800207335129388,-0.014389057313140224,0.05759942406918424,0.028785025796940197,-0.057594240691189395,0.04316198855942769,-0.028804031516254425,0.019502999999999993,-0.05688000000000004,-0.908639,-0.09281400000000001,0.15611399999999998,-0.903425,0.112317,0.21299400000000002,0.005213999999999941,0.9979901856609215,0.9435988857386206,double,-0.903425
48,0.4,walk,0.03324132965318592,-0.028921156846279338,-0.0019200768030740352,-0.07266409047017326,0.11749607480167804,0.09090546712304419,0.0,0.000120004800195458,0.00024000960038383804,-0.0009600384015357685,0.0031201248049886453,0.0,-0.1579150087579428,0.028382400135472285,0.30236025745039313,0.08639654441477831,0.028800576139067065,-0.08639308841471187,-0.08641036841469442,0.07204204834626267,-0.0431982722073392,0.019225999999999993,-0.056637999999999966,-0.908621,-0.093099,0.156381,-0.903409,0.112325,0.21301899999999996,0.005211999999999994,0.9995527685152383,0.9424391941642782,double,-0.903409
49,0.408333,walk,0.03060122404896266,-0.028681147245888612,-0.003600144005757178,-0.02065914635533342,0.06011653438147717,0.0715706562045218,0.000480019200768512,-0.0001200048001954588,0.000120004800192128,0.00024000960038383963,0.003480139205575043,0.0006000240009598073,-0.31682534552061303,0.028802304139052763,-0.20161612896713635,0.057604608276552643,-0.02880230413907565,-0.014401152069088003,0.14401152069118098,0.043203456208616146,0.07200576034559088,0.018974999999999992,-0.056400000000000006,-0.90859,-0.093352,0.15664900000000004,-0.903374,0.112327,0.21304900000000004,0.005215999999999998,0.9991514379200908,0.9419406115429496,double,-0.903374
50,0.416667,walk,0.04499640028797696,-0.02603791696664537,-0.01235901127910669,0.02265913289530659,-0.008468754064888066,0.054483339135544644,-0.0004799616030722338,-0.00011999040075806724,0.0004799616030718175,-0.0021598272138229706,0.0047996160307090165,0.0010799136069116935,1.7272829660444309,0.31716226052834656,-1.0509799944023883,-0.11518848138237879,1.7277942634460501e-06,0.04319136103667977,-0.28795738111432784,0.15832455305183255,0.05758214614253488,0.018595999999999988,-0.0561839999999999,-0.9084829999999999,-0.09374500000000001,0.156906,-0.903262,0.112341,0.2130899999999999,0.00522099999999992,0.9988511793763446,0.9388352711074288,double,-0.903262
51,0.425,walk,0.045241809672387286,-0.027961118444729184,0.00648025921036825,-0.09389006856501399,-0.006966342436652094,0.06122231405496157,-0.00060002400096064,0.00012000480018213558,0.0006000240009598073,-0.0037201488059522207,0.00540021600864909,0.0,0.02945030414140473,-0.23079340910642263,2.2608028908526325,-0.014408064069171545,0.028800576135869844,0.014408064069121576,-0.18724608089874642,0.07207488034802295,-0.12959481662206843,0.01821399999999998,-0.055950000000000055,-0.908532,-0.09415300000000001,0.157184,-0.903316,0.112367,0.21313400000000005,0.005215999999999998,0.9985716571805805,0.9369107019542147,double,-0.903316
52,0.433333,walk,0.03300132005280167,-0.02784111364454686,0.002880115204611053,-0.06186478630723439,0.15573580014622926,0.004493571061282659,0.0002400096003842544,-0.0009600384015370176,-0.00012000480019171084,-0.0045601824072962534,0.007200288011514309,0.0008400336013440577,-1.4689175110507093,0.014401152067961434,-0.4320345620733448,0.10080806448396626,-0.1296103686210427,-0.0864069124146784,-0.10080806448386286,0.2160172810350667,0.10080806448386585,0.017940999999999985,-0.05572600000000005,-0.908557,-0.09446600000000001,0.15747599999999995,-0.9033329999999999,0.11240699999999999,0.213202,0.005224000000000006,0.9983386087717656,0.9334863775243402,double,-0.9033329999999999
53,0.441667,walk,0.04031677465802628,-0.028797696184307577,-0.0021598272138184057,-0.04897568993058121,0.10970871297211349,0.01446842465722629,-0.000719942404605025,0.0005999520038436266,0.0014398848092150459,-0.005759539236861015,0.008399328053757487,0.0007199424046075229,0.8777843298805672,-0.11478072231350152,-0.6047447106346876,-0.11518502579665045,0.18718387393576352,0.18717177938646096,-0.14391130664324078,0.14387329520556583,-0.014409790825118242,0.017599000000000017,-0.055481,-0.908527,-0.09484999999999999,0.15778599999999998,-0.903309,0.11244900000000001,0.21326699999999998,0.005217999999999945,0.9971366648541562,0.9308037233931801,double,-0.903309
54,0.45,walk,0.03672146885875428,-0.03312132485300046,-0.0033601344053795614,0.010166689412281755,0.20968486472329254,-0.048410282840645844,0.0,0.0006000240009639668,0.0001200048001921272,-0.006360254410176496,0.011400456018248753,0.0016800672026881154,-0.4314539540708005,-0.5188561944909237,-0.14404262469232576,0.08639654441437922,8.640000040814291e-06,-0.15839193676022,-0.07208870434603123,0.36014976172941954,0.11521958455305273,0.017293000000000017,-0.055199999999999916,-0.908498,-0.09520899999999999,0.1581570000000001,-0.903267,0.11250200000000002,0.21335700000000002,0.005230999999999986,0.9989801553034872,0.9257528511809217,double,-0.903267
55,0.458333,walk,0.04368174726989129,-0.03696147845913545,-0.0010800432017324826,0.004241678360807086,0.1312085715930194,-0.01258799475022393,-0.000240009600384256,-0.0008400336013415652,0.001320052802112159,-0.008040321612864249,0.011640465618613099,0.0015600624024959984,0.8352668200092432,-0.4608368662108482,0.2736218893132227,-0.028802304138276322,-0.17281382482965746,0.14401152069123183,-0.2016161289676895,0.028802304135887045,-0.014401152069136834,0.01692700000000001,-0.05489899999999992,-0.9084779999999999,-0.09564,0.15856199999999998,-0.903245,0.112567,0.2134609999999999,0.005232999999999932,0.9973617132768785,0.923948174246061,double,-0.903245
56,0.466667,walk,0.039716822654187384,-0.039596832253412664,0.0002399808015427777,-0.06027037528380396,0.16712537267220476,-0.030576947215960545,0.00011999040076805845,0.0,0.00035997120230375903,-0.009119270458363284,0.01235901127910669,0.00035997120230375903,-0.475752893652976,-0.31621715794063004,0.15839020917629698,0.043196544414724515,0.10079596848350905,-0.11520057593093341,-0.12946350437953372,0.08621858177268907,-0.14399942406914307,0.016597000000000015,-0.05456899999999998,-0.908477,-0.096047,0.158995,-0.903244,0.11264400000000001,0.21356399999999998,0.005232999999999932,0.9993675950603615,0.922064237152745,double,-0.903244
57,0.475,walk,0.04056162246489929,-0.049801992079689814,0.011040441617662452,-0.1177786891847243,0.22465721455640153,-0.00743849072586839,-0.002160086403458304,-0.0031201248050019893,-0.004920196807872252,-0.009720388815552792,0.013680547221882607,0.002640105604224318,0.10138003248672862,-1.2246681658798961,1.296107142220053,-0.2736201613136167,-0.37442995379839156,-0.6336455070414045,-0.07213708834627502,0.15859065675938078,0.2736270733134003,0.01624099999999999,-0.054180000000000006,-0.90861,-0.096466,0.159524,-0.903314,0.11270699999999999,0.213704,0.005296000000000078,0.9896439109836304,0.9187256196421745,double,-0.903314
58,0.483333,walk,0.054482179287170786,-0.046321852874114465,0.01920076803072703,0.04034543568074336,0.0347212457232585,-0.11991696719004799,-0.000600024000960636,-0.0019200768030740352,-0.0002400096003842544,-0.011160446417856587,0.018360734429385468,0.002880115204608138,1.6705336400181732,0.4176334100054403,0.9792783407013731,0.18721497689879535,0.14401152069218157,0.5616449306957851,-0.17281382482944788,0.5616449306975688,0.028802304138223826,0.01578199999999999,-0.053810000000000024,-0.908772,-0.09701299999999999,0.16006300000000007,-0.9034500000000001,0.11279499999999998,0.2138730000000001,0.005321999999999938,0.9966234763358233,0.9106487886299546,double,-0.9034500000000001
59,0.491667,walk,0.04103671706263602,-0.05471562275018137,0.0008399328053730787,-0.009589430383265787,0.17231699667361752,-0.1128747232976656,-0.0005999520038369618,-0.0009599232061444676,0.0004799616030718175,-0.011399088072954313,0.013198944084466447,0.002279817614591029,-1.6133264008321035,-1.0071718113831165,-2.203123977124302,8.638963723798395e-06,0.11520921489435645,0.08638963324406902,-0.028634707835100234,-0.6193652921669086,-0.07202994840618052,0.015435000000000004,-0.05336200000000002,-0.908775,-0.09745000000000001,0.16062900000000002,-0.903438,0.11288500000000001,0.21399100000000004,0.005337000000000036,0.9979507737849063,0.9173161379873105,double,-0.903438
60,0.5,walk,0.03420136805472151,-0.06060242409696135,-0.003840153606148096,-0.08645760911177766,0.18951403190009788,-0.07788285506647694,-0.001080043201729152,-0.0014400576022922126,0.0016800672026881264,-0.008520340813632345,0.016080643225725166,0.004920196807872252,-0.8202746919374212,-0.7064444193903754,-0.5616328346959302,-0.05761324827699404,-0.05761843227502055,0.14401843269126507,0.3454634896582233,0.3458177296602336,0.3168581775208483,0.015141000000000002,-0.052868999999999944,-0.908729,-0.097806,0.16126799999999997,-0.903365,0.11294699999999999,0.2141369999999999,0.005364000000000035,0.9958961789414318,0.9149402773032913,double,-0.903365
61,0.508333,walk,0.03756150246009917,-0.05892235689427783,-0.0004800192007685088,-0.05403357279140793,0.17583767243880494,-0.07954860776318455,-0.0019200768030707043,-0.002880115204611053,0.0,-0.009720388815552726,0.01788071522861696,0.0061202448097922415,0.4032322579356353,0.20161612896718062,0.4032322579358662,-0.1008080644835652,-0.17281382483125335,-0.20161612896773304,-0.14401152069127277,0.21601728103825593,0.14401152069122583,0.014812000000000006,-0.05240199999999995,-0.908725,-0.09820000000000001,0.16190800000000005,-0.90331,0.11301200000000002,0.21431,0.005415000000000059,0.9942308871947427,0.9104293793444723,double,-0.90331
62,0.516667,walk,0.034077273818093855,-0.06371490280776952,0.0033597312215056588,0.006656611124484687,0.21869079370683417,-0.13579947869961503,-0.00311975041996621,-0.0035997120230351165,0.0007199424046075229,-0.008399328053755822,0.019678425725935075,0.007679385649148299,-0.4180739911213506,-0.5750595048586179,0.46073319201754137,-0.14394931808201494,-0.0863447106340374,0.08638617765869055,0.15851461024680963,0.21570800303793197,0.1870819341679945,0.014502000000000015,-0.051900999999999975,-0.908747,-0.098554,0.16260299999999994,-0.903274,0.11305600000000002,0.21450399999999992,0.00547299999999995,0.9919706983841794,0.9073826628177516,double,-0.903274
63,0.525,walk,0.04452178087123422,-0.0699627985119402,0.01644065762629811,-0.022721599360744898,0.21656367593199946,-0.11443514638625002,-0.0030001200048031798,-0.004920196807880545,0.0010800432017283122,-0.007320292811712264,0.01920076803072703,0.006480259210368207,1.2533909820161193,-0.7497774755995028,1.5697739595334692,0.014356224068526302,-0.15846451276196127,0.04321382420746282,0.12948940862157127,-0.05732121627361632,-0.14390092869075807,0.014105999999999994,-0.051359000000000044,-0.908875,-0.09898599999999999,0.163346,-0.903357,0.11309199999999998,0.21470500000000003,0.005518000000000023,0.9902282223286341,0.9089092333054495,double,-0.903357
64,0.533333,walk,0.056282251290053445,-0.07044281771270966,-0.0016800672026831415,0.015039126925301122,-0.01374980436264458,-0.08010088669415463,-0.0020400816032628585,-0.007080283211332268,0.00012000480019171244,-0.006240249609984452,0.022680907236289027,0.010080403216128827,1.4113129027744309,-0.05760460827666617,-2.1745739624362677,0.11520921655350175,-0.2592207372436989,-0.11520921655305515,0.12961036862208358,0.41763341000384374,0.4320345620737613,0.013619999999999993,-0.05083100000000007,-0.90886,-0.09950700000000001,0.164122,-0.903259,0.113127,0.21495300000000006,0.005600999999999967,0.98771781501832,0.9013357440818296,double,-0.903259
65,0.541667,walk,0.05027597792176453,-0.07439404847612914,0.008039356851456533,0.025306796419365687,0.10188473255445779,-0.016856466781493027,-0.004079673626110629,-0.009479241660659903,-0.0009599232061432123,-0.0028797696184304695,0.01523878089752667,0.009119270458363223,-0.7206951485827774,-0.47410976282930767,1.1662375874897528,-0.24473146422459266,-0.2878519857604531,-0.12958099428064754,0.40322534095919804,-0.8929837219537198,-0.11532670479548793,0.013166999999999998,-0.050289999999999946,-0.908935,-0.09995,0.16486900000000004,-0.90325,0.113117,0.215159,0.005685000000000051,0.9827259658640759,0.9131650681364217,double,-0.90325
66,0.55,walk,0.05124204968198835,-0.06924276971078078,0.01392055682227343,0.12922095733490485,0.09791915568179865,-0.09825305704514081,0.0008400336013448903,-0.007440297611905225,0.007440297611904392,-0.0021600864034562075,0.01488059522381045,0.013440537621504923,0.11593324855680022,0.6181781789689598,0.7057722273871202,0.5903884828339733,0.2446830731734873,1.0080668208385417,0.08636544041452765,-0.042984000205954505,0.5185728024891014,0.012746999999999994,-0.049775000000000014,-0.908989,-0.10039500000000001,0.16557,-0.903254,0.11314199999999999,0.215345,0.005735000000000046,0.9824072526339513,0.9090367528164376,double,-0.903254
67,0.558333,walk,0.05520220808832262,-0.07884315372615201,-0.0019200768030740608,0.014433084986708184,0.07146994968884347,-0.06244913272656878,-0.0013200528021134166,-0.01044041761669855,0.0026401056042243353,0.0013200528021121676,0.014160566422651212,0.013920556822272783,0.475238018280848,-1.15209216553118,-1.9009520731246414,-0.25922073724448896,-0.3600288017272715,-0.5760460827649226,0.417633410004609,-0.08640691241560589,0.05760460827647486,0.012275999999999995,-0.04920499999999994,-0.9089510000000001,-0.10084399999999999,0.16634499999999997,-0.903122,0.11311999999999998,0.2155499999999999,0.005829000000000084,0.9819172414059926,0.9085418223521398,double,-0.903122
68,0.566667,walk,0.04511639068874471,-0.07991360691143981,0.006479481641468453,0.10335813844780234,0.10711810190960044,-0.06203771869312203,-0.0076793856491456985,-0.011999040076805766,-0.0020398368130553146,0.003359731221502284,0.013918886489081366,0.019078473722102016,-1.210201271847592,-0.1284441067059983,1.0078663840343711,-0.7630588969321134,-0.18701973363417368,-0.561548166220256,0.24474183098033364,-0.028999272086614403,0.618900515938228,0.011836000000000013,-0.0486390000000001,-0.909022,-0.10119199999999999,0.16712699999999991,-0.9030170000000001,0.113028,0.215766,0.006004999999999927,0.9760144221031221,0.9001934018564351,double,-0.9030170000000001
69,0.575,walk,0.04992199687987561,-0.08256330253210467,-0.006840273610941349,0.22099496593617912,-0.09189182339298814,-0.04243223523630932,-0.003600144005760533,-0.011280451218040121,-0.0037201488059522454,0.01044041761670438,0.008640345613833273,0.0229209168366737,0.576695810768144,-0.31797619352752726,-1.5984345676718976,0.4895285783493583,0.0862341124163748,-0.20164550496783226,0.8497163560785025,-0.6334502430394985,0.4611116182133347,0.011390000000000011,-0.048045000000000004,-0.908996,-0.101521,0.167887,-0.902769,0.11291100000000001,0.215932,0.0062269999999999825,0.9793139121037011,0.8933507530679726,double,-0.902769
70,0.583333,walk,0.04824192967718684,-0.09132365294611887,-0.0016800672026964422,0.0932043831710155,0.11859466102110472,-0.00509032798236635,-0.006720268810752461,-0.004920196807880545,-0.0007200288011519304,0.018000720028801175,0.00972038881555231,0.027721108844353904,-0.20161612896781098,-1.0512841010457412,0.619249538970945,-0.37442995379718175,0.7632610596615323,0.3600288017281054,0.9072725803548256,0.12961036862102868,0.5760460827649329,0.010932000000000011,-0.04732500000000006,-0.908988,-0.101773,0.16872900000000002,-0.902524,0.112705,0.21605400000000008,0.006464000000000025,0.9860667473096892,0.8779392392402723,double,-0.902524
71,0.591667,walk,0.04127669786417187,-0.09011279097672803,0.0035997120230350688,0.03574888190760621,0.17387698993841522,-0.00914905943917065,-0.0044396448284148024,-0.007439404847612913,-0.0014398848092150266,0.02771778257739384,0.0009599232061444612,0.03191744660427128,-0.8357609566852552,0.14529181298186103,0.6335228252617555,0.2736529856416657,-0.3022807823052974,-0.08637581090269866,1.1659542294927516,-1.051171779386583,0.5035202495701158,0.010550999999999991,-0.04663600000000001,-0.90903,-0.101886,0.16948800000000008,-0.902288,0.112437,0.2161240000000001,0.006742000000000026,0.9853628650578813,0.8621069885916546,double,-0.902288
72,0.6,walk,0.04176167046681919,-0.09168366734669313,-0.004320172806903313,0.1469115319179757,0.044056003759878566,-0.015621539547112255,-0.0044401776071054345,-0.006120244809781915,-0.0004800192007680988,0.04404176167046713,-0.007320292811723187,0.034921396855874504,0.05819904027929024,-0.18851270490400976,-0.9504241965604769,-6.393600031586245e-05,0.15830553676119172,0.11518848055285451,1.958955849402789,-0.9936656687708777,0.36048844973037925,0.01016599999999998,-0.045922999999999936,-0.908998,-0.10186700000000001,0.17019099999999998,-0.901961,0.112033,0.21611399999999992,0.00703699999999996,0.9873725396074655,0.8351612012671046,double,-0.901961
73,0.608333,walk,0.04344173766950508,-0.0969638785551322,-0.002760110404415595,0.1578044566083876,0.040664621040040434,0.015290790940676334,-0.004080163206525663,-0.00552022080883119,-0.0002400096003842544,0.03768150726029005,-0.002760110404415595,0.0608424336973477,0.20161612896746456,-0.6336506910403267,0.1872149768976013,0.043203456207820685,0.07200576034450047,0.028802304138226736,-0.7632610596636332,0.5472437786280538,3.110648846930648,0.009770000000000015,-0.04516100000000001,-0.908977,-0.10191499999999999,0.1709759999999999,-0.901431,0.111685,0.2161369999999999,0.007546000000000053,0.9885522716738677,0.8051745953586681,double,-0.901431
74,0.616667,walk,0.03995680345572376,-0.09851211903048672,0.003839692824564574,0.20580909201385839,0.04417688375653171,0.035499900633457655,-0.00479961603071904,-0.0026397888169039643,0.0038396928245741494,0.05075593952483828,-0.014278857691382398,0.07403407727381846,-0.41815865296152316,-0.18577399512293433,0.79191303443487,-0.08632743270858899,0.34562418909614134,0.48952512898469247,1.5688063672364174,-1.3821391033077597,1.5828705995285375,0.009397000000000003,-0.04436200000000001,-0.9089769999999999,-0.101825,0.171678,-0.9008459999999999,0.111222,0.21604,0.008131,0.9888510040278566,0.7672057161451548,double,-0.9008459999999999
75,0.625,walk,0.03612144485779531,-0.09264370574822893,-0.006120244809781833,0.20680890024632917,0.08775984488188378,-0.0040373904135745375,-0.0037201488059526123,-0.004680187207489629,0.006480259210368623,0.053642145685827564,-0.02148085923436079,0.08340333613344512,-0.46026144220910087,0.704237763381467,-1.1952403257345932,0.12954124862191563,-0.24485760117432576,0.3168806415209964,0.34635859366245947,-0.8642747561476493,1.1243560373966912,0.00906499999999999,-0.04362900000000003,-0.908872,-0.101679,0.17227100000000006,-0.9001,0.110744,0.2159000000000001,0.008772000000000002,0.9853051956584471,0.7431726739101401,double,-0.9001
76,0.633333,walk,0.03396135845433702,-0.09492379695187601,-0.008640345613833159,0.24401230528693774,0.041508945988020914,0.0449717394083801,-0.00720028801152097,0.0006000240009639668,-0.0021600864034562075,0.05640225609024316,-0.018840753630153976,0.08244329773190895,-0.259220737244483,-0.2736218893132214,-0.30242419345389593,-0.41763341000460136,0.6336506910420706,-1.0368829489769344,0.3312264975897735,0.316825345518637,-0.11520921655300272,0.008721999999999994,-0.04283300000000001,-0.908818,-0.101492,0.17290499999999998,-0.899341,0.11021399999999999,0.21573799999999999,0.009477000000000069,0.9874312833766417,0.7358103547537316,double,-0.899341
77,0.641667,walk,0.0328773698104166,-0.0999520038396901,-0.004079673626107353,0.2277381575881893,0.15360655004374554,0.06075852706220666,-0.00935925125989863,-0.0017998560115175582,0.0025197984161267465,0.08459323254139726,-0.030597552195825134,0.10535157187425069,-0.13006823181190677,-0.6033365596129256,0.5472368595783335,-0.2590548654160873,-0.28796256449262525,0.5615412550495538,3.382646562413519,-1.4107029716428157,2.7487729952414055,0.008369999999999989,-0.042015000000000025,-0.908763,-0.10106100000000001,0.17348299999999994,-0.898429,0.109431,0.21549799999999997,0.010333999999999954,0.9835696377038301,0.6657729491591508,double,-0.898429
78,0.65,walk,0.03996159846393839,-0.09504380175207147,-0.011640465618626345,0.19360176745584434,-0.1054284303429836,0.06199294641453912,-0.010440417616705073,-0.0006000240009639668,0.0015600624024959882,0.0928837153486136,-0.01728069122763967,0.1430457218288724,0.8501414440803745,0.5890078108266668,-0.9073313323555695,-0.12974515262287759,0.143985600690458,-0.11517292855283262,0.9948977327752673,1.598087239671836,4.523478933711935,0.007949999999999985,-0.04122800000000004,-0.9086529999999999,-0.10062,0.17413100000000004,-0.8971399999999999,0.10856999999999999,0.21535900000000008,0.011512999999999995,0.9823777174267744,0.5991541086760679,double,-0.8971399999999999
79,0.658333,walk,0.018840753630144237,-0.09960398415936697,0.010080403216125496,0.20582030230533277,0.20163835074871533,0.04457348630454431,-0.009120364814591796,-0.0022800912036471162,-0.0015600624024960088,0.10764430577223169,-0.027961118444742694,0.1584063362534518,-2.534602764165888,-0.5472437786266099,2.606608524511225,0.15841267276050514,-0.20161612896713846,-0.37442995379719496,1.771341704502367,-1.281702534153741,1.843347464848138,0.007717000000000002,-0.040417000000000036,-0.90875,-0.09988,0.174728,-0.8959039999999999,0.107597,0.21514500000000003,0.012846000000000024,0.9841172993351016,0.5489562982215646,double,-0.8959039999999999
80,0.666667,walk,0.03863690904727793,-0.08999280057595664,-0.009359251259888514,0.1660052992297993,-0.10301903431087253,0.1528814630502374,-0.00863930885529016,-0.0008399328053730732,-0.00035997120230375665,0.12155027597792084,-0.02591792656587381,0.16870650347972005,2.3753486221662516,1.1532497700276285,-2.3325719313671542,0.057722097348407976,0.1728051833782136,0.14399942406914365,1.6685829380476414,0.24516341239127287,1.2359211934567045,0.007322999999999996,-0.03967399999999999,-0.908675,-0.09918900000000001,0.17526200000000003,-0.89442,0.10651200000000001,0.21493600000000002,0.014255000000000018,0.9855208268459368,0.5082123667021443,double,-0.89442
81,0.675,walk,0.026521060842433462,-0.08388335533421364,-0.005640225609026647,0.26317112428586936,0.06972968086021461,0.06408959932860563,-0.008760350414018623,-0.002880115204611053,-0.0019200768030723696,0.15144605784231296,-0.03864154566183165,0.2071282851314042,-1.453959942979049,0.7331627555193784,0.44630093014062777,-0.014525568070138347,-0.24483168117580356,-0.18722016089866872,3.587637329220209,-1.5268953673296277,4.610798230131283,0.00702899999999998,-0.038999000000000006,-0.908644,-0.09814800000000001,0.175639,-0.892647,0.10517699999999999,0.214638,0.01599700000000004,0.984300964476022,0.4075590504663641,single,-0.892647
82,0.683333,walk,0.035041401656064966,-0.08292331693267772,-0.002400096003842576,0.22320981386998173,0.0632373867609471,0.04633762141560319,-0.011400456018238912,-0.003840153606134798,-0.0027601104044160476,0.16656666266650821,-0.042121684867393906,0.21636865474619255,1.022481796907666,0.11520921655297262,0.38883110586632674,-0.3168253455202583,-0.11520921655151253,-0.10080806448382164,1.814545160709875,-0.41763341000387455,1.108888709322986,0.006642000000000009,-0.03833999999999993,-0.908647,-0.097052,0.175979,-0.890824,0.10369400000000001,0.21431899999999993,0.017823000000000033,0.9794292962776971,0.3612929399953075,single,-0.890824
83,0.691667,walk,0.05015598752099814,-0.07595392368610389,-0.011279097672190758,0.22583819340883926,-0.2290064747667038,0.10937269534960274,-0.011879049676027716,-0.0077993760499270775,0.000239980801535699,0.17914566834653106,-0.045836333093351396,0.20542356611470905,1.813605215374737,0.8362602887657525,-1.0653949686042854,-0.05742664480307176,-0.47506868776004907,0.35998214614251545,1.5093599328081055,-0.4457221293445478,-1.313305571332303,0.0061249999999999916,-0.03777200000000003,-0.908551,-0.095977,0.17623,-0.889018,0.102102,0.21400200000000003,0.019533000000000023,0.9763122348294633,0.34401532868350704,single,-0.889018
84,0.7,walk,0.04644185767430721,-0.06576263050521997,-0.024720988839545224,0.2843150164063795,-0.15043761646355902,0.06709505250059544,-0.01068042721708614,-0.0064802592103682935,-0.0034801392055679877,0.18096723868954953,-0.029401176047034915,0.20844833793351872,-0.44571341013932114,1.2230041018701567,-1.6130914637411002,0.143840448690938,0.15830035276116597,-0.44643225814277215,0.2185971850496203,1.9722977374674944,0.3629871377426732,0.005649000000000015,-0.03727800000000003,-0.908374,-0.094856,0.17653300000000005,-0.8870750000000001,0.10050500000000001,0.21381100000000008,0.021298999999999957,0.9783861763715409,0.32433576789592156,single,-0.8870750000000001
85,0.708333,walk,0.05928237129485088,-0.05628225129004437,-0.005400216008649055,0.19004545195868275,-0.04673205173926442,0.04206262668972931,-0.00972038881555564,-0.005760230409208782,-0.0032401296051845197,0.2253690147605892,-0.04116164646586965,0.22104884195367763,1.5409232713960899,1.1376910134616054,2.318585483126856,0.11520921655232158,0.08640691241563762,0.028802304138181568,5.328426265575362,-1.4113129027762734,1.5121209672577538,0.005073999999999995,-0.03685700000000003,-0.9083559999999999,-0.093472,0.1766589999999999,-0.885188,0.098546,0.21351599999999993,0.023167999999999966,0.9804094231161491,0.26832,single,-0.885188
86,0.716667,walk,0.06263498920086281,-0.04379649628030441,-0.026757859371246882,0.4417031875795286,-0.2727441272134925,-0.011619471576408916,-0.008399328053754044,-0.009359251259901835,-0.005519558435324824,0.25425965922726024,-0.036237101031906783,0.2481401487880951,0.4022819661641359,1.4981707475089832,-2.562712186536797,0.15851461024737057,-0.4318479542468233,-0.27350957885052635,3.466600007999857,0.590898180221122,3.2506967643889193,0.004482000000000014,-0.03656999999999999,-0.908179,-0.09187499999999998,0.17672200000000005,-0.882897,0.096357,0.21329200000000004,0.025281999999999916,0.9771107848526915,0.24718,single,-0.882897
87,0.725,walk,0.08232329293172042,-0.03300132005280544,0.009960398415943358,0.3308192673347989,0.17145062257836924,0.01727417720235353,-0.012360494419775943,-0.013920556822273616,-0.003960158406336503,0.2971318852754136,-0.04020160806433317,0.23412936517460928,2.3626909553411473,1.2954729662185367,4.406367189150435,-0.4753589782817635,-0.5473785626271238,0.18713548889815618,5.144872920695281,-0.47575987428614225,-1.681361288069836,0.003693000000000002,-0.03641099999999997,-0.9082950000000001,-0.090085,0.17666199999999999,-0.8810290000000001,0.093778,0.21307299999999996,0.027266000000000012,0.9682787059275662,0.22734,single,-0.8810290000000001
88,0.733333,walk,0.09036361454458185,-0.02616104644185042,-0.032881315252609546,0.622446936517916,-0.5472449591942226,-0.07058833292923228,-0.002640105604226798,-0.01608064322572506,-0.010680427217088496,0.3616944677787091,-0.03636145445817124,0.25249009960398333,0.964877188630913,0.8208656679413167,-5.141211288677874,1.1664933175985965,-0.2592207372436618,-0.8064645158708706,7.747819813187955,0.4608368662140785,2.2033762665755403,0.002917999999999976,-0.036327,-0.9081100000000001,-0.08782400000000001,0.17657699999999998,-0.8786510000000001,0.09074199999999999,0.21290399999999998,0.029459000000000013,0.9675265591558078,0.20540999999999998,single,-0.8786510000000001
89,0.741667,walk,0.09779217662586838,-0.02975761939045205,-0.006839452843782708,0.23274404680457556,-0.001697415294932723,-0.011237271388678666,0.0011999040076805924,-0.009599232061444739,-0.005399568034557254,0.41756659467242907,-0.019678425725948395,0.2850971922246232,0.8913561412630879,-0.4315542294938386,3.124773507178664,0.46076429228550664,0.7777071231437913,0.6336524097109757,6.704118897734614,2.0018033036024643,3.912538111427893,0.0021130000000000038,-0.03615900000000005,-0.908098,-0.08515899999999998,0.17666099999999996,-0.8762179999999999,0.08727199999999999,0.21282,0.03188000000000002,0.9815352918640173,0.18120000000000003,single,-0.8762179999999999
90,0.75,walk,0.08892355694227964,-0.007800312012478276,-0.039601584063355344,0.5602893365037296,-0.4922449197182182,-0.1180157074743187,-0.0018000720028785772,-0.0007200288011461016,0.00132005280211215,0.5071402856114224,-0.01812072482899455,0.28753150126004945,-1.0642769331079682,2.634982284648228,-3.931613010869135,-0.36001152172796796,1.0655470131163567,0.80638675587056,10.749272883594504,0.18693158489785633,0.2921287694019238,0.001356999999999997,-0.03610000000000002,-0.907757,-0.08167400000000001,0.17657499999999993,-0.873492,0.08303100000000001,0.21267499999999995,0.03426499999999999,0.9960908795780496,0.15735,single,-0.873492
91,0.758333,walk,0.12276491059642287,-0.0036001440057571543,0.01140045601823543,0.44319662741481125,0.10393060627469126,-0.12128908003718686,-0.00852034081363437,0.0031201248049886453,-0.004080163206528578,0.6079443177727076,-0.023520940837630285,0.26509060362414333,4.061124883492511,0.5040403224194292,6.120489629376042,-0.8064645158713265,0.4608368662108161,-0.648051843110609,12.096967738063695,-0.6480518431100097,-2.6930154369262005,0.00026299999999998547,-0.036044000000000076,-0.907886,-0.077631,0.17640899999999993,-0.871378,0.07789399999999999,0.212453,0.036507999999999985,0.9834186250594313,0.13492000000000004,single,-0.871378
92,0.766667,walk,0.1330693544516445,-0.0008399328053864059,-0.03311735061194439,0.5667879060739578,-0.5137221754086956,-0.11914981126192509,-0.03167746580273434,0.014278857691382398,-0.006239500839932836,0.6460283177345849,-0.006719462442997997,0.20026397888169106,1.2364343478787718,0.33119884813664074,-5.3417094588649,-2.7786327080753663,1.33894083110077,-0.25909978802547046,4.569714418271838,2.0160161260658005,-7.778572683279654,-0.0011099999999999999,-0.035918000000000005,-0.9076620000000001,-0.073356,0.17636000000000007,-0.869433,0.072246,0.21227800000000008,0.03822900000000007,0.9411622053772295,0.11771000000000004,single,-0.869433
93,0.775,walk,0.1264850594023755,0.005640225609026647,-0.011640465618626345,0.5184859818875664,-0.07000216360245588,-0.1853792012468179,0.0,0.0019200768030740352,0.0024000960038404622,0.7136685467418667,0.006600264010550342,0.17916716668666688,-0.7901470117927478,0.7776501157341925,2.577329292369849,3.8014479542462745,-1.483113031118242,1.0367930929765106,8.117152166960466,1.5984311116702608,-2.5317187321521777,-0.0021639999999999993,-0.03594900000000001,-0.907545,-0.06846300000000001,0.17636799999999997,-0.867843,0.06629900000000001,0.21231699999999998,0.039702000000000015,0.9948772957018794,0.10298000000000002,single,-0.867843
94,0.783333,walk,0.14892595703828196,0.009480379215174844,0.01740069602783536,0.4431859462044476,0.23704362035417864,-0.18610877066405176,0.0027601104044156313,-0.0009600384015370304,-0.0139205568222732,0.7904716188647612,0.03348133925357396,0.14136565462618617,2.693015436926276,0.4608368662124363,3.485078800727466,0.3312264975897824,-0.34562764965931736,-1.9585566814009134,9.216737324240395,3.2258580634854033,-4.536362901773798,-0.003381999999999996,-0.03603600000000007,-0.907806,-0.063117,0.17656799999999995,-0.86681,0.05973500000000001,0.21260400000000002,0.04099600000000003,0.976293356216082,0.09003999999999995,single,-0.86681
95,0.791667,walk,0.15154787616990695,0.008879289656829605,-0.016798656107501427,0.3054949561278753,-0.38972121546522126,-0.1432029754079238,-0.010919126469883255,0.004199664026878687,0.01619870410367155,0.8542116630669482,0.05507559395248184,0.11903047756179329,0.3146051273848055,-0.07212497700326786,-4.103593968722885,-1.641377114746674,0.619114762228903,3.6140221893381947,7.64819344878647,2.5911032756068777,-2.6800068471793503,-0.004736000000000018,-0.03607500000000008,-0.9075310000000001,-0.05726100000000002,0.17695299999999992,-0.8656780000000001,0.052525,0.213028,0.04185300000000003,0.9666974093666094,0.0814700000000001,single,-0.8656780000000001
96,0.8,walk,0.1026041041641655,0.04464178567141802,0.0006000240009506435,0.9237092063526967,-0.17184778519125393,-0.7102509933099264,0.002760110404415595,-0.0037201488059526123,-0.0003600144005759652,0.9287171486859447,0.07704308172327239,0.0639625585023405,-5.873487580192156,4.291671188598136,2.0879251300194404,1.6415740878793703,-0.9504155565620144,-1.9871257055379146,8.94101591491614,2.6362039806540802,-6.608414623719255,-0.005568000000000017,-0.03647800000000001,-0.907539,-0.050377000000000005,0.17722300000000002,-0.86515,0.04480899999999999,0.21370100000000003,0.04238900000000001,0.9922563059791969,0.07611000000000007,single,-0.86515
97,0.808333,walk,0.1669266770670846,0.014640585623433051,0.0019200768030740608,0.22687283355935972,-0.3261705628513124,-0.18038736868770378,0.0019200768030740608,-0.0030001200047932272,-0.0013200528021121676,0.9836793471738955,0.11052442097684737,0.04848193927757174,7.719017509050726,-3.6002880172789204,0.15841267276172197,-0.10080806448356436,0.08640691241562362,-0.11520921655300746,6.5957276476600635,4.017921427286126,-1.8577486169169457,-0.006943000000000005,-0.03662500000000002,-0.907566,-0.04357100000000001,0.178022,-0.864762,0.03662800000000001,0.21464700000000003,0.04280399999999995,0.9936688700382712,0.07196000000000002,single,-0.864762
98,0.816667,walk,0.16342692584593133,0.028677705783535803,0.029397648188150813,0.21524716646072253,0.3643594407150024,-0.27719363115213563,0.0009599232061411308,0.0004799616030722306,-0.00551955843532524,1.0395968322534124,0.13846892248619866,0.017878569714422272,-0.4199365516142619,1.6843196736384263,3.297044802624975,-0.11520921489475915,0.41757638683290516,-0.5039003639564483,6.709561444626405,3.3530719353673004,-3.6721105787316093,-0.008297000000000027,-0.036860000000000004,-0.907857,-0.03626900000000001,0.178937,-0.864858,0.027971999999999983,0.21579700000000002,0.04299900000000001,0.9906284501129035,0.07001000000000007,single,-0.864858
99,0.825,walk,0.15816632665306588,0.03492139685586618,-0.006600264010563753,0.5680257242233315,-0.44004115750902845,-0.40325546938377566,0.0004800192007685152,-0.0009600384015370304,-0.004320172806912057,1.0495619824793077,0.1930877235089387,0.008760350414017074,-0.631297155030061,0.7492728995956355,-4.319922260736217,-0.05759078427608544,-0.17280691282962607,0.14393203269089094,1.1958658617419142,6.554518303461005,-1.094230085252044,-0.009611000000000008,-0.03715899999999994,-0.907838,-0.028841000000000006,0.18025500000000005,-0.86473,0.019229999999999997,0.217414,0.043108000000000035,0.9925808084359409,0.06892000000000004,single,-0.86473
100,0.833333,walk,0.1850474018960736,0.027121084843400763,0.0003600144005730508,0.3082271174564598,-0.24131432175398912,-0.26772689416016315,0.0019200768030740352,-0.0032401296051841034,0.00012000480019171084,1.1422056882275258,0.21984879395175053,-0.01500060002400091,3.2258580634834533,-0.9360748844912254,0.8352668200092134,0.17281382482965485,-0.2736218893132201,0.5328426265575121,11.117689397362023,3.2114569114138605,-2.851428109686534,-0.01113699999999998,-0.037412,-0.90784,-0.02086499999999998,0.18186099999999994,-0.864858,0.009728,0.21927299999999994,0.042981999999999965,0.9937196213976114,0.07017999999999996,single,-0.864858
101,0.841667,walk,0.18430525557955338,0.028557715382764418,0.02087832973362205,-0.0991149128663436,-0.12974675823947882,-0.17672959435070393,0.0076793856491456985,-0.00455963522917953,0.0034797216222703414,1.1541876649867926,0.25965922726182367,-0.06491480681545425,-0.0890504339477106,0.17238187417370346,2.4620008798954696,0.6910617765864674,-0.15832800863875887,0.4031337679479967,1.4377221933365407,4.77686984762093,-5.989225676920202,-0.012609000000000009,-0.037687999999999944,-0.907985,-0.012781999999999988,0.18378700000000003,-0.865573,0.00017299999999997873,0.22147499999999998,0.042412000000000005,0.9840250456495196,0.07587999999999995,single,-0.865573
102,0.85,walk,0.2062882515300629,0.04188167526701631,0.03036121444858527,0.2924746835574069,0.10146680178714582,-0.2739299473614814,0.0033601344053762754,-0.0009600384015370304,0.004680187207488443,1.1770070802832202,0.3140525621024846,-0.05592223688947706,2.6380650366626317,1.598939143675989,1.1379916854630154,-0.5183308824876349,0.4319688980730268,0.14406163269148115,2.7384393731462646,6.527461279330546,1.0791515571795598,-0.014300000000000007,-0.038044999999999995,-0.9081990000000001,-0.004693000000000003,0.18605499999999997,-0.8662920000000001,0.009607000000000004,0.22409999999999997,0.04190700000000003,0.9902651357865206,0.08093000000000011,single,-0.8662920000000001
103,0.858333,walk,0.20712828513140502,0.04704188167526057,-0.018480739229580927,0.5102763813599354,-0.4443218901609945,-0.2603308318837312,0.0037201488059526123,0.00012000480018213478,0.002400096003840046,1.2361694467778666,0.3336133445337805,-0.06144245769830667,0.10080806448363486,0.6192495389708672,-5.861268892135604,0.04320345620740855,0.1296103686210441,-0.273621889313379,7.099767970076335,2.3473877872669875,-0.6624529951793572,-0.01599500000000001,-0.038436000000000026,-0.908025,0.0038819999999999966,0.18844300000000003,-0.8666499999999999,0.019877000000000006,0.22687900000000005,0.04137500000000005,0.9926186479110181,0.08625,single,-0.8666499999999999
104,0.866667,walk,0.19822414206863406,0.03731701463883645,0.010559155267589214,-0.1429384784633119,0.1353030702396584,-0.21792940840350783,0.0008399328053764147,0.00011999040077138965,-0.0014398848092150459,1.2188624910007269,0.3804895608351395,-0.0934725221982249,-1.0684116945969533,-1.1668906931154517,3.484508578974119,-0.3455982722073691,-1.727791066131058e-06,-0.46076083669967766,-2.076668559771994,5.624695980484676,-3.843300275968132,-0.01763999999999999,-0.03874600000000006,-0.9081250000000001,0.01238800000000001,0.191303,-0.8675170000000001,0.030028,0.23004900000000006,0.04060799999999998,0.9972145451809479,0.09392000000000006,single,-0.8675170000000001
105,0.875,walk,0.20568822752910282,0.05520220808832522,-0.018600744029763062,0.20693860396557057,-0.10192892076853155,-0.266962454970365,0.02448097923917063,0.002520100804038002,0.007200288011520137,1.2611304452178023,0.40225609024361064,-0.10920436817472666,0.895726084299619,2.146309066301295,-3.4993278887978105,2.837039053617439,0.2880247693827676,1.0368622129767366,5.072357400345042,2.6120880125370256,-1.8878970330615261,-0.01915,-0.039185000000000025,-0.90791,0.02118299999999998,0.194195,-0.868272,0.04033299999999998,0.23338000000000003,0.03963799999999995,0.9572632931642268,0.10362000000000005,single,-0.868272
106,0.883333,walk,0.22692907716308602,0.063482539301572,-0.012600504020163363,0.030487596887534076,0.35883256444674017,-0.24045794852191263,0.005400216008639062,-0.009480379215174717,0.0018000720028802425,1.260410416416653,0.41953678147125034,-0.09744389775590985,2.549003916234623,0.9936794927693198,0.7200576034560993,-2.2897831789909384,-1.4401152069137968,-0.648051843110509,-0.08640691241441188,2.0737658979526734,1.4113129027741222,-0.020996000000000015,-0.03979300000000008,-0.90779,0.029794999999999988,0.19716199999999995,-0.8689790000000001,0.050791,0.23695500000000003,0.03881099999999993,0.9815699383389354,0.11189000000000004,single,-0.8689790000000001
107,0.891667,walk,0.20710343172546045,0.06887449004079274,-0.02675785937124724,-0.07058328041083413,0.21471060751048598,-0.26880461372623465,0.0028797696184300918,0.003839692824577896,-0.002999760019198567,1.3369330453563806,0.49244060475162227,-0.04667626589872842,-2.378887141543759,0.6469823301200837,-1.6987467423906837,-0.3024293724752801,1.598280782307738,-0.5759337679480246,9.181980914294222,8.747758972926848,6.0916284925824,-0.022697999999999996,-0.04033500000000001,-0.9075920000000001,0.039211000000000024,0.20069199999999998,-0.8691450000000001,0.06190900000000002,0.241027,0.03844700000000001,0.9905667735260573,0.11553000000000008,single,-0.8691450000000001
108,0.9,walk,0.24552982119284908,0.05916236649465542,0.0014400576023055264,-0.03089663749874186,0.4203150546946364,-0.15973918296291498,-0.001080043201725814,0.009120364814588344,0.0020400816032640806,1.2626905076202966,0.48073922956917525,-0.05784231369254702,4.611351190134222,-1.1655014455942971,3.3838853922420076,-0.47519654628055796,0.6337059870407327,0.6048051869029912,-8.909460906766316,-1.4042211907412656,-1.3399793344316036,-0.024752999999999997,-0.04075200000000001,-0.907587,0.04768699999999998,0.20420499999999997,-0.869639,0.07243999999999998,0.24495699999999998,0.03794799999999998,0.9843200871054758,0.12052000000000002,single,-0.869639
109,0.908333,walk,0.2062882515300629,0.06804272170886708,-0.05676227049082696,0.191054224089366,-0.4350998294172719,-0.20339207420128924,0.004680187207486361,0.015120604824201566,0.0009600384015361976,1.3049321972879062,0.502460098403947,-0.06408256330253266,-4.7091767266034505,1.065685253115533,-6.984558753526104,0.69125529931744,0.7200576034577315,-0.12961036862209202,5.069205528334339,2.6066085245136152,-0.7488599075945876,-0.026433000000000012,-0.041192999999999924,-0.907106,0.056842000000000004,0.20782500000000004,-0.8697,0.08327500000000002,0.24901799999999996,0.03740599999999994,0.9735709273989162,0.12594,single,-0.8697
110,0.916667,walk,0.23074154067674174,0.06023518118550499,-0.02075833933285066,-0.04881851360999545,0.012009131325445219,-0.20632734087085053,0.007199424046076798,0.014278857691382209,0.007919366450683895,1.299136069114458,0.5261579073674033,-0.047156227501800034,2.934159964804256,-0.9368299164101301,4.320126128866814,0.3022842378918188,-0.10100157581225704,0.835052561692782,-0.6954797424343854,2.8435095948471467,2.0309978162625986,-0.028295999999999988,-0.041575999999999946,-0.906867,0.065746,0.211708,-0.86992,0.09404199999999999,0.25328399999999995,0.03694699999999995,0.9702588085614603,0.1305300000000001,single,-0.86992
111,0.925,walk,0.24168966758670435,0.08856354254170327,0.06564262570502363,-1.0241763859110964,0.12635283891344004,-0.49654315373613767,-0.02232089283571234,0.007200288011514309,-0.022680907236289558,1.291611664466576,0.5283811352454131,-0.04092163686547374,1.3138277823067996,3.3995393443175526,10.368530545766703,-3.542579729003842,-0.8494623400777476,-3.6721797296259844,-0.9029646763328841,0.2667980172818626,0.748180803591296,-0.030495999999999995,-0.042254000000000014,-0.9076029999999999,0.074495,0.21537300000000004,-0.870808,0.104991,0.25762700000000005,0.03679499999999991,0.9456224628307566,0.13204999999999995,single,-0.870808
112,0.933333,walk,0.23820952838113585,0.08064322572903061,-0.019920796831873394,-0.07310538999989703,-0.05179028622255147,-0.2584956927522204,0.010560422416897341,0.0007200288011594343,0.0010800432017283265,1.3116524660986553,0.546261850474024,-0.019080763230530158,-0.417633410004624,-0.9504760365621906,-10.268021425284749,3.9459156669398756,-0.7776622117310613,2.8514281096865597,2.4049923955453503,2.1457716582996595,2.621009676580317,-0.03239299999999998,-0.04291999999999996,-0.907428,0.08344000000000001,0.21925300000000003,-0.8708009999999999,0.11583299999999999,0.262173,0.036627000000000076,0.9822668345547259,0.13373000000000007,single,-0.8708009999999999
113,0.941667,walk,0.2359011279097649,0.08867290616751135,-0.00755939524837098,-0.18202463304719482,0.12685529178748964,-0.3022577176908484,0.0035997120230350688,0.005639548836095379,-0.010679145668346723,1.3057355411566944,0.5322774178065709,-0.01235901127909745,-0.2769858976926975,0.9634845738517728,1.4832495300578736,-0.8352184297890832,0.5902951805778627,-1.410989785226177,-0.7099741950996865,-1.6779976802799348,0.8065457105150776,-0.034329,-0.043611999999999984,-0.9074540000000001,0.092356,0.22294999999999998,-0.8708410000000001,0.126685,0.26656199999999997,0.03661300000000001,0.9789969188815032,0.13387000000000004,single,-0.8708410000000001
114,0.95,walk,0.25765030601224403,0.07824312972518803,-0.025801032041291038,-0.0291803674605172,-0.06351385747657814,-0.29629971470869426,0.00972038881555577,-0.0116404656186265,0.005400216008640799,1.2938917556702403,0.5271810872434922,0.00816032641305643,2.6100057725284223,-1.25162323800833,-2.1890839785095673,0.734510595526312,-2.0736846819539223,1.9296005852619307,-1.4213111108189438,-0.6115841309346842,2.462419019819281,-0.03639499999999998,-0.044360999999999984,-0.907194,0.100991,0.22669099999999998,-0.8705579999999999,0.13738599999999998,0.27105199999999996,0.036636,0.9731698381023237,0.1336400000000001,single,-0.8705579999999999
115,0.958333,walk,0.26197047881915053,0.09060362414495944,-0.04776191047641999,0.23491015194664652,-0.85702796762365,-0.3143036172590116,-0.012480499219971236,-0.000360014400586374,-0.006960278411136715,1.3241329653186058,0.5250210008400336,0.03576143045721893,0.518441474487757,1.483318663119088,-2.6354108286486095,-2.664213132788541,1.3537082944965892,-1.4833186631198203,3.6290903214167036,-0.259220737244528,3.3122649758985223,-0.038681999999999994,-0.04511900000000002,-0.9068539999999999,0.109842,0.23031100000000004,-0.8698619999999999,0.148524,0.27543000000000006,0.036992000000000025,0.9761755292288656,0.13007999999999997,single,-0.8698619999999999
116,0.966667,walk,0.29097672186225004,0.03683705303576373,0.019678425725948134,-0.3219857152464686,0.24087632637376385,-0.37150705731670086,-0.00455963522917953,0.002519798416132541,-0.00011999040076764134,1.2928965682745324,0.5095992320614313,0.03323734101271866,3.4804707275137137,-6.451472415310212,8.092192968846605,0.9504276446834228,0.345549894014746,0.8207688997323039,-3.7480677998647947,-1.8504642162949512,-0.30286650401970855,-0.04114499999999999,-0.04540500000000003,-0.907019,0.11819200000000002,0.234251,-0.869749,0.159337,0.279656,0.037270000000000025,0.9913150744937955,0.12730000000000002,single,-0.869749
117,0.975,walk,0.26245049801992254,0.09000360014400999,0.0034801392055617427,-0.36858378578668816,-0.32817664800093904,-0.3480008968172597,-0.008280331213250225,0.0014400576023055455,-0.0019200768030723952,1.2952118084723503,0.5005400216008729,0.037921516860674395,-3.423283792431029,6.380240862624115,-1.9438721373318781,-0.44650137814361324,-0.12957408062246553,-0.21601900903693394,0.27783993733564694,-1.0871487412166743,0.5621235866981609,-0.043400999999999995,-0.046143000000000045,-0.907064,0.12679800000000002,0.237672,-0.869462,0.17019900000000002,0.28381500000000004,0.037602000000000024,0.9856314052116758,0.12398000000000003,single,-0.869462
118,0.983333,walk,0.27853114124565076,0.08988359534381334,0.002520100804038002,-0.25179459488509054,-0.5697700208225714,-0.3525941659214312,0.010080403216128691,-0.004920196807867223,-0.0061202448097922415,1.2944917796711803,0.4945397815912532,0.07716308652346035,1.9297543772624688,-0.01440115206968096,-0.11520921655151047,2.203376266576124,-0.7632610596631155,-0.5040403224192762,-0.08640691241689,-0.7200576034584908,4.709176726603359,-0.04563800000000001,-0.046933,-0.907136,0.135264,0.24104399999999992,-0.8688400000000001,0.180902,0.2879769999999999,0.038296,0.978703139109792,0.11704000000000003,single,-0.8688400000000001
119,0.991667,walk,0.2781377489800816,0.09575233981281137,0.03623710103192059,-0.4031421044308317,-0.8510645544443673,-0.38252335770776835,0.004919606431487099,-0.0077993760499271815,0.00035997120230376147,1.2800575953923772,0.4665226781857481,0.07331413486921093,-0.04720329560465232,0.7041930008397005,4.045716370036331,-0.619246074471037,-0.34547387113750605,0.7775637163542164,-1.7319635563718798,-3.3617834659833545,-0.46183725152981087,-0.047914999999999985,-0.04779600000000006,-0.907435,0.14361400000000002,0.24413399999999996,-0.868531,0.191529,0.29193,0.03890399999999994,0.9846194230100831,0.11096000000000006,single,-0.868531
120,1.0,walk,0.2821312852514079,0.09768390735629161,0.01488059522381045,-0.42720091565286544,-0.39599382679699335,-0.3087562997405832,0.0018000720028785772,-0.0004800192007685088,-0.0016800672026881154,1.269770790831629,0.4503780151206037,0.08520340813632538,0.47924352230004774,0.2317973771127126,-2.5628832123016987,-0.3743591057972529,0.8783579562172857,-0.24481440117507122,-1.2344659259268236,-1.937437065299931,1.4267698628482417,-0.05025099999999999,-0.048614000000000046,-0.9075730000000001,0.15184400000000003,0.247073,-0.8679450000000001,0.20209500000000002,0.29568700000000003,0.039628,0.9958189237648789,0.10372000000000003,single,-0.8679450000000001
121,1.008333,walk,0.28885155406216756,0.08748349933997196,-0.027361094443778718,-0.3578554868626994,0.24672598932700124,-0.3058048658188667,0.0038401536061447904,0.0036001440057705256,-0.0012000480019200388,1.263170526821082,0.43105724228970027,0.09540381615264663,0.8064645158718009,-1.224097925875404,-5.069205528331879,0.24481958517535482,0.4896391703515027,0.057604608276500775,-0.7920633638001895,-2.3185854831277597,1.224097925875597,-0.052626000000000006,-0.04931299999999994,-0.907355,0.159963,0.24993600000000005,-0.8669220000000001,0.212589,0.299249,0.04043299999999994,0.9910018625711292,0.09567000000000003,single,-0.8669220000000001
122,1.016667,walk,0.2982961363090916,0.07751379889609197,-0.058195344372458005,-0.14387892450696732,0.06100996217973115,-0.2752322177665362,0.004079673626110629,0.0017998560115175344,0.000839932805375571,1.2507799376049806,0.40592752579793606,0.11147108231341482,1.1332592088941618,-1.1962683517974455,-3.6998140063209806,0.028740103187645437,-0.21601727792812303,0.24477811462630122,-1.4867517657908893,-3.0153247530314395,1.9279177058756978,-0.05507799999999999,-0.04994399999999999,-0.906863,0.167901,0.25267300000000004,-0.8655079999999999,0.22297899999999998,0.302617,0.04135500000000003,0.9924375368365774,0.08644999999999997,single,-0.8655079999999999
123,1.025,walk,0.2950918036721516,0.0808832353294082,-0.03828153126124578,-0.28821567206530174,0.4824820724794984,-0.28282434007707913,0.013200528021120844,-0.005280211208453667,0.0030001200048003053,1.2622104884195515,0.3715348613944577,0.13248529941197695,-0.3845352978447146,0.4043485459397893,2.3897531634720273,1.0945463092536059,-0.849642052078635,0.2592328332443003,1.3717209665871835,-4.127284819810235,2.521806924104443,-0.057427000000000006,-0.050661999999999985,-0.906519,0.17596,0.25509500000000007,-0.864085,0.233387,0.30575700000000006,0.04243399999999997,0.9757825080155846,0.07566,single,-0.864085
124,1.033333,walk,0.3049321972878847,0.0955238209528387,-0.04248169926796583,-0.26405019589036394,-0.15324124316817625,-0.24839733642993542,0.0004800192007685024,0.006600264010563577,-0.0001200048001921256,1.2103684147365663,0.35257410296411196,0.15420616824672817,1.1808944696667354,1.7569405524337265,-0.5040403224192934,-1.5265221193270273,1.425714054844238,-0.37442995379723704,-6.221297693865871,-2.2753820269225242,2.606608524511081,-0.05996399999999999,-0.051402999999999976,-0.906166,0.183505,0.25723700000000005,-0.862446,0.243469,0.30864,0.04371999999999998,0.9889686929612029,0.06279999999999991,single,-0.862446
125,1.041667,walk,0.30861531077514276,0.09275257979362111,-0.08387329013679128,0.017553044817383963,-0.12959884967142937,-0.31053232513087053,-0.0034797216222704343,0.01307895368370864,-0.0046796256299497935,1.1653467722582413,0.36369090472762944,0.18286537077034157,0.44193826340990555,-0.3325223373191317,-4.966593576773007,-0.4751308882936179,0.777380570331796,-0.5471107307124736,-5.402164924205162,1.333909498862214,3.438829196497953,-0.06256499999999998,-0.052066999999999974,-0.905506,0.190645,0.25949500000000003,-0.8602230000000001,0.25321,0.311562,0.04528299999999996,0.9761331012542955,0.04716999999999999,single,-0.8602230000000001
126,1.05,walk,0.310332413296527,0.09900396015840036,-0.042601704068161286,-0.27480292855405064,-0.2708062823800984,-0.2886128585116103,0.010320412816512808,-0.005880235209417485,0.0010800432017282976,1.168726749069942,0.328453138125518,0.18540741629664753,0.20606054498790466,0.7501956515995608,4.952788439773103,1.6560823759489982,-2.2751936749220922,0.6911879073176516,0.40561344194174953,-4.2287011402989085,0.30505766546332885,-0.06506499999999998,-0.052941000000000016,-0.905142,0.197798,0.26140700000000006,-0.8583230000000001,0.26286299999999996,0.31434800000000007,0.046818999999999944,0.9801215792504288,0.031810000000000116,single,-0.8583230000000001
127,1.058333,walk,0.3307332293291772,0.09888395535822087,-0.09840393615745235,0.18931196836172337,-0.13222503402686187,-0.24232014095956914,0.003000120004799889,0.0002400096003909192,-0.0001200048001921288,1.1431657266290731,0.3032521300851997,0.19092763710548705,2.448195851752117,-0.014401152067622715,-6.696535712143475,-0.878470276216607,0.7344587555272364,-0.14401152069128015,-3.0674453907199233,-3.024241934515608,0.6624529951805551,-0.067796,-0.053763000000000005,-0.904323,0.20456799999999997,0.26310999999999996,-0.855912,0.27236399999999994,0.31687299999999996,0.04841099999999998,0.9949798390343565,0.015890000000000015,single,-0.855912
128,1.066667,walk,0.3218142548596076,0.10835133189344616,-0.1067914566834714,0.16297774524023143,-0.055397667427140085,-0.2821916170672514,0.0027597792176619956,0.00803935685144321,-0.0034797216222703414,1.124910007199418,0.27669786417086784,0.17326613870890206,-1.070191321042664,1.135994304682652,-1.0064219493663282,-0.028838587369557425,0.9358468023820772,-0.40313376794794664,-2.1905110906713405,-3.1862570091590654,-2.1192102707685203,-0.07045499999999999,-0.054599000000000064,-0.903462,0.211261,0.264513,-0.853578,0.28171599999999997,0.31911200000000006,0.04988400000000004,0.9846924036211155,0.0011599999999999944,single,-0.853578
129,1.075,walk,0.33433337333493773,0.09936397455897605,-0.06300252010080433,0.03150659110438198,0.22751298249008237,-0.2188673913303089,0.0003600144005763864,0.009360374414979384,-0.0033601344053762754,1.088203528141138,0.2846513860554497,0.153006120244811,1.5023543112120814,-1.0785260211772696,5.2548825852235055,-0.28798329738217104,0.15852844876229275,0.014351040068890816,-4.404953685141053,0.9544608045820165,-2.4312994676696564,-0.073238,-0.05534899999999998,-0.9029649999999999,0.21754300000000001,0.2660570000000001,-0.8517779999999999,0.290781,0.3214060000000001,0.05118699999999998,0.9834138006848886,0.0,single,-0.8517779999999999
130,1.083333,walk,0.34201368054721487,0.11124444977799051,-0.09240369614783678,0.23288564337749235,-0.5200740709489302,-0.21210535921329768,0.006600264010560246,0.004200168006721065,-0.0015600624024959674,1.0698427937117305,0.2559702388095408,0.15672626905075948,0.9216737324225373,1.425714054843904,-3.5282822569341095,0.7488599075943538,-0.6192495389725463,0.21601728103687465,-2.203376266579518,-3.441875344522791,0.4464357141423756,-0.07603299999999999,-0.056240999999999985,-0.902208,0.22360800000000003,0.26726300000000003,-0.849702,0.29964100000000005,0.323504,0.05250600000000005,0.9867043562905551,0.0,single,-0.849702
131,1.091667,walk,0.3330933525318039,0.12407007439406169,-0.0761939044876487,0.044313854549410746,-0.2650558370774953,-0.2473817538810958,0.008279337652986208,0.00287976961843346,0.0037197024238061396,1.0392368610511327,0.261099112071034,0.18718502519798674,-1.0703537335506543,1.5389518377815476,1.945019397670792,0.20147271927357738,-0.15843513178397292,0.6335210974684674,-3.6724181258217468,0.6154155581345443,3.654758356998781,-0.07874,-0.05725100000000005,-0.901542,0.229493,0.2684049999999999,-0.847507,0.308233,0.32565599999999995,0.054034999999999944,0.9841292817542392,0.0,single,-0.847507
132,1.1,walk,0.3362534501379995,0.12024480979238328,-0.05532221288850661,-0.24982607734153814,0.32436684365194157,-0.1739697438509238,0.0010800432017291303,0.004440177607098654,0.001680067202688093,0.9812792511700285,0.27397095883835293,0.12504500180006997,0.37922688181874076,-0.4590501142059694,2.5047031800242086,-0.8639498921465201,0.18725644889777593,-0.24476601717484828,-6.955191393388119,1.5446833994142237,-7.457101091793554,-0.081533,-0.058216000000000045,-0.9010670000000001,0.234868,0.269686,-0.846004,0.316401,0.327902,0.055063000000000084,0.9918854903095802,0.0,single,-0.846004
133,1.108333,walk,0.35425417016681116,0.12624504980199958,-0.0734429377175162,-0.07003630537820502,0.04665892088645876,-0.12904976710502,0.0008400336013449015,0.008280331213260217,0.0028801152046081767,0.9482779311172558,0.2743309732389333,0.11484459378375234,2.160172810369832,0.7200576034581007,-2.174573962439668,-0.028802304138273248,0.4608368662140403,0.14401152069123901,-3.9603168190055174,0.04320345620789266,-1.2240979258751625,-0.084478,-0.059199,-0.900431,0.239818,0.27091999999999994,-0.8444349999999999,0.32429600000000003,0.33011899999999994,0.055996000000000046,0.9853215383559888,0.0,single,-0.8444349999999999
134,1.116667,walk,0.3494120470362342,0.13234941204703105,-0.07343412526997135,-0.05893274035459937,-0.006353906192938584,-0.21430468238015743,-0.0017998560115208648,0.009839212862960744,0.0015598752099830842,0.9000479961602978,0.28569714422845555,0.11591072714182879,-0.5810082950056314,0.7324648722139936,0.0010574091126524202,-0.31676141263087904,0.18705083389735008,-0.1584161260649247,-5.787129224496948,1.3638314122296813,0.12792576890766091,-0.08740500000000001,-0.06022000000000005,-0.899806,0.24440699999999999,0.27219799999999994,-0.842857,0.331812,0.332418,0.05694900000000003,0.9831277016898853,0.0,single,-0.842857
135,1.125,walk,0.3639745589823636,0.14712588503539667,-0.08724348973959437,-0.13103688137125763,0.09892883359883585,-0.12684828501901363,0.005280211208450336,0.006120244809795237,0.0006000240009602277,0.8562342493699829,0.29065162606504946,0.11556462258490345,1.7475713363889993,1.7732476885114317,-1.657190023955735,0.849642052078635,-0.44629401814059055,-0.11518675255284594,-5.257859929235007,0.5945616028553895,-0.04153420819936904,-0.090394,-0.06139499999999998,-0.899074,0.24850899999999998,0.273394,-0.841167,0.33890299999999995,0.334789,0.05790700000000004,0.9864909438051318,0.0,single,-0.841167
136,1.133333,walk,0.3519740789631607,0.14556582263290901,-0.06216248649946276,-0.3812741937893941,0.03014292852171189,-0.17534752999399084,0.006600264010560422,0.003960158406343581,0.0033601344053762754,0.8245529821192942,0.29413176527061125,0.1096843873754958,-1.4401152069126373,-0.18721497689759625,3.0098407824471183,0.1584126727601222,-0.2592207372436908,0.33122649758983236,-3.801904146248536,0.41763341000381793,-0.7056564513869806,-0.093272,-0.06257499999999994,-0.898528,0.252447,0.274632,-0.839735,0.345719,0.3372069999999999,0.058792999999999984,0.9860022975263572,0.0,single,-0.839735
137,1.141667,walk,0.3077753779697581,0.08675305975522242,-0.05735541156707161,-0.3764489763666457,0.9079552528002047,-0.6237201370475084,0.005159587233019818,0.0047996160307089844,0.0031197504199661683,0.7910967122630148,0.2920566354691659,0.08795296376289967,-5.303419845620617,-7.056966987963301,0.576802847659121,-0.17286738391415804,0.10072685677530559,-0.028843770747552823,-4.014431228255233,-0.24899565652092004,-2.6075622285332325,-0.09579399999999999,-0.06325800000000004,-0.898024,0.256475,0.276343,-0.838524,0.35226900000000005,0.33960100000000004,0.0595,0.987155794957749,0.0,single,-0.838524
138,1.15,walk,0.3722548901956138,0.16200648025920733,-0.08652346093843492,-0.11328875089310317,-0.2467417678610397,-0.18755859582946208,0.009120364814591796,0.004920196807880611,0.003480139205568404,0.7404296171846886,0.29725189007559993,0.07416296651866065,7.737850981141999,9.030771691345926,-3.500305936801102,0.4753123222815329,0.014470272071478217,0.043248384207636985,-6.08029462118405,0.6234554909917316,-1.6548658639432547,-0.09882000000000002,-0.06456699999999993,-0.897274,0.25954299999999997,0.27747,-0.8371850000000001,0.358363,0.3420369999999999,0.06008899999999995,0.9817805994831473,0.0,single,-0.8371850000000001
139,1.158333,walk,0.3777751110044317,0.1695667826713036,-0.06996279851193928,-0.535816894357009,0.2579062016124118,-0.14557966686127943,0.009360374414979136,-0.0010800432017324612,0.004560182407296193,0.7226689067562608,0.2881315252610038,0.0774030961238444,0.6624529951779394,0.9072725803547501,1.9873589855388645,0.028802304138645828,-0.7200576034576944,0.12961036862207725,-2.131370506231542,-1.0944875572538102,0.3888311058662772,-0.10188999999999998,-0.06598899999999996,-0.896653,0.262417,0.278458,-0.8359570000000001,0.364307,0.34444699999999995,0.06069599999999997,0.9825533857077895,0.0,single,-0.8359570000000001
140,1.166667,walk,0.38108951283898157,0.16186705063595755,-0.028317734581235716,-0.11318606610365893,0.16669441278328034,-0.21802994727781447,0.010559155267576033,0.002759779217662069,0.005519558435325387,0.6949844012479157,0.2751379889608871,0.05591552675785974,0.3976964044336404,-0.923893932726925,4.997007911051638,0.14384219493603556,0.4607418309808739,0.11511591409037825,-3.3218749110085963,-1.5590996280437879,-2.5783020597534274,-0.10497800000000002,-0.06731500000000001,-0.896371,0.265033,0.27940199999999993,-0.835255,0.37001100000000003,0.34671699999999994,0.06111600000000006,0.979616341879394,0.0,single,-0.835255
141,1.175,walk,0.3890555622224815,0.16824672986919353,-0.07644305772230739,-0.21432100170043336,0.12225782232251389,-0.2557505329609462,0.011040441617665563,0.00348013920556165,0.005160206408255988,0.653426137045461,0.26509060362414233,0.029641185647425045,0.9559641645865582,0.7655921316735718,-5.775269787720008,0.057756672277633626,0.08644665641420478,-0.04312396820705542,-4.987191191942151,-1.205734469788142,-3.1530470551343135,-0.108128,-0.06868800000000008,-0.895691,0.2672359999999999,0.28020899999999993,-0.834371,0.3753639999999999,0.348897,0.06132000000000004,0.978876655214157,0.0,single,-0.834371
142,1.183333,walk,0.40045601824073407,0.17520700828033484,-0.08724348973959437,-0.21822236554444835,0.1619458258095678,-0.20544602266692968,0.012120484819391686,0.004800192007685152,0.009240369614784758,0.6456258250330134,0.2599303972158912,0.019080763230530158,1.3681094465681836,0.8352668200097643,-1.2961036862218978,0.1296103686218808,0.15841267276173218,0.4896391703502709,-0.9360748844891104,-0.6192495389717032,-1.2673013820826813,-0.11136400000000002,-0.07010800000000006,-0.894887,0.269279,0.2809149999999999,-0.833485,0.380643,0.351023,0.06140199999999996,0.9733681254996123,0.0,single,-0.833485
143,1.191667,walk,0.4047276217902521,0.18034557235420082,-0.09323254139669088,-0.1210835067978767,-0.21600352567682046,-0.20676938472410886,0.01175905927525966,0.0032397408207342263,0.01007919366450685,0.5967122630189545,0.2414206863450922,-0.0020398368130553146,0.5125514218284164,0.6165783625949054,-0.7186287085548915,-0.04336759588817176,-0.18723916330104556,0.10065083389993838,-5.869157909054291,-2.220987625485821,-2.534269263689142,-0.11463899999999999,-0.07158399999999998,-0.894026,0.270879,0.281424,-0.8327249999999999,0.385518,0.353008,0.06130100000000005,0.9736286381892509,0.0,single,-0.8327249999999999
144,1.2,walk,0.3576143045721874,0.21060842433698285,0.014760590423628511,-1.6570544663232647,0.22334513239701717,-0.12629224860029317,0.015960638425536477,0.008040321612869298,0.009360374414976886,0.6164646585863427,0.2112084483379335,-0.018840753630145902,-5.653824219136584,3.631687505434094,12.959694206206693,0.5042096664198795,0.5760927387657645,-0.08626176041401316,2.3703822833779373,-3.6256135854024922,-2.016190665677516,-0.11748600000000001,-0.073272,-0.8940710000000001,0.27303599999999995,0.28142899999999993,-0.833005,0.3905219999999999,0.35470099999999993,0.061066000000000065,0.9663760436024138,0.0,single,-0.833005
145,1.208333,walk,0.42757710308411384,0.19800792031680073,-0.08232329293172488,-0.5067479527617723,-0.03563690159140302,-0.10231812810642224,0.015600624024959674,0.006480259210368121,0.010440417616704101,0.5337813512540417,0.22212888515540796,-0.02976119044761717,8.395871656297277,-1.5121209672605183,-11.65053202392316,-0.04320345620746392,-0.187214976899214,0.1296103686220085,-9.922393775626972,1.3105048382904432,-1.3105048382900606,-0.120919,-0.07486799999999993,-0.8932979999999999,0.27392099999999997,0.28163000000000005,-0.832567,0.39483999999999997,0.356498,0.06073099999999998,0.9669018484313996,0.0,single,-0.832567
146,1.216667,walk,0.42968562514999625,0.21022318214544278,-0.09719222462202938,-0.464345200416089,-0.1320371964458609,-0.1264840425055459,0.020758339332854543,0.006719462442998086,0.01379889608831326,0.5285577153827785,0.18238540916726598,-0.05831533477321929,0.2530024077132772,1.4657141623040895,-1.7841290725107726,0.6188763268412488,0.028702091748256497,0.40298517777888426,-0.6267861616586604,-4.768835611728191,-3.4262232212146224,-0.124327,-0.07656400000000008,-0.892373,0.27474499999999996,0.2813979999999999,-0.832243,0.399072,0.357962,0.06013000000000002,0.9569732202047743,0.0,single,-0.832243
147,1.225,walk,0.43717748709947724,0.21744869794790508,-0.09072362894515369,-0.4073841121371118,0.11551114343820378,-0.13339912993981276,0.0021600864034582606,-0.002400096003842512,0.010200408016320684,0.465618624744981,0.18936757470298765,-0.0752430097203878,0.8990593963135547,0.867096580158668,0.7762625317263381,-2.2318796267125833,-1.0943907892524227,-0.4318358420727844,-7.552992996255419,0.837893380021787,-2.031402249750176,-0.12795199999999998,-0.07839600000000002,-0.891532,0.27498199999999995,0.281164,-0.832114,0.4029339999999999,0.35956000000000005,0.05941799999999997,0.9821678537936022,0.0,single,-0.832114
148,1.233333,walk,0.43441737669507324,0.22764910596424515,-0.12696507860314568,-0.506781736682107,0.04712637547225295,-0.06299413345188248,0.020160806432254322,0.013200528021127506,0.020880835233409594,0.4694587783511415,0.15432617304692442,-0.09036361454458139,-0.3312264975883857,1.2240979258778537,-4.349147924876074,2.160172810367962,1.8721497689871787,1.281702534152047,0.46083686621391556,-4.2051364041837935,-1.814545160709675,-0.13140400000000002,-0.080183,-0.8903,0.27527399999999996,0.280553,-0.831809,0.406678,0.360736,0.05849099999999996,0.9468565532397821,0.0,single,-0.831809
149,1.241667,walk,0.43988480921525974,0.23074154067674507,-0.06611471082312982,-0.38603634326783587,0.02412018211807894,-0.12271607716383143,0.017998560115191995,0.011519078473720213,0.021238300935924975,0.4080873530117544,0.16450683945284386,-0.10583153347732194,0.6560394192688334,0.37106248050154805,7.301460016800504,-0.25944880214330585,-0.20175780506446844,0.04289245290561288,-7.3639819221726235,1.2215822421309532,-1.8560017917855087,-0.13492,-0.08201000000000003,-0.889572,0.27500899999999995,0.280001,-0.8321400000000001,0.409929,0.362011,0.05743199999999993,0.9497864902599571,0.0,single,-0.8321400000000001
150,1.25,walk,0.4548181927277151,0.23436937477499103,-0.08220328813153162,-0.32862084347786696,-0.12264131867313184,-0.11306419398655804,0.01272050882035233,0.007320292811709864,0.020520820832833207,0.4101764070562899,0.13200528021120844,-0.10932437297491941,1.792077704602846,0.4353575060897632,-1.930706505268444,-0.6333914910404073,-0.5038744344186231,-0.08610105641326939,0.25069651320478636,-3.900343122721195,-0.4191575060119413,-0.13860400000000003,-0.08390200000000003,-0.888716,0.27463699999999996,0.279148,-0.8323659999999999,0.41324099999999997,0.36305000000000004,0.05635000000000001,0.9579516772975863,0.0,single,-0.8323659999999999
151,1.258333,walk,0.4526581063242568,0.24288971558862885,-0.07176287051481973,-0.07839744880862962,0.14170778585335836,-0.11061500937023953,0.013080523220928715,0.008640345613833273,0.02124084963398556,0.366854674186968,0.12120484819393017,-0.12828513140525744,-0.25922073724449146,1.022481796908423,1.2529002300146381,0.0432034562074149,0.15841267276172097,0.08640691241477984,-5.198815896954553,-1.2961036862208537,-2.2753820269216605,-0.14226700000000003,-0.08585399999999999,-0.887941,0.27392199999999994,0.278134,-0.832837,0.416189,0.363988,0.05510399999999993,0.9560009673959463,0.0,single,-0.832837
152,1.266667,walk,0.4551235901127864,0.2570194384449197,-0.0794336453083809,0.011470582601397324,0.25086513831636403,-0.16709808728356648,0.016078713702903074,0.00851931845451544,0.02339812814974793,0.32805375569954326,0.09551235901127397,-0.17590592752579767,0.2958343878725225,1.6954311082662283,-0.9204193416799985,0.3597540775107195,-0.01452209735035176,0.25885271367438834,-4.655737759470174,-3.0828520737528198,-5.714038411391874,-0.14592600000000003,-0.08792500000000003,-0.887084,0.27286299999999997,0.276788,-0.833641,0.41878899999999997,0.364713,0.05344300000000002,0.9505986892273146,0.0,single,-0.833641
153,1.275,walk,0.46609864394576195,0.2745709828393109,-0.07836313452537016,-0.5001656359227585,0.28237396615350996,-0.06877583354096796,0.002280091203650447,0.008760350414015409,0.016800672026881378,0.28237129485180257,0.08232329293172042,-0.1924876995079814,1.317059142322769,2.1062695781100897,0.12846643261859428,-1.6559009359477683,0.02892499213968204,-0.7917264038001455,-5.4821145863123855,-1.5827512395960253,-1.9898922335514064,-0.149791,-0.09014,-0.886291,0.271332,0.27518600000000004,-0.834592,0.421123,0.36532600000000004,0.05169900000000005,0.9681930678490374,0.0,single,-0.834592
154,1.283333,walk,0.4714988599543852,0.2846513860554421,-0.0564022560902524,-0.0633245697961446,0.22781910713874237,-0.2038828462098723,0.006480259210368121,0.017640705628225808,0.028201128045121204,0.275291011640463,0.0637225489019554,-0.23040921636865133,0.6480518431085002,1.2096967738066733,2.6354108286472315,0.5040403224190088,1.0656852531153538,1.368109446566618,-0.8496679720796176,-2.232178570714591,-4.5507640538424665,-0.15366599999999997,-0.09236500000000003,-0.885586,0.2696970000000001,0.273345,-0.836042,0.42336300000000004,0.36571000000000004,0.04954400000000003,0.9435176557204574,0.0045600000000001195,single,-0.836042
155,1.291667,walk,0.47144228461724147,0.29577633789298025,-0.07835373170146713,-0.09754552929668223,0.2265287771976474,-0.22060839049899822,0.013678905687545616,0.021358291336694847,0.04391648668106656,0.21202303815694704,0.042596592272618305,-0.24478041756659935,-0.006788497377454532,1.3348874295102418,-2.6339663560373348,0.8637684757832531,0.4460745990483693,1.8856921809390037,-7.591549494062534,-2.534912002560295,-1.7244061912584945,-0.15748099999999998,-0.09465200000000007,-0.884567,0.267535,0.27123499999999995,-0.837429,0.425016,0.365887,0.04713800000000001,0.9154760574347225,0.02862000000000009,single,-0.837429
156,1.3,walk,0.48349933997359107,0.31093243729747433,-0.06348253930157116,-0.1961659060123506,0.09118109730166504,-0.14556268321590365,0.016200648025920302,0.013080523220931697,0.06060242409696264,0.1898475939037495,0.021360854434178372,-0.2588503540141551,1.4469045189426843,1.8188046807264873,1.7846144725663877,0.30262118545237515,-0.9933719087679114,2.002392585610919,-2.6611597567739285,-2.5483904762317966,-1.6884599121031476,-0.161375,-0.09713399999999994,-0.8835329999999999,0.265088,0.26882200000000006,-0.8390569999999999,0.426463,0.365956,0.04447599999999996,0.8932004097669481,0.05524000000000001,single,-0.8390569999999999
157,1.308333,walk,0.48841953678147787,0.3289331573262953,-0.07128285131405122,-0.17650516178982942,0.5666228463131339,-0.19989340872912637,0.022440897635904768,0.009000360014393005,0.0558022320892841,0.15792631705268162,-0.0019200768030740608,-0.2859714388575565,0.590447234835815,2.160172810370951,-0.9360748844929958,0.7488599075944465,-0.48963917035146154,-0.5760460827647407,-3.830706450386196,-2.7938235014103743,-3.2546603676228987,-0.16525800000000002,-0.0998,-0.882474,0.26233399999999996,0.26606500000000005,-0.840846,0.42759199999999997,0.36586500000000005,0.041628,0.8986413206966883,0.08371999999999996,single,-0.840846
158,1.316667,walk,0.5077993760499138,0.35061195104392473,-0.11639068874490269,-0.08058454129668055,0.6639099060329703,-0.2242729472658956,0.023278137748979872,0.00311975041997616,0.06947444204463586,0.10571154307655554,-0.020398368130549818,-0.2984161267098613,2.3253946806378387,2.601247146343804,-5.412507491102846,0.1004607767068752,-0.7056167019938565,1.6405339519260447,-6.265271655402649,-2.2172175818905226,-1.4932430828299372,-0.16929600000000003,-0.10269600000000001,-0.880925,0.25898299999999996,0.26297299999999996,-0.842363,0.42827899999999997,0.36566899999999997,0.038561999999999985,0.8777718136121704,0.11438000000000004,single,-0.842363
159,1.325,walk,0.49573982959318774,0.3675747029881141,-0.11844473778950788,-0.7775027535550769,0.036209738907391896,-0.1418348974175187,0.006360254410176165,0.004080163206525717,0.02424096963878587,0.09348373934957174,-0.03936157446297828,-0.30757230289211884,-1.4472034629456538,2.0356116577690564,-0.24649574518243317,-2.0302272097448535,0.11525414455172998,-5.42823381805477,-1.4673951430437915,-2.2756757869229127,-1.0987850932746481,-0.17337400000000003,-0.10572499999999996,-0.879736,0.25563099999999994,0.25958200000000003,-0.843939,0.42900499999999997,0.365307,0.03579699999999997,0.9576809349182183,0.14203000000000005,single,-0.843939
160,1.333333,walk,0.5262210488419411,0.37261490459618024,0.023640945637825428,-0.11986665603736825,-0.4210659437608971,-0.2280293545460727,0.02112084483379412,-0.004320172806916521,0.0718828753150112,0.08676347053882354,-0.029401176047040792,-0.28885155406215735,3.6578926255553608,0.6048483869033999,17.050964049841692,1.7713417045023037,-1.0080806448388444,5.7172573714417965,-0.8064645158704055,1.1952956217373467,2.2465797227842517,-0.177583,-0.10886600000000002,-0.879334,0.251969,0.256232,-0.846543,0.429552,0.36509800000000003,0.032790999999999904,0.8749233374738131,0.17209000000000002,single,-0.846543
161,1.341667,walk,0.5391168706503612,0.38876889848813084,-0.04139668826494436,-0.5623927518068998,0.402602453644915,-0.004494410575534566,0.03455723542116822,-0.01571874250059932,0.07619390448764246,0.1445884329253701,0.01451883849291871,-0.23674106071514758,1.5473748270242773,1.9383242010980213,-7.8038917569919635,1.612237891453606,-1.367718945726304,0.5172821181463099,6.938440411152827,5.26998014638353,6.252758980922817,-0.181788,-0.11223700000000003,-0.878354,0.24868099999999999,0.253113,-0.848171,0.430469,0.36535,0.03018299999999996,0.8581198425624036,0.23519969427015536,single,-0.848171
162,1.35,walk,0.5303012120484734,0.3853354134165256,0.02844113764551045,0.4916158693097054,0.3032163370487028,-0.3679677130633726,0.02544101764070398,-0.010200408016320684,0.0700828033121314,0.21432857314291648,0.09276371054842315,-0.1741269650786002,-1.0579213490804833,-0.41203468998022025,8.3808743442282,-1.0939898932514194,0.6622266271785119,-0.7333614755203349,8.369151592169105,9.38976023706985,7.5139920360669965,-0.18599500000000002,-0.115533,-0.878007,0.24604799999999993,0.25067500000000004,-0.849859,0.43204299999999995,0.36620800000000003,0.02814799999999995,0.8745796731167449,0.23300182541263142,single,-0.849859
163,1.358333,walk,0.5388215528621186,0.4053762150486047,-0.06552262090484237,0.014693391273672796,0.6964644753980825,-0.11779085811584576,0.03756150246009967,-0.018120724828994794,0.0892835713428543,0.22116884675387685,0.14964598583943473,-0.12996519860794475,1.022481796909319,2.404992395545337,-11.276102070125248,1.4545163589818555,-0.9504760365623645,2.304184331060012,0.82086566794197,6.826146080764682,5.29962396143716,-0.190172,-0.119062,-0.876717,0.24340099999999998,0.24854400000000004,-0.8503959999999999,0.433573,0.36760600000000004,0.02632100000000004,0.8357611559080058,0.24181375842230035,single,-0.8503959999999999
164,1.366667,walk,0.5310775137988903,0.4396448284137236,-0.07979361651066842,-0.2721302087715407,0.684307500996778,0.0006657648314042817,0.034917206623468144,-0.022918166546669037,0.09839212862970903,0.22822174226061254,0.15190784737220778,-0.047756179505639484,-0.9292103507593272,4.111904651442119,-1.712382482100545,-0.31729011718640576,-0.5756469543645555,1.0929394392674172,0.8462797584276015,0.27140167179902025,9.86429314882465,-0.194307,-0.12291699999999994,-0.875232,0.24087699999999995,0.24614600000000003,-0.850129,0.43518399999999996,0.369063,0.025102999999999986,0.8218500580617861,0.28516385510664083,single,-0.850129
165,1.375,walk,0.5294611784471394,0.43825753030121467,0.05076203048121385,-0.09218457118874615,0.48153021647719535,-0.16063713220836626,0.051602064082565416,-0.02136085443417894,0.10608424336973568,0.1983679347173924,0.13428537141485555,-0.05976239049562018,-0.19396800093015729,-0.1664824327983848,15.667304331199263,2.0022629856111154,0.18688492889596897,0.9230906924309038,-3.582600209194818,-2.114781706150532,-1.4408029509157336,-0.19828899999999997,-0.12674699999999994,-0.874771,0.238118,0.24361300000000002,-0.85105,0.436407,0.37035999999999997,0.023720999999999992,0.8001881036583777,0.3513091316118075,single,-0.85105
166,1.383333,walk,0.5343813752550199,0.458418336733479,0.10656426257050378,0.04505814609175604,-0.0024382251961668306,-0.06370859430758699,0.05220208808352273,-0.019560782431300338,0.1141245649826004,0.15780631225249947,0.07536301452058361,-0.1370454818192745,0.5904472348350688,2.419393547613644,6.696535712143338,0.0720057603452923,0.21601728103667586,0.9648771886313205,-4.86758939936317,-7.070965665939336,-9.274341932515904,-0.20230700000000001,-0.13073,-0.8747079999999999,0.23498000000000002,0.240421,-0.85308,0.43728700000000004,0.371151,0.02162799999999998,0.788313002668823,0.41342027068362824,single,-0.85308
167,1.391667,walk,0.5549556035517105,0.45860331173505675,0.030237580993523885,0.2537983678424851,0.2816227666317453,-0.03860635597489364,0.054715622750181,-0.023038156947440425,0.14218862491000595,0.13366930645547634,0.015958723302135016,-0.1144708423326121,2.4687098988109404,0.02219522457136647,-9.15846911170858,0.30160003199643015,-0.41725156181186235,3.3674177978648103,-2.8962089989228397,-7.127944710636926,2.708740039196333,-0.206476,-0.13474399999999997,-0.873775,0.23146899999999998,0.236732,-0.854286,0.437945,0.371476,0.01948899999999998,0.7431918079454727,0.5105965684912566,double,-0.854286
168,1.4,walk,0.5637825513020548,0.4656186247449934,0.040321612864515306,0.23808175399607942,0.003178400469764675,0.03562386886395475,0.07332293291731408,-0.004800192007685152,0.12864514580583342,0.05352214088564281,0.019560782431300338,-0.207968318732751,1.059276101085371,0.841871236041845,1.210132229808174,2.232966538717539,2.188643338504193,-1.6252825038008705,-9.618044590163718,0.4322643860752856,-11.220145973855727,-0.210563,-0.138664,-0.873039,0.22721700000000006,0.23301500000000003,-0.856355,0.43778000000000006,0.37167900000000004,0.016684000000000032,0.7530808281468535,0.47376983222024255,single,-0.856355
169,1.408333,walk,0.5645025801031925,0.4848193927757078,0.046441857674309306,0.010502503310340642,0.035140786047436076,0.1443465750919161,0.07452298091923672,-0.01188047521900378,0.14976599063962287,0.06252250090003415,-0.009840393615747638,-0.1776071042841685,0.08640691241302512,2.304184331058931,0.7344587555254881,0.1440115206915417,-0.8496679720771035,2.534602764165257,1.0800864051831494,-3.528282256935973,3.6434914734887762,-0.21464599999999998,-0.142803,-0.872178,0.22303400000000007,0.22889299999999996,-0.858222,0.43768000000000007,0.37169599999999997,0.013955999999999968,0.720493131028622,0.546194077382082,double,-0.858222
170,1.416667,walk,0.570434365250795,0.48944084473242394,0.12083033357331405,-0.08946695234045927,0.36972948438447134,0.1327031311146437,0.10307175425966103,-0.0022798176145898256,0.17362610991121086,0.08579313654906692,0.004079673626114068,-0.16354691624670376,0.7117572771301441,0.5545298724161551,8.925903035637887,3.4255787545506187,1.1519867535894093,2.8629852737687114,2.7922528976521734,1.670274447067671,1.6870875974880035,-0.218541,-0.14690099999999995,-0.871738,0.21899499999999994,0.22484800000000005,-0.860592,0.4375359999999999,0.371749,0.01114599999999999,0.6634529497256174,0.5806588007362581,double,-0.860592
171,1.425,walk,0.5774630985239289,0.5015000600023966,0.11748469938796771,0.29248428759223233,0.4178896193104061,0.07651108316358474,0.09756390255610152,-0.004080163206525609,0.16536661466458336,0.087843513740556,0.027121084843393737,-0.12636505460218167,0.8434817320453234,1.4471637189454458,-0.4014921619280304,-0.6609686431728566,-0.21605011303681165,-0.9911790767583532,0.24605510518289267,2.7650799492714824,4.462001877417669,-0.22254,-0.15111399999999997,-0.871339,0.21491500000000002,0.220895,-0.862624,0.43745500000000004,0.372009,0.008715000000000028,0.6799241406782814,0.6524007984377858,double,-0.862624
172,1.433333,walk,0.5936637465498716,0.4886595463818555,0.14244569782792033,0.3848480308866861,0.06364776804045437,0.1577261224813721,0.10032401296051975,-0.0032401296051841467,0.1917676707068303,0.054842193687752894,0.05412216488659346,-0.07800312012480544,1.9441555293343256,-1.5409232713957972,2.9954396303795563,0.33122649759009437,0.10080806448355568,3.1682534552078696,-3.9603168190091695,3.2402592155526184,5.803664283856555,-0.22665100000000002,-0.15521299999999993,-0.870928,0.21042500000000003,0.21727400000000002,-0.864461,0.437076,0.37248699999999996,0.0064670000000000005,0.6392513742819577,0.7525933825412056,double,-0.864461
173,1.441667,walk,0.5915526757859314,0.5107991360691185,0.12299016078712921,0.24694325904876327,0.040047486640016484,0.1590075992603753,0.10775137988960587,-0.0059995200383962215,0.20158387329013536,0.05435565154786684,0.056635469162463266,-0.13198944084473185,-0.2533082270146653,2.6565382394123915,-2.3344776866799815,0.8912127344715697,-0.3311003639563299,1.17785008199004,-0.05838038635541756,0.3015723873133895,-6.477840259170387,-0.23068300000000003,-0.15952,-0.870273,0.20594799999999996,0.21348899999999993,-0.866586,0.436631,0.3730089999999999,0.003686999999999996,0.6189108733603901,0.7071822746679705,double,-0.866586
174,1.45,walk,0.5979839193567749,0.510500420016803,0.12600504020160866,-0.00891027218943339,0.11263388110349487,0.2556281667841379,0.12888515540621975,-0.0004800192007685152,0.21816872674907198,0.13488539541581954,-0.015600624024956758,-0.18816752670106976,0.7717800997052103,-0.03584736017227597,0.3618000017376067,2.5361545081740164,0.662366595179138,1.990262025553435,9.663955822387308,-8.668677929607666,-6.741639968359345,-0.23459199999999997,-0.16377799999999998,-0.869505,0.20208900000000002,0.20910499999999999,-0.869204,0.436681,0.37288299999999996,0.0003009999999999957,0.5776744047215407,0.6102498221054468,double,-0.869204
175,1.458333,walk,0.5981039241569611,0.5205808232329145,0.13716548661946298,-0.0702534544901985,-0.11682715936745366,0.24610136980234038,0.14664586583463093,0.006840273610941167,0.239649585983435,0.03840153606144022,0.06012240489619164,-0.10152406096243666,0.014401152068433383,1.2096967738043216,1.3393071424281926,2.1313705062295534,0.8784702762161951,2.577806220372332,-11.578526263575858,9.087126955615872,10.397631793907546,-0.238354,-0.16805899999999996,-0.868651,0.19742499999999996,0.205268,-0.871193,0.43577899999999997,0.37332699999999996,0.0025420000000000442,0.5061792831052878,0.7931954996145429,double,-0.868651
176,1.466667,walk,0.6099112071034438,0.5321574274058136,0.1339092872570227,0.008861556205621873,-0.12469356533677334,0.3099000229116228,0.15694744420446705,0.01607871370290017,0.22858171346292694,0.019558435325177266,0.07751379889609404,-0.11663066954643858,1.4167606127289327,1.3890813742379764,-0.3907126664795236,1.2360905171389858,1.1085241291047732,-1.3280384593842416,-2.260991209054873,2.086800335961451,-1.8126480182388063,-0.242129,-0.17235999999999996,-0.867862,0.19250499999999998,0.20147900000000007,-0.873281,0.43463399999999996,0.37383900000000003,0.005418999999999952,0.4829066473372722,0.7643352517138204,single,-0.867862
