frame_id,timestamp,gait_type,root_linear_velocity_x,root_linear_velocity_y,root_linear_velocity_z,root_angular_velocity_x,root_angular_velocity_y,root_angular_velocity_z,left_linear_velocity_x,left_linear_velocity_y,left_linear_velocity_z,right_linear_velocity_x,right_linear_velocity_y,right_linear_velocity_z,root_acceleration_x,root_acceleration_y,root_acceleration_z,left_acceleration_x,left_acceleration_y,left_acceleration_z,right_acceleration_x,right_acceleration_y,right_acceleration_z,left_pos_rel_x,left_pos_rel_y,left_pos_rel_z,right_pos_rel_x,right_pos_rel_y,right_pos_rel_z,step_length,step_width,step_height,left_contact_prob,right_contact_prob,support_type,max_foot_height
1,0.008333,jog,-0.04032161286452826,0.004800192007685108,-0.009960398415929944,0.02117954008082851,0.06529052318706502,0.1448077672155008,0.0013200528021100738,-0.0025201008040380123,-0.0006000240009598058,-0.003360134405366252,-0.008880355214197465,0.003960158406336051,0.0,0.0,0.0,0.0,0.0,0.0,0.0,0.0,0.0,-0.01530699999999996,0.1111279999999999,-0.909652,0.07584500000000016,-0.09886400000000006,-0.912047,0.09115200000000012,0.20999199999999996,0.002395000000000036,0.9712041895917425,0.9828540524260003,double,-0.909652
2,0.016667,jog,-0.062035037197009674,0.011639068874491688,-0.0022798176145897822,0.01376029931025164,-0.003539586342572607,0.25968828585909093,0.00251979841613256,0.001079913606929179,-0.0019198464122872716,0.0015598752099614482,-0.0063594912407104335,0.00011999040076805855,-2.605402487698753,0.8205995760507054,0.9215959684833407,0.14395795704613462,0.4319671719423075,-0.15836602007768966,0.590353925525282,0.30247947846016693,-0.46078329800431866,-0.014769000000000032,0.11104000000000003,-0.909649,0.07637499999999986,-0.09901400000000016,-0.912027,0.09114399999999989,0.21005400000000019,0.0023779999999999912,0.9706419159743125,0.9890848299743988,double,-0.909649
3,0.025,jog,-0.04680187207489649,-0.0025201008040380123,0.001080043201719157,0.05923135962625382,-0.1254086432317443,0.08650257381183307,-0.0004800192007551876,-0.0015600624025009907,-0.0004800192007676781,0.004560182407320837,-0.0004800192007551876,-0.002040081603264505,1.8280529367710525,-1.6991683281566903,0.40319942593411,-0.3599925137270788,-0.3168097935233613,0.1727861768294244,0.360051265733756,0.7055648673893251,-0.2592190092442774,-0.014382999999999813,0.11104800000000004,-0.909662,0.07680300000000018,-0.098997,-0.912053,0.09118599999999999,0.21004500000000004,0.002391000000000032,0.9732543972001351,0.991635455951672,double,-0.909662
4,0.033333,jog,-0.04956198247929878,0.015840633625347534,-0.005400216008635754,0.015762260705670026,-0.11917932387659222,0.17761162828714544,0.003360134405366252,-0.0013200528021100738,0.0003600144005755504,0.003240129605184117,-0.0028801152046110646,-0.0012000480019196116,-0.3312264975881778,2.2033762665769285,-0.7776622117310585,0.46083686620922115,0.028802304139075592,0.10080806448376677,-0.15841267276331697,-0.28802304138436063,0.10080806448396659,-0.013941999999999899,0.11090500000000003,-0.909614,0.07724300000000017,-0.09915300000000005,-0.912018,0.09118500000000007,0.21005800000000008,0.0024039999999999617,0.9699132715477463,0.9925030341957686,double,-0.909614
5,0.041667,jog,-0.034917206623448424,0.0010799136069025357,-0.0013198944084453137,0.00015558911912759017,-0.12041105620148304,0.055147743500412356,0.0009599232061444684,-0.0008399328053864011,0.0010799136069116943,0.004679625629937631,-0.002039836813047004,-0.0013198944084478114,1.7572325241001143,-1.7711447106365488,0.48959942406892726,-0.2880023037223162,0.05760979082357484,0.08638099428079479,0.1727257049140286,0.10082534096041042,-0.014380418349915984,-0.013643000000000072,0.11088900000000002,-0.909594,0.07757299999999989,-0.0991789999999999,-0.912018,0.09121599999999996,0.21006799999999992,0.0024239999999999817,0.9729745451809384,0.9912120740170134,double,-0.909594
6,0.05,jog,-0.06228249129967097,0.0038401536061480864,0.0007200288011461046,0.07969311343533286,-0.11655561078966087,0.18166923033188828,0.0024000960038292308,-0.0003600144005730523,0.0010800432017283165,0.00516020640825816,-0.005520220808831212,-0.0015600624024959945,-3.2839655197674964,0.33124204959144976,0.24480057717405715,0.17282764882812462,0.05759251227809298,1.5552000074660194e-05,0.05767200027847463,-0.4176627860055452,-0.0288213121382675,-0.013104000000000005,0.11085400000000001,-0.9095909999999999,0.07813500000000007,-0.09925699999999993,-0.912037,0.09123900000000007,0.21011099999999994,0.0024460000000000592,0.9711126341811485,0.9871402476853639,double,-0.9095909999999999
7,0.058333,jog,-0.06300252010079042,0.03156126245048628,-0.0006000240009639692,0.04427416005045181,-0.07205861243998096,0.34966229252286357,0.0006000240009639692,-0.00012000480018213529,0.006000240009600556,0.008640345613833193,-0.011160446417871206,0.002640105604224311,-0.0864069124108308,3.326666127965702,-0.15841267276011925,-0.21601728103507278,0.028802304139075603,0.5904472348340621,0.41763341000540416,-0.6768541472506893,0.5040403224193334,-0.012574000000000085,0.11059000000000019,-0.9095359999999999,0.07873200000000002,-0.09961299999999995,-0.91201,0.09130600000000011,0.21020300000000014,0.0024740000000000872,0.9652077324107926,0.9760683093545331,double,-0.9095359999999999
8,0.066667,jog,-0.07139428845693822,0.009359251259901906,-0.006359491240697112,0.19248676125154443,-0.03145376845629341,0.12334326588369113,0.010439164866804442,-0.015478761699069562,0.009719222462202751,0.007319414446828259,-0.006719462442984636,-0.0016798656107511545,-1.0069316482058794,-2.6640282206124755,-0.6910807823053925,1.1806024557044001,-1.8429033955948433,0.44624219493666845,-0.15849906011578282,0.5328754469506323,-0.5183550773908645,-0.011892000000000014,0.11038300000000012,-0.9094019999999999,0.07938800000000001,-0.09974699999999981,-0.911971,0.09128000000000003,0.21012999999999993,0.0025690000000000435,0.9392294770673284,0.9832049154150766,double,-0.9094019999999999
9,0.075,jog,-0.060602424096961253,0.014400576023055335,0.0,0.14549136937946244,-0.147709475105794,0.2171360057727089,0.0034801392055750367,0.0030001200047932025,0.010320412816512164,0.007920316812687097,-0.004920196807893893,-0.0031201248049919916,1.2950755262182863,0.6049831709052482,0.7631694756626806,-0.8351164840068895,2.217554506643799,0.07214572834626348,0.07211116834979456,0.21592051303141055,-0.17283801682957378,-0.01135799999999998,0.11028799999999994,-0.909316,0.07995900000000011,-0.09990800000000011,-0.911997,0.09131700000000009,0.21019600000000005,0.0026809999999999334,0.954361607607085,0.9836127646355405,double,-0.909316
10,0.083333,jog,-0.07224288971558754,0.027241089643582985,-0.010440417616698446,0.0920788435651416,-0.13058804054635037,0.20079868456332345,0.0026401056042201455,0.005160206408258156,0.012600504020160906,0.007440297611905249,-0.006720268810732499,-0.0024000960038400537,-1.3969117507051811,1.5409232713941725,-1.252900230013013,-0.10080806448516627,0.259220737245284,0.2736218893134213,-0.0576046082781528,-0.2160172810318738,0.08640691241472907,-0.010734000000000021,0.11010399999999998,-0.909124,0.08062300000000011,-0.10019099999999992,-0.91193,0.09135700000000013,0.2102949999999999,0.002805999999999975,0.9488237124917327,0.9828179274411868,double,-0.909124
11,0.091667,jog,-0.05279577633789252,0.01043916486680445,-0.0013198944084453147,0.10125934857886576,-0.13167908462047215,0.017823895117774498,0.0013198944084453147,0.006239500839925728,0.01055915526757917,0.01583873290137042,-0.01943844492440552,0.0027597792176620186,2.333466927969166,-2.016069687638414,1.094375234971579,-0.15841267047934146,0.12950497140239656,-0.2449422549294142,1.0077316162065248,-1.5260590489168502,0.6191354957405899,-0.010283000000000042,0.11006899999999997,-0.9090250000000001,0.08119500000000013,-0.10043999999999986,-0.911896,0.09147800000000017,0.21050899999999984,0.002870999999999957,0.9507305163849891,0.9579571983195716,double,-0.9090250000000001
12,0.1,jog,-0.07860314412577363,0.025441017640717725,-0.006960278411136739,0.04378406568511139,-0.01750386954757695,0.29298470001321897,0.003720148805965948,0.004320172806929917,0.012720508820352201,0.00768030721226952,-0.008280331213260135,-0.005520220808832041,-3.097008014866325,1.8002943446433772,-0.6768731552491802,0.2880420493844511,-0.23032857710258128,0.2593728012448134,-0.9790502447018955,1.339027206425702,-0.9936397487692371,-0.009596999999999856,0.10989300000000002,-0.908861,0.08191400000000004,-0.10072100000000006,-0.911884,0.0915109999999999,0.21061400000000008,0.003022999999999998,0.9465371960325177,0.9790487442928438,double,-0.908861
13,0.108333,jog,-0.07008280331212269,0.027361094443765166,-0.003960158406343548,0.09389278871789226,-0.09516699139085379,0.16994943580240218,0.006720268810759157,0.0015600624024743456,0.010920436817472803,0.03552142085684318,0.030481219248767153,-0.010920436817472803,1.02248179690999,0.2304184331030172,0.3600288017272522,0.36002880172725443,-0.33122649759457257,-0.2160172810367694,3.3410672800400434,4.651572118328012,-0.6480518431106165,-0.008956999999999882,0.10967799999999994,-0.908737,0.08279400000000003,-0.10069499999999998,-0.911942,0.09175099999999992,0.21037299999999992,0.0032050000000000134,0.946421482228804,0.9198936122871451,double,-0.908737
14,0.116667,jog,-0.07907367410606726,0.028917686585065452,-0.008279337652986041,0.15883784005755072,-0.1714879246805964,0.11051846002446432,0.004799616030695695,0.001799856011530868,0.008639308855291883,0.00371970242379316,-0.004079673626120648,0.006599472042236554,-1.0788181898181626,0.18677611486684484,-0.5182600487931952,-0.23045989681586992,0.028772931252282467,-0.2737134583850394,-3.8159009398908075,-4.146975386955576,2.102220885494281,-0.008258000000000099,0.1094520000000001,-0.908596,0.08348399999999989,-0.10097,-0.911818,0.09174199999999999,0.2104220000000001,0.003222000000000058,0.9510373852764304,0.985659599198467,double,-0.908596
15,0.125,jog,-0.06312252490099926,0.03156126245051295,-0.012360494419772508,0.09143051457435632,-0.18038647858085727,0.06398745539397767,0.007320292811723126,-0.000840033601354887,0.0073202928117123015,0.005760230409222134,-0.003840153606121443,0.009840393615744486,1.9142144731870894,0.31724179352544135,-0.4897584023504704,0.30249331345583025,-0.3167994255233118,-0.15828825675982025,0.24487315317760425,0.028743552141990304,0.3889261458667868,-0.007670999999999983,0.10918199999999989,-0.908432,0.08405799999999997,-0.10126499999999994,-0.911633,0.09172899999999995,0.21044699999999983,0.0032010000000000094,0.950679194916503,0.9799472653154295,double,-0.908432
16,0.133333,jog,-0.06636265450618327,0.03720148805952624,-0.01476059042361504,0.09263550168615285,-0.21490478182867884,0.056649636555708954,0.003480139205575031,-0.002760110404402281,0.005280211208448618,0.005280211208440291,0.0008400336013282392,0.013680547221889222,-0.3888311058663153,0.6768541472474842,-0.2880230413827588,-0.46083686621241954,-0.2304184331030112,-0.24481958517504884,-0.05760460827815228,0.561644930691189,0.46083686621201636,-0.007088999999999901,0.10884899999999997,-0.9082650000000001,0.08465499999999992,-0.1015680000000001,-0.9113960000000001,0.09174399999999983,0.21041700000000008,0.003130999999999995,0.9571899747898227,0.9755196417085815,double,-0.9082650000000001
17,0.141667,jog,-0.10163186945044926,0.008399328053757458,0.002399808015347855,0.26579266954198866,-0.11432771459748367,0.3467166210457659,0.0005999520038436247,0.001319894408445317,0.0016798656107511586,-0.011999040076792563,0.018118550515960233,0.004199664026877897,-4.2319672359330545,-3.4559827220744963,2.0590830860286697,-0.3455948166224398,0.4895614126287026,-0.4320069111708024,-2.0733442866850127,2.0732561692623035,-1.1376149742034254,-0.006236999999999826,0.10878999999999994,-0.9082709999999999,0.08540199999999998,-0.1014870000000001,-0.911381,0.0916389999999998,0.21027700000000005,0.003110000000000057,0.9652016474664215,0.9631106755316765,double,-0.9082709999999999
18,0.15,jog,-0.0889235569422633,0.023400936037434903,-0.00024000960037759357,0.07319854614276608,-0.09646406728792725,0.24337817787473645,0.00180007200286526,0.0007200288011461039,0.004560182407295853,0.005280211208466937,0.00504020160807602,0.014280571222849028,1.5250585033224473,1.8002649686400376,-0.31679078551847434,0.14402016068902368,-0.07198675234599934,0.34565184165902935,2.0735930979550563,-1.5694646475320053,1.209757253806687,-0.005481000000000069,0.10860099999999995,-0.908231,0.08618700000000001,-0.10163999999999995,-0.91126,0.09166800000000008,0.2102409999999999,0.0030289999999999484,0.9614513405248071,0.9732699203399919,double,-0.908231
19,0.158333,jog,-0.06180247209888909,0.04524180967239547,-0.021960878435142696,0.01323906795825869,-0.37704713321373556,0.0761820178975908,-0.0007200288011461039,0.00252010080403801,0.004680187207488812,0.009600384015343561,0.00180007200286526,0.013680547221888389,3.254660367619607,2.6210096765823288,-2.6066085245127906,-0.3024241934491014,0.2160172810382701,0.014401152069237907,0.5184414744841739,-0.3888311058695257,-0.07200576034569044,-0.0049719999999999764,0.10824499999999992,-0.908009,0.08678199999999991,-0.10200200000000015,-0.910963,0.09175399999999989,0.21024700000000007,0.002954000000000012,0.9615198437382947,0.9719838833710606,double,-0.908009
20,0.166667,jog,-0.07151427885769623,0.046436285097182006,-0.03527717782577588,0.019999241697417826,-0.28226099571263474,0.10316163313987381,0.0008399328053597571,0.008159347252214653,0.005279577633788743,0.013678905687565324,0.0019198464122889352,0.011039116870650553,-1.1653235851700428,0.14332558492759043,-1.59782810062793,0.18718041834723537,0.6766554413458887,0.07192109746819421,0.4893834499906118,0.014371779388489945,-0.31694628644562434,-0.004369000000000067,0.10792599999999997,-0.9076709999999999,0.08749200000000013,-0.10237300000000005,-0.910577,0.09186100000000019,0.210299,0.002906000000000075,0.9546821493586992,0.9705296583956398,double,-0.9076709999999999
21,0.175,jog,-0.12228489139564186,0.0343213728549153,-0.013080523220918636,0.2779414703990313,-0.11653935626934421,0.4674440782771651,-0.001200048001901295,0.011400456018235505,0.006840273610944634,0.019560782431286887,-0.003600144005757178,0.019200768030721328,-6.09271721324202,-1.4538476229769273,2.6637051007869075,-0.2448074891708937,0.3889486098668979,0.18729100889906333,0.7058534433843247,-0.6624253471794224,0.9794373167011635,-0.0033600000000000296,0.10773499999999991,-0.907505,0.08867399999999992,-0.10268900000000003,-0.910308,0.09203399999999995,0.21042399999999994,0.002803,0.9497214135465759,0.95392473732046,double,-0.907505
22,0.183333,jog,-0.10068402736109845,0.032521300852023274,-0.03060122404896256,0.08128072185281726,-0.32193917469440525,0.2645567024050425,0.0007200288011461039,0.008040321612869218,0.00864034561382486,0.006600264010550363,0.011280451218053333,0.00432017280691243,2.5922073724401042,-0.21601728103828455,-2.102568202093353,0.23041843310301183,-0.4032322579342714,0.21601728103686835,-1.55532442346532,1.7857428565715228,-1.7857428565713291,-0.002515000000000045,0.10753100000000004,-0.907178,0.08956799999999987,-0.1028659999999999,-0.9100170000000001,0.09208299999999991,0.21039699999999995,0.002839000000000036,0.9519023600940034,0.9770582889712602,double,-0.907178
23,0.191667,jog,-0.09215262778978896,0.029037676985850164,-0.0207583393328508,0.031821558213109426,-0.29697985313062725,0.22181831683604913,0.0019198464122889352,0.0034797216222770253,0.007559395248380189,0.011399088072975544,0.004439644828421493,0.006719462443004612,1.0236860536728445,-0.4180014238268667,1.181051681798866,0.14396659600945888,-0.5472282206134136,-0.12970366755995558,0.5758128224652239,-0.8208311002677985,0.28789172499306215,-0.001730999999999927,0.10731800000000002,-0.906942,0.09043100000000015,-0.10307099999999991,-0.909788,0.09216200000000008,0.21038899999999994,0.002846000000000015,0.9573059710028948,0.9767381553097894,double,-0.906942
24,0.2,jog,-0.10176407056281761,0.038041521660854484,-0.03516140645627007,-0.07836416601565892,-0.22392960891447927,0.3084599055024336,0.003120124805001979,-0.0004800192007818336,0.007800312012479967,0.012240489619563706,0.002760110404402281,0.00432017280691243,-1.1534192695342187,1.0805045811837648,-1.7284371922980029,0.1440391686923128,-0.475187906283314,0.028911168138698897,0.10097222447955856,-0.2015521929700241,-0.2879262733819969,-0.0008569999999998856,0.10699700000000001,-0.906584,0.09138099999999993,-0.10336499999999993,-0.9094589999999999,0.09223799999999982,0.21036199999999994,0.002874999999999961,0.9572251743203597,0.9778821534695068,double,-0.906584
25,0.208333,jog,-0.10032401296052575,0.03156126245051301,-0.03432137285490198,-0.1200222146862563,-0.2513109109683347,0.24537250784573592,0.002640105604220154,-0.002520100804011372,0.009960398415936631,0.007320292811723138,0.004200168006721149,0.0056402256090241866,0.1728138248280172,-0.7776622117294482,0.10080806448675066,-0.057604608278150234,-0.24481958517095206,0.2592207372442901,-0.5904472348302628,0.17281382483125782,0.15841267276032162,1.000000000139778e-06,0.10671300000000006,-0.9062150000000001,0.09227800000000008,-0.10359300000000005,-0.9091260000000001,0.09227699999999994,0.2103060000000001,0.002910999999999997,0.953209926292574,0.9830818766592071,double,-0.9062150000000001
26,0.216667,jog,-0.12431005519556201,0.03527717782577588,-0.0344372450204028,-0.15406364934316463,-0.16865367126401698,0.39628683072141385,0.00455963522917956,-0.0015598752099880903,0.009719222462203575,0.017398608111358484,0.030357571394295475,0.023158147348211967,-2.8780948206186996,0.44587417509753613,-0.013903547576292806,0.2303251289848097,0.11521785385448535,-0.028938799344019144,1.2093010918688907,3.138637315523674,2.1019824501065227,0.0010749999999999371,0.106406,-0.9058470000000001,0.09345899999999996,-0.103634,-0.9086460000000001,0.09238400000000002,0.21004,0.002798999999999996,0.9539294111634333,0.9300676220717099,double,-0.9058470000000001
27,0.225,jog,-0.1387255490219796,0.03096123844952229,-0.019560782431300144,-0.10184105347895467,-0.20146525906581428,0.5507056824347463,0.007800312012478302,-0.0030001200047931973,0.010440417616704275,0.007200288011514332,0.00840033601344227,0.006360254410176101,-1.72992845630836,-0.5179334424881297,1.7852469205691404,0.3888967698666433,-0.17283628882816582,0.08654688041530048,-1.2238473658759323,-2.634973644648168,-2.015827785675729,0.0022960000000000758,0.10612300000000019,-0.905597,0.09467500000000006,-0.10382199999999986,-0.90843,0.09237899999999999,0.20994500000000005,0.0028329999999999744,0.9493809950158303,0.978730392787565,double,-0.905597
28,0.233333,jog,-0.14976599063961535,0.02628105124207261,-0.01968078723148228,-0.012200636419473165,-0.11613655377841527,0.5639626917081586,0.012360494419772489,-0.0019200768030740415,0.008880355214208283,0.006120244809795177,0.009720388815552343,0.0070802832113288664,-1.3249059903559044,-0.5616449306911885,-0.014401152067938999,0.5472437786264471,0.12961036862104344,-0.18721497689859487,-0.1296103686210434,0.15841267276011906,0.08640691241482842,0.003646999999999956,0.10588799999999998,-0.905359,0.095974,-0.10396000000000005,-0.9082070000000001,0.09232700000000005,0.20984800000000003,0.0028480000000000727,0.9459525931245003,0.9775108812972211,double,-0.905359
29,0.241667,jog,-0.14794816414687337,0.046556275497940225,-0.028317734581235245,-0.11286527817601735,-0.02602707573721788,0.6242236045292094,0.021118310535151716,0.015838732901370448,0.006479481641468517,0.005879529637624893,0.0075593952483710555,0.005879529637629055,0.21812172939068694,2.4328322841213894,-1.0363507739084457,1.0508538655362667,2.130886693597856,-0.2880817821861977,-0.028883509979635773,-0.25929848418302043,-0.14407890253177516,0.005055999999999949,0.10563200000000017,-0.905069,0.09725600000000001,-0.10428499999999996,-0.907922,0.09220000000000006,0.20991700000000013,0.0028529999999999944,0.9261675539622191,0.9812707749136571,double,-0.905069
30,0.25,jog,-0.14448577943117508,0.0013200528021100728,-0.006240249609990635,-0.18481171910948133,-0.06465488265093987,0.5211368743759147,0.014160566422664394,0.004080163206512354,0.011400456018240464,0.0019200768030740415,0.008520340813624405,0.007080283211328034,0.4155027859952344,-5.4285638660542554,2.6494041727162596,-0.8349626920061581,-1.411084806775241,0.5905405468345066,-0.47515334627995287,0.11531808055362401,0.14409619269158497,0.006377999999999995,0.10565500000000005,-0.904922,0.09847600000000001,-0.10422500000000001,-0.907811,0.09209800000000001,0.20988000000000007,0.0028890000000000304,0.9400571878788955,0.9812610541575817,double,-0.904922
31,0.258333,jog,-0.1809672386895558,0.023280931237252847,-0.0190807632305317,-0.09023453437028729,-0.11930918828378319,0.628343173861239,0.01692067682706673,0.009360374414979321,0.01356054242169714,0.006840273610941304,0.021240849633996663,0.0012000480019204473,-4.377950229014859,2.6354108286502855,-1.5409232713957874,0.3312264975881847,0.6336506910436794,0.25922073724429157,0.5904472348334663,1.526522119329448,-0.7056564513869675,0.008027000000000006,0.10553900000000005,-0.90465,0.10004100000000005,-0.10424199999999995,-0.907642,0.09201400000000004,0.209781,0.0029919999999999947,0.9307165149378656,0.9627544502489258,double,-0.90465
32,0.266667,jog,-0.14650827933764285,0.013438924886022547,-0.023278137748970036,-0.2635738443534167,-0.2396247625430828,0.511763138866826,0.013318934485237835,0.015718742500612327,0.01067914566834721,-0.0002399808015427777,0.011279097672190834,0.005159587233021518,4.1347443426821355,-1.1809462864447193,-0.5036446506405488,-0.43217450705890226,0.762943134825174,-0.34573995120589485,-0.8495625644929294,-1.1953146102478784,0.4751066991961923,0.009358999999999895,0.10555800000000004,-0.904367,0.1012599999999999,-0.10426000000000002,-0.907405,0.09190100000000001,0.20981800000000006,0.003037999999999985,0.9309433836857035,0.979324130039861,double,-0.904367
33,0.275,jog,-0.13812552502101516,0.017400696027821804,-0.04176167046682029,-0.4875231941315197,-0.18101172025960072,0.29564273409697545,0.017160686427457536,0.025561022440899778,0.01500060002400091,-0.001440057602292203,0.01308052322091855,0.005400216008639895,1.0059707568255913,0.47543155427808004,-2.218112650648047,0.4610286742133307,1.1811208376679958,0.5185952664891014,-0.144014976688998,0.21617971303584632,0.028876608138530598,0.010653000000000024,0.10562600000000022,-0.903894,0.10239900000000013,-0.10429599999999994,-0.907012,0.0917460000000001,0.20992200000000016,0.003118000000000065,0.9117412768779973,0.9762925125182593,double,-0.903894
34,0.283333,jog,-0.16860674426975664,-0.01740069602782192,0.010800432017271535,-0.17743007166567043,-0.09730272033523127,0.7229493105252338,0.014280571222846577,0.03708148325931759,0.006000240009599738,-0.002280091203647101,0.014160566422664441,0.0061202448097926986,-3.6578926255540085,-4.1763341000412595,6.307704606275286,-0.3456276496593023,1.3825105986340858,-1.0800864051843506,-0.10080806448516741,0.12961036862425232,0.08640691241483328,0.012176999999999882,0.10607999999999995,-0.903934,0.10378500000000002,-0.10403300000000004,-0.9070509999999999,0.09160800000000013,0.210113,0.0031169999999999254,0.9018521015861982,0.9740097318512703,double,-0.903934
35,0.291667,jog,-0.20518358531318678,-0.023998080153585045,0.0010799136069158564,-0.041503315007318665,-0.12266013588997034,0.7285177918202195,0.03191744660428356,0.05207583393329074,0.00803935685145159,-0.004919606431480405,0.017758579313659328,0.006119510439165153,-4.3888698156263635,-0.7916227652703528,-1.166368899730702,2.1162557453128112,1.7991781466250465,0.24467444706645677,-0.31671649002079455,0.4317270087586853,-8.811742591140446e-05,0.014153000000000082,0.10671399999999998,-0.903876,0.10545400000000016,-0.10368500000000003,-0.907009,0.09130100000000008,0.210399,0.0031329999999999414,0.8659940380808262,0.9676384111992472,double,-0.903876
36,0.3,jog,-0.15216608664344508,0.019800792031677804,-0.01644065762629822,-0.23935390057686196,-0.30643356877646,0.346251679985582,0.013920556822273524,0.06000240009599738,0.010800432017281527,-0.003840153606148096,0.01800072002878589,0.012240489619584564,6.362354334542402,5.256074905227764,-2.102552650091698,-2.1597131623677046,0.951225988564342,0.3313422735905368,0.12953952062070226,0.02905804813711323,0.7345468835256722,0.015536999999999912,0.10704899999999995,-0.903649,0.10668999999999995,-0.10370000000000013,-0.9067700000000001,0.09115300000000004,0.21074900000000008,0.0031210000000000404,0.8645637603511502,0.9631594167240384,double,-0.903649
37,0.308333,jog,-0.12216488659548556,0.01140045601823543,-0.00804032161286919,-0.2911111604539363,-0.3016599607610487,0.5515895220053384,-0.012360494419772447,0.019680787231495536,0.02172086883475337,-0.009240369614797125,0.01596063842555625,0.008280331213248449,3.600288017275818,-1.0080806448388742,1.0080806448372728,-3.1538523031376293,-4.83878709522401,1.3105048382901474,-0.6480518431116052,-0.24481958517096292,-0.47523801828106316,0.016452000000000133,0.10711800000000005,-0.903401,0.10763100000000003,-0.10366199999999992,-0.906634,0.0911789999999999,0.21077999999999997,0.0032330000000000414,0.9146524098558584,0.9663065166797583,double,-0.903401
38,0.316667,jog,-0.23158147348212121,-0.06035517158626386,0.02843772498200673,0.04513093464601728,0.028354705872554013,0.9304878763548209,0.011639068874491756,0.05087592992560384,0.00311975041996621,-0.019438444924405617,0.036837053035737574,0.0005999520038394636,-13.128940111187458,-8.609986513618875,4.377015430150723,2.879717217934286,3.743117673879107,-2.2319556533222062,-1.223671143461549,2.5049693556733192,-0.9215717793867325,0.018479000000000134,0.10804499999999995,-0.9036120000000001,0.10939900000000002,-0.10285200000000017,-0.9068660000000001,0.09091999999999989,0.2108970000000001,0.003253999999999979,0.8803208868796726,0.930574149070077,double,-0.9036120000000001
39,0.325,jog,-0.16404656186246133,-0.010200408016334142,-0.0036001440057704774,-0.11928139739688545,-0.2437855441979166,0.5750620798435334,0.016680667226675702,0.0475219008760424,0.006480259210368207,-0.027481099243973812,0.022680907236288725,0.011760470418816808,8.104513574902148,6.018812380886777,-3.8446980664559067,0.6050160029021872,-0.4024995859308083,0.40327718593567535,-0.9651571246331646,-1.698805448151781,1.3393157824285729,0.01998499999999992,0.10852600000000012,-0.903528,0.11053699999999989,-0.10257800000000006,-0.9067379999999999,0.09055199999999997,0.21110400000000018,0.003209999999999935,0.8832673053484607,0.9374623883573046,double,-0.903528
40,0.333333,jog,-0.2478099123964945,-0.07788311532460114,0.036841473658953315,0.2487682213111721,-0.07467635518403506,1.1299086781803735,0.01776071042842162,0.054122164886593105,0.003360134405376253,-0.015000600023992684,0.005520220808831226,-0.012840513620545205,-10.052004144249775,-8.12224976698274,4.8531882472967585,0.12961036862425543,0.7920633638006389,-0.3744299537971873,1.4977198151903466,-2.05936474588474,-2.9522361741704155,0.02219799999999994,0.109626,-0.903807,0.11247699999999994,-0.10188300000000017,-0.9071520000000001,0.090279,0.21150900000000017,0.0033450000000000424,0.8714485619025079,0.9658284707160467,double,-0.903807
41,0.341667,jog,-0.1857451403887813,-0.011639068874491678,-0.01547876169906955,-0.12596588559792946,-0.15777874217110438,0.7194841092202515,0.010079193664503588,0.04199664026876051,0.0026397888168956207,-0.046076313894881156,-0.002639788816890625,0.024238060955123663,7.4471768667762355,7.948649682038565,-6.2779260088820275,-0.9217082750081623,-1.454946558415237,-0.08643455585320751,-3.7287873615176914,-0.9791228252606005,4.449073023238401,0.023830000000000018,0.11007299999999987,-0.903656,0.1136410000000001,-0.10180800000000012,-0.906821,0.08981100000000009,0.21188099999999999,0.0031649999999999734,0.8962336506480277,0.9131175956632298,double,-0.903656
42,0.35,jog,-0.19752790111604948,-0.025441017640717812,-0.009720388815552376,0.1993987029567194,-0.07651618473722087,0.8429955523790036,0.014760590423628412,0.028921156846292855,-0.000720028801152768,-0.0716428657146238,-0.00444017760708542,0.03720148805952304,-1.413987846786058,-1.6563001039512983,0.6910323873175552,0.5617900826982882,-1.5691207755271435,-0.4031942419354851,-3.0681089427268344,-0.21605529703525736,1.5556734794671074,0.02559900000000015,0.11052600000000012,-0.903581,0.11469000000000018,-0.10163299999999986,-0.90643,0.08909100000000003,0.212159,0.0028489999999999904,0.9173798383406444,0.8652536735315319,double,-0.903581
43,0.358333,jog,-0.1851674066962491,-0.01488059522381045,-0.040921636865478735,0.10250559301401034,-0.07149742303624496,0.6157618595468684,0.01728069122763967,0.022440897635897808,-0.0009600384015353521,-0.08412336493460455,-0.020280811232459502,0.05892235689427533,1.4833186631225654,1.2673013820841617,-3.7442995379726662,0.30242419344908744,-0.7776622117358718,-0.0288023041380755,-1.497719815190291,-1.9009520731278071,2.6066085245112447,0.02728599999999992,0.11083700000000007,-0.9032479999999999,0.11553199999999997,-0.10167799999999994,-0.9055979999999999,0.08824600000000005,0.212515,0.0023499999999999632,0.9292671886131434,0.8255174636711959,double,-0.9032479999999999
44,0.366667,jog,-0.1855051595872385,-0.04043676505879906,-0.046076313894881156,0.2963320680135624,-0.07080683682243963,0.6052330892150417,0.014878809695225927,0.015958723302128462,-0.007199424046076847,-0.14302855771539247,-0.05219582433404881,0.06959443244540396,-0.040527104750350075,-3.066495060593783,-0.618511762587283,-0.28820272767143496,-0.7777986961566282,-0.7486663840342559,-7.068057689079416,-3.829495212573708,1.280546622405642,0.028955999999999982,0.11130700000000004,-0.9029240000000001,0.11588599999999993,-0.10177599999999987,-0.904634,0.08692999999999995,0.2130829999999999,0.0017099999999999893,0.9446068495399607,0.7209890612087935,double,-0.9029240000000001
45,0.375,jog,-0.19212768510740041,-0.011400456018235505,-0.08064322572903007,0.27054306818074253,-0.3582421814680078,0.4565025850199071,0.013440537621518336,0.011520460818444288,-0.008400336013440632,-0.12780511220447308,-0.014520580823237495,0.12660506420256845,-0.794734851813503,3.484496464726224,-4.148195347911797,-0.17259955282702447,-0.5326128025542044,-0.14411520069168227,1.8268865367718026,4.521210069700157,6.841549472838669,0.030669000000000057,0.1114980000000001,-0.902322,0.11642200000000003,-0.10180199999999995,-0.902907,0.08575299999999997,0.21330000000000005,0.0005850000000000577,0.9614929132174845,0.6991962791362178,double,-0.902322
46,0.383333,jog,-0.21600864034561723,-0.03744149765989064,-0.08784351374054443,0.15549492333736617,0.26485341604813717,0.8605337008771469,0.043441737669503704,0.002280091203647101,-0.0350414016560664,-0.134285371414868,0.04032161286450171,0.2508100324012977,-2.8658292617564953,-3.1250499989985836,-0.864069124146691,3.6002880172789444,-1.1088887093240383,-3.1970557593454743,-0.7776622117358608,6.581326495588545,14.905192391543206,0.032831000000000055,0.11182899999999996,-0.9018820000000001,0.11710299999999996,-0.10115400000000019,-0.900085,0.0842719999999999,0.21298300000000014,0.0017970000000000486,0.9069008411294606,0.5031306084747729,double,-0.900085
47,0.391667,jog,-0.1958243340532849,-0.05519558435326692,-0.09515238780898043,0.2852154296067199,-0.09064127921868084,0.4989259449539851,0.01283897288215228,0.003119750419949537,-0.0137988960883134,-0.14710823134148646,0.03599712023040421,0.19606431485481102,2.421923001239779,-2.1303199776069435,-0.8769947286340284,-3.672038011441252,0.10075104587262242,2.548896756389847,-1.5386201015860879,-0.5188976042833572,-6.5689605887312945,0.03456999999999999,0.11231499999999994,-0.901204,0.11750900000000009,-0.10039399999999987,-0.897658,0.0829390000000001,0.21270899999999981,0.003546000000000049,0.9681591806093932,0.5516308091736657,double,-0.897658
48,0.4,jog,-0.2013680547221696,-0.05928237129485088,-0.10092403696147571,0.01130711730843613,0.18010583451698148,0.534076615246508,0.01320052802112733,0.0038401536061480703,-0.008040321612864195,-0.19500780031201018,0.06636265450618305,0.21228849153965984,-0.6652730911898088,-0.4904340503520871,-0.6926256033235642,0.04338835221109423,0.08645184041744032,0.6910565793170744,-5.748178203590966,3.644009873488385,1.9469790813451044,0.03635799999999989,0.11284099999999997,-0.9004300000000001,0.11756199999999994,-0.09934699999999985,-0.8950480000000001,0.08120400000000005,0.21218799999999982,0.005381999999999998,0.9734561426129806,0.45317772443668036,single,-0.8950480000000001
49,0.408333,jog,-0.27601104044164126,-0.0938437537501575,-0.07512300492019884,0.03930605126910326,0.33387623833612656,0.7918928842301994,0.004080163206539014,-0.001200048001901295,-0.009960398415936631,-0.21084843393735905,0.09780391215646107,0.2854914196567877,-8.957516587000104,-4.14753179590864,3.096247694861027,-1.0944875572528907,-0.6048483869014014,-0.23041843310601717,-1.9009520731247949,3.7731018421070566,8.784702762165852,0.03869200000000017,0.11361300000000019,-0.899887,0.11810500000000013,-0.09775,-0.892043,0.07941299999999996,0.2113630000000002,0.007843999999999962,0.9819493472260962,0.42155999999999993,single,-0.892043
50,0.416667,jog,-0.2435805135589122,-0.09383249340050848,-0.05951523878090371,-0.19739601829644135,0.25990974995018257,0.5386619067585093,0.010919126469863346,-0.005399568034565961,-0.023638108951284202,-0.19150467962562145,0.07211423086153985,0.2980561555075591,3.8913519177740628,0.0013511338671726794,1.8727821141462824,0.8206099428034948,-0.5039020917524193,-1.641193968724209,2.321064832221932,-3.0825151541782088,1.5076476902773432,0.04081299999999999,0.11434999999999995,-0.8995879999999999,0.11853900000000017,-0.09636700000000009,-0.8890629999999999,0.07772600000000018,0.21071700000000004,0.010525000000000007,0.9556797371204159,0.39474999999999993,single,-0.8890629999999999
51,0.425,jog,-0.2682107284291363,-0.09252370094804742,-0.0772830913236505,-0.27827801627995596,0.26330319271736413,0.5057089961470986,-0.00924036961477054,0.01692067682706673,0.012240489619585397,-0.28033121324854454,0.08832353294132626,0.2941317652706109,-2.9557440141874665,0.15706137675039733,-2.132227594233389,-2.4192362996080568,2.678536524856924,4.305604052666469,-10.659610419167564,1.9451940573366673,-0.47094566626043355,0.04297100000000009,0.11526199999999998,-0.8988419999999999,0.11843800000000004,-0.09485999999999994,-0.885968,0.07546699999999995,0.21012199999999992,0.012873999999999941,0.9619385248347863,0.37126000000000003,single,-0.885968
52,0.433333,jog,-0.28729149165966605,-0.11568462738509071,-0.07800312012479607,-0.08701816268841449,0.23309685826965362,0.5171477781798096,-0.00900036001440621,-0.008400336013442242,0.010080403216128691,-0.28405136205448195,0.09816392655706012,0.3355334213368529,-2.2897831789907217,-2.7794223493391566,-0.08640691241396556,0.028802304135884978,-3.038643086584527,-0.2592207372442934,-0.44643571414105254,1.1808944696668444,4.968397463847569,0.04529000000000005,0.11615599999999993,-0.898108,0.11846500000000004,-0.093078,-0.882522,0.07317499999999999,0.20923399999999992,0.015585999999999989,0.9734802665440224,0.34414,single,-0.882522
53,0.441667,jog,-0.3016558675305879,-0.12191024718024163,-0.054235661147109496,-0.2839531482538585,0.4804328685491216,0.5414192445616856,-0.020998320134393716,-0.0002399808015427793,0.007799376049915525,-0.4320854331653451,0.13426925845930843,0.41684665226781986,-1.7235872175332254,-0.7470146142489746,2.851866927968168,-1.4396400431950533,0.9791642922845584,-0.2737013638364746,-17.762667519902084,4.332293244810237,9.756807167142723,0.04762899999999992,0.11717,-0.897591,0.11737799999999998,-0.090943,-0.878596,0.06974900000000006,0.208113,0.018994999999999984,0.9626645348071632,0.31005000000000005,single,-0.878596
54,0.45,jog,-0.28909156366255795,-0.0946837873514851,-0.10272410896436762,-0.5005021926522492,0.3448084699000451,0.2945269436686571,-0.011640465618626345,-0.028801152046057234,0.013320532821312795,-0.38209528381135993,-0.021360854434152008,0.39529581183247225,1.507776775234594,3.2673058716856374,-5.818846491930628,1.1229874613905353,-3.427477648447658,0.6625653151802768,5.999057884793586,-18.67636060163924,-2.5862043004137187,0.04994100000000001,0.11771900000000013,-0.896624,0.11660300000000001,-0.09033199999999986,-0.874446,0.066662,0.20805099999999999,0.02217800000000003,0.9436665829970493,0.27821999999999997,single,-0.874446
55,0.458333,jog,-0.283571342853702,-0.10500420016800208,-0.07368294731789331,-0.7481981789974884,0.26008600570794316,0.1263162853630598,-0.00588023520940428,-0.04080163206528355,-0.03636145445817814,-0.5384615384615288,0.06936277451097671,0.3912156486259459,0.6624529951825225,-1.2384990779451586,3.4850788007289557,0.6912552993186224,-1.4401152069154377,-5.962076956617192,-18.76470114606615,10.887270964254043,-0.48963917034998045,0.05225499999999994,0.11825400000000008,-0.8963129999999999,0.114479,-0.08887899999999993,-0.8705719999999999,0.06222400000000006,0.207133,0.025741000000000014,0.9083862923341397,0.24259000000000003,single,-0.8705719999999999
56,0.466667,jog,-0.6105111591072686,-0.2114230861531125,-0.011879049676021134,-0.1268548305734195,-0.48959313223250206,0.5362726696401361,-0.051355891528662406,-0.011879049676034457,0.02087832973362219,-0.6163906887448934,0.07787377009838001,0.37580993520518274,-39.229639579261615,-12.769244778630949,7.415874447068888,-5.456642226932815,3.4704322521297173,6.868224645044429,-9.350749974005831,1.0212377714666776,-1.8485377274733765,0.05691500000000005,0.11991700000000005,-0.89604,0.11443000000000003,-0.08646799999999999,-0.867341,0.05751499999999998,0.20638500000000004,0.02869899999999992,0.9055065541900262,0.21301000000000014,single,-0.867341
57,0.475,jog,-0.35197407896316835,-0.14952598103922493,-0.014640585623419631,-0.42229803481526196,0.11579767411392515,0.1879614754674499,-0.04536181447260439,0.03696147845913545,0.012240489619583732,-0.6933877355094294,0.10680427217089399,0.3859354374174989,31.025690644917905,7.427949731655794,-0.3313975695906041,0.7193180194477412,5.861097820133209,-1.0365822769756965,-9.240015212352837,3.4717991206665126,1.215108869832737,0.05946999999999991,0.12147099999999988,-0.8958160000000001,0.11158500000000005,-0.08433200000000007,-0.8640030000000001,0.05211500000000013,0.20580299999999996,0.03181299999999998,0.9003663002089479,0.18186999999999992,single,-0.8640030000000001
58,0.483333,jog,-0.3001320052802203,-0.12540501620066966,-0.12816512660507193,0.2107234520012251,0.052080920235860056,0.5491038098275512,0.05592223688948464,0.04056162246489236,-0.01164046561862468,-0.793831753270132,0.040801632065283276,0.29521180847233647,6.221297693861491,2.8946315658892567,-13.623489857392514,12.154572346344487,0.43203456207331015,-2.8658292617554677,-12.05376428185553,-7.920633638018773,-10.887270964258018,0.062437000000000076,0.12285400000000002,-0.894845,0.1074710000000001,-0.08294699999999988,-0.860475,0.04503400000000002,0.2058009999999999,0.03437000000000001,0.8832376316862312,0.15630000000000005,single,-0.860475
59,0.491667,jog,-0.40292776577873396,-0.19294456443482483,-0.05663546916245698,0.05079017200161905,-0.1472189308830163,0.5243536334765757,0.006239500839925718,0.0038396928245778704,-0.00875929925605994,-0.8842092632589335,0.025557955363573137,0.2578593712502995,-12.334504499461667,-8.104097460301789,8.582872263332717,-5.961451409834278,-4.406279054513373,0.3457123065232466,-10.844433643964647,-1.8290948766150856,-4.481933911931477,0.06584699999999999,0.12449399999999988,-0.8944460000000001,0.10346000000000011,-0.08112600000000003,-0.8578540000000001,0.03761300000000012,0.20561999999999991,0.03659199999999996,0.9809678681657863,0.13408000000000003,single,-0.8578540000000001
60,0.5,jog,-0.3499339973598855,-0.17280691227650444,-0.06252250090004872,-0.2215894759795378,-0.16854047990838156,0.25569539042055994,0.04620184807393264,0.011520460818444288,-0.05712228489139547,-0.9911196447857958,-0.0472818912756518,0.21972878915156652,6.359506590525451,2.4166149235953966,-0.7064720673937069,4.795673495020643,0.9217290284251094,-5.8037904278573915,-12.82975897358246,-8.741131241956692,-4.575852885963409,0.06914799999999999,0.1260300000000001,-0.894401,0.09811700000000001,-0.08007999999999993,-0.855502,0.028969000000000023,0.20611000000000002,0.03889900000000002,0.8760568318617828,0.11101000000000005,single,-0.855502
61,0.508333,jog,-0.40477619104764867,-0.12804512180486316,-0.02964118564742544,-1.165498037213683,-0.3189618264726515,-0.2644887434933414,-0.012360494419772447,0.00792031681266041,-0.02820112804512158,-1.1746069842793552,-0.14112564502580835,0.21564862594503773,-6.581326495591376,5.371629721785802,3.9459156669414552,-7.027762209732971,-0.4320345620765466,3.4706776486587985,-22.019361513687574,-11.26170091805546,-0.489639170350267,0.0724180000000001,0.12716299999999991,-0.894389,0.09170200000000017,-0.08018900000000007,-0.8534579999999999,0.01928400000000008,0.20735199999999998,0.04093100000000005,0.9470110896368275,0.09068999999999999,single,-0.8534579999999999
62,0.516667,jog,-0.5026397888168973,-0.1769858411327242,0.014878809695226026,-0.7314404575014177,-0.9004975894753744,0.23781070770241447,0.013918886489081551,0.0205183585313348,-0.04043676505879517,-1.2283417326614003,-0.13870890328772995,0.14986801055915613,-11.742692316924549,-5.872416526021277,5.341972083351538,3.1532734471867228,1.5116440747149582,-1.4681589889217255,-6.447653993525975,0.2899858097046338,-7.893042402913602,0.0767230000000001,0.12880900000000017,-0.8948499999999999,0.08565400000000012,-0.07986999999999989,-0.852333,0.008931000000000022,0.20867900000000006,0.042516999999999916,0.9209453352571685,0.07483000000000001,single,-0.852333
63,0.525,jog,-0.41869674786989547,-0.20184807392295143,-0.06816272650906163,0.261488830508174,-0.22306607795250455,0.29263058033749184,0.06444257770310902,-0.03132125285012188,-0.0037201488059526123,-1.2715708628345141,-0.1504860194407876,0.06888275531021273,10.073567856354432,-2.983587278318388,-9.965382959832871,6.063085469102035,-6.22100220586301,4.406170197148975,-5.187703128898791,-1.413310470785744,-9.718619374648153,0.08074899999999996,0.13023000000000007,-0.8943129999999999,0.07854699999999992,-0.07944200000000001,-0.8511909999999999,0.0022020000000000373,0.20967200000000008,0.043121999999999994,0.8804208048537039,0.06877999999999995,single,-0.8511909999999999
64,0.533333,jog,-0.43225729029162824,-0.1688467538701487,-0.04716188647545665,-0.3915504819534771,-0.4558421215227439,0.18452776386625758,-0.025441017640717982,-0.012960518420736587,-0.008640345613824114,-1.3289331573263086,-0.25753030121204856,0.02388095523820865,-1.6273301838152998,3.9603168190091247,2.5202016120971047,-10.78646289977533,2.2033762665769188,-0.5904472348339789,-6.883750689042955,-12.845827645657259,-5.400432025921576,0.08413899999999996,0.131529,-0.893992,0.071075,-0.08018100000000006,-0.850599,0.013063999999999965,0.21171000000000006,0.043393000000000015,0.950282017878172,0.06607000000000007,single,-0.850599
65,0.541667,jog,-0.416966642668584,-0.1738660907127457,-0.03803695704343764,-0.3353462038053029,-0.5700148415772969,0.09148847666860054,0.00011999040078470967,-0.00767938564915569,-0.0407967362610988,-1.3280537556995433,-0.2433405327573678,-0.10211183105351382,1.834730936290389,-0.6022722393324894,1.0949039395271112,3.067075598932385,0.6336852377706812,-3.8584582010168513,0.105519753631539,1.7026360036813832,-15.1179249210129,0.08761500000000011,0.13291399999999998,-0.894015,0.06348199999999993,-0.08075999999999994,-0.8511329999999999,0.024133000000000182,0.21367399999999992,0.04288200000000009,0.9308110266652427,0.07117999999999997,single,-0.8511329999999999
66,0.55,jog,-0.4362174486979394,-0.14592583703349343,-0.1080043201728079,-0.6762677807723039,-0.17685935330057048,0.12726451592280363,-0.014520580823237398,0.014400576023055263,-0.033001320052802506,-1.6213848553941885,-0.4762990519620898,-0.10524420976839063,-2.3101891310878773,3.352964560092661,-8.396419432301688,-1.756938824435623,2.649701388720852,0.9354873644901313,-35.20114000895764,-27.956140550188533,-0.3759004818044885,0.09112900000000002,0.1342500000000002,-0.8933899999999999,0.05360600000000004,-0.08351299999999995,-0.8511099999999999,0.03752299999999997,0.21776300000000015,0.042279999999999984,0.9352931614796509,0.07719999999999999,single,-0.8511099999999999
67,0.558333,jog,-0.381135245409828,-0.15840633625345013,-0.13692547701907573,-1.083336075461612,0.6215368479748066,0.03217682252171167,0.09288371534862108,0.060362414496570836,-0.07164286571462927,-1.6439457578303436,-0.5172206888275621,-0.01068042721708947,6.6101287997254135,-1.497719815187425,-3.4706776486581186,12.88903110186721,5.515641242471618,-4.637170966257905,-2.707416589002191,-4.910792855570942,11.348107830469461,0.09507900000000014,0.1360730000000001,-0.892846,0.04308299999999998,-0.086503,-0.850058,0.05199600000000015,0.2225760000000001,0.04278800000000005,0.7801281568439374,0.07212000000000002,single,-0.850058
68,0.566667,jog,-0.40736741060713944,-0.17986561075112859,-0.25257979361651156,-1.1701140864310102,1.4821476204791353,-0.025362392818185434,0.004079673626093978,-0.007439404847612913,-0.02195824334053207,-1.630189584833186,-0.5525557955363493,-0.05015598752099814,-3.1476080150361434,-2.574906947165622,-13.877407799068267,-10.655632556098684,-8.135567475903915,5.961677750671565,1.650608710962021,-4.239873615165211,-4.736688301404892,0.09850799999999993,0.13751000000000002,-0.8909239999999999,0.03289200000000003,-0.08960900000000005,-0.848371,0.0656159999999999,0.22711900000000007,0.04255299999999995,0.9607659115059878,0.07447000000000009,single,-0.848371
69,0.575,jog,-0.4273370934837476,-0.24636985479420392,-0.15060602424097175,0.26783031651654154,0.2871566027189478,0.19322446597893964,-0.014280571222846672,0.0012000480019279496,-0.0010800432017283265,-1.694587783511362,-0.5220208808352207,-0.06804272170886874,-2.396457803505142,-7.980828518309846,12.237341818737638,-2.2033175145734814,1.0367758129774323,2.505484236025913,-7.728092965099806,3.6643363375889653,-2.146493962302984,0.10194999999999999,0.13957300000000017,-0.889678,0.02233200000000002,-0.09190599999999982,-0.847683,0.07961799999999997,0.231479,0.041995000000000005,0.9760474239975386,0.08005000000000007,single,-0.847683
70,0.583333,jog,-0.523220928837155,-0.36265450618022865,0.05520220808832522,1.901964271462095,-1.1820327362880714,1.0962789769506331,-0.03696147845913521,-0.018720748829958517,-0.0008400336013440577,-1.6885875435017397,-0.6522260890435685,-0.19128765150605923,-11.506520503228968,-13.954716354977108,24.697975798547475,-2.721817741064256,-2.390591243476105,0.028802304138277664,0.7200576034588239,-15.625249995001472,-14.789983174989796,0.10600200000000004,0.14243899999999998,-0.890145,0.012620999999999993,-0.09431900000000004,-0.849737,0.09338100000000005,0.23675800000000002,0.040408,0.930932340276386,0.09592,single,-0.849737
71,0.591667,jog,-0.45428365730740666,-0.2949364050875993,-0.11183105351572316,0.31305777094693477,0.38502651968097473,0.673944575095783,0.008039356851456533,0.034797216222690094,-0.023158147348211814,-1.883609311255084,-0.5652747780177434,-0.2667386609071257,8.27181083870264,8.125522089348316,-20.042388001445538,5.399668263809863,6.421642074951788,-2.6779594128710804,-23.400740071195447,10.433322657286348,-9.0533968563794,0.10985500000000004,0.14518699999999995,-0.8894059999999999,0.0007089999999999597,-0.09657199999999988,-0.8510279999999999,0.10914600000000008,0.24175899999999984,0.03837800000000002,0.929058370941801,0.11622000000000005,single,-0.8510279999999999
72,0.6,jog,-0.6619464778591163,-0.2846513860554497,0.01068042721708947,-1.0356060790709505,-2.2170719253769087,-0.93547567460518,-0.02064082563303283,0.018120724828994794,-0.0007200288011519401,-1.742229689187574,-0.8005520220809018,-0.0916836673466948,-24.92053528761689,1.2342516539241164,14.701965766568312,-3.441759568521496,-2.0012590176041587,2.6926819329245264,16.966233297433263,-28.23439866352581,21.007439524832897,0.11519899999999994,0.14771,-0.889501,-0.008292999999999995,-0.10087099999999993,-0.851881,0.12349199999999994,0.24858099999999994,0.03761999999999999,0.9542069027334207,0.12380000000000008,single,-0.851881
73,0.608333,jog,-0.3373334933397331,-0.05160206408255474,-0.14232569302770964,-1.4234481395670862,0.776114135222699,0.8553458986438796,-0.063482539301572,-0.03816152646106314,0.011280451218048299,-1.7224288971558863,-0.8190327613104588,-0.10956438257530221,38.9551163469797,27.96703731824001,-18.36146888813134,-5.141211288676225,-6.754140320419741,1.440115206912299,2.3761900914061593,-2.217777418643571,-2.145771658299213,0.11748099999999995,0.1478219999999999,-0.888221,-0.019835000000000047,-0.10726600000000008,-0.851608,0.137316,0.255088,0.03661300000000001,0.8751269146771542,0.13387000000000004,single,-0.851608
74,0.616667,jog,-0.4179265658747341,-0.16246700263979902,-0.07919366450683918,-0.6851859589396083,-0.3129727263163924,0.4585759805350115,-0.037916966642666756,-0.010919126469863418,0.014398848092152956,-1.8075353971682329,-0.7978161747060166,-0.07451403887688986,-9.670395072594365,-13.302728408596701,7.575237403512218,3.06762330920391,3.268826492824559,0.37417769067730683,-10.211963044438088,2.5457867295947043,4.205704787426512,0.12064799999999998,0.14908500000000013,-0.887441,-0.031416,-0.11256099999999991,-0.851569,0.15206399999999998,0.26164600000000005,0.035872000000000015,0.9299950297671882,0.14128000000000002,single,-0.851569
75,0.625,jog,-0.36121444857794976,-0.12888515540621803,-0.11676467058682319,0.03378305272866606,-1.6021408728929272,0.2844154651346891,-0.021960878435142623,-0.008280331213260108,0.025801032041281532,-1.7314292571702792,-0.8195127805112139,-0.1504860194407776,6.805726304666277,4.029982867344395,-4.508701077641168,1.9148071771899757,0.31666809751629665,1.368316806567686,9.133102123839357,-2.6036968444974424,-9.117002347760403,0.123475,0.15009000000000006,-0.8862530000000001,-0.04283399999999993,-0.11831599999999987,-0.85185,0.16630899999999993,0.2684059999999999,0.03440300000000007,0.9418685082229845,0.15597000000000005,single,-0.85185
76,0.633333,jog,-0.5423016920676732,-0.24156966278648892,0.1971678867154618,-2.203624193339516,-2.041722200480941,-0.10658753789292887,-0.02496099843993581,-0.004200168006721121,0.025801032041281532,-1.7446297851914065,-0.8685947437897573,-0.07968318732749252,-21.731338472305612,-13.522681792904166,37.67341381282655,-0.3600288017272502,0.4896391703514904,0.0,-1.5841267276043816,-5.890071196273036,8.496679720783007,0.12778599999999996,0.15206799999999987,-0.8876809999999999,-0.05285300000000004,-0.12354100000000012,-0.854157,0.180639,0.275609,0.03352399999999989,0.9397600605725921,0.16476000000000002,single,-0.854157
77,0.641667,jog,-0.7079433645308435,-0.43316534677227425,0.09155267578593262,2.0021977612808324,-0.2659095399259098,1.650689747655442,-0.012958963282937077,0.0033597312215189806,0.02579793616510693,-1.7733381329493725,-0.8987281017518646,-0.10727141828653673,-19.875410662727532,-22.98964290686182,-12.672811486624642,1.440129008519175,0.9071153381617644,-0.0003714754229185515,-3.4447261528637028,-3.6157136983570224,-3.310322889254184,0.13357799999999997,0.15570600000000012,-0.8882289999999999,-0.06173200000000001,-0.127421,-0.855814,0.19530999999999998,0.28312700000000013,0.03241499999999997,0.9515588549076679,0.17584999999999995,single,-0.855814
78,0.65,jog,-0.5951038041521692,-0.3016920676826947,0.4376575063002582,-3.2813453681513267,1.6315337425570362,-0.004415873751665606,-0.0134405376214916,0.014040561622455566,0.07308292331693218,-1.7189487579503113,-0.9289571582863273,-0.06600264010560501,13.541288896996734,15.777424587732991,41.534241031360146,-0.057791232275833576,1.2817509181491107,5.674425435236416,6.526986079330485,-3.627631889411089,4.952451479770977,0.13842500000000013,0.15833699999999995,-0.891267,-0.07109699999999997,-0.1326480000000001,-0.8600110000000001,0.2095220000000001,0.29098500000000005,0.03125599999999995,0.8739609947633351,0.18744000000000005,single,-0.8600110000000001
79,0.658333,jog,-0.5407416296651795,-0.39805592223689484,-0.06444257770310988,1.5970997543943413,-2.4784433632803267,0.18057418242668846,-0.00900036001440633,0.006960278411123485,0.025081003240129938,-1.6403456138245598,-0.9633985359414373,0.0007200288011527728,6.523721887314324,-11.564125111508584,-60.254420257215,0.5328426265552996,-0.8496679720787407,-5.760460827649428,9.432754605274482,-4.133130643838993,8.007040550433024,0.14285599999999998,0.16171199999999986,-0.890521,-0.08026,-0.137359,-0.859468,0.22311599999999998,0.29907099999999986,0.031052999999999997,0.9540982728635075,0.18946999999999997,single,-0.859468
80,0.666667,jog,-0.567314614830817,-0.3533717302615734,-0.1757859371250346,1.9143751418954242,-2.7693627792788806,0.05225179349791813,-0.0013198944084453037,0.020398368130549818,0.041636669066474376,-1.6348692104631637,-0.9995200383969145,-0.018718502519798678,-3.188503139625312,5.36167410311028,-13.360134319885274,0.9215821461436245,1.6124417709894683,1.9865209774831187,0.6571158341007988,-4.334233555972751,-2.332437163541073,0.14757300000000007,0.16482699999999983,-0.888709,-0.08915700000000004,-0.14274399999999998,-0.858159,0.2367300000000001,0.3075709999999998,0.030549999999999966,0.9226938310175058,0.1945,single,-0.858159
81,0.675,jog,-0.35629425177006924,-0.20700828033120958,-0.25945037801511917,0.726976462549547,-0.9946474194527998,0.4236751037075704,-0.0009600384015370176,0.022440897635924453,0.05676227049081954,-1.6360254410176214,-1.0475219008760557,-0.04428177127084997,25.32345650554985,17.56431656430616,-10.040134512190594,0.04318444820692243,0.2451133451787624,1.8151447767124809,-0.13875321666358784,-5.760453915653543,-3.0677149587244914,0.15053400000000006,0.16673899999999997,-0.8860739999999999,-0.09982099999999994,-0.14974800000000021,-0.856366,0.250355,0.3164870000000002,0.029707999999999957,0.898258621554024,0.20292,single,-0.856366
82,0.683333,jog,-0.745229809192367,-0.43069722788912723,0.23100924036962475,-0.6044268862121471,0.32643692760752624,0.4201763425815503,-0.005160206408258207,0.02916116644665732,0.07056282251290096,-1.6083043321733046,-1.066722668906757,-0.0556822272890928,-46.6741338560304,-26.84374745684864,58.85750850651007,-0.5040403224194441,0.8064645158685863,1.6561324879493027,3.326666127963162,-2.304184331057427,-1.3681094465670145,0.15670099999999998,0.17057100000000003,-0.8874110000000001,-0.10701300000000002,-0.15504800000000007,-0.858755,0.263714,0.3256190000000001,0.028656000000000015,0.872457923286158,0.21344000000000002,single,-0.858755
83,0.691667,jog,-0.6597072234221215,-0.41972642188624604,-0.005159587233023149,0.6832855252110491,-1.8186875149910176,0.03401109471232761,-0.042716582673388556,0.029637628989666945,0.04691624670026392,-1.5656347492200575,-1.0890328773697855,-0.044036477081833864,10.261889341282082,1.3163914090330107,-28.337992272935697,-4.506404639444452,0.05717093148663549,-2.837362108547739,5.119940359160877,-2.6770108546950175,1.3973782346122927,0.16184299999999996,0.17431599999999992,-0.886977,-0.11456300000000008,-0.16062599999999994,-0.859079,0.27640600000000004,0.33494199999999985,0.02789799999999998,0.8832829907204133,0.2210200000000001,single,-0.859079
84,0.7,jog,-0.5498619944797946,-0.34489379575183843,0.02748109924397418,-0.7413769447744665,0.5193437290895724,0.16341138619072104,-0.06456258250329201,0.029281171246866102,0.05244209768390699,-1.480379215168622,-1.096363854554196,0.01212048481939335,13.181954751269407,8.98027434710288,3.917039058802067,-2.621624844582222,-0.04277664020170958,0.6631286431829017,10.231073329105529,-0.8797524522273642,6.739104992347022,0.16588700000000012,0.1774340000000001,-0.886769,-0.12231700000000001,-0.16688799999999993,-0.859207,0.2882040000000001,0.344322,0.027561999999999975,0.853031677084906,0.22437999999999997,single,-0.859207
85,0.708333,jog,-0.6453858154326139,-0.3686547461898417,-0.0680427217088795,-0.32092433152761607,-0.49762971148543655,0.31476921032465915,0.03684147365892643,0.07896315852631977,0.12972518900755958,-1.47197887915516,-1.108964358574345,-0.017760710428416506,-11.46331704702015,-2.851428109684765,-11.463317047024274,12.168973498406098,5.9620769566126794,9.274341932515574,1.0080806448412183,-1.5121209672565514,-3.585886865211776,0.17157199999999995,0.18116399999999988,-0.8851209999999999,-0.12920500000000001,-0.17305700000000002,-0.858788,0.30077699999999996,0.3542209999999999,0.02633299999999994,0.739545806709909,0.23666999999999994,single,-0.858788
86,0.716667,jog,-0.657907367410604,-0.5387568994480526,0.014878809695225826,1.0024675797526812,-1.174899769565525,-0.21402058513131356,-0.03695704343652179,0.051115910727145934,0.0638348932085434,-1.4224862011038948,-1.1359491240700794,-0.01763858891288782,-1.5024660400755943,-20.41062554094188,9.949787785469725,-8.85511364236233,-3.3414024237069384,-7.906202999641911,5.938646274449826,-3.2379128264619954,0.014653409590674842,0.176747,0.18608000000000002,-0.884713,-0.13557699999999995,-0.17803400000000003,-0.859059,0.31232399999999994,0.36411400000000005,0.025653999999999955,0.8504306832938444,0.24346000000000007,single,-0.859059
87,0.725,jog,-0.7261490459618353,-0.4383775351013968,-0.10176407056281864,0.1633062050036609,-0.9874110525207909,0.21989693967655258,-0.026161046441837445,0.008280331213260217,0.10632425297011952,-1.3706948277931295,-1.1233649345973884,-0.008040321612864302,-8.189328999307804,12.046005561821277,-13.99770553918703,1.2955714622206225,-5.14047516067276,5.098927128474321,6.21521340582813,1.5101631432486662,1.151838149528814,0.18258000000000008,0.18980200000000003,-0.882979,-0.14094800000000007,-0.18374200000000007,-0.858278,0.32352800000000015,0.3735440000000001,0.024700999999999973,0.8169865593461383,0.25299,single,-0.858278
88,0.733333,jog,-0.7037081483259278,-0.5000600024000977,-0.03804152166086768,0.637255788199241,-0.7648309073756129,-0.0023621316622969278,-0.09492379695190266,0.01320052802112733,0.043801752070083126,-1.3385335413416477,-1.101404056162231,-0.009480379215168056,2.693015436926367,-7.4021921635306205,7.64701174870403,-8.251860135613216,0.5904472348334445,-7.503000228013455,3.859508754527975,2.635410828652033,-0.17281382482944288,0.18765299999999985,0.1940790000000001,-0.882297,-0.1462380000000001,-0.18875299999999995,-0.85804,0.33389099999999994,0.38283200000000006,0.024256999999999973,0.8243790804965008,0.25743,single,-0.85804
89,0.741667,jog,-0.6823854091672835,-0.5188384929205686,-0.04715622750179733,0.3977342560020137,-0.19554541749926543,0.018428352434988603,-0.04319654427644804,0.03875689944802652,0.1499880009599242,-1.3284137269018486,-1.1666666666666912,-0.13642908567314682,2.5585240171159547,-2.253238603368248,-1.0936772067350249,6.2067737791522575,3.0665192496879454,12.741330560336174,1.2142805903286782,-7.830886789592107,-15.23262616486435,0.19298000000000004,0.19872599999999996,-0.880654,-0.15162199999999992,-0.1941520000000001,-0.858784,0.34460199999999996,0.39287800000000006,0.021870000000000056,0.7319595847005437,0.2813,single,-0.858784
90,0.75,jog,-0.7436697467898561,-0.5898235929437156,-0.03528141125645209,1.2023765414507093,-1.318766048042738,-0.1394484650101564,-0.05136205448219047,-0.0007200288011461016,0.1939277571102827,-1.2336493459738418,-1.0505220208808224,0.03936157446297775,-7.35441469129633,-8.518552744887394,1.4250349508394564,-0.9799004207059159,-4.737420886736164,5.27298165730929,11.372180598584707,13.937915010904634,21.09572304525667,0.19874899999999984,0.203635,-0.878744,-0.1557050000000001,-0.19799100000000003,-0.858162,0.35445399999999994,0.40162600000000004,0.02058199999999999,0.6656409362678981,0.29418,single,-0.858162
91,0.758333,jog,-0.7344293771750856,-0.48721948877954346,-0.0297611904476209,-0.20219645707553682,0.07037204165418075,0.07786735539426928,-0.07188287531498759,0.03696147845913521,0.16872674906996263,-1.1906876275050935,-1.0573622944917636,-0.008520340813632704,1.1088887093208262,12.312985019101363,0.662452995179547,-2.4625970038157967,4.521961749703726,-3.024241934515777,5.155612440747404,-0.8208656679396574,-5.746059675580254,0.20427000000000006,0.20800299999999994,-0.8770899999999999,-0.15950700000000007,-0.20274199999999998,-0.857985,0.36377700000000013,0.4107449999999999,0.019104999999999928,0.6881862445788026,0.30895000000000006,single,-0.857985
92,0.766667,jog,-0.7469402447804262,-0.6040316774658041,0.039956803455727094,0.6713574459078061,-0.6680237567278857,-0.20749685679904636,-0.16630669546437693,0.032397408207342694,0.14374850011999177,-1.1281497480201674,-1.0241180705543567,0.04079673626110018,-1.501184017919446,-14.016341335044553,8.36549002919947,-11.329952021765044,-0.5476446186456131,-2.9971501019883613,7.503945222573364,3.9889877534685723,5.917575842900548,0.209109,0.2133069999999999,-0.876225,-0.16268400000000005,-0.20624299999999995,-0.857978,0.37179300000000004,0.41954999999999987,0.018247000000000013,0.6296730412280496,0.31753,single,-0.857978
93,0.775,jog,-0.8775951038041502,-0.444377775111004,-0.14160566422656354,-1.1111495610433253,0.22684747348742193,0.6015501546118223,-0.11268450738029752,0.023880955238216657,0.25285011400455887,-1.0936037441497526,-1.1101644065762728,0.011760470418816808,-15.679210251256862,19.15923465196201,-21.788367656581045,6.434919966888178,-1.0220152369045963,13.09271737484299,4.14568629190144,-10.325973361564357,-3.4844912807252193,0.21548299999999998,0.21720899999999999,-0.872938,-0.16448399999999996,-0.21179100000000006,-0.8567,0.37996699999999994,0.42900000000000005,0.016237999999999975,0.5369146995460518,0.33762,single,-0.8567
94,0.783333,jog,-0.7987519500780098,-0.6373454938197665,0.05748229929197307,0.660760688921917,-0.969365406534723,-0.28474449036157784,-0.13476539061562406,0.022800912036471162,0.24144965798632165,-1.0222008880355338,-0.9703588143525875,0.033961358454337474,9.461556909413307,-23.157052527152793,23.891511282675918,-2.6498119807184386,-0.1296103686242055,-1.3681094465663417,8.56868548112558,16.777342160528807,2.6642131327878156,0.221016,0.22270999999999996,-0.8714050000000001,-0.166346,-0.21456600000000003,-0.8568960000000001,0.387362,0.437276,0.014508999999999994,0.5375802488863959,0.35491000000000006,single,-0.8568960000000001
95,0.791667,jog,-0.789416846652262,-0.8351331893448553,-0.14878809695224496,2.3598744559949743,0.47352474009971246,-0.6905209155198868,-0.08375329973603098,0.029397648188150813,0.362251019918403,-0.9588432925365862,-0.9762419006479313,0.009479241660668228,1.1201228012656306,-23.732624853022234,-24.750467511905022,6.120961228652832,0.791545014600384,14.495003831543132,7.602303275611605,-0.7059138823306559,-2.9376190057198297,0.2268969999999999,0.2299150000000001,-0.8671460000000001,-0.16775799999999996,-0.21574199999999988,-0.855577,0.39465499999999987,0.44565699999999997,0.011569000000000051,0.5,0.38430999999999993,flight,-0.855577
96,0.8,jog,-0.8630745229809128,-0.6150246009840157,0.17112684507379353,-0.47208450225711396,-0.9585118325091553,-0.29289019772859504,-0.1989679587183404,0.027601104044155948,0.017640705628226044,-0.9061562462498431,-0.9347173886955494,-0.009240369614785467,-8.839274730427281,26.41408716678731,38.39132869627231,-13.826312130362286,-0.21559392103622438,-41.354891910497486,6.322698462347631,4.9831407599161945,-2.246443210782865,0.23243099999999994,0.23526999999999987,-0.868425,-0.16811699999999996,-0.2184060000000001,-0.85708,0.4005479999999999,0.45367599999999997,0.01134500000000005,0.6639226939293197,0.38655000000000006,single,-0.85708
97,0.808333,jog,-0.7994719788791693,-0.9415576623065032,-0.07380295211807594,3.768726467115844,-0.4763580977654774,-0.8803425156276051,-0.1522860914436549,0.027601104044156315,0.2359294371774887,-0.8215528621144943,-0.910956438257527,0.004800192007680155,7.632610596633153,-39.18553478009006,-29.392751373079527,5.602048154888505,4.413313055407254e-14,26.19569561373631,10.152812208730303,2.8514281096871015,1.6849347920875737,0.23782400000000004,0.24334599999999984,-0.8658440000000001,-0.16830099999999992,-0.21815099999999998,-0.856425,0.40612499999999996,0.4614969999999998,0.009419000000000066,0.5297294693520425,0.40581,single,-0.856425
98,0.816667,jog,-0.8198944084473153,-0.73146148308136,-0.09707223422126872,1.5976452887609596,0.8292850875614548,-0.022402520256536183,-0.1250299976001895,0.07259419246462492,0.22270218382529186,-0.7741780657547354,-0.8646508279337641,-0.032277417806574206,-2.4504955085368176,25.209524745037378,-2.7920904851443002,3.2704696236459303,5.398738711359282,-1.5871434307891468,5.684520801506909,5.556228740552262,-4.448957261129599,0.24361500000000003,0.25004700000000013,-0.863179,-0.16791999999999996,-0.21926099999999993,-0.855885,0.411535,0.46930800000000006,0.007294000000000023,0.5574735420337731,0.4270599999999999,single,-0.855885
99,0.825,jog,-0.8733949357974407,-0.6308652346093983,0.2508100324013027,-1.3840254973367891,-0.49246391985567867,-0.30297288504957454,-0.1168846753870202,0.05280211208448338,0.27421096843874115,-0.6720268810752551,-0.8363134525381095,-0.04236169446777983,-6.420320094818892,12.072032697943444,41.7475418963848,0.9774777646909141,-2.3751446514030636,6.181301405670198,12.258632506838016,3.4006210723214783,-1.210161605808918,0.249919,0.2557440000000002,-0.862984,-0.166242,-0.22097299999999986,-0.858328,0.416161,0.47671700000000006,0.0046559999999999935,0.5,0.45344000000000007,flight,-0.858328
100,0.833333,jog,-0.8670346813872429,-0.781231249249942,0.1921276851073991,0.202547796930162,-1.1022105677225111,-0.6274231251298439,-0.20028801152045045,0.023760950438007876,0.22368894755790025,-0.6378255130205132,-0.7735509420376725,-0.08664346573862923,0.7632610596661097,-18.04464354260688,-7.042163361802871,-10.00880068803911,-3.4850788007290747,-6.062885021101727,4.1043283397026045,7.531802532153697,-5.314025113506446,0.255475,0.2624519999999999,-0.862721,-0.16433200000000003,-0.22090900000000002,-0.8606509999999999,0.41980700000000004,0.48336099999999993,0.0020700000000000163,0.5,0.47929999999999995,flight,-0.8606509999999999
101,0.841667,jog,-0.7658987281017493,-0.7498200143988629,0.12562994960403315,0.6640275305132676,0.4226440999339834,-0.3728159908390554,-0.12598992080633398,0.09623230141588232,0.3126949844012468,-0.5350371970242329,-0.7374610031197429,-0.10739140868730336,12.135343566773802,3.769046658396792,-7.979089933209198,8.915057681079423,8.695866448029024,10.679870031598979,12.333611230655082,4.330446234452757,-2.489553989521715,0.26080800000000004,0.26950300000000005,-0.861162,-0.162408,-0.22080599999999984,-0.8625929999999999,0.42321600000000004,0.4903089999999999,0.00143099999999996,0.48568999999999996,0.5,flight,-0.861162
102,0.85,jog,-0.946957878315139,-0.7431897275890975,0.3398535941437623,-2.144822667038982,1.5544321535275578,-0.9957779508519777,-0.13044521780872076,0.04380175207007705,0.30481219248770236,-0.4723388935557526,-0.6905076203048229,-0.1557662306492283,-21.727967144292734,0.7956662438216089,25.707865659394113,-0.5346570265674815,-6.291917598200619,-0.9459728685400858,7.524097380112912,5.634631323043374,-5.805210843864799,0.26761199999999996,0.2760609999999999,-0.8614539999999999,-0.15845300000000007,-0.22036699999999998,-0.8667229999999999,0.426065,0.49642799999999987,0.005268999999999968,0.4473099999999999,0.5,flight,-0.8614539999999999
103,0.858333,jog,-0.8568342733709354,-0.8658346333853284,-0.03936157446297775,2.3924519474577712,-1.3568567533668572,-0.03956214454205018,-0.19236769470779003,0.04548181927278623,0.34453378135125245,-0.40537621504859933,-0.6295451818072797,-0.1923676947077867,10.81526520391254,-14.717977414644231,-45.50764053843016,-7.430994467666988,0.20161612897025993,4.766781334879386,8.035842854572541,7.315785251115202,-4.392351381082234,0.273149,0.283655,-0.858255,-0.15469100000000002,-0.2183980000000001,-0.8679979999999999,0.42784,0.5020530000000001,0.009742999999999946,0.40257,0.5,flight,-0.858255
104,0.866667,jog,-0.9162467002639813,-0.7954163666906688,0.18418526517879444,-1.1333724176024256,0.8307454938635332,-0.3654238827615557,-0.21802255819534053,0.05315574754019363,0.27561795056395566,-0.3453323734101215,-0.5495560355171651,-0.25689944804415843,-7.12892091349246,8.44951604207583,26.823474879022495,-3.078337351517956,0.9207977282706314,-8.269238155423228,7.204684621847631,9.597929720436166,-7.743190945089045,0.278968,0.29072699999999996,-0.8574930000000001,-0.14993299999999998,-0.21634900000000012,-0.8716740000000001,0.428901,0.5070760000000001,0.014181,0.35819,0.5,flight,-0.8574930000000001
105,0.875,jog,-0.8792751710068333,-0.8412336493459656,0.01008040321612536,0.46028581251769846,-0.2256708668244838,0.14618441373615554,-0.2481699267970659,0.030121204848193948,0.2692907716308636,-0.29449177967119367,-0.472938917556697,-0.34513380535221305,4.43676098129699,-5.498293850389599,-20.893419172287093,-3.617828945364844,-2.764255693267681,-0.7592918436447871,6.101115293283049,9.194421932133427,-10.588546418823263,0.284227,0.2979879999999999,-0.855333,-0.14506000000000008,-0.21328000000000014,-0.874634,0.4292870000000001,0.5112680000000001,0.019301000000000013,0.30699,0.5,flight,-0.855333
106,0.883333,jog,-0.8658346333853417,-0.9781591263650529,-0.2534501380055195,3.4174029180066827,-1.9936667722202175,0.4783916792416184,-0.30985239409577264,-0.00900036001440621,0.2643705748229931,-0.2220088803552155,-0.40261610464418374,-0.39721588863554297,1.6129290317402494,-16.431714510870844,-31.624929943795006,-7.4021921635313195,-4.69477557453498,-0.5904472348338552,8.698295849751336,8.439075112506055,-6.250099997999484,0.28886,0.3060639999999999,-0.8510179999999999,-0.139695,-0.2084840000000001,-0.8758319999999999,0.428555,0.514548,0.024814000000000003,0.25186,0.5,flight,-0.8510179999999999
107,0.891667,jog,-0.8718502519798459,-1.0176385889129147,0.009599232061431418,1.490145143414709,-0.10768648917006614,0.6368011973497011,-0.29865610751139643,-0.008159347252214707,0.2684185265178788,-0.2092632589392822,-0.19918406527477853,-0.37005039596832506,-0.7218164860216226,-4.737156533220789,31.563399336087407,1.3434469143720036,0.10091345838631002,0.4857153461585939,1.529352221734266,24.409891932974126,3.259598352197991,0.29363700000000004,0.3144770000000001,-0.848861,-0.134173,-0.20166299999999993,-0.878996,0.42781,0.51614,0.030135000000000023,0.19865000000000005,0.5,flight,-0.848861
108,0.9,jog,-0.8058322332893314,-1.0564022560902264,-0.04464178567141802,1.677755380666717,-0.7769994641835389,0.8452196646139707,-0.29233169326774205,-0.02628105124204588,0.28561142445697796,-0.05448217928716579,-0.14640585623424862,-0.48757950318012483,7.922479142027387,-4.65182613432276,-6.509182495241715,0.7589600676412275,-2.174691466438389,2.0632302819031683,18.574472537155376,6.333638430400778,-14.10405702769702,0.29791599999999996,0.32306100000000004,-0.846109,-0.12791199999999991,-0.19408000000000003,-0.882687,0.4258279999999999,0.5171410000000001,0.036578,0.13422,0.5,flight,-0.846109
109,0.908333,jog,-0.9678387135485494,-1.0001200048002088,-0.0871234849393989,1.3376247057072366,-0.611042230147159,-0.07169813724340368,-0.2696507860314303,-0.020280811232459773,0.322452898115927,-0.048481939277580065,0.14304572182888428,-0.41209648385935893,-19.441555293318075,6.754140320414994,-5.098007832471052,2.7218177410670807,0.7200576034544776,4.421153685221332,0.7200576034544318,34.7355787907279,9.058324651478049,0.30373400000000006,0.331226,-0.842696,-0.120251,-0.18455399999999988,-0.885395,0.42398500000000006,0.5157799999999999,0.04269900000000004,0.07301000000000002,0.5,flight,-0.842696
110,0.916667,jog,-1.0227981761458977,-1.0745140388768872,0.03263738900887172,-0.2107540238751124,0.22536402925819804,-0.32383624329937255,-0.3173746100311961,-0.07631389488839141,0.3734101271898224,0.04607631389489417,0.1928245740340655,-0.5171586273098105,-6.594607943046301,-8.926569963604257,14.370155261371455,-5.726400767910422,-6.7234321641386146,6.114378338600318,11.346082694081295,5.972984425867631,-12.606448698158244,0.309613,0.3395450000000002,-0.8398559999999999,-0.11134299999999997,-0.17399199999999992,-0.889977,0.420956,0.5135370000000001,0.05012100000000008,0.0,0.5,flight,-0.8398559999999999
111,0.925,jog,-1.0069602784111367,-0.9534381375254813,-0.05508220328812976,-0.5842939943803552,-0.8310783816606231,-0.1854456135612019,-0.35869434777389847,-0.11520460818433552,0.3376935077403079,0.06168246729869342,0.34477379095165167,-0.3249729989199557,1.9006237531214458,14.529689349742636,-10.526772146525994,-4.958566871799135,-4.66707227840441,-4.28616578057295,1.8728133209887416,18.234635415526885,23.063197934699875,0.31501500000000016,0.34653,-0.836583,-0.10243799999999992,-0.16317399999999993,-0.892226,0.4174530000000001,0.5097039999999999,0.055643,0.0,0.5,flight,-0.836583
112,0.933333,jog,-0.942517700708027,-1.02424096963879,-0.07932317292692052,-0.3720745275691588,-0.41778497086319577,0.1260984003843941,-0.3949357974319195,-0.11268450738029902,0.3945757830313248,0.018720748829945445,0.1870874834993256,-0.036841473658946904,7.733418661119678,-8.496679720785943,-2.909032717963637,-4.3491479248795555,0.302424193452121,6.826146080765323,-5.155612440747435,-18.923113818832054,34.57716611796609,0.3195779999999999,0.35412599999999994,-0.832634,-0.09442800000000007,-0.1530800000000001,-0.891872,0.414006,0.507206,0.05923800000000001,0.0,0.6806713331054802,single,-0.832634
113,0.941667,jog,-0.8646508279337641,-1.0068394528437692,-0.1005519558435324,-1.560288277494932,-0.85012589842168,0.17531573782236742,-0.47972162227020826,-0.19018478521717488,0.507679385649144,-0.13642908567313833,0.12179025677945529,-0.11099112071034176,9.343277270729812,2.088014974204541,-2.5472501699798067,-10.173485101786433,-9.29928939727325,13.571346606409696,-18.616490821104225,-7.835040403152126,-8.897245866497993,0.322786,0.36093200000000003,-0.827565,-0.08835899999999997,-0.14367400000000008,-0.891959,0.411145,0.5046060000000001,0.06439399999999995,0.0,0.6434548846508893,single,-0.827565
114,0.95,jog,-0.888515540621629,-1.0390015600624185,-0.09468378735148636,0.27312568000003673,-0.08667763658348954,0.6964727722073626,-0.3961358454338208,-0.19416776671068453,0.49933997359894994,-0.18480739229569182,-0.054602184087348654,-0.09384375375015062,-2.8638800777469156,-3.8596072505279744,0.704208387381026,10.030694448144512,-0.47797689829709383,-1.0007694768023754,-5.805629019867267,-21.16793962160153,2.05776634587679,0.326889,0.36797199999999997,-0.822615,-0.08249499999999999,-0.1354709999999999,-0.891952,0.40938399999999997,0.5034429999999999,0.06933699999999998,0.0,0.6427659463470243,single,-0.822615
115,0.958333,jog,-1.064802592103682,-1.1604464178567175,0.006840273610941258,-0.14940075486827453,2.3489377512951415,0.052537127893992785,-0.45373814952598324,-0.2589703588143374,0.5437417496699853,-0.17160686427457536,-0.1142445697827985,-0.15312612504500192,-21.15529238954187,-14.57396589395158,12.183374650477283,-6.912552993179191,-7.7766221173230035,5.3284262655748496,1.5841267276030726,-7.157372578357085,-7.114169122147012,0.33198099999999997,0.37548400000000015,-0.818141,-0.07505200000000001,-0.1267529999999999,-0.893285,0.407033,0.502237,0.07514399999999999,0.0,0.5719931602236984,single,-0.818141
116,0.966667,jog,-0.8653707703383658,-0.9626829853611507,-0.3202543796496295,-0.5494648124769786,-0.1241134272833844,0.8937596632582611,-0.5266378689704755,-0.3776097912167011,0.535277177825769,-0.0656347492200576,-0.26889848812094075,-0.2269018478521697,23.92990421950021,23.729713522386046,-39.24821853378549,-8.747266552014842,-14.235593040840266,-1.0156673679165198,12.715636555617584,-18.55698564172559,-8.852378546576341,0.334804,0.38036000000000003,-0.8110109999999999,-0.06838699999999998,-0.12097099999999994,-0.8925069999999999,0.40319099999999997,0.501331,0.08149600000000001,0.0,0.5,flight,-0.8110109999999999
117,0.975,jog,-0.8833553342133708,-0.9975999039961707,-0.28993159726389006,-0.09777499573882562,0.19990361401689383,1.119810061570955,-0.7023880955238136,-0.467418696747872,0.5154206168246769,0.08328333133325078,-0.1336853474139049,-0.0907236289451586,-2.1582339943603834,-4.190197844116203,3.638879441466424,-21.090870821233622,-10.77749976373116,-2.3828826354364936,17.87088450177724,16.226225933881807,16.3420399504395,0.33631200000000006,0.38477800000000006,-0.8043,-0.06033200000000005,-0.11377199999999998,-0.8908469999999999,0.3966440000000001,0.49855000000000005,0.08654699999999993,0.0,0.6970576593176365,single,-0.8043
118,0.983333,jog,-0.8489139565582617,-0.9561982479299103,-0.30925237009479534,-0.35556772510816304,-0.09322409005430965,0.9739667367287854,-0.7215888635545447,-0.6002640105604407,0.5252610104404145,0.04524180967238199,-0.0570022800912038,-0.1003240129605184,4.133130643838818,4.968397463849787,-2.3185854831279484,-2.3041843310609536,-15.942075340521791,1.1808944696672974,-4.565165205912471,9.20233617217098,-1.1520921655297924,0.33737300000000003,0.38774399999999987,-0.7973460000000001,-0.05288100000000007,-0.10627900000000001,-0.8891060000000001,0.3902540000000001,0.4940229999999999,0.09175999999999995,0.0,0.7934342393212115,single,-0.7973460000000001
119,0.991667,jog,-0.8363330933525404,-0.916606671466282,-0.2723782097432214,-0.9914823920996292,0.18806692768158437,0.8063289558239052,-0.764818814494857,-0.6833453323734147,0.34089272858171665,-0.08507319414446408,0.04187664986800272,-0.03311735061195105,1.5095828180611295,4.7506091269052595,4.424545278566611,-5.187179138506431,-9.968961100668885,-22.12242402912154,-15.636549534058894,11.864522433310185,8.06415434948017,0.33796899999999996,0.3896879999999998,-0.792235,-0.046619999999999995,-0.09829100000000013,-0.887112,0.38458899999999996,0.48797899999999994,0.09487699999999999,0.0,0.8326027589031286,single,-0.792235
120,1.0,jog,-0.8153126125044928,-1.018600744029763,-0.8497539901596033,-3.6661581382980284,10.593740516238901,1.1366622931384895,-1.1756870274810878,-0.8514340573622731,0.2893315732629289,-0.11484459378374914,0.08508340333614157,0.044761790471618476,2.5225586041098573,-12.239778298749622,-69.28786516457212,-49.30615780465968,-20.171453856817198,-6.187586141700171,-3.572710865148798,5.185017816889316,9.345870764858898,0.334966,0.391081,-0.7827430000000001,-0.040783000000000014,-0.089094,-0.879658,0.375749,0.480175,0.09691499999999997,0.0,0.7503775955410076,single,-0.7827430000000001
121,1.008333,jog,-0.8653546141845847,-0.957518300732033,-0.47125885035402015,0.19629571335713322,-0.9151002665520636,1.3052425145626583,-1.2865714628585239,-1.2586103444137944,0.26785071402856503,-0.0043201728069166365,-0.004320172806903313,0.04920196807872368,-6.0052804128275925,7.3301864031838,45.42123362601543,-13.306664511872928,-48.86310897054182,-2.577806220372504,13.263461055662248,-10.728858291497145,0.5328426265576915,0.3314560000000001,0.3885719999999999,-0.776584,-0.03360799999999997,-0.08115099999999997,-0.875321,0.36506400000000006,0.4697229999999999,0.09873699999999996,0.0,0.9173669179615414,single,-0.776584
122,1.016667,jog,-0.888288936885035,-0.9949604031677349,-0.428725701943847,-0.8947065960736663,0.34460787194872466,1.086373615779896,-1.5764338852891628,-1.5225581953443548,0.12311015118790393,-0.061195104391649456,-0.007439404847612913,-0.003359731221502284,-2.751898572168237,-4.492692876854045,5.1035695236588445,-34.78070823501761,-31.671208414993806,-17.367478142627792,-6.824445834501127,-0.3742779026529369,-6.306899364077942,0.32572100000000004,0.38417499999999993,-0.7719849999999999,-0.026715000000000044,-0.07292100000000001,-0.871776,0.3524360000000001,0.45709599999999995,0.09979100000000007,0.0,0.8971047817238832,single,-0.7719849999999999
123,1.025,jog,-0.9159966398656031,-0.9723988959558704,-0.4178567142685728,-1.0131079564774959,-0.23698145148977268,1.14205836007707,-2.576023040921672,-1.3870154806192323,0.4435377415096617,-0.022200888035520512,0.018720748829932122,-0.04500180007200333,-3.3250573599626043,2.707489164990372,1.304330694260689,-119.95549689577803,16.265776398070766,38.45284895256939,4.679493142461214,3.1393440150660354,-4.99724815198625,0.31188799999999994,0.38072000000000017,-0.764807,-0.019267000000000034,-0.064662,-0.868669,0.331155,0.44538200000000017,0.10386200000000001,0.0,0.9107359118489212,single,-0.764807
124,1.033333,jog,-0.9505580223208709,-1.0949237969518482,-0.6055442217688596,-1.8236409188115434,2.375202151923063,0.5724132679312817,-2.007680307212243,-1.5715828633145046,0.01272050882035532,0.0008400336013415484,-0.04404176167046679,-0.029881195247809297,-4.147531795903906,-14.70357626256758,-22.523401836107464,68.20385619937828,-22.148971882307578,-51.70013592815299,2.76502119727129,-7.531802532149023,1.8145451607096805,0.303079,0.3767480000000001,-0.759655,-0.011339000000000099,-0.055905000000000094,-0.863872,0.3144180000000001,0.4326530000000002,0.104217,0.0,0.9112859109127768,single,-0.759655
125,1.041667,jog,-0.9642428605711778,-0.9732421406287657,-0.44960403167748103,-3.8797638333029596,0.9577456241188617,0.13062269518421657,-6.477921766258824,-2.862251019918466,2.035157187425045,-0.07535397168226228,0.0217182625389957,-0.015718742500600152,-1.642049226098767,14.60063070831351,18.71132590489339,-536.3860642004639,-154.8677893693288,242.6729875935599,-9.142549230094225,7.890571659402896,1.69935838099465,0.257128,0.361005,-0.7389469999999999,-0.003931000000000018,-0.04761300000000013,-0.8602559999999999,0.26105900000000004,0.40861800000000015,0.121309,0.0,0.8666980991028665,single,-0.7389469999999999
126,1.05,jog,-1.0399615984639279,-1.1293651746069715,-0.2191287651506015,-1.3369011163091555,1.209142418139879,1.5436207405309266,-3.5946237849513394,-2.6659066362654156,0.5970238809552253,-0.0616824672986926,-0.009240369614770354,-0.012120484819392194,-9.086612011610315,-18.735513497924288,27.658138308757408,346.00959814081773,23.562268529106813,-172.58290009237905,1.6406461518744075,-3.715184465830495,0.43180819407271037,0.23584000000000005,0.348201,-0.732146,0.00422100000000003,-0.03827899999999995,-0.8585309999999999,0.23161900000000002,0.38647999999999993,0.12638499999999997,0.0,0.8941041214351336,single,-0.732146
127,1.058333,jog,-0.8977559102364129,-0.9103564142565631,-0.4261370454818197,-0.6157077712948898,-0.3921550636665039,0.5347655211622445,-2.552742109684406,-1.7905916236649584,-0.09768390735629291,-0.038161526461050324,0.005160206408258207,-0.011160446417857153,17.065365201910033,26.282102526150293,-24.841987319239177,125.03080226412374,105.04200319218351,-83.36826932815607,2.8226258055493214,1.728138248293375,0.11520921655286812,0.22204900000000005,0.3408659999999999,-0.729409,0.01138400000000006,-0.030650000000000066,-0.855073,0.210665,0.37151599999999996,0.125664,0.0,0.9331775695456164,single,-0.729409
128,1.066667,jog,-0.8951283897288175,-0.9079673626109963,-0.4355651547876163,0.02348499502073466,0.059207541144945613,1.285105758849378,-2.569354451643851,-1.7621790256779295,-0.18442524598032145,0.048476121910242004,-0.035157187425017576,0.016438684905207245,0.31527723873234753,0.28666326440686096,-1.1312826140864598,-1.9933215694078386,3.4092390193218947,-10.408127984644574,10.395686149663026,-4.837700243973539,3.311630828301438,0.20809600000000006,0.333747,-0.727316,0.019248000000000043,-0.023376000000000063,-0.851306,0.18884800000000002,0.3571230000000001,0.12399000000000004,0.0,0.8965029175866517,single,-0.727316
129,1.075,jog,-0.921756870274812,-0.9540381615264579,-0.276851074042958,-0.09284421991617736,-0.13338687402064542,1.1239363974945344,-3.1501260050402298,-2.356414256570283,-0.04080163206528382,-0.03984159366374679,0.05652226089044936,-0.0028801152046077604,-3.195545487338867,-5.528717018536186,19.046451547421068,-69.69537422253501,-71.31108015028906,17.235523090728304,-10.598549810871187,11.001973876811205,-2.318348747127707,0.189527,0.32206099999999993,-0.725349,0.026596999999999982,-0.014955000000000052,-0.849023,0.16293000000000002,0.337016,0.12367399999999995,0.0,0.8846453099563141,single,-0.725349
130,1.083333,jog,-0.9095163806552106,-0.9993999759990361,-0.2710908436337419,-0.309068432593775,0.6159053242351081,1.12143689472297,-2.837513500539975,-1.9537981519260417,-0.3285731429257101,-0.01032041281651614,0.024840993639753343,-0.05112204488179471,1.46891751105259,-5.443635482128567,0.6912552993178905,37.5150011400755,48.31586519191577,-34.53396266175702,3.542683409003976,-3.8019041462493055,-5.789263131787604,0.17346099999999998,0.31410800000000005,-0.725828,0.034089999999999954,-0.00641999999999987,-0.84719,0.13937100000000002,0.3205279999999999,0.12136199999999997,0.0,0.9037213338704055,single,-0.725828
131,1.091667,jog,-1.0064794816414953,-0.9732421406287657,-0.2661387089032992,0.3425774959914843,0.8417298059312621,1.4550839161892917,-2.7966162706983932,-2.0473962083033808,-0.31629469642429203,0.05495560355172524,-0.0033597312215190253,0.06035517158627466,-11.634641347046621,3.1386891493005624,0.5942086309626586,4.907274998990008,-11.230868295817238,1.4732957165128757,7.832495364559949,-3.3838162780505048,13.37619588049814,0.15854200000000007,0.305156,-0.726246,0.042936000000000085,0.00166299999999997,-0.8444689999999999,0.11560599999999999,0.303493,0.11822299999999997,0.0,0.8638408519739584,single,-0.726246
132,1.1,jog,-0.8238329533181195,-0.9102364094563566,-0.3310932437297381,0.11625074809802176,1.1687253348832949,1.645175462922322,-2.808832353294087,-2.0189607584302958,-0.415936637465491,-0.02064082563303228,-0.0024000960038291887,0.0019200768030715114,21.9184601372102,7.560990180296164,-7.794855973411464,-1.4659885510252768,3.412390480389355,-11.957511225392679,-9.071934379545926,0.11516083255608062,-7.012491873659202,0.14200100000000004,0.295917,-0.726953,0.049629000000000034,0.009228000000000014,-0.8416939999999999,0.09237200000000001,0.28668899999999997,0.11474099999999998,0.0,0.9652193045813193,single,-0.726953
133,1.108333,jog,-0.9219968798752028,-1.0186007440297766,-0.212288491539666,0.13459224481097715,0.5908332272043606,1.5100792449217806,-3.1389655586223717,-2.3338533541342024,-0.32665306612264816,0.0003600144005730556,-0.023400936037461784,0.0019200768030723952,-11.780142392545816,-13.004240318423253,14.257140548430717,-39.6175693421682,-37.788623029390315,10.714457139426813,2.5202016120971473,-2.5202016121004185,1.0606523593066018e-13,0.12352700000000005,0.2849569999999999,-0.7279059999999999,0.057315000000000005,0.017520999999999898,-0.839909,0.06621200000000005,0.267436,0.11200300000000007,0.0,0.9608627730242074,single,-0.7279059999999999
134,1.116667,jog,-0.9829613630909425,-0.9386849052075659,-0.11159107271418038,-0.4119031046870853,0.32449801687627305,1.239264851404584,-3.2401007919366203,-2.5289176865850385,-0.4262059035277145,0.054235661147108774,0.04811615070795448,-0.004679625629949253,-7.31515277366681,9.58913352798298,12.082723641166888,-12.135257177135564,-23.40584742630605,-11.945384857819242,6.464560444748657,8.581363900337859,-0.7919009398874008,0.10471600000000003,0.27170399999999995,-0.730528,0.06595899999999999,0.025744999999999907,-0.839018,0.03875700000000004,0.24595900000000004,0.10849000000000009,0.0,0.8789103890701524,single,-0.730528
135,1.125,jog,-0.9018360734429386,-0.964358574343001,-0.17976719068762906,0.7060807143578095,0.13210911576700388,1.8538829238075099,-3.3585743429737476,-2.7323892955718527,-0.26833073322933354,-0.014160566422651212,0.06924276971079503,0.01968078723148914,9.735424174727548,-3.080963534793634,-8.181461415270526,-14.217394820248217,-24.417569781209185,18.945778266936564,-8.20787562339621,2.5352956921685754,2.9233664780317548,0.08424399999999999,0.25697100000000006,-0.731266,0.07335599999999998,0.03435800000000011,-0.837356,0.010888000000000009,0.22261299999999995,0.10609000000000002,0.0,0.8777250799690889,single,-0.731266
136,1.133333,jog,-0.990999639985607,-0.9410776431057214,-0.0700828033121366,-0.04829934045756819,0.33364184653051837,1.5774694292889095,-3.2584903396136125,-2.6026641065642777,-0.4976599063962585,-0.045841833673346565,0.013440537621491779,0.02856114244569834,-10.700055987359805,2.793823501413633,13.162652991178863,12.01056082564935,15.567645386724614,-27.52060160409541,-3.801904146249327,-6.696535712144938,1.0656852531152385,0.06534899999999999,0.24312500000000004,-0.734829,0.08123199999999997,0.042311999999999905,-0.836534,0.01588299999999998,0.20081300000000013,0.10170500000000005,0.0,0.9072359530868628,single,-0.734829
137,1.141667,jog,-0.9714422846172356,-0.9884809215262664,-0.049076073914085624,0.16899310573300919,0.27483480685344713,1.6115082934033187,-3.148188144948388,-2.6066714662826866,-0.584353251739858,0.006359491240697064,0.007559395248397623,0.006479481641468453,2.3466949086118665,-5.687938375395329,2.5206058792957533,13.235204543463336,-0.48084469863317747,-10.40236925169172,6.263657897053423,-0.7056806303208677,-2.6495873295212045,0.04720800000000003,0.22963899999999993,-0.73929,0.08938100000000004,0.05061300000000002,-0.836071,0.042173000000000016,0.1790259999999999,0.096781,0.0,0.9803099526195391,single,-0.73929
138,1.15,jog,-1.078843153726152,-0.9992799711988539,0.10380415216608815,-0.5091645331694363,0.4195752388718021,1.2395759609986094,-3.241209648385959,-2.7892715708628484,-0.5940237609504413,0.0007200288011461112,0.027841113644547232,0.018240729629185257,-12.888619837863605,-1.2959377982224396,18.346360984060382,-11.163026933585964,-21.912889065182217,-1.1605075255710322,-0.6767625632486505,2.4339035636805226,1.4114062147746202,0.02918900000000002,0.214723,-0.7451049999999999,0.09837699999999994,0.059172,-0.836784,0.06918799999999992,0.155551,0.09167900000000007,0.0,0.9445130078344655,single,-0.7451049999999999
139,1.158333,jog,-1.0176407056282124,-1.0072002880115143,0.04200168006721065,0.6073350620134195,0.47817033978567997,1.8359521804641867,-3.2016080643225178,-2.7953918156725956,-0.6084243369734705,-0.0183607344293719,-0.00516020640825807,0.008160326413056213,7.3445875552548365,-0.9504760365606898,-7.416593315597794,4.752380182820196,-0.7344587555198798,-1.7281382482934107,-2.289783178989281,-3.960316819009327,-1.2096967738064164,0.010990000000000055,0.19982199999999994,-0.7505250000000001,0.10670400000000002,0.06752200000000008,-0.8370660000000001,0.09571399999999997,0.13229999999999986,0.08654099999999998,0.0,0.9654257953361592,single,-0.7505250000000001
140,1.166667,jog,-1.0339572834173445,-0.9835613150948123,0.06335493160546952,0.9384711468673795,0.2680992275463207,1.7080390830172745,-3.216702663786958,-2.8729301655867867,-0.6557475401967965,-0.03335733141348761,-0.0175185985121169,0.04091672666186795,-1.957832708079242,2.836449834017576,2.562185209774331,-1.8112070391697308,-9.303857681088617,-5.678330120389591,-1.799447682279337,-1.4828884213893767,3.930453593569998,-0.0072009999999999574,0.18407600000000013,-0.756518,0.115043,0.07557300000000011,-0.837253,0.12224399999999996,0.10850300000000002,0.080735,0.0,0.9072968990453333,single,-0.756518
141,1.175,jog,-1.0969638785551177,-1.0348013920556698,0.16896675867033964,0.6177857576624018,0.611048697948576,1.5290383565739678,-3.1522860914436044,-2.8801152046081366,-0.6660266410656309,-0.020640825633018955,0.04452178087122197,0.08244329773190785,-7.561093860287061,-6.149055197510696,12.673926204832386,7.730297893118025,-0.8622391721288611,-1.2335414459179472,1.5260417353256248,7.445143331733804,4.9833878639192575,-0.024328000000000016,0.16869900000000015,-0.763476,0.12401200000000001,0.08456700000000006,-0.837974,0.14834000000000003,0.0841320000000001,0.07449799999999995,0.0,0.8400943855159324,single,-0.763476
142,1.183333,jog,-1.139565582623316,-1.0618024720988897,0.19680787231489139,0.8468469920311448,0.36089801728130894,1.533084850137901,-3.1854074162966826,-3.0523220928837547,-0.6078243129725245,-0.026521060842437147,0.024000960038399112,0.05664226569062817,-5.112408984543224,-3.240259215555038,3.3410672800374415,-3.9747179710882605,-20.665653219203122,6.984558753522977,-0.7056564513882451,-2.4625970038189187,-3.096247694861385,-0.041376000000000024,0.15211200000000002,-0.770181,0.133287,0.093615,-0.8391419999999999,0.174663,0.05849700000000002,0.06896099999999994,0.0,0.8883487695552102,single,-0.770181
143,1.191667,jog,-1.2287017038636847,-1.0412766978641586,0.2407007439404905,1.3928389617843837,0.3730434825044825,1.0763318882281778,-3.1754259659227007,-3.1679865610750944,-0.43964482841372193,-0.006839452843769295,0.10991120710344755,-0.000839932805375571,-10.695478910531325,2.462895876497596,5.266723257211278,1.1976782306193698,-13.878625892889225,20.1799237531559,2.361604031517603,10.3084049754077,-6.897312034557632,-0.057599999999999985,0.13438799999999995,-0.7758510000000001,0.14347000000000004,0.1032090000000001,-0.841155,0.20107000000000003,0.031178999999999846,0.06530399999999992,0.0,0.8164549930363988,single,-0.7758510000000001
144,1.2,jog,-1.219728789151578,-1.117124684987411,0.299171966878674,0.870381181292,0.7277897696154529,1.098188081404758,-3.131645265810662,-3.097323892955733,-0.5373814952598165,-0.014280571222859995,-0.03108124324973138,0.10224408976359131,1.0767928371663011,-9.102122539691967,7.016827425679107,5.253894169211436,8.479859368698166,-11.728869176298506,-0.8929699242878637,-16.919770833214955,12.370577531377394,-0.07353199999999999,0.11788700000000008,-0.782822,0.15351499999999996,0.11225900000000011,-0.842796,0.22704699999999994,0.005627999999999966,0.05997399999999997,0.0,0.8203102033442582,single,-0.782822
145,1.208333,jog,-1.2278891155645968,-1.1363254530180948,0.3327733109324345,1.2051032649947986,0.26862885357055966,1.0025653604210576,-3.2085683427336544,-3.1648865954637606,-0.5669026761070334,-0.04404176167045347,-0.027601104044182225,0.09096363854554043,-0.9792783406958645,-2.3041843310552608,4.032322579354367,-9.231138476297962,-8.107848614907745,-3.5426834090023247,-3.57148571313968,0.4176334100022913,-1.3537082944978618,-0.09003700000000003,0.10098300000000004,-0.790319,0.16338000000000003,0.12149799999999988,-0.844811,0.25341700000000006,0.02051499999999984,0.054491999999999985,0.0,0.8253902664914113,single,-0.790319
146,1.216667,jog,-1.246820254379678,-1.139308855291602,0.37988960883130096,1.2906261770458434,0.06050601486193167,0.7979687679578853,-3.110391168706563,-3.166786657067518,-0.5080393568514617,-0.04451643868490728,0.0269978401728037,0.20170386369090879,-2.2715549334151186,-0.3579796344501064,5.653503467586675,11.780318457774593,-0.22798915331860517,7.063033268007291,-0.056956685199642657,6.551349198102588,13.287763996324749,-0.105568,0.08408599999999988,-0.7977190000000001,0.17340000000000005,0.13121800000000006,-0.846296,0.27896800000000005,0.047132000000000174,0.04857699999999998,0.01423000000000002,0.6528087090064995,single,-0.7977190000000001
147,1.225,jog,-1.307332293291704,-1.1798871954878065,0.4384975399015806,0.641918123161131,0.8690985007185683,0.7628577408156129,-3.14604584183362,-3.3182527301091307,-0.5211808472338801,-0.004680187207489568,-0.05892235689427704,0.2665306612264445,-7.2617351388485405,-4.869595607368755,7.033233057755742,-4.27873192452378,-18.176655831226473,-1.577041927567284,4.780541398945999,-10.310836081492768,7.7795268853395605,-0.12089000000000005,0.06626700000000008,-0.805716,0.184255,0.1405590000000001,-0.847729,0.30514500000000006,0.07429200000000002,0.04201299999999997,0.07987,0.5449897996623243,single,-0.805716
148,1.233333,jog,-1.3294131765270771,-1.1792871714868738,0.46417856714270117,0.8382505016454412,0.35161896187611374,0.6044164947145408,-3.067682707308314,-3.2257290291611977,-0.4626185047401935,-0.03840153606144124,-0.055082203288130495,0.31033241329653444,-2.6498119807240323,0.07200576034234203,3.0818465427962107,9.403952301128847,11.103288245281865,7.02776220973085,-4.046723731423494,0.4608368662122385,5.256420505231053,-0.13537499999999997,0.04921400000000009,-0.813439,0.19501300000000005,0.14992700000000014,-0.8490110000000001,0.330388,0.10071300000000005,0.03557200000000005,0.14427999999999996,0.5,flight,-0.813439
149,1.241667,jog,-1.381329493640501,-1.2201823854091427,0.44564434845211987,0.5780590079946698,0.3600457362967497,0.24156598310573352,-3.0351571874249843,-3.2339812814974658,-0.44432445404367454,-0.06455483561315507,-0.15418766498679756,0.3480921526277872,-6.229459696835064,-4.90703310802359,-2.2239283286034515,3.9027501659862742,-0.9901910650669505,2.1951104747442787,-3.138144894614067,-11.891704067514556,4.5308062552498765,-0.14915799999999996,0.03243099999999988,-0.820856,0.20598700000000003,0.15881100000000004,-0.849824,0.355145,0.12638000000000016,0.028967999999999994,0.21032000000000006,0.5,flight,-0.820856
150,1.25,jog,-1.399975999039969,-1.1999279971199066,0.5073802952118143,0.7514155555786372,0.19830843830898187,0.1876303547921721,-3.027961118444766,-3.2166086643465825,-0.3777751110044434,-0.09504380175207275,-0.15588623544943875,0.43897755910236747,-2.2376701547423696,2.4306238196611396,7.4086099555616185,0.8635628201390222,2.084797450004007,7.986240614332385,-3.658822289561737,-0.2038366089813034,10.906685044351505,-0.162724,0.01562600000000014,-0.8282320000000001,0.21686099999999997,0.16751099999999997,-0.8503940000000001,0.37958499999999995,0.15188499999999983,0.022162000000000015,0.27837999999999996,0.5,flight,-0.8282320000000001
151,1.258333,jog,-1.4186967478699277,-1.2174486979479109,0.5748229929197174,0.6323741734048635,0.02740214394749588,0.0786231205502821,-2.978639145565851,-3.2020880835233716,-0.32545301812072686,-0.13980559222368683,-0.19548781951276797,0.439457578303136,-2.246579722783985,-2.102568202088616,8.093447462846962,5.918873500409836,1.7425394003613444,6.2789023021381265,-5.371629721782609,-4.752380182806863,0.05760460827655292,-0.17572300000000002,-0.0009120000000000239,-0.835734,0.227518,0.17602699999999993,-0.851522,0.403241,0.17693899999999996,0.015788000000000024,0.34211999999999987,0.5,flight,-0.835734
152,1.266667,jog,-1.4461243100551855,-1.2568994480441484,0.5499160067194587,0.3177482566459835,0.2283564160738416,0.055381328420145044,-2.9163666906647236,-3.1565874730021455,-0.22918166546676197,-0.15886729061674848,-0.2434605231581525,0.45932325413966674,-3.2910441786966116,-4.7337113146432985,-2.9885992560905295,7.472096820389616,5.459636491627762,11.551638187420705,-2.2872208295010212,-5.756263936331193,2.383690405151261,-0.187976,-0.016744000000000092,-0.8422270000000001,0.238246,0.1844729999999999,-0.852277,0.426222,0.20121699999999998,0.010049999999999892,0.3995000000000001,0.5,flight,-0.8422270000000001
153,1.275,jog,-1.4524180967238858,-1.2556102244090013,0.5972638905556288,0.2896254336022445,0.2745344683609519,-0.11851216898455373,-2.8623544941797947,-3.1234849393975974,-0.11004440177607219,-0.20748829953198084,-0.2978519140765506,0.5034201368054757,-0.7552846116285062,0.15471302473865053,5.6819733392740295,6.4817228471054165,3.972462931063047,14.29704352462389,-5.834754460006336,-6.5272279993278035,5.29183759340086,-0.19972499999999999,-0.03230899999999992,-0.848121,0.24862000000000006,0.19245400000000012,-0.853059,0.44834500000000005,0.22476300000000005,0.004937999999999998,0.45062,0.5,flight,-0.848121
154,1.283333,jog,-1.468858754350145,-1.2800912036481213,0.5605424216968558,-0.024539232872101763,0.044327238569842026,-0.14966641154384927,-2.7273490939637104,-3.0346813872554477,-0.02544101764070398,-0.27733109324373245,-0.35617424696988237,0.5767430697227793,-1.9729578334644124,-2.937835022095241,-4.4067525331540125,16.201296077772945,10.656852531159029,10.152812208732358,-8.381470504230217,-6.998959905595914,8.79910391423285,-0.210212,-0.04693000000000003,-0.853004,0.258549,0.20015300000000003,-0.852924,0.468761,0.24708300000000005,7.999999999996898e-05,0.5,0.49920000000000003,flight,-0.852924
155,1.291667,jog,-1.4559635229181982,-1.2715382769378654,0.6102711783057513,0.6232885097208711,-0.4183515059332095,-0.22405737465014955,-2.621790256779507,-2.9198464122870686,0.10067194624430148,-0.28569714422846315,-0.39584833213342974,0.5934725221982361,1.5473039875146466,1.0262691037024412,5.966973435192761,12.666047178330402,13.779094668632254,15.132345078594655,-1.003845810502863,-4.760509378875464,2.007373707158277,-0.21992799999999996,-0.060667000000000026,-0.857251,0.26830200000000004,0.20745100000000005,-0.853064,0.48823,0.2681180000000001,0.004186999999999941,0.5,0.4581299999999999,flight,-0.853064
156,1.3,jog,-1.4647785911436195,-1.2848913956558063,0.5783031321252771,0.15898420031815957,-0.6065268442187994,-0.3381094198262223,-2.454098163926515,-2.793111724468935,0.10872434897395754,-0.325573022920907,-0.4413776551062049,0.6000240009600267,-1.0578505010705839,-1.6024383436866372,-3.8363189944166156,20.123856096602516,15.20877088901131,0.9663269806379355,-4.7852968549673776,-5.463737306225174,0.7862088997708527,-0.22817199999999999,-0.07323500000000005,-0.861164,0.27779500000000007,0.21448,-0.8528830000000001,0.5059670000000001,0.28771500000000005,0.008280999999999983,0.5,0.41719000000000006,flight,-0.8528830000000001
157,1.308333,jog,-1.458058322332906,-1.3063722548902017,0.5327013080523234,-0.0012073977705656452,-0.4241384574692158,-0.42311859089923226,-2.2678507140285817,-2.627625105004214,0.16356654266170834,-0.3729749189967632,-0.4540981639265624,0.6144245769830848,0.8064645158662651,-2.577806220376281,-5.47243778626594,22.350588011272663,19.85918870331487,6.5813264955899795,-5.688455067305489,-1.5265221193276832,1.7281382482969208,-0.23492,-0.08424500000000001,-0.86424,0.28683700000000006,0.22158199999999995,-0.852202,0.521757,0.30582699999999996,0.012037999999999993,0.5,0.37962000000000007,flight,-0.852202
158,1.316667,jog,-1.4859611231101406,-1.3242140628749655,0.46484281257498244,-0.5714887528708981,-0.7162165772760192,-0.2552492799447537,-2.161147108231325,-2.5350371970242196,-0.016558675305975303,-0.4199664026877888,-0.5087592992560582,0.6175905927525749,-3.3480682478083037,-2.1408456905163935,-8.142368067835427,12.803408422996878,11.109660184784445,-21.613297092354482,-5.638526960766164,-6.558811534616682,0.3798915010187215,-0.24054699999999998,-0.09433599999999998,-0.8682519999999999,0.295721,0.22837799999999997,-0.8509289999999999,0.536268,0.32271399999999995,0.017322999999999977,0.5,0.3267700000000001,flight,-0.8509289999999999
159,1.325,jog,-1.492259690387626,-1.3384135365414702,0.3978159126365172,-0.8018086519190841,-0.7291205410166608,-0.3114992545701644,-1.8925957038281696,-2.269290771630884,0.16176647065882807,-0.4994599783991404,-0.6422656906276338,0.6467058682347359,-0.7558583076305535,-1.7040050001805938,-8.043549734605284,32.22745762668401,31.89084668106782,21.39987351071703,-9.539610669789074,-16.021407820902056,3.4939728167720197,-0.24388300000000002,-0.10209299999999999,-0.8702190000000001,0.303994,0.23417899999999992,-0.848855,0.547877,0.3362719999999999,0.02136400000000005,0.5,0.28636000000000006,flight,-0.848855
160,1.333333,jog,-1.5015000600023767,-1.3200528021120626,0.36997479899194685,-1.2317482541427518,0.1379076598123336,-0.3574464793801125,-1.7179887195487522,-2.0676827073082658,0.060122404896193304,-0.5564622584903302,-0.6450258010320189,0.5504620184807288,-1.1088887093184399,2.2033762665795447,-3.3410672800395873,20.95367626058014,24.193935476132797,-12.19777580254806,-6.8405472328319625,-0.33122649758610523,-11.549723959439017,-0.245687,-0.10832300000000006,-0.8728009999999999,0.311869,0.23980400000000002,-0.847351,0.5575559999999999,0.3481270000000001,0.025449999999999973,0.5,0.2455,flight,-0.847351
161,1.341667,jog,-1.5046796256299777,-1.3358531317494926,0.24718022558196556,-1.0893137256407044,-0.043512561005014765,-0.32329389283211224,-1.485001199904036,-1.8566114710823438,0.07955363570914607,-0.6039116870650408,-0.7739380849532265,0.7068634509239404,-0.38151735392381597,-1.8958878854608059,-14.734170075591987,27.95626585609799,25.32652222533309,2.331561172660564,-5.69347595088932,-15.468236611616273,18.766670559540984,-0.245523,-0.11266299999999996,-0.874198,0.31937600000000005,0.244487,-0.84352,0.564899,0.35714999999999997,0.030677999999999983,0.5,0.19322000000000006,flight,-0.84352
162,1.35,jog,-1.4923796951877817,-1.308892355694205,0.25405016200646674,-0.8152097398372735,-0.3256209054705442,-0.37588084028016927,-1.2944917796711641,-1.6503060122404591,0.0074402976119034596,-0.6360254410176395,-0.8611544461778405,0.8323532941317521,1.4760506950912997,3.235422543536207,0.824425347954045,22.862044909740614,24.7576453668404,-8.653946729538143,-3.8538046264968284,-10.466382002233594,15.059383560279546,-0.24387399999999998,-0.11550799999999994,-0.876253,0.32651199999999997,0.24821799999999994,-0.8387009999999999,0.570386,0.3637259999999999,0.03755200000000003,0.5,0.12447999999999987,flight,-0.8387009999999999
163,1.358333,jog,-1.5274210968438864,-1.3049321972878962,0.16572662906517333,-0.9503002281244224,-0.14739631589241908,-0.3699888884972904,-1.0883235329413274,-1.480739229569195,-0.10956438257530367,-0.6876275051001985,-0.8849153966158717,0.9409576383055392,-4.20513640418877,0.4752380182777795,-10.599247922872221,24.74117925475082,20.348827873666828,-14.04112326739568,-6.192495389722734,-2.851428109688154,13.033042622559481,-0.24021499999999998,-0.116973,-0.8785470000000001,0.3335100000000001,0.2517179999999999,-0.832241,0.573725,0.3686909999999999,0.04630600000000007,0.5,0.03694000000000003,flight,-0.832241
164,1.366667,jog,-1.4943604511638946,-1.2926565874729963,0.08735301175905272,-0.6665130923425517,-0.30519422661065587,-0.4710618443092852,-0.9184065274777948,-1.3335733141348671,-0.2122630189584825,-0.7667386609071224,-0.9244060475161836,1.0412766978641619,3.9669601247890007,1.4729553413606735,-9.404081750194386,20.38840958285713,17.658497172345424,-12.322850537938333,-9.49257929048755,-4.738499028115142,12.037324161101736,-0.235415,-0.11731400000000003,-0.8810439999999999,0.33957400000000004,0.254787,-0.824291,0.5749890000000001,0.372101,0.05675299999999994,0.5,0.0,flight,-0.824291
165,1.375,jog,-1.496819872794927,-1.30421216848675,-0.026641065642619283,-1.111540537734466,0.3714599037329916,-0.38941429615611045,-0.7465498619944865,-1.1947677907116352,-0.3030121204848221,-0.8430337213488688,-1.0386415456618454,1.0550822032881437,-0.2951424014199354,-1.38672519065809,-13.67983648166003,20.623624802989312,16.657329103952144,-10.890327796272704,-9.155773483949009,-13.708808129804734,1.6567269199546348,-0.22916299999999998,-0.116402,-0.8833470000000001,0.345022,0.2569999999999999,-0.815277,0.574185,0.3734019999999999,0.06807000000000007,0.5,0.0,flight,-0.815277
166,1.383333,jog,-1.4904596183847474,-1.2808112324493148,-0.1088443537741509,-0.7116241464995441,0.2526715404285675,-0.3394244167512897,-0.5941437657506358,-1.0852034081363382,-0.41629665186607845,-0.8705148205928296,-1.2083283331333223,1.0984039361574556,0.7632610596639349,2.8082246534783892,-9.864789167350578,18.289463127787364,13.148251839109324,-13.594687553253014,-3.29786382382828,-20.363229025738445,5.198815896953347,-0.221694,-0.11477199999999999,-0.8859090000000001,0.350188,0.25760400000000006,-0.8052170000000001,0.571882,0.37237600000000004,0.08069199999999999,0.5,0.0,flight,-0.8052170000000001
167,1.391667,jog,-1.4832013438924785,-1.272258219342433,-0.15370770338373865,-0.5032793538240264,0.13405226658071476,-0.38020019602932326,-0.4802015838732863,-0.9733621310295112,-0.5166786657067384,-0.992560595152387,-1.2974562035037052,0.9602831773458029,0.8709232652110447,1.0262794704681748,-5.383171299446533,13.671968067836403,13.419879662446142,-12.044878070633448,-14.644321401434668,-10.694488885335032,-16.573165204181855,-0.213335,-0.11228100000000008,-0.888934,0.35427699999999995,0.257394,-0.795933,0.5676119999999999,0.3696750000000001,0.093001,0.5,0.0,flight,-0.795933
168,1.4,jog,-1.4702988119524898,-1.2713308532341534,-0.2686907476299066,-0.5483650271282972,0.4688354657262372,-0.3150816723487105,-0.30229209168367016,-0.7928717148686055,-0.6026641065642679,-1.0889235569422775,-1.539781591263669,0.9648385935437529,1.5483657674293545,0.11128838452893328,-13.798517250230287,21.349993062476635,21.659716327961995,-10.318665649529624,-11.56401797550598,-29.080209739585506,0.5466718106264263,-0.203602,-0.108294,-0.891717,0.357455,0.2551570000000001,-0.785654,0.561057,0.3634510000000001,0.10606300000000002,0.5,0.0,flight,-0.785654
169,1.408333,jog,-1.4562582503299886,-1.261370454818163,-0.351374054962184,-0.7029778338540588,0.5046383226273804,-0.2950958983619759,-0.053882155286210265,-0.5011400456018102,-0.6493459738389421,-1.130805232209277,-1.6851074042961556,0.9237969518780569,1.6849347920918012,1.1952956217436956,-9.92239377562414,29.81038478308599,35.00920068004202,-5.6020481548869965,-5.026002072122735,-17.439795155704314,-4.925194007643741,-0.191916,-0.10195900000000002,-0.8942,0.36016699999999996,0.2516259999999999,-0.775028,0.552083,0.3535849999999999,0.11917199999999994,0.5,0.0,flight,-0.775028
170,1.416667,jog,-1.4200863930885814,-1.2438204943604732,-0.4707223422126331,-0.7467830879319443,0.46693708031746656,-0.23990735324782245,0.16378689704823904,-0.2866570674346076,-0.7008639308855432,-1.2674586033117579,-1.8479721622270568,0.8983681305495723,4.340275646917187,2.105826788779721,-14.320648818148713,26.118196824388463,25.73589850818415,-6.18166031276723,-16.397092764876827,-19.542207575102516,-3.0512144622612247,-0.17871599999999999,-0.09398200000000001,-0.8961180000000001,0.36143899999999995,0.2465909999999999,-0.763618,0.5401549999999999,0.3405729999999999,0.13250000000000006,0.5,0.0,flight,-0.763618
171,1.425,jog,-1.4198967958718078,-1.1978879155166053,-0.5307812312492486,-0.7893194926662533,0.6999266632606093,-0.20554503635098048,0.32953318132724757,-0.07272290891635483,-0.5648625945037706,-1.3621744869794554,-1.9975999039961174,0.8376335053402006,0.02275257611587442,5.512129946461899,-7.2073549785928765,19.890349727469776,25.673125947227774,16.320813198340357,-11.366360694551291,-17.956047254177122,-7.288446562986993,-0.164138,-0.08460599999999996,-0.8964019999999999,0.36191999999999996,0.239927,-0.752215,0.5260579999999999,0.32453299999999996,0.14418699999999995,0.5,0.0,flight,-0.752215
172,1.433333,jog,-1.3774150966038787,-1.1836073442937771,-0.6303852154086164,-0.901163022651437,0.7060254745949915,-0.301516124007079,0.14844593783751467,0.08100324012960367,-0.27793111724469216,-1.4528981159246477,-2.120604824192986,0.7337093483739426,5.098007832464838,1.713737096223251,-11.952956217372938,-21.73133847230704,18.44787580054721,34.43315459727362,-10.887270964261742,-14.761180870859201,-12.47139769185875,-0.151423,-0.07406800000000002,-0.8934650000000001,0.36129100000000003,0.23211899999999996,-0.740848,0.512714,0.306187,0.1526170000000001,0.5,0.0,flight,-0.740848
173,1.441667,jog,-1.3348932085433058,-1.154427645788327,-0.7031437485001117,-1.1515135087933543,1.0992633145236608,-0.1419190124250412,-0.2323014158867273,-0.11111111111110815,-0.2674586033117332,-1.5609551235901,-2.186585073194113,0.6495080393568466,5.102218389797524,3.5012837179565626,-8.730325544935784,-45.68602756470351,-23.05187799864535,1.2566011438635551,-12.965803655561738,-7.9169965204135435,-10.10334881414631,-0.142234,-0.06537300000000001,-0.889834,0.35940700000000003,0.22351700000000008,-0.7295750000000001,0.501641,0.2888900000000001,0.16025899999999993,0.5,0.0,flight,-0.7295750000000001
174,1.45,jog,-1.3196927877115197,-1.1348853954158329,-0.7395895835833537,-1.2110275646578907,1.5687464447721042,-0.027721306464596526,-0.35305412216488985,-0.16056642265691512,-0.3388935557422328,-1.7013080523221078,-2.30253210128408,0.5469818792751735,1.8241234647529494,2.345163851253354,-4.373675156995354,-14.490904389555219,-5.93487478048811,-8.572537193147754,-16.84302516884784,-13.914199938793724,-12.303631355055092,-0.134179,-0.05725400000000003,-0.886495,0.356227,0.21378700000000006,-0.718854,0.490406,0.2710410000000001,0.16764100000000004,0.5,0.0,flight,-0.718854
175,1.458333,jog,-1.2990519620784606,-1.1216848673946755,-0.7458298331933112,-0.9688244393134041,1.676627934787004,-0.12127676136022157,-0.2619704788191483,-0.23856954278170586,-0.3223328933157263,-1.860794431777241,-2.417256690267571,0.42025681027240414,2.476998155893275,1.5841267276079578,-0.748859907591191,10.930474420465613,-9.360748844928523,1.987358985540167,-19.139131099859632,-13.767501378073819,-15.207616584995458,-0.125537,-0.04989500000000002,-0.882966,0.35154599999999997,0.20299100000000003,-0.709137,0.477083,0.25288600000000006,0.173829,0.5,0.0,flight,-0.709137
176,1.466667,jog,-1.266498680105615,-1.0934725221982495,-0.749940004799641,-0.8338158184496114,2.116318284302617,-0.126294381901302,-0.05099592032637466,-0.12982961363090195,-0.15922726181905772,-2.069834413246978,-2.5382769378450347,0.2993760499160121,3.9060813502335243,3.3852106067226484,-0.4931811382685191,25.31492182538729,13.047747678282455,19.571110090793336,-25.0827911530767,-14.521268007855273,-14.5045308802969,-0.11540700000000001,-0.0418639999999999,-0.8780429999999999,0.344851,0.19094999999999995,-0.7003919999999999,0.460258,0.23281399999999985,0.177651,0.6471952327266932,0.0,single,-0.7003919999999999
177,1.475,jog,-1.2187687507500102,-1.098763950557996,-0.7491899675986906,-0.9032313330055479,2.299038565140079,-0.2339994667725779,0.024120964838593096,-0.16464658586343645,-0.10704428177126944,-2.1802472098883596,-2.5657026281050737,0.17628705148205598,5.727820635497899,-0.6349968030416903,0.09000806443661773,9.014386795267784,-4.178203796055908,6.262208094058246,-13.25006559958953,-3.291214479783806,-14.771270662900989,-0.10504999999999999,-0.03408,-0.8726919999999999,0.336839,0.17872599999999994,-0.69268,0.441889,0.21280599999999994,0.18001199999999995,0.6702324158459918,0.0,single,-0.69268
178,1.483333,jog,-1.2253690147606013,-1.0729629185167477,-0.7507500300011983,-0.473266321782974,2.4374163358000227,0.17645086330992665,0.013800552022081072,-0.06612264490579302,-0.08304332173286985,-2.3036121444857995,-2.6290651626065196,0.064562582503302,-0.7920633638054921,3.0962476948576168,-0.1872149769000044,-1.238499077944572,11.82334584875127,2.8802304138245303,-14.804384327066007,-7.6038082925052795,-13.407472576353653,-0.094724,-0.02568999999999999,-0.867128,0.327854,0.165759,-0.685886,0.422578,0.19144899999999998,0.18124200000000001,0.8215899488235606,0.0,single,-0.685886
179,1.491667,jog,-1.1852651787856878,-1.03191744660427,-0.6954643628509695,0.019918995207843376,2.0749917388883325,-0.00013272232857633635,0.02819774418046524,-0.009719222462202678,-0.04523638108951277,-2.370170386369068,-2.6563474922006027,-0.05507559395248184,4.812075350961508,4.925062624487334,6.633749358078767,1.7275248570175257,6.767869263689694,4.5364699596060465,-7.986350117982737,-3.2736176618770045,-14.355432740074745,-0.08461099999999999,-0.017170999999999936,-0.8617090000000001,0.317979,0.15222100000000005,-0.680549,0.40259,0.169392,0.1811600000000001,0.9096933274857836,0.0,single,-0.680549
180,1.5,jog,-1.1896075843033829,-1.0441617664706635,-0.6611064442577747,0.07215366454498175,1.1619254413490994,-0.027335935694262778,0.04032161286451489,-0.03252130085203692,-0.028321132845314085,-2.4773790951638355,-2.725909036361484,-0.17436697467898993,-0.5211095065036706,-1.4693771590535976,4.123115155789647,1.4549224389835307,-2.7363588611345797,2.0299109857432907,-12.865559677759304,-8.347719208074173,-14.31553830871345,-0.074362,-0.008740999999999999,-0.856436,0.30724799999999997,0.13820699999999997,-0.676493,0.38160999999999995,0.14694799999999997,0.17994299999999996,0.9016023651093511,0.0,single,-0.676493
181,1.508333,jog,-1.1688467538701652,-1.058682347293901,-0.570142805712241,0.9063599313333743,0.5726896470847229,-0.1435446892837575,-0.0006000240009598112,-0.048961958478348576,-0.025921036841473174,-2.54866194647788,-2.756510260410447,-0.2965318612744538,2.4913993079584573,-1.7425394003645418,10.916073268394879,-4.910792855571232,-1.9729578334707552,0.2880230413825673,-8.5542843290586,-3.6722937776266766,-14.660372806368054,-0.064627,-0.00032700000000007723,-0.8519009999999999,0.29575,0.12405899999999992,-0.674213,0.360377,0.124386,0.17768799999999996,0.9076610477375419,0.0,single,-0.674213
182,1.516667,jog,-1.2291816654667536,-1.0821934245260296,-0.48056155507558135,0.5773865433659314,-0.014093285861257384,-0.288802477905799,-0.002279817614591014,-0.017638588912874502,-0.03227741780657587,-2.603071754259638,-2.797216222702162,-0.4076073914086855,-7.239610222772722,-2.8211035795690367,10.748890165185857,-0.20155910890703022,3.7585036675634553,-0.762704699436363,-6.528654641439605,-4.884324729027464,-13.3279973763176,-0.054402,0.008545000000000025,-0.8481650000000001,0.2843,0.10976599999999992,-0.673605,0.338702,0.1012209999999999,0.17456000000000005,0.9385782094526923,0.0,single,-0.673605
183,1.525,jog,-1.2758910356414372,-1.0800432017280799,-0.43681747269890914,0.6666267590228343,0.28248933985830765,-0.376296746796996,0.0030001200048003053,-0.019920796831873394,-0.025201008040321233,-2.845673826953102,-2.723148925957055,-0.4953798151926114,-5.6053486349074895,0.25803705723626075,5.249499865195321,0.6336178590413258,-0.2738759053160822,0.8492031400761674,-29.113413259746324,8.888431146658792,-10.533112178558342,-0.043745,0.017379000000000033,-0.844735,0.27121900000000004,0.09607399999999999,-0.674093,0.314964,0.07869499999999996,0.17064199999999996,0.946227597105219,0.0,single,-0.674093
184,1.533333,jog,-1.2655706228248909,-1.089643585743408,-0.40741629665186335,1.0565419203897752,-0.18622982566784885,-0.27803248217715726,-0.0025201008040321394,-0.0036001440057704293,-0.03060122404896205,-2.7232689307571847,-2.985599423976905,-0.6557062282491181,1.2384990779486627,-1.152092165525965,3.52828225693571,-0.6624529951796889,1.9585566813995776,-0.648051843110611,14.689175110514256,-31.495319575164412,-19.23993916434704,-0.03322,0.026428999999999925,-0.841595,0.259072,0.08027499999999999,-0.676162,0.292292,0.05384600000000006,0.16543299999999994,0.9484747403311427,0.0,single,-0.676162
185,1.541667,jog,-1.290016798656132,-1.0514758819294747,-0.32889368850492506,0.6289865765613682,-0.707276836237943,-0.5500957126894258,0.006719462443004746,-0.00863930885528706,-0.01775857931365469,-2.893088552915821,-2.846652267818638,-0.7115430765538882,-2.933306435234168,4.579758077025908,9.421959220895102,1.108658896932693,-0.6046514098292209,1.5409940887098157,-20.376724521075033,16.67232495299608,-6.699885805708082,-0.022413,0.03512000000000004,-0.839002,0.245712,0.06531399999999998,-0.679351,0.268125,0.030193999999999943,0.159651,0.9652326792862993,0.0,single,-0.679351
186,1.55,jog,-1.2415696627864898,-1.1168846753869905,-0.2377295091803643,0.6556320338051503,-0.2608945747153554,-0.23402027586983729,0.007320292811712167,-0.019680787231495276,-0.007440297611904292,-2.9986799471978367,-2.8342733709347776,-0.7632305292211561,5.813888859911348,-7.849369189669348,10.94013912451208,0.07210252834602306,-1.3250304063612173,1.2382433339433836,-12.671474172808601,1.4855270471451214,-6.202742429769234,-0.012006000000000001,0.04426299999999994,-0.837083,0.23107,0.05100300000000002,-0.68373,0.243076,0.006740000000000079,0.15335300000000007,0.962871166436077,0.0,single,-0.68373
187,1.558333,jog,-1.2488899555982356,-1.0608424336973528,-0.24624984999400848,0.17147618848043877,-0.5742980947239839,-0.6832133503222033,0.014520580823233011,-0.007920316812660515,-0.0007200288011519401,-3.0666026641065915,-2.9437177487099815,-0.797671906876284,-0.8784702762205447,6.725338016277247,-1.0224817969091857,0.864069124147475,1.4113129027762952,0.8064645158709245,-8.1510520711335,-13.133850687052067,-4.133130643841138,-0.0014780000000000001,0.053037,-0.8350369999999999,0.215923,0.03531299999999993,-0.688325,0.217401,0.017724000000000073,0.14671199999999995,0.9724068684406063,0.0,single,-0.688325
