frame_id,timestamp,gait_type,root_linear_velocity_x,root_linear_velocity_y,root_linear_velocity_z,root_angular_velocity_x,root_angular_velocity_y,root_angular_velocity_z,left_linear_velocity_x,left_linear_velocity_y,left_linear_velocity_z,right_linear_velocity_x,right_linear_velocity_y,right_linear_velocity_z,root_acceleration_x,root_acceleration_y,root_acceleration_z,left_acceleration_x,left_acceleration_y,left_acceleration_z,right_acceleration_x,right_acceleration_y,right_acceleration_z,left_pos_rel_x,left_pos_rel_y,left_pos_rel_z,right_pos_rel_x,right_pos_rel_y,right_pos_rel_z,step_length,step_width,step_height,left_contact_prob,right_contact_prob,support_type,max_foot_height
1,0.008333,jog,0.046561862474505576,0.24312972518901754,-0.02820112804512003,-0.055271280155327986,-0.07514377055815669,0.3842792832622894,0.010440417616725102,-0.004920196807880566,0.005520220808832461,0.0016800672027097725,0.003600144005757169,0.004800192007680112,0.0,0.0,0.0,0.0,0.0,0.0,0.0,0.0,0.0,0.12264500000000012,0.07424299999999995,-0.90236,-0.11566699999999996,-0.130363,-0.9075970000000001,0.23831200000000008,0.20460599999999995,0.005237000000000047,0.9263068582665732,0.9896149806106201,double,-0.90236
2,0.016667,jog,0.06659467242618923,0.23674106071514306,-0.034197264218873376,-0.1527172442624573,-0.07616598004005257,0.4612403520632312,0.009959203263745529,-0.003959683225335941,0.004799616030717347,0.0022798176145897822,0.0023998080153478495,0.007439404847612553,2.4037448946104694,-0.7665784105920905,-0.7194787825477974,-0.057741103069303246,0.11525240971257798,-0.08646565612132404,0.07196429228221858,-0.1440287965453947,0.3166802063753829,0.12217300000000031,0.072237,-0.9020349999999999,-0.11620299999999983,-0.1323160000000001,-0.90725,0.23837600000000014,0.2045530000000001,0.005215000000000081,0.9282781143433918,0.9864290556136974,double,-0.9020349999999999
3,0.025,jog,0.030121204848194073,0.2307692307692184,-0.016200648025920583,-0.05545888349012451,-0.024452260261958365,0.3389184150164184,0.006480259210368234,-0.00624024960999064,0.004800192007680528,-0.0020400816032828248,0.012960518420736467,0.002400096003840056,-4.376991189006979,-0.7166482594413364,2.1596803303675496,-0.4174899860047156,-0.2736789133150965,6.912000038178513e-05,-0.5184086424904125,1.2673359420843175,-0.6047412509027358,0.1219760000000003,0.07026200000000005,-0.90186,-0.11647099999999999,-0.134131,-0.907095,0.2384470000000003,0.20439300000000005,0.00523499999999999,0.9306552035791384,0.9777703006774251,double,-0.90186
4,0.033333,jog,0.010440417616725102,0.21816872674908164,0.00624024960999064,-0.024395593509908997,-0.3225810438067603,0.3504195712787642,0.008160326413024714,-0.003840153606134763,0.002040081603264089,0.003240129605184117,0.00732029281172312,0.007200288011520584,-2.3617889393338496,-1.5121209672551021,2.693015436926824,0.20161612896393621,0.28802304138436063,-0.3312264975898763,0.6336506910436748,-0.6768541472474916,0.5760460827649739,0.12195699999999987,0.06841200000000003,-0.901895,-0.11653100000000016,-0.135888,-0.907087,0.23848800000000003,0.20430000000000004,0.005191999999999974,0.9326689974518749,0.9820549237520115,double,-0.901895
5,0.041667,jog,0.03107751379889719,0.22846172306214368,0.014518838492911771,-0.006345156157834845,-0.3526203277496082,0.44720808421898034,0.00935925125992855,-0.0041996640268787185,0.001079913606911278,0.004799616030722342,0.004319654427636786,0.007439404847612137,2.4762534415853232,1.2350607527072288,0.9933511978547073,0.1438594728706306,-0.04313779946531745,-0.11521094268692234,0.18712340119249157,-0.3600478022661787,0.028691724992986906,0.1217760000000001,0.06647300000000012,-0.902007,-0.11675000000000013,-0.137756,-0.9071459999999999,0.23852600000000024,0.2042290000000001,0.005138999999999894,0.9314183534914058,0.9835818128535554,double,-0.902007
6,0.05,jog,0.05832233289331411,0.251050042001678,-0.021600864034556338,-0.24168858197746984,0.12595512143454143,0.30439601210397255,0.007200288011514338,-0.004200168006721138,-0.0025201008040321837,0.007440297611905255,0.006120244809795182,0.007320292811712295,3.269509071692898,2.710706701012161,-4.334537684803565,-0.25908595324783534,-6.0480000290371226e-05,-0.43201901007361837,0.3168944655205704,0.216079489038569,-0.014294016068623721,0.12135000000000007,0.06434600000000013,-0.901848,-0.11717400000000011,-0.13979699999999995,-0.906905,0.23852400000000018,0.20414300000000007,0.005056999999999978,0.9349159773938821,0.9798338765958329,double,-0.901848
7,0.058333,jog,0.025201008040326833,0.25261010440417897,0.002400096003842554,-0.1343342810019503,-0.24006902272465977,0.38611799268643554,0.007920316812660443,-0.006120244809795182,-0.0033601344053762446,0.009360374414979299,0.005760230409222129,0.008040321612864644,-3.9747179710773155,0.18721497689918998,2.8802304138244197,0.08640691241402909,-0.2304184331062095,-0.10080806448386666,0.2304184331062095,-0.0432034562070146,0.08640691241477842,0.12120599999999992,0.06219000000000008,-0.901896,-0.11730600000000013,-0.14185399999999992,-0.906858,0.23851200000000006,0.204044,0.004962000000000022,0.9327827055293743,0.9773037181707478,double,-0.901896
8,0.066667,jog,0.05231581473480692,0.2544996400288024,-0.026637868970489014,-0.2687290390261987,0.21650813019373652,0.2915076740348159,0.014398848092140383,-0.0032397408207342506,-0.008759299256059531,0.011879049676034465,0.005879529637624878,0.008159347252219656,3.2535165220158486,0.22672613686385962,-3.484277054755407,0.7773615646124237,0.3456328280610668,-0.6478479542456547,0.3022168539783017,0.014314762227351662,0.014281934167867969,0.12088999999999994,0.06004200000000004,-0.901747,-0.11764299999999994,-0.143926,-0.9065679999999999,0.23853299999999988,0.20396800000000004,0.004820999999999964,0.9231859953064421,0.9740590608010926,double,-0.901747
9,0.075,jog,0.023160926437070673,0.2596903876155114,0.004080163206539007,-0.08494928843287426,-0.1591948314510404,0.37616038125578766,0.009240369614797172,-0.006000240009599728,-0.0028801152046081524,0.018840753630140747,0.009960398415943277,0.0019200768030723794,-3.498726544790144,0.6229146269901613,3.686311313695913,-0.6190421789683446,-0.33127315359000115,0.7055303073864615,0.8354378920084348,0.48972384235190236,-0.7487424035938175,0.12077399999999994,0.05782799999999999,-0.9018050000000001,-0.11767900000000009,-0.146007,-0.906586,0.23845300000000003,0.203835,0.004780999999999924,0.9332103051202166,0.9643368292645665,double,-0.9018050000000001
10,0.083333,jog,0.0442817712708318,0.26593063722548826,-0.03156126245049958,-0.23000292710114587,0.1709446070427969,0.1822074660399776,0.006720268810732499,-0.007560302412100707,-0.004080163206528174,0.014880595223810498,0.013800552022091343,0.0051602064082560736,2.5346027641618996,0.7488599075935285,-4.277142164531208,-0.30242419345549865,-0.18721497689919336,-0.14401152069123016,-0.4752380182803607,0.4608368662124161,0.38883110586627767,0.12046099999999993,0.05554899999999996,-0.901576,-0.11792399999999992,-0.1481079999999999,-0.90628,0.23838499999999985,0.20365699999999987,0.0047039999999999305,0.9347812641587588,0.9650987472166451,double,-0.901576
11,0.091667,jog,0.056515478761712326,0.24166066714662368,-0.01067914566834723,-0.2903130464293913,0.2933104504269491,0.20591692791987168,0.00827933765302602,-0.007679385649142432,-0.009359251259899,0.02099832013439361,0.014998800095984019,0.0071994240460764415,1.4679274647084877,-2.912163436388841,2.505653561573358,0.1870732952116057,-0.014288845337379978,-0.6334398912132025,0.7340682638088695,0.1437782666057927,0.24468654161511513,0.12005900000000014,0.053471000000000046,-0.9015650000000001,-0.11821999999999999,-0.14999699999999994,-0.906131,0.23827900000000013,0.20346799999999998,0.004565999999999959,0.9298952789119006,0.9553493449288755,double,-0.9015650000000001
12,0.1,jog,0.009600384015343561,0.2672506900275984,-0.009120364814601697,-0.1970930781474718,0.08567242795520473,0.3426907277821265,0.007320292811669822,-0.009600384015356884,-0.00864034561382486,0.017520700828030644,0.0016800672026831248,0.02496099843993756,-5.630036571027087,3.070925582740271,0.18706118489685952,-0.11508998456212619,-0.23052902510673834,0.08627212841403341,-0.4173310100039559,-1.598311879671293,2.1314741862307818,0.12003999999999992,0.0511640000000001,-0.901561,-0.11815399999999987,-0.15220999999999996,-0.905847,0.2381939999999998,0.20337400000000005,0.004286000000000012,0.9323963345694943,0.9490957045463022,double,-0.901561
13,0.108333,jog,0.004200168006721142,0.2845313812552519,-0.02028081123244628,-0.18533590142265327,0.0974335490308088,0.36762600150492103,0.0060002400096396975,-0.007200288011527668,-0.006120244809792272,0.018960758430322883,0.015240609624383577,0.01476059042361673,-0.6480518431084152,2.0737658979543423,-1.3393071424270482,-0.15841267275052504,0.28802304138116147,0.30242419345164884,0.17281382482806187,1.627330183811408,-1.2240979258755356,0.12005500000000024,0.048733000000000026,-0.901443,-0.118031,-0.15445399999999998,-0.905555,0.23808600000000024,0.203187,0.0041120000000000045,0.9402234235489928,0.9525757454334436,double,-0.901443
14,0.116667,jog,0.014398848092167014,0.27609791216702606,-0.018598512119032407,-0.16950685838269855,0.009790800023248189,0.43921276169885287,0.010079193664476944,-0.0063594912406971064,-0.009839212862970802,0.023518118550526136,0.011039116870648055,0.004439644828413999,1.223743710756643,-1.0119353357602392,0.20185974483007824,0.4894352837577685,0.10088754149634754,-0.4462404671440517,0.5468394672670085,-0.5041387993443145,-1.238414398272465,0.12001899999999988,0.04637900000000006,-0.90137,-0.11795500000000003,-0.156663,-0.9053629999999999,0.2379739999999999,0.20304200000000006,0.003992999999999913,0.9343124022250291,0.9560722042044849,double,-0.90137
15,0.125,jog,0.02688107524300998,0.23676947077883165,-0.014760590423615065,-0.3028456812732126,-0.0021719310840518694,0.28337113389307583,0.009960398415943277,-0.007800312012478315,-0.009480379215168519,0.022920916836679756,0.02040081603264174,0.012600504020160929,1.4979271751881649,-4.71960175065336,0.4605690262111298,-0.014256000064042646,-0.17290540883009833,0.043061760206682315,-0.07166707234445943,1.1234488373927387,0.9793422767007005,0.11987799999999993,0.044341000000000075,-0.901326,-0.11798799999999998,-0.158466,-0.905135,0.2378659999999999,0.20280700000000007,0.0038090000000000623,0.935561270631535,0.9447145180551748,double,-0.901326
16,0.133333,jog,-0.010440417616698446,0.28765150606025336,-0.01920076803071377,0.1946808285336981,-0.28793934016757017,0.5345161868178245,0.013920556822300124,-0.0052802112084536145,-0.008280331213248893,0.03168126725069504,0.03576143045723404,0.024480979239169465,-4.478758293496747,6.106088477309693,-0.5328426265569062,0.47523801828355267,0.30242419345070176,0.1440115206911827,1.051284101045875,1.8433474648496684,1.425714054843217,0.1200810000000001,0.04189999999999994,-0.901235,-0.11763699999999999,-0.16056499999999996,-0.904771,0.2377180000000001,0.2024649999999999,0.0035359999999999836,0.9362466118000712,0.9105277673821184,double,-0.901235
17,0.141667,jog,0.0328773698104015,0.23890088792896205,0.02147828173745256,-0.5013797057964259,-0.43597390152488036,0.5440524257911558,-0.0159587233021818,0.02051835853132141,0.026877849772018538,0.02867770578352277,0.05687544996398663,0.030957523398127962,5.197718673758105,-5.84960620725839,4.881095484541208,-3.585226796794096,3.0955807223152254,4.218644226693967,-0.36039854417713924,2.5334796624373217,0.7771231292246834,0.11967399999999984,0.040080000000000005,-0.9011899999999999,-0.117672,-0.16208200000000006,-0.9046919999999999,0.23734599999999983,0.20216200000000006,0.003502000000000005,0.9026613142294061,0.881965213783795,double,-0.9011899999999999
18,0.15,jog,0.007920316812687083,0.23904956198247834,-0.07344293771750215,-0.06650900360268645,0.309333213727914,0.46543885761435455,-0.009840393615734478,0.024720988839544978,0.004560182407296269,0.013800552022091343,0.06972278891154952,0.032521300852034106,-2.9949661583720624,0.01784160008595823,-11.391001974673543,0.7342289315309394,0.5043358104192444,-2.6782272128551843,-1.7853298645663522,1.5417423434012822,0.18766080090077317,0.1195259999999998,0.03829399999999994,-0.90054,-0.11762300000000003,-0.1634930000000001,-0.903809,0.23714899999999983,0.20178700000000005,0.0032689999999999664,0.9223175346028387,0.8697293678227742,double,-0.90054
19,0.158333,jog,-0.01248049921998127,0.24612984519381054,-0.059162366494655616,-0.0028971569100168927,0.04847420791956148,0.7022341729205082,0.022560902436106665,-0.009240369614783831,-0.008040321612864639,0.01920076803071377,0.08280331213249477,0.05304212168486752,-2.4481958517542703,0.8496679720787458,1.7137370962254321,3.8883110586632808,-4.075526035560876,-1.512120967257998,0.6480518431084148,1.5697255755364494,2.462597003820161,0.11981799999999998,0.03616599999999992,-0.9001140000000001,-0.11735899999999999,-0.16485400000000006,-0.9028740000000001,0.23717699999999997,0.20101999999999998,0.0027599999999999847,0.9296141793676002,0.8330126030544609,double,-0.9001140000000001
20,0.166667,jog,-0.03851691864651013,0.2868970482361313,-0.03719702423806481,-0.3232584773223619,-0.4181216486295826,0.5474123196423614,0.03143748500122465,-0.042236621070303286,-0.019078473722102144,0.020278377729791887,0.12658987281017844,0.08699304055675537,-3.1241204015513357,4.891673031235991,2.635630220373264,1.0651046994382025,-3.9592334359874517,-1.3244722953248733,0.129302819663801,5.253966963964919,4.073784361877588,0.1204010000000002,0.03342300000000009,-0.8999630000000001,-0.11686899999999989,-0.16618999999999995,-0.9018390000000001,0.2372700000000001,0.19961300000000004,0.0018759999999999888,0.8879031580688711,0.7417796074476594,double,-0.8999630000000001
21,0.175,jog,-0.024960998439935975,0.251410056402265,-0.03996159846394198,-0.07616072332324585,-0.19032118644805268,0.8665219312351186,0.011880475218964048,-0.01956078243130021,-0.015960638425537202,0.03840153606142767,0.16824672986918357,0.1180847233889357,1.6267754958087348,-4.258609364438548,-0.3317621775923649,-2.3469350512733294,2.721209485059778,0.3741552017958658,2.1748659944360766,4.999022807992947,3.7311511859090856,0.12070799999999982,0.031164999999999998,-0.899763,-0.11634100000000003,-0.16688300000000011,-0.900522,0.23704899999999984,0.1980480000000001,0.0007590000000000652,0.9459069570976557,0.6514887137911033,double,-0.899763
22,0.183333,jog,-0.014880595223810498,0.2635305412216457,-0.07740309612384569,-0.19606534505836315,0.03781755820891754,0.914329134531014,-0.009360374414952645,0.01920076803071377,0.007560302412096544,0.05736229449177704,0.17916716668668994,0.11136445457818324,1.2096967738060085,1.454516358980044,-4.493159445566263,-2.54900391622665,4.651572118326406,2.822625805548269,2.2753820269229994,1.3105048382942954,-0.8064645158709302,0.12075400000000003,0.02912899999999996,-0.8990549999999999,-0.11573900000000004,-0.1675859999999999,-0.898949,0.23649300000000006,0.19671499999999986,0.00010599999999993948,0.962234485354444,0.634578502951191,double,-0.898949
23,0.191667,jog,-0.08867290616751193,0.2200623950083994,-0.059515238780890385,0.05537081021271177,-0.26535987098914265,0.6950255010633466,0.009479241660659965,-0.003359731221492315,-0.009599232061435101,0.08843292536596915,0.24802015838730707,0.1312694984401244,-8.854368963727065,-5.215760284766772,2.1463711714609173,2.260573083226853,-2.7070433467969837,-2.058979418470318,3.7281774507069936,8.261698068228588,2.3884141902977123,0.12157200000000001,0.02726700000000004,-0.8986390000000001,-0.114263,-0.16735300000000009,-0.897359,0.23583500000000002,0.19462000000000013,0.0012800000000000589,0.9768285932600385,0.49683148076627964,single,-0.897359
24,0.2,jog,-0.1532461298451904,0.3103324132965289,-0.054962198487947804,0.6240535867588773,-0.11180651345831198,1.1184356569824487,0.011280451218079978,-0.0018000720028919063,-0.0072002880115201616,0.11940477619105704,0.23604944197768515,0.18372734909396415,-7.749096805193617,10.832835507995851,0.5463866906207341,0.21615379304212304,0.1871665928957647,0.28788480138184774,3.7167707698413364,-1.4365434308918639,6.2951938862162145,0.12294300000000025,0.024665999999999966,-0.898241,-0.11199099999999995,-0.167972,-0.89537,0.2349340000000002,0.19263799999999998,0.002870999999999957,0.9774948779689354,0.47129,single,-0.89537
25,0.208333,jog,-0.08520340813632428,0.26653066122645314,-0.07404296171846636,-0.0010153742253635905,0.028513427660103778,0.6917488393287632,0.014160566422611149,0.0001200048001954588,-0.0025201008040321897,0.15156606264250777,0.30337213488540643,0.2361694467778714,8.165453223192882,-5.256420505229312,-2.289783178989392,0.3456276496497273,0.2304184331078087,0.5616449306957858,3.8595087545242786,8.079046310779004,6.293303454207055,0.12377099999999985,0.022445999999999966,-0.897645,-0.11001799999999995,-0.16766499999999995,-0.8927849999999999,0.2337889999999998,0.19011099999999992,0.0048600000000000865,0.9760273911733657,0.4514,single,-0.8927849999999999
26,0.216667,jog,-0.09623230141588296,0.26961843052555756,-0.07703383729302025,0.05907260698794494,0.10528142880007776,0.6462465164996476,0.006959443244554051,-0.0014398848092167015,-0.006719462443004612,0.15778737700983367,0.36261099112069295,0.26265898728101683,-1.323361324641069,0.37050267567847645,-0.35887635883776,-0.8640656561143618,-0.18717177938710808,-0.5038830860298078,0.7464980042387679,7.108094100706319,3.1784905811309567,0.12463099999999994,0.020186999999999955,-0.8970589999999999,-0.10790100000000002,-0.1668900000000001,-0.8899539999999999,0.23253199999999996,0.18707700000000005,0.007105000000000028,0.983699156969574,0.42895000000000005,single,-0.8899539999999999
27,0.225,jog,-0.1242049681987155,0.29245169806792515,-0.030241209648376184,-0.3757575592313629,-0.4828930423313093,0.7301930633056675,0.007440297611931896,0.0,-0.00708028321132845,0.1494059762390423,0.40849633985361594,0.30421216848673954,-3.3568542881114265,2.740101709152474,5.615339930954522,0.05770483227863254,0.1727930888295572,-0.04330022420782885,-1.0058083248279552,5.506462106435012,4.986581207935038,0.12572800000000006,0.017749999999999932,-0.896866,-0.10562100000000019,-0.16592299999999993,-0.887167,0.23134900000000025,0.18367299999999986,0.009699000000000013,0.9828820725142438,0.40301,single,-0.887167
28,0.233333,jog,-0.13776551062044257,0.2648505940237558,-0.029641185647425537,0.13389055427918126,0.06543406509973627,0.6964225864535087,0.006240249609950665,-0.00012000480018213519,-0.00708028321132845,0.13224528981161135,0.3969758790351451,0.3450138005520221,-1.627330183814599,-3.312264975899352,0.07200576034449134,-0.1440115206985755,-0.014401152067938927,0.0,-2.059364745881549,-1.3825105986404473,4.89639170350204,0.12692799999999993,0.015542000000000056,-0.8966780000000001,-0.10337099999999988,-0.16482200000000002,-0.8840450000000001,0.2302989999999998,0.18036400000000008,0.012633000000000005,0.9842691450840522,0.37367,single,-0.8840450000000001
29,0.241667,jog,-0.14530837532995608,0.31077513798895934,-0.054235661147109315,0.05438816363872981,0.4087203254703892,0.5357527745210158,0.019318454523674127,-0.010679145668347247,-0.0051595872330215346,0.14242860571152266,0.4902807775378022,0.3551715862730987,-0.9050713594328692,5.510504435469597,-2.9511009718843098,1.5692590489229052,-1.2669955445362533,0.23046508019041517,1.221900155976882,11.195692164945683,1.21883677958683,0.12830000000000008,0.012863000000000069,-0.8962690000000001,-0.1009730000000002,-0.16332599999999997,-0.880633,0.22927300000000028,0.17618900000000004,0.015636000000000094,0.9622188988380211,0.34364,single,-0.880633
30,0.25,jog,-0.14928597143886016,0.3168126725068971,-0.03348133925357362,-0.2238529482492071,0.18376881718046137,0.4097268514832832,0.0058802352093776135,-0.01776071042842156,-0.021840873634945156,0.14592583703349393,0.5581423256930226,0.35569422776911064,-0.47733062629354095,0.7245331234774696,2.4906182519543596,-1.6126508237485302,-0.8498217640794802,-2.0018344416084974,0.41968454601839306,8.143711527087524,0.06271948830096527,0.12959299999999985,0.010075000000000056,-0.896172,-0.09851300000000007,-0.161315,-0.87739,0.22810599999999992,0.17139000000000004,0.018781999999999965,0.952069385734936,0.31218,single,-0.87739
31,0.258333,jog,-0.19560782431297544,0.3055322212888581,-0.0015600624025009946,-0.38795887218972247,-0.3787545147636553,0.3579032332591983,0.0008400336013548883,-0.000480019200768512,-0.007920316812672537,0.09564382575302276,0.6032641305652379,0.3612144485779439,-5.558844698681794,-1.3537082944964633,3.83070645038674,-0.6048483868982044,2.0737658979542894,1.670533640018319,-6.0340827169652345,5.414833177992968,0.6624529951797979,0.13122999999999996,0.007525000000000004,-0.8962249999999999,-0.09608600000000012,-0.15883399999999992,-0.874367,0.22731600000000007,0.16635899999999992,0.021857999999999933,0.98670134788601,0.28142,single,-0.874367
32,0.266667,jog,-0.19018478521720278,0.2954163666906602,-0.05939524838013232,-0.11431680074045573,1.1185929383331978,0.6592369444983389,0.0016798656107728006,0.0029997600192047916,-0.008039356851452007,0.0953923686105232,0.6425485961123102,0.43508519318454447,0.6507126344819598,-1.213805447347961,-6.939667143944237,0.10077177938779835,0.41754010318854096,-0.014283661960579544,-0.030172443304481662,4.713758764947478,8.863780250372033,0.1328290000000003,0.0050880000000000924,-0.895797,-0.09370599999999984,-0.15594099999999989,-0.870246,0.22653500000000015,0.16102899999999998,0.02555099999999999,0.985427216460883,0.24449000000000004,single,-0.870246
33,0.275,jog,-0.21192847713907678,0.30985239409577264,-0.03504140165606117,-0.6264816886513523,-0.008240843237373265,0.21587494604052943,0.001440057602292203,0.0003600144005730508,-0.004320172806912415,0.013680547221882515,0.8136325453018096,0.43297731909276194,-2.6093474045210505,1.7323925843168608,2.9225785100289268,-0.028778112142157267,-0.3167821455216284,0.4463199381422749,-9.805810799068805,20.530895138545386,-0.2529550092142718,0.13460700000000014,0.0025089999999999835,-0.895541,-0.09182599999999996,-0.15174299999999996,-0.866346,0.2264330000000001,0.15425199999999994,0.029195000000000082,0.9923865489376942,0.20805,single,-0.866346
34,0.283333,jog,-0.18396735869434902,0.40297611904475944,0.0056402256090266846,-0.8206005152635136,0.5532593570138229,-0.07194565136596988,0.0014400576022922126,0.004440177607098744,-0.004320172806912028,-0.0999639985599527,1.1762870514820463,0.4431777271090857,3.3554684321046238,11.17529400563867,4.881990551432612,1.1449632926764025e-15,0.48963917034989834,4.642305713942505e-14,-13.637891009460636,43.52028155289062,1.2240979258758904,0.13615200000000005,-0.0008120000000000349,-0.895624,-0.09112600000000004,-0.14529900000000007,-0.8627,0.2272780000000001,0.14448700000000003,0.03292399999999995,0.9893995759830505,0.17076000000000008,single,-0.8627
35,0.291667,jog,-0.22174226061913221,0.34629229661626365,-0.009719222462202743,-0.5885201642211786,0.670914665851732,0.06724158542340093,0.007079433645285475,0.005279577633794572,-0.008039356851452007,-0.13582913366929564,1.0908327333813237,0.34041276697864215,-4.532625620924305,-6.801514570253868,-1.8429863296411582,0.6766709914798724,0.10071994560785068,-0.4462663840340743,-4.30347193536632,-10.253697876256599,-12.330808750953139,0.1380589999999997,-0.003653999999999935,-0.89561,-0.0904100000000001,-0.13909400000000005,-0.859782,0.2284689999999998,0.13544000000000012,0.03582799999999997,0.9800958142792463,0.14171999999999996,single,-0.859782
36,0.3,jog,-0.2313692547702096,0.3501740069602897,0.0,-0.7335367250394782,0.3259292555340651,-0.11185833260811637,0.013080523220945281,0.01224048961957707,-0.008520340813632345,-0.21168846753871393,1.1872074882995531,0.2428897155886239,-1.1552855095496695,0.46582387423809885,1.166353349598316,0.720159555461397,0.8353428520079822,-0.057720384277011774,-9.103484203698365,11.565433207515863,-11.703234296174065,0.140096,-0.006470000000000087,-0.8956810000000001,-0.09024600000000005,-0.132119,-0.857758,0.23034200000000005,0.1256489999999999,0.03792300000000004,0.9669375220461693,0.12077000000000004,single,-0.857758
37,0.308333,jog,-0.2398895955838058,0.37153486139445274,-0.03216128645146344,-0.44700831194394197,0.3844334730311444,-0.1859922166841907,0.01188047521901726,0.01392055682227343,-0.007080283211328427,-0.2820112804511991,1.209408376335052,0.1790471618864739,-1.0224817969034166,2.563405068302284,-3.859508754525778,-0.14401152069218956,0.2016161289687211,0.17281382482946267,-8.439075112502687,2.6642131327851697,-7.661412900773999,0.14219399999999993,-0.00945000000000007,-0.8954719999999999,-0.09059700000000004,-0.12513699999999994,-0.8559979999999999,0.23279099999999997,0.11568699999999987,0.03947400000000001,0.9672951751765191,0.10526000000000008,single,-0.8559979999999999
38,0.316667,jog,-0.24790016798657727,0.3712502999759956,-0.04763618910486957,-0.23914518644337807,0.19450694205355223,-0.30744318983122576,0.011519078473733688,0.010799136069118672,-0.0023998080153591035,-0.48140148788098747,1.3323734101271978,0.18358531317494747,-0.9611917929891435,-0.03414463864376295,-1.8568397712270477,-0.04336414030280474,-0.3745405271364023,0.561612094548758,-23.924910898702844,14.754623685162759,0.5445345918494834,0.14435600000000015,-0.012453999999999965,-0.895095,-0.09254300000000004,-0.11712699999999987,-0.854071,0.2368990000000002,0.1046729999999999,0.04102399999999995,0.9733818364419062,0.08975999999999995,single,-0.854071
39,0.325,jog,-0.26701068042720655,0.4040561622464892,-0.0932437297491929,-0.27558564744072367,-0.6023032362964371,-0.3164646823553796,0.014040561622455566,0.01908076323053157,0.003840153606144323,-0.4753390135605262,1.430337213488535,0.01272050882035216,-2.293353227004584,3.9368609468970903,-5.473123802270868,0.30259008144988214,0.9938350127700545,0.7488253475943119,0.7275260194961272,11.756126648426358,-20.50459670641961,0.146698,-0.015661999999999954,-0.8942859999999999,-0.094279,-0.10857499999999987,-0.853188,0.240977,0.09291299999999991,0.04109799999999997,0.9600014001685211,0.08902000000000004,single,-0.853188
40,0.333333,jog,-0.28477139085562997,0.40129605184207634,-0.1100444017760648,0.11922475821176828,-0.7801570842045565,-0.30535326494447934,0.0016800672027097766,0.011040441617662452,-0.012840513620544789,-0.5713428537141518,1.4816992679707088,-0.028201128045121766,-2.131370506231065,-0.33122649758944933,-2.0161612896762198,-1.4833186631160231,-0.9648771886318418,-2.0017601376082026,-11.520921655301315,6.163693085584294,-4.910792855571106,0.14908500000000013,-0.018913999999999986,-0.893476,-0.09666700000000006,-0.099572,-0.852506,0.2457520000000002,0.08065800000000001,0.04097000000000006,0.9716376243473648,0.0903000000000001,single,-0.852506
41,0.341667,jog,-0.27069834413247346,0.39512838972882014,-0.12227021838252834,-0.7721950062265851,-0.7166715456575322,-0.3835215247088717,0.010199184065261655,0.02135829133669442,-0.02243820494360445,-0.6917446604271675,1.5701943844492343,-0.0261579073674101,1.6886305163374729,-0.7400602487708416,-1.4669806343248781,1.0222122465265024,1.238042922850007,-1.1516308283008942,-14.447061040678616,10.618564492263667,0.24516686797596166,0.15142600000000006,-0.022028999999999965,-0.892644,-0.10017600000000004,-0.08977900000000005,-0.851705,0.2516020000000001,0.06775000000000009,0.04093899999999995,0.9456433330903038,0.09060999999999997,single,-0.851705
42,0.35,jog,-0.25525021000839976,0.40825633025321306,-0.06720268810752505,-0.3956406332985153,-0.11403324199199848,-0.20305138639155138,0.009840393615734511,0.01704068162726219,-0.021240849633985422,-0.8042721708868358,1.8035521420856964,-0.003120124804991997,1.8538502488988042,1.5754158795623372,6.608367967719119,-0.04305657620630565,-0.5181338904874886,0.14368838468967143,-13.503841408816575,28.00405107841865,2.7646444932699104,0.15363499999999997,-0.025289000000000006,-0.892261,-0.10475100000000004,-0.078152,-0.851171,0.258386,0.05286299999999999,0.04108999999999996,0.9517416711273853,0.08910000000000001,single,-0.851171
43,0.358333,jog,-0.2845313812552638,0.4023760950438061,-0.09936397455898806,-0.25196670494410756,-0.38859523985292843,-0.19601110457430446,0.010560422416880547,0.012240489619590312,-0.01764070562822521,-0.8789151566062736,1.6626665066602668,-0.08820352814112523,-3.513881104867863,-0.7056564513868863,-3.8595087545257254,0.08640691241402051,-0.5760460827639334,0.4320345620737065,-8.957516586995983,-16.90695252915264,-10.210416817008626,0.15609399999999996,-0.02854000000000001,-0.8915799999999999,-0.10970400000000002,-0.06764999999999999,-0.851078,0.265798,0.03910999999999998,0.04050199999999993,0.9601200898943693,0.09498000000000001,single,-0.851078
44,0.366667,jog,-0.1813054955603598,0.1705063594912412,0.2928965682745409,-1.2653579513120776,0.44658095566350026,0.8056058400504288,0.01211903047755059,0.00983921286296081,-0.021118310535157055,-1.0171586273097957,1.5295176385889058,-0.0755939524838019,12.386115394156933,-27.822142494908167,47.06749974004423,0.1870180058399378,-0.2881301603827092,-0.4172792064953013,-16.58788945326637,-15.976586041679978,1.5130280366358675,0.1577059999999999,-0.0298790000000001,-0.894197,-0.11666999999999983,-0.05632400000000004,-0.854149,0.27437599999999973,0.02644499999999994,0.04004799999999997,0.9562309073616699,0.09952,single,-0.854149
45,0.375,jog,-0.25549021960876406,0.38377535101403226,0.0366014640585624,-0.8414953785017154,-1.368878703975442,0.37031751561241266,-0.006360254410159468,0.06960278411136762,0.018360734429377263,-1.1059642385695592,1.6823472938917603,-0.1676467058682346,-8.902522986728002,25.593302714843585,-30.756642771628364,-2.217602890640838,7.171915426425892,4.737674902740239,-10.657099635157053,18.34029224803251,-11.046772277023033,0.15978199999999987,-0.032497,-0.894349,-0.12375700000000012,-0.04550299999999996,-0.855851,0.283539,0.013005999999999962,0.03849799999999992,0.8795596394590791,0.11501999999999996,single,-0.855851
46,0.383333,jog,-0.31165246609863995,0.43537741509661404,-0.020880835233410285,-1.0113626987952884,-1.4303388401874786,-0.20921346122651163,-0.008160326413024733,0.003000120004806531,-0.003360134405376253,-1.1597263890555525,1.6791071642865762,-0.12600504020160783,-6.739739168351857,6.192495389725417,-6.8981518411103835,-0.21601728103507375,-7.992639398363286,-2.606608524511409,-6.451716126964292,-0.38883110586632164,4.997199767985945,0.1623110000000001,-0.03610000000000002,-0.894203,-0.13082400000000005,-0.03513900000000003,-0.856727,0.29313500000000015,0.0009609999999999896,0.037475999999999954,0.9844649008127704,0.1252399999999999,single,-0.856727
47,0.391667,jog,-0.3098152147828272,0.46292296616269657,-0.18802495800335775,-0.30638216974016386,-0.627238023826414,-0.1589339826898287,-0.0011999040076872453,0.05207583393327742,0.046076313894888234,-1.2508999280057738,1.7697384209263256,-0.0937125029997604,0.22045252169579402,3.305201711792957,-20.055690277171504,0.8351838739305834,5.888614582249921,5.931899244092206,-10.939949478068298,10.874880806305407,3.874794480663234,0.1648830000000001,-0.039524000000000004,-0.892252,-0.1386670000000001,-0.024247999999999936,-0.855941,0.3035500000000002,0.015276000000000067,0.03631100000000009,0.8840934409916738,0.13689,single,-0.855941
48,0.4,jog,-0.3138125525021028,0.3547341893675816,-0.09096363854554582,0.6388427112339229,0.46100111231635765,0.4466130128255272,-0.00324012960521075,-0.01488059522381045,0.017280691227649244,-1.2852514100563965,1.6409456378255018,-0.17064682587303417,-0.4796997143016455,-12.983172542315433,11.6478242479073,-0.24483686517742664,-8.035092902566614,-3.4556129445864476,-4.122342739784306,-15.455752202186874,-9.232488044314586,0.16747099999999993,-0.042604000000000086,-0.89135,-0.14676200000000006,-0.013530000000000042,-0.856605,0.314233,0.029074000000000044,0.034745000000000026,0.9616104454535552,0.15255000000000002,single,-0.856605
49,0.408333,jog,-0.33757350294011296,0.4506180247209843,-0.16668666746669591,-0.22810779147196872,-0.14639562345148346,0.07490994648795592,-0.0004800192007818352,-0.008280331213246839,0.023280931237249516,-1.357974318972748,1.611184447377905,-0.13968558742349793,-2.8514281096856102,11.506520503228478,-9.08712695561626,0.3312264975913743,0.7920633638021873,0.7200576034561728,-8.727098153888354,-3.5714857131401687,3.715497233833712,0.17027999999999976,-0.046428000000000025,-0.889767,-0.155265,-0.003858999999999946,-0.85638,0.32554499999999975,0.04256900000000008,0.033386999999999944,0.9588095189425555,0.16613,single,-0.85638
50,0.416667,jog,-0.3912886969042423,0.4803215742740551,-0.1742260619150477,-0.14893562902586852,0.1111471338067502,-0.061257134002803734,-0.0025197984161059147,-0.016438684905200694,-0.013558915286777284,-1.3956083513318858,1.6550275977921682,-0.02039836813054912,-6.445307651083426,3.564140815103285,-0.9046549614053,-0.24475392552484732,-0.9789241291041334,-4.420427948647321,-4.515722625286504,5.2607571891364655,14.313321249453887,0.1735199999999999,-0.050567999999999946,-0.888428,-0.16363499999999997,0.00593100000000002,-0.855098,0.33715499999999987,0.056498999999999966,0.03332999999999997,0.964237514642347,0.16670000000000001,single,-0.855098
51,0.425,jog,-0.3794551782071423,0.40777631105244455,-0.0864034561382389,-0.46195146841316653,-0.6136150503270563,0.32718147861348446,-0.006840273610941304,-0.025561022440899948,-0.014400576023040786,-1.4338173526941196,1.5690627625105114,-0.10872434897395972,1.4200790468138733,-8.705779817785997,10.539134258587426,-0.5184777624907476,-1.0947242932556434,-0.10100332848475994,-4.58526357401103,-10.316192881514112,-10.599541682876612,0.17662500000000003,-0.05417899999999998,-0.8878280000000001,-0.17242099999999994,0.015608000000000066,-0.855284,0.34904599999999997,0.06978700000000004,0.03254400000000002,0.9497912191972331,0.17456000000000005,single,-0.855284
52,0.433333,jog,-0.40225609024361064,0.4734189367574655,-0.17376695067802697,-0.33190735937631366,0.16807392483069689,0.14151028432611434,-0.013080523220945195,-0.007320292811709766,-0.013560542421696633,-1.3592943717748758,1.7149885995439678,-0.2548901956078225,-2.7362188931319142,7.8774301818097525,-10.484038706322778,-0.7488599075967677,2.188975114507393,0.10080806448387739,8.943115434926616,17.51180091605134,-17.540603220192267,0.17986799999999992,-0.05818499999999993,-0.886493,-0.180396,0.025954000000000033,-0.85596,0.3602639999999999,0.08413899999999996,0.03053299999999992,0.9663112660871831,0.19467,single,-0.85596
53,0.441667,jog,-0.42500599952003293,0.4512838972882212,-0.13714902807775517,-0.21398084263131162,-0.2428422681749882,0.1749167185755541,-0.006959443244500811,0.02507799376050107,0.01019918406527463,-1.4637628989680727,1.5038396928245845,-0.0934725221982249,-2.729770731512169,-2.655992256928774,4.393799208095993,0.7344708395061696,3.8874833899941232,2.850939103308303,-12.535220445548052,-25.335841938971015,19.36857132344595,0.18335200000000018,-0.06173699999999993,-0.885265,-0.18905299999999992,0.034726000000000035,-0.855596,0.3724050000000001,0.09646299999999997,0.029668999999999945,0.9534118822694708,0.20331,single,-0.855596
54,0.45,jog,-0.44005760230410074,0.4734189367574788,-0.14088563542541743,-0.38567742018573414,-0.45529591829404703,0.13139815580654135,-0.01500060002401923,-0.009240369614783802,-0.01296051842073683,-1.4818192727709076,1.4486979479179072,-0.04020160806432264,-1.8062645846715162,2.656310988750451,-0.4484108181521958,-0.9649774126387118,-4.118368339767759,-2.7792754693401367,-2.1668515304014044,-6.617274079764443,6.392765406684512,0.18689400000000012,-0.06575900000000001,-0.8841990000000001,-0.19773399999999985,0.04285299999999992,-0.854757,0.38462799999999997,0.10861199999999993,0.02944200000000008,0.9635469301158369,0.20558000000000004,single,-0.854757
55,0.458333,jog,-0.4525381015240583,0.5229809192367675,-0.20016800672026966,-0.5402515816450287,0.29594343224273034,0.06682687522429126,0.005880235209377633,-0.025801032041290865,-0.014520580823232916,-1.4770190807632324,1.3985359414376675,-0.060722428897155976,-1.4977198151875215,5.9476758045468365,-7.114169122147171,2.505800460026031,-1.987358985540274,-0.18721497689860672,0.5760460827643397,-6.019681564891377,-2.4625970038201594,0.19071399999999983,-0.07033200000000006,-0.882652,-0.20627099999999987,0.050149,-0.853595,0.3969849999999997,0.12048100000000006,0.029057,0.9496921232156611,0.20943,single,-0.853595
56,0.466667,jog,-0.5901127909767186,0.6018718502519818,-0.0221982241420675,-1.1810053810224466,-0.011072081000657345,-0.83203655078808,-0.01271898248136757,-0.004319654427636783,-0.0017998560115192117,-1.478041756659472,1.3981281497480182,-0.017278617710582932,-16.507642122949388,9.466154429471345,21.354665536141347,-2.2317275846826474,2.5775591089097745,1.5263648682161857,-0.12271129064548823,-0.04893108827084436,5.212840315163548,0.1955260000000001,-0.075384,-0.882482,-0.21367099999999994,0.056784999999999974,-0.853554,0.40919700000000003,0.13216899999999998,0.028927999999999954,0.9774124289709203,0.21072000000000002,single,-0.853554
57,0.475,jog,-0.45397815912635053,0.44329773190927446,-0.23016920676826833,0.5229829602709013,0.22877898645508332,0.2612662946129788,-0.011640465618653069,0.006840273610941304,0.001560062402496415,-1.4596183847353839,1.3718948757950349,0.021000840033601583,16.336809294415993,-19.029655387340416,-24.957516215792793,0.12942720061376492,1.3392449344267507,0.40320633793539357,2.210893066613236,-3.1481187991099753,4.593718678049275,0.19921199999999972,-0.07902100000000001,-0.8805510000000001,-0.222051,0.064523,-0.851461,0.4212629999999997,0.143544,0.02909000000000006,0.9773478246328386,0.2091,single,-0.851461
58,0.483333,jog,-0.49141965678629124,0.4761790471618811,-0.17424696987879548,0.3923626706889941,-0.18546127900920112,0.369432644096771,-0.011280451218026647,0.005280211208440274,0.0061202448097922415,-1.4688587543501712,1.3169326773070782,0.04812192487699471,-4.493159445570688,3.945915666939456,6.710936864211281,0.04320345621341893,-0.18721497689919878,0.547243778626642,-1.1088887093228512,-6.595727647660682,3.2546603676218666,0.2032130000000001,-0.08294500000000005,-0.879048,-0.23019599999999985,0.07152899999999995,-0.849608,0.43340899999999993,0.154474,0.02944000000000002,0.9768707372325418,0.2056,single,-0.849608
59,0.491667,jog,-0.5363570914326817,0.4722822174226118,-0.05903527717783147,0.5627280612048614,0.3466152847971265,0.14401339824796242,-0.01367890568753868,0.005519558435337349,0.01667866570674347,-1.4524838012958987,1.3497720182385473,0.015598752099831779,-5.392060792703438,-0.4675821621393448,13.82429718034124,-0.28779151302040207,0.02871936967807482,1.2669091549017544,1.964837179538335,3.9404056793219446,-3.9024685357766864,0.20756900000000011,-0.086835,-0.878417,-0.2378309999999999,0.07884199999999997,-0.848986,0.4454,0.16567699999999996,0.029430999999999985,0.9628907066189396,0.20569000000000004,single,-0.848986
60,0.5,jog,-0.521540861634462,0.5331813272530884,-0.21420856834273863,-0.1899856443936721,0.2935874173558958,-0.07339267858963781,-0.01176047041880856,0.004920196807867256,0.016080643225728913,-1.4321372854914365,1.2565702628105164,0.0448817952718109,1.778018696534233,7.308185507077498,-18.621539801380962,0.2302214411052593,-0.07192627234730532,-0.07176556834448095,2.441679563718022,-11.184658037685242,3.5141057448672983,0.21181700000000014,-0.09123700000000001,-0.876498,-0.24541900000000005,0.08487,-0.846827,0.4572360000000002,0.176107,0.029671000000000003,0.9657986319452878,0.20329000000000003,single,-0.846827
61,0.508333,jog,-0.5106204248169782,0.5213008520340809,-0.14640585623424862,-0.07247800415375191,-0.4164453032710329,0.058180143346815406,-0.012960518420736413,0.002880115204611053,0.016680667226689025,-1.3824552982119196,1.332173286931475,-0.020520820832832933,1.3105048382915798,-1.4257140548430853,8.13665091905553,-0.14401152069216958,-0.24481958517415028,0.0720057603456269,5.962076956620267,9.072725803547142,-7.8486278776723335,0.21596400000000004,-0.095557,-0.875139,-0.25268400000000013,0.09162700000000001,-0.8457779999999999,0.4686480000000002,0.18718400000000002,0.02936100000000008,0.9644677470280867,0.20639000000000002,single,-0.8457779999999999
62,0.516667,jog,-0.465682745380375,0.5337173026157946,-0.21550275977920794,-0.07306101161425257,1.0885953102944315,-0.37848866364719347,-0.0023998080153745066,-0.015358771298298263,0.017518598512119166,-1.3783297336213212,1.2156227501799926,0.030477561795056243,5.3920901651792015,1.4898548814151393,-8.29096514818331,1.2671838739335213,-2.1884913010450466,0.10054371075475717,0.4950281486199248,-13.98494561452882,6.119316370037134,0.21982499999999994,-0.10013300000000003,-0.873197,-0.26029000000000013,0.09731000000000001,-0.843728,0.48011500000000007,0.19744300000000004,0.029468999999999967,0.9609646802336899,0.20531000000000005,single,-0.843728
63,0.525,jog,-0.5577823112924476,0.5781831273250893,-0.19788791551662122,-0.48430168495318543,-1.4214331508071987,-0.06172640441869223,0.0016800672027097656,-0.006240249609990614,0.030481219248769915,-1.358334333373312,1.169086763470524,0.18732749309972319,-11.052390005048865,5.336112409611715,2.1138658661450433,0.4896046103545248,1.0942663732518432,1.555576711466542,2.3995440115215505,-5.584541786807677,18.82274466634661,0.2244870000000001,-0.10500300000000007,-0.871294,-0.266961,0.10223399999999994,-0.840518,0.4914480000000001,0.207237,0.030776000000000026,0.9480687402026008,0.19224000000000002,single,-0.840518
64,0.533333,jog,-0.5527421096844056,0.5405016200648018,-0.14628585143406844,-0.10128390720876383,1.611187917468756,-0.43833593094057044,0.0013200528020834395,0.017040681627275626,0.06264250570022836,-1.3063722548902283,1.1188047521901077,0.1141245649826004,0.6048483869005182,-4.521961749704518,6.192495389721978,-0.043203456213408056,2.7938235014120307,3.8595087545252302,6.235698845923932,-6.034082716958691,-8.7847027621653,0.22910399999999997,-0.10936499999999993,-0.8695529999999999,-0.27324100000000007,0.10705300000000006,-0.838348,0.502345,0.216418,0.031204999999999927,0.8917794062249909,0.18795,single,-0.838348
65,0.541667,jog,-0.5803935685145121,0.5759539236861039,-0.17530597552194904,-0.22150394711663188,-0.5965810830339149,-0.023465891802890503,-0.002279817614589765,0.016198704103671132,0.0629949604031674,-1.2814974802015502,1.0571154307655288,0.13342932565394688,-3.3179096268426007,4.253936119666638,-3.482136319640074,-0.4319498940092605,-0.10102922049489889,0.0422911810582001,2.9847341839066437,-7.402126400837337,2.3163859696839855,0.23392199999999996,-0.11402999999999996,-0.867567,-0.2790839999999999,0.11106300000000002,-0.835775,0.5130059999999999,0.225093,0.03179199999999993,0.8915262369255599,0.18208000000000002,single,-0.835775
66,0.55,jog,-0.5935437417496549,0.5528621144845804,-0.14724588983559017,-0.3005083646773872,-0.012332389885922165,-0.21277855827728742,-0.0067202688107324765,0.029761190447607576,0.05556222248889952,-1.2290891635665477,1.1208448337933488,-0.009960398415936565,-1.57808391157359,-2.7711279493007717,3.367344976162097,-0.5328754585554654,1.6275634638109189,-0.8919642282812738,6.289249566182915,7.647834276709428,-17.207455186593407,0.23881200000000002,-0.11838900000000008,-0.865877,-0.2843800000000001,0.11579600000000001,-0.834631,0.5231920000000001,0.2341850000000001,0.031245999999999996,0.894353169085059,0.18754000000000004,single,-0.834631
67,0.558333,jog,-0.5886235449418221,0.5803432137285486,-0.13608544341774748,0.12456794436098205,1.6060807811593307,-0.40339064508768835,0.008400336013442354,0.026761070442828067,0.07620304812192559,-1.1820472818912762,1.017520700828031,0.0369614784591382,0.5904472348293265,3.297863823829159,1.3393071424268328,1.8145451607074248,-0.36002880172561336,2.4769981558893868,5.645251611097084,-12.399391931515515,5.630850459027385,0.2437870000000002,-0.12300199999999994,-0.864108,-0.28932499999999983,0.11943899999999996,-0.833189,0.533112,0.2424409999999999,0.03091900000000003,0.8646647672602785,0.1908100000000001,single,-0.833189
68,0.566667,jog,-0.6196304295656236,0.6118310535157099,0.06887449004080515,-0.6224534223091396,1.8428706136395692,-0.5137515364115405,-0.01439884809219356,0.03287736981041449,0.09815214782817291,-1.1400287976962,0.9616030717542615,-0.016798656107510586,-3.7205285125751484,3.7782385153780966,24.59322455706156,-2.7356832380172476,0.7338972123333783,2.6336812702480388,5.0418147582284405,-6.709578722554473,-6.450700091990446,0.2488309999999998,-0.1278269999999999,-0.8638640000000001,-0.2936620000000001,0.12235400000000007,-0.8339030000000001,0.5424929999999999,0.250181,0.029961000000000015,0.8258186418053144,0.20039,single,-0.8339030000000001
69,0.575,jog,-0.6753870154806214,0.5505820232809406,-0.13488539541581954,1.105634741570789,0.13637283591173868,0.1127514876286215,0.018480739229594496,0.04164166566662539,0.13884555382215397,-1.0529221168846654,0.934837393495744,-0.03312132485299507,-6.691057952117879,-7.350177635277787,-24.45216434136884,3.9457083069468806,1.0517575730482394,4.883404055439988,10.453219826177296,-3.2120098714169862,-1.9587986014022123,0.254613,-0.13206799999999996,-0.861583,-0.29680799999999996,0.125556,-0.833055,0.5514209999999999,0.25762399999999996,0.028527999999999998,0.7564518422128573,0.21472000000000002,single,-0.833055
70,0.583333,jog,-0.7029881195247684,0.5934237369494728,-0.08112324492979804,0.11752881194382458,0.013648208479189483,-0.2607936413364598,-0.0013200528021367149,0.0429617184687349,0.13512540501620032,-0.98307932317292,0.8671546861874384,-0.04872194887795451,-3.3122649758966562,5.141211288675387,6.451716126967631,-2.3761900914113916,0.15841267276005128,-0.4464357141430011,8.381470504229583,-8.122249766987318,-1.8721497689858841,0.2604599999999997,-0.13665499999999997,-0.859781,-0.299142,0.12783699999999998,-0.832785,0.5596019999999997,0.26449199999999995,0.02699600000000002,0.7636720330065098,0.23004000000000002,single,-0.832785
71,0.591667,jog,-0.8327333813295075,0.5788336933045373,-0.2366210703143699,-0.09439202742965928,-4.11336742663075,0.12008787549578752,0.002279817614589765,0.06791456683464736,0.1234701223902081,-0.88096952243822,0.8016558675305971,-0.07847372210223144,-15.56818596169164,-1.750665184177518,-18.658246386437565,0.431949894015653,2.994102275727414,-1.398522033356387,12.252195912490906,-7.859229500460855,-3.5699271927377856,0.26741899999999985,-0.14091300000000007,-0.85678,-0.29954400000000003,0.12969399999999998,-0.8314670000000001,0.5669629999999999,0.27060700000000004,0.02531299999999992,0.7651096172931193,0.2468700000000001,single,-0.8314670000000001
72,0.6,jog,-0.6074642985719364,0.5493819752790127,0.05340213608543403,1.3873680045586154,3.0677442346227086,-0.6627282750797833,-0.015240609624383703,0.0750030001200172,0.1623664946597879,-0.7711508460338269,0.7299891995679967,-0.1052442097683912,27.033371265759406,-3.5343475369644626,34.804176935054194,-2.102535370091639,0.8506460200851924,4.667751382404913,13.178768319260067,-8.600344169278905,-3.2125870234201375,0.27235399999999976,-0.14486599999999994,-0.855872,-0.30090799999999995,0.13119900000000007,-0.832789,0.5732619999999997,0.276065,0.023082999999999965,0.7008316861845107,0.26917,single,-0.832789
73,0.608333,jog,-0.7734309372374903,0.5871834873394954,-0.10140405616224422,-0.11555321167457182,-1.2868298642322709,-0.3582632046413941,0.007560302412140652,0.06732269290770675,0.1693267730709216,-0.6614664586583656,0.6053042121684767,-0.12936517460698405,-19.916793311598855,4.536362901773984,-18.57748616916808,2.736218893138637,-0.9216737324265482,0.8352668200088404,13.162652991174944,-14.962796999822324,-2.8946315658937647,0.27886200000000017,-0.14919800000000005,-0.8536159999999999,-0.2999750000000001,0.13134999999999997,-0.8330219999999999,0.5788370000000003,0.280548,0.020594,0.6960397539172827,0.29406,single,-0.8330219999999999
74,0.616667,jog,-0.8573314134869208,0.7175425965922749,-0.1241900647948181,-1.1714420772614693,0.9572718460303067,-0.5735908797931297,-0.019198464122889478,0.09587233021358275,0.21970242380609667,-0.5302375809935176,0.5179985601151955,-0.1739860811135119,-10.067251769790126,15.64184176299259,-2.734102307724263,-3.2107951205939864,3.4256824221113713,6.044594520659391,15.746205623331987,-10.475840179179473,-5.354080454347026,0.28584699999999996,-0.15437900000000004,-0.85075,-0.2972490000000001,0.129687,-0.833437,0.5830960000000001,0.28406600000000004,0.017313000000000023,0.5992048190314734,0.32687,single,-0.833437
75,0.625,jog,-0.8739949597984064,0.6560662426497033,-0.0524420976838963,0.268385874520155,0.08190410137607596,-0.39295323659561515,-0.020520820832823774,0.1020040801632082,0.22716908676346945,-0.3769350774031018,0.4221768870754838,-0.2145685827433086,-1.9997055456000863,-7.377457571411426,8.610100457328873,-0.15868915275822515,0.7358394275321509,0.8960353963005815,18.397036312302312,-11.499060727194447,-4.8700949993755565,0.2929590000000002,-0.15899600000000003,-0.8484200000000001,-0.293107,0.12773800000000002,-0.8347880000000001,0.5860660000000002,0.28673400000000004,0.013631999999999977,0.5835609607152574,0.36367999999999995,single,-0.8347880000000001
76,0.633333,jog,-0.9243969758790065,0.6599063962558512,0.009360374414965936,0.0971317813170133,0.10465476926896589,-0.4239348414980618,-0.044881795271795616,0.1174846993879826,0.2820112804512174,-0.20424816992678066,0.34093363734549026,-0.2856114244569771,-6.048483869026752,0.46083686621240394,7.416593315596061,-2.92343387003141,1.8577486169175979,6.581326495589554,20.723257827471546,-9.749579950797214,-8.525482024921185,0.3002880000000001,-0.163516,-0.846148,-0.2871060000000001,0.12507999999999997,-0.8372459999999999,0.5873940000000002,0.28859599999999996,0.008902000000000077,0.5,0.41098,flight,-0.8372459999999999
77,0.641667,jog,-0.9696424286057177,0.6319894408447253,0.008279337652986097,0.0069459837958072606,-1.1488152076789147,-0.32882823458724775,-0.05207583393331773,0.13894888408927272,0.2499400047996168,-0.04727621790256872,0.36201103911686505,-0.43208543316534925,-5.429020005604928,-3.3497666680016907,-0.12971403431483625,-0.8632155821360878,2.575496124464872,-3.84824521857461,18.835127432710923,2.529085885694134,-17.575475007004194,0.30793499999999985,-0.1676249999999999,-0.8441339999999999,-0.2794190000000001,0.12283,-0.840916,0.5873539999999999,0.2904549999999999,0.003217999999999943,0.5155510264550928,0.46781999999999996,single,-0.840916
78,0.65,jog,-0.9794791791671629,0.619704788191532,-0.009240369614783802,0.3480659887372526,-0.9766897874342204,-0.09668214820133005,-0.06960278411134051,0.15324612984518987,0.23844953798151858,0.12828513140525408,0.20004800192008618,-0.39361574462978416,-1.1804572856648425,-1.4742172870746777,-2.102448970091183,-2.103318154088888,1.71573812023486,-1.378911174618767,21.068204645124453,-19.436341917290076,4.616547286159238,0.31551700000000005,-0.171512,-0.84207,-0.2701880000000001,0.11933300000000002,-0.844119,0.5857050000000001,0.290845,0.0020489999999999675,0.49306282908687377,0.5,flight,-0.84207
79,0.658333,jog,-1.052202088083546,0.6950678027121172,0.031561262450499894,-0.619092071745478,-0.8047330551488959,-0.4409378543929155,-0.01932077283094939,0.0925237009480347,0.2865714628585171,0.2257290291611711,0.08340333613344623,-0.40765630625225346,-8.727098153892221,9.043923499410289,4.896391703502228,6.034082716955667,-7.286982946976566,5.774861979719063,11.693735480129355,-13.99791981118937,-1.6849347920880156,0.32412399999999986,-0.17653300000000005,-0.8399449999999999,-0.25953899999999996,0.114236,-0.847779,0.5836629999999998,0.29076900000000006,0.007834000000000008,0.42166,0.5,flight,-0.8399449999999999
80,0.666667,jog,-1.087712982961367,0.6431485481161362,0.00815934725222792,0.14407089460071584,-0.7316449831505119,-0.2335203003930199,-0.08207343412523153,0.16726661867050585,0.3414926805855507,0.23614110871129768,0.02339812814974127,-0.35889128869690157,-4.260966508017832,-6.229812166544351,-2.8080051833779454,-7.529716977955563,8.968432652084303,6.590018925729926,1.2493495980473355,-7.200048954128211,5.851333999922189,0.3325050000000003,-0.18049899999999997,-0.837167,-0.2485059999999999,0.10907100000000003,-0.850838,0.5810110000000002,0.28957,0.013670999999999989,0.36329,0.5,flight,-0.837167
81,0.675,jog,-1.1004440177606938,0.6311052442097674,0.03684147365893975,1.3461139690027786,0.8502052667051575,-0.2514134585374125,-0.11004440177610403,0.2017280691227693,0.3645745829833177,0.25189007560303184,0.03000120004799849,-0.2614904596183837,-1.527785287330703,-1.445254278935403,3.441992848519346,-3.35665038412005,4.135539475850631,2.769939085295437,1.8899516250730946,0.7924003238038153,11.68856703210338,0.3407579999999999,-0.18407699999999994,-0.834436,-0.23723699999999992,0.10406199999999999,-0.853324,0.5779949999999998,0.2881389999999999,0.018888000000000016,0.31111999999999995,0.5,flight,-0.834436
82,0.683333,jog,-1.1267250690027815,0.6315852634105443,-0.024000960038399112,-0.023123208367147426,-1.5678380445247952,-0.043758259033970445,-0.1374054962198176,0.2380895235809437,0.41101644065762977,0.10128405136203679,0.06264250570023128,-0.07440297611904491,-3.1538523031426764,0.057604608277558825,-7.301384099044692,-3.2834626717525284,4.363549076944046,5.573245850751531,-18.073445846753444,3.917113362802483,22.451396075763892,0.34900200000000026,-0.18735599999999997,-0.830811,-0.22700399999999998,0.09932099999999999,-0.8537440000000001,0.5760060000000002,0.28667699999999996,0.022933000000000092,0.2706700000000001,0.7659632897024582,single,-0.830811
83,0.691667,jog,-1.1306695464362715,0.6555075593952429,0.044036477081833864,0.6882499422161941,-0.128718681106546,0.07924606008617777,-0.1654667626589883,0.2818574514038777,0.45788336933045004,-0.01883849292056174,0.10655147588192862,-0.1094312455003595,-0.47329942806455405,2.8704458824932018,8.163839347280112,-3.367082606091971,5.2517312002560175,5.623581554214053,-14.413552229733334,5.268654929409288,-4.203056081271217,0.3570460000000002,-0.19047000000000003,-0.827362,-0.217738,0.094746,-0.855023,0.5747840000000002,0.285216,0.027660999999999936,0.22339000000000003,0.7435103244448704,single,-0.827362
84,0.7,jog,-1.1440057602304212,0.6611064442577747,0.08184327373094524,0.17399121122525513,0.42380248915837804,-0.06211542595199228,-0.19812792511704141,0.3998559942397734,0.4982599303972208,-0.14316572662906643,0.08364334573383717,-0.11364454578183272,-1.60040967168485,0.6718930592261905,4.536997077776518,-3.9194962748174027,14.160391555969856,4.845381143258263,-14.919864839614284,-2.7490855811942474,-0.5056162584271284,0.3649279999999999,-0.192647,-0.823892,-0.20939799999999997,0.08993400000000007,-0.856652,0.5743259999999999,0.2825810000000001,0.03276000000000001,0.1724,0.6649721514363907,single,-0.823892
85,0.708333,jog,-1.1969278771150709,0.6361454458178301,-0.05904236169445996,1.341964816251456,-2.326609824435336,0.957353480712582,-0.2126485059402229,0.39673586943477945,0.4790591623664921,-0.1405256210248444,0.1486859474378957,-0.09948397935917352,-6.350908062480431,-2.9954396303785535,-16.90695252914972,-1.7425394003577837,-0.37442995379742583,-2.3041843310606738,0.316825345520464,7.805424421463851,1.699335944156863,0.37312999999999996,-0.19464199999999998,-0.819408,-0.20059500000000008,0.08587200000000006,-0.856989,0.573725,0.28051400000000004,0.037580999999999976,0.12419000000000008,0.6208488161437323,single,-0.819408
86,0.716667,jog,-1.0724742020638136,0.6975041996640298,0.20158387329013702,-0.5624174345595331,1.9009323662650053,0.04717211924210454,-0.2558195344372458,0.4696424286057047,0.48620110391168336,-0.11207103431725261,0.1321094312455016,-0.05447564194864406,14.933246346443042,7.362461464626739,31.27264638644048,-5.1801090109218375,8.74808725353068,0.8569644282686839,3.414277262729969,-1.9890228212615775,5.400568443787992,0.37993599999999983,-0.19654100000000008,-0.8170360000000001,-0.19259100000000018,0.08116000000000001,-0.8591230000000001,0.572527,0.2777010000000001,0.042086999999999986,0.07913000000000003,0.6973248251807742,single,-0.8170360000000001
87,0.725,jog,-1.163326533061344,0.6932677307092252,-0.1482059282371425,0.9518101253531934,0.5512760001442373,0.35773171043351387,-0.3127325093003879,0.5035401416056795,0.5100204008160377,-0.03552142085681683,0.056882275291009095,-0.058922356894276114,-10.902715828336884,-0.5083966104409697,-41.976455241483585,-6.829830176784181,4.067888275528033,2.8584299657211782,9.186321068095102,-9.027619819331957,-0.5336271385613941,0.3870239999999998,-0.1981219999999999,-0.8115509999999999,-0.18319299999999994,0.07585700000000006,-0.858379,0.5702169999999998,0.273979,0.04682800000000009,0.031720000000000026,0.8512159588536151,single,-0.8115509999999999
88,0.733333,jog,-1.1032041281651228,0.6288251530061203,0.08280331213249449,0.5492817081282476,0.4963547240640305,0.7704993751232591,-0.41893675747028636,0.6432257290291489,0.6555862234489347,-0.04296171846874823,0.022920916836666316,-0.0555622224888991,7.214977186633982,-7.733418661119002,27.722217733065644,-12.745019581171011,16.762941008456593,17.468597459845956,-0.8928714282888958,-4.07552603556254,0.403232257935557,0.3927259999999999,-0.198002,-0.806778,-0.174358,0.07080799999999998,-0.8595320000000001,0.5670839999999999,0.26881,0.05275400000000008,0.0,0.8768668488278815,single,-0.806778
89,0.741667,jog,-1.0526757859371214,0.6682265418766592,-0.0879529637628975,-1.3878921197221372,0.2593658095838356,0.4636995606693452,-0.4812814974801761,0.6487880969522536,0.7032637389008926,0.025557955363573307,0.022918166546682665,-0.021838252939765136,6.062916034077476,4.727788441389384,-20.48911397832889,-7.480770339559649,0.6674307563120648,5.72084418670004,8.22170312362874,-0.0003300083973663272,4.046552621686364,0.39748800000000006,-0.198164,-0.800184,-0.16537200000000007,0.06542999999999999,-0.858981,0.5628600000000001,0.263594,0.05879699999999999,0.0,0.9321897924004667,single,-0.800184
90,0.75,jog,-1.1219248769950814,0.5967838713548523,0.1092043681747225,0.445939949907783,0.9102336412015994,0.7775031350596843,-0.7551902076083403,0.8867154686187385,0.9503180127205043,0.05232209288370084,0.0038401536061480703,-0.029401176047042017,-8.310223335888596,-8.573463401152834,23.659826225563325,-32.870360029780755,28.552426697045952,29.64769876630394,3.2118249754143076,-2.289453130989381,-0.9075870763562762,0.4005439999999998,-0.19574800000000003,-0.793175,-0.15558700000000014,0.060489000000000015,-0.860136,0.5561309999999999,0.25623700000000005,0.06696100000000005,0.0,0.8997672522963762,single,-0.793175
91,0.758333,jog,-1.0988839553582195,0.6213848553942151,0.07536301452057594,0.31261272327818634,1.5292198192481794,0.5787501130532449,-0.9548781951277735,0.9929197167886679,0.9470778831153218,0.02880115204608388,-0.029041161646474797,-0.0012000480019196066,2.765021197271306,2.9522361741704817,-4.06112488349291,-23.963517043013603,12.745019581174716,-0.3888311058661325,-2.8226258055462456,-3.9459156669414055,3.384270736244125,0.4017440000000001,-0.19265200000000005,-0.785911,-0.14619000000000004,0.055068999999999924,-0.8607739999999999,0.5479340000000001,0.24772099999999997,0.0748629999999999,0.0,0.9318022576097592,single,-0.785911
92,0.766667,jog,-1.089272858171343,0.621310295176378,0.03647708183345005,0.8943460385773774,2.592491388803615,0.5007556901893572,-1.0596352291817022,1.191504679625636,0.9866810655147638,-0.008879289656816402,-0.00011999040075806804,-0.0032397408207342692,1.1532394032729347,-0.00894651041960978,-4.665938647363344,-12.56983849939156,23.828289277294143,4.752001727794836,-4.521291301043976,3.470262928451751,-0.2447435587730591,0.40199099999999977,-0.18789999999999996,-0.7779919999999999,-0.13718600000000003,0.0498900000000001,-0.8611049999999999,0.5391769999999998,0.23779000000000006,0.08311299999999999,0.0,0.9842456264369177,single,-0.7779919999999999
93,0.775,jog,-1.173526941077636,0.6845073802952141,0.021840873634947165,-0.6756775204585952,1.9964558825401866,-0.0031594019147418,-1.2023280931236933,1.3157326293051637,0.8538341533661307,-0.030241209648376084,0.02328093123723937,-0.00456018240729667,-10.110894384530525,7.583953572403189,-1.7564152404299558,-17.123828626183908,14.907950279554425,-15.942267148521845,-2.5635329403047633,2.8082229254767,-0.15845932876063784,0.40175099999999997,-0.18264000000000002,-0.7710589999999999,-0.12765899999999997,0.044379999999999975,-0.861325,0.5294099999999999,0.22702,0.09026600000000007,0.0,0.9359399634054567,single,-0.7710589999999999
94,0.783333,jog,-1.1675267010680652,0.6342253690147645,-0.17304692187686985,-1.1753297971789904,-1.090032378882645,0.9373650908469724,-1.4074162966518742,1.461538461538481,0.8199927997119967,-0.03816152646106365,0.02256090243610689,-0.01188047521900826,0.7200576034526515,-6.034082716962688,-23.387470960256664,-24.61156888613738,17.4973997639888,-4.0611248834914555,-0.9504760365639788,-0.08640691241239457,-0.8784702762164475,0.3997520000000001,-0.17574599999999996,-0.762784,-0.11824799999999991,0.03928300000000007,-0.859982,0.518,0.21502900000000003,0.097198,0.0,0.9235066794492003,single,-0.762784
95,0.791667,jog,-1.1756659467242498,0.6444684425245949,-0.20470362371009987,-1.26128530601821,-1.5744857674353157,0.9900030012547726,-1.6970242380609442,1.5443964482841215,0.6358291336693014,-0.027957763378947443,0.013558915286767202,-0.014038876889849424,-0.9766313482342887,1.2290704955400011,-3.798500339960377,-34.75017295525171,9.942163036433868,-22.097872095355637,1.22435362156421,-1.080152045757094,-0.25898748150241757,0.39540700000000006,-0.168246,-0.755779,-0.10868300000000009,0.03402499999999997,-0.8583930000000001,0.5040900000000001,0.20227099999999998,0.1026140000000001,0.0,0.9431725129782326,single,-0.755779
96,0.8,jog,-1.1474858994359811,0.6911076443057643,0.02208088323532476,-0.22042341468885474,2.7392153549947054,0.24624729100277007,-1.935917436697464,1.6563062522500809,0.4344173766950674,0.005040201608076004,-0.0003600144005730508,-0.005760230409216276,3.3817409442300024,5.596928090863942,27.215229442628548,-28.668330569605054,13.42971366446165,-24.170377652014057,3.9599141950105974,-1.6703383760158639,0.9934773167686444,0.3888370000000001,-0.16020299999999998,-0.752343,-0.09907899999999992,0.028263000000000038,-0.858625,0.487916,0.18846600000000002,0.10628199999999999,0.0,0.9872292111761589,single,-0.752343
97,0.808333,jog,-1.0759630385215275,0.6698667946718034,-0.3151326053042171,-0.9708633826600342,-0.3161331509843851,0.6071139925534214,-2.139565582623336,1.8445937837513697,0.3013320532821323,0.018720748829958767,0.0021600864034516565,-0.004800192007680155,8.583086633199837,-2.5490039162319795,-40.46723731423796,-24.4387550613073,22.595407596458728,-15.970877644658145,1.6417313358793817,0.3024241934507057,0.1152092165529977,0.3799739999999998,-0.15041400000000005,-0.747206,-0.08995700000000006,0.022698999999999914,-0.856039,0.4699309999999999,0.17311299999999996,0.10883299999999996,0.0,0.9675888285148051,single,-0.747206
98,0.816667,jog,-1.1177105831533614,0.6505879529637492,-0.2861771058315278,0.40351273413057015,-0.020562940683829405,0.7769831036640203,-2.1672666186704923,1.9043676505879346,0.2383009359251227,0.005519558435323991,0.0137988960883233,-0.005879529637628997,-5.009304611451106,-2.313275942891064,3.4743819861637997,-3.3238584169853773,7.172290237168751,-7.5631290325184946,-1.5840161260660757,1.3965454385495026,-0.1295101547814775,0.371227,-0.139965,-0.742835,-0.08059599999999989,0.017392000000000074,-0.853703,0.45182299999999986,0.15735700000000008,0.11086799999999997,0.0,0.9733623111958796,single,-0.742835
99,0.825,jog,-1.1213248529941322,0.6390255610224497,-0.5001800072002999,-0.5384810561342233,-1.2817501943746108,1.1888068662571882,-2.2594503780151225,1.992439697587926,0.17664706588263704,-0.012360494419772612,0.01932077283090942,-0.0025201008040322066,-0.4337297300817087,-1.3875425346573376,-25.681375419269656,-11.062493621100568,10.569068402735171,-7.398760355512566,-2.145692170298424,0.6626517151789477,0.40314758593505595,0.36174300000000015,-0.128687,-0.7371949999999999,-0.07135499999999984,0.012228000000000017,-0.849556,0.433098,0.140915,0.11236100000000004,0.0,0.961542772925,single,-0.7371949999999999
100,0.833333,jog,-1.1032041281651228,0.6563062522500941,-0.3910956438257395,-0.336418412264877,-2.145974269045909,0.9605004878544872,-2.651746069842787,2.222608904356166,0.18480739229569268,0.0032401296051841034,0.029041161646461474,-0.015360614424576875,2.1745739624396156,2.0737658979532396,13.09064723083642,-47.07736611396408,27.621409668575446,0.9792783407003008,1.8721497689855575,1.1664933175989454,-1.5409232713962098,0.3488390000000001,-0.11563500000000004,-0.732396,-0.06213499999999983,0.007000999999999924,-0.8464250000000001,0.41097399999999995,0.12263599999999997,0.11402900000000005,0.0,0.9449788933142014,single,-0.732396
101,0.841667,jog,-1.0723542116630556,0.6382289416846558,-0.23494120470362376,0.6778216444750504,1.7161281581266952,0.5463783676563752,-2.420326373890063,2.035997120230364,-0.004919606431487034,0.005399568034539282,0.026637868970488816,-0.012718982481401206,3.701693844740463,-2.169103739553411,18.737033731955194,27.768142062961598,-22.391622765274864,-22.76541861377229,0.2591118825720137,-0.2883720513526085,0.3169704755430345,0.33760500000000015,-0.10398600000000002,-0.7304790000000001,-0.053153000000000006,0.0019040000000000168,-0.844573,0.39075800000000016,0.10589000000000004,0.11409399999999992,0.0,0.9499860043584815,single,-0.7304790000000001
102,0.85,jog,-1.0765630625224916,0.6668666746669969,-0.21912876515060734,-0.07678184752810159,0.7399794839740923,0.6605195720540143,-2.5552622104884435,2.300612024481006,0.06612264490579968,0.017640705628239602,0.024000960038399112,-0.012120484819392935,-0.5050823064245826,3.4366654244979395,1.8975686491079522,-16.19294810973018,31.75505871242586,8.52541117692156,1.4689952710548941,-0.3164417295199482,0.07182259234468696,0.325283,-0.09037200000000001,-0.728102,-0.044035000000000046,-0.0034530000000000394,-0.842848,0.36931800000000004,0.08691899999999997,0.11474600000000001,0.0,0.9464030802583827,single,-0.728102
103,0.858333,jog,-1.0303612144485716,0.6511460458418227,-0.2602904116164741,0.046736171303958976,-0.04770823722027989,1.0367392507694313,-2.6519860794431773,2.20964838593543,-0.1306852274090966,0.01896075843032279,0.020520820832837097,-0.006960278411136299,5.544443546612231,-1.886550921057741,-4.939595159710379,-11.60732856771072,-10.916073268399849,-23.61788939336319,0.15841267275689203,-0.41763341000384024,0.6192495389723526,0.3117699999999999,-0.07738499999999993,-0.727022,-0.03529100000000018,-0.008707999999999938,-0.840737,0.34706100000000006,0.06867699999999999,0.11371500000000001,0.0,0.9520109988450193,single,-0.727022
104,0.866667,jog,-1.1208303335733258,0.7197024238061067,-0.13282937365010505,0.5424586279937512,0.5910204931676222,1.2740013608829448,-2.6346292296616425,2.2730981521478366,-0.1840652747780197,0.018478521718261143,0.02507799376050107,-0.00443964482841403,-10.855425860901693,8.226107267132761,15.29410102788214,2.0826553613552847,7.6133628764587336,-6.405093276808664,-0.05786377634529025,0.5468170059592034,0.30245183377997165,0.2991539999999999,-0.06443900000000002,-0.727449,-0.025796000000000152,-0.014496999999999982,-0.8396669999999999,0.32495000000000007,0.04994200000000004,0.11221799999999993,0.0,0.9475576511738195,single,-0.727449
105,0.875,jog,-1.0679227169086707,0.6840273610944322,-0.14388575543021062,0.30809758051435954,1.1075532176558331,0.9566110997696964,-2.676347053882149,2.26005040201607,-0.2396495859834382,0.012600504020163363,0.022440897635897808,-0.0034801392055679413,6.349167966477252,-4.281178772551828,-1.3268188863681172,-5.0063391600271885,-1.5657926475179023,-6.670384160016591,-0.705390339385306,-0.3164641935201311,0.11514528055275222,0.28575099999999987,-0.05130599999999996,-0.7282470000000001,-0.01679200000000014,-0.020009999999999972,-0.838497,0.302543,0.03129599999999999,0.11024999999999996,0.0,0.9567154775815647,single,-0.7282470000000001
106,0.883333,jog,-1.142325693027723,0.6774270970838818,-0.08304332173287209,0.856154618525053,0.6471653459707775,1.2321990152749815,-2.863554542181655,2.2930517220688746,-0.3504140165606617,0.004920196807893869,0.007800312012478276,-0.010200408016320819,-8.928714282857557,-0.792063363800592,7.301384099044555,-22.465797227829693,3.960316819009315,-13.292263359801154,-0.9216737324216322,-1.7569405524324337,-0.8064645158709768,0.2714080000000001,-0.03784299999999996,-0.730475,-0.007231999999999905,-0.02559,-0.83789,0.27864,0.012252999999999958,0.10741500000000004,0.0,0.9770809681329733,single,-0.730475
107,0.891667,jog,-1.092632589392862,0.6721862251019952,-0.1204703623710116,0.7105833890086958,1.0279827207454912,1.0465189422209964,-2.9773218142549003,2.4527237820974515,-0.33969282457403605,0.008399328053730844,0.001919846412288948,0.03767698584113314,5.962695420549725,-0.6288543294800382,-4.490885605728308,-13.650980570343902,19.159114474271384,1.2864401231852285,0.4174623525122384,-0.7055994240687978,5.744827676680373,0.25570099999999996,-0.023003999999999913,-0.732302,0.0019439999999999458,-0.03117599999999998,-0.836572,0.253757,0.008172000000000068,0.10426999999999997,0.0,0.9355840387258563,single,-0.732302
108,0.9,jog,-1.1617664706588275,0.7392295691827707,-0.12564502580103393,0.8327183068135041,0.03501674298629689,1.3501465029703474,-3.265690627625083,2.568822752910097,-0.3109324372974885,0.0014400576023188495,0.02412096483859425,0.04080163206528203,-8.296397607820156,8.04552311061745,-0.6209844509807166,-34.60564183009501,13.932433794869187,3.4513845285668356,-0.8351458600038361,2.6642407807878565,0.3749725457996971,0.23816900000000008,-0.007758000000000043,-0.733846,0.01163700000000012,-0.03713500000000003,-0.835185,0.22653199999999996,0.029376999999999986,0.10133899999999996,0.0,0.9209664647508318,single,-0.733846
109,0.908333,jog,-1.0549621984879483,0.7053882155286203,-0.1563662546501806,0.5425584707758747,0.18722515755569233,0.9778831030713399,-3.217928717148719,2.4578183127325284,-0.4215768630745288,0.001560062402501005,0.02316092643705754,0.006960278411136808,12.817025341519292,-4.061124883493427,-3.686694929694824,5.7316585235046755,-13.321065663934899,-13.277862207733268,0.01440115206794151,-0.11520921655306837,-4.061124883492804,0.22014500000000004,0.00684499999999999,-0.736056,0.020441000000000153,-0.04281999999999997,-0.833824,0.19970399999999988,0.04966499999999996,0.09776799999999997,0.0,0.9596092769285988,single,-0.736056
110,0.916667,jog,-1.1256299496040065,0.6863450923926103,-0.0711543076553949,0.7627122138355729,0.22898993698541234,1.1973297995418832,-3.3203743700503607,2.494120470362362,-0.4800815934725191,0.01463882889368305,-0.002039836813046989,0.020038396928245644,-8.479451777784705,-2.2849919769630227,10.224615670120597,-12.292494948601002,4.35591044274459,-7.020006047275002,1.5693264328272072,-3.0238496820379575,1.5692486821584755,0.20185399999999998,0.021911000000000014,-0.739464,0.02994399999999997,-0.04855699999999996,-0.833064,0.17191,0.07046799999999998,0.09360000000000002,0.0,0.9585005489642628,single,-0.739464
111,0.925,jog,-1.0420016800671978,0.7041881675266962,-0.1054842193687699,0.20785134169948122,0.12845119038175962,1.1855212960866055,-3.2528501140045556,2.379695187807504,-0.49513980559222054,0.03888155526220924,-0.02412096483859425,-0.0019200768030723696,10.035793776168047,2.1412546662769496,-4.1197541957728125,8.103234854890779,-13.731583169909694,-1.8070577366736311,2.909243533964489,-2.6498413567199295,-2.6351222526482565,0.1834309999999999,0.035873000000000044,-0.742711,0.03895099999999996,-0.05462599999999995,-0.832201,0.14447999999999994,0.090499,0.08948999999999996,0.0,0.9236731629532386,single,-0.742711
112,0.933333,jog,-1.1275651026041096,0.7466698667946726,-0.07056282251290512,0.3972753798267575,-0.24113074673962007,1.2958483542298027,-3.422056882275321,2.5228609144365888,-0.5663026521060895,0.03300132005280544,0.05748229929197307,0.026761070442818075,-10.268021425286515,5.098007832470514,4.190735252113896,-20.305624417468707,17.180574418467057,-8.539883176991438,-0.7056564513865176,9.792783407004448,3.441875344520666,0.16431099999999987,0.050674,-0.746842,0.04862199999999994,-0.060368999999999895,-0.83139,0.11568899999999993,0.11104299999999989,0.08454799999999996,0.0,0.8808658931618432,single,-0.746842
113,0.941667,jog,-1.0943124550035934,0.7565394768418475,-0.06311495080393838,0.3991702685173974,-0.15009518949740594,1.2565558187797443,-3.4947204223661923,2.583153347732174,-0.48692104631629,0.018958483321319806,0.032397408207342264,-0.004199664026877855,3.9899985121809345,1.1842584649837806,0.8936731112271039,-8.718927296720777,7.234513234411416,9.525030692320485,-1.685005607329677,-3.0099461344649168,-3.7149909370885164,0.14430599999999982,0.0658970000000001,-0.750374,0.05789999999999984,-0.06640399999999991,-0.8308989999999999,0.08640599999999998,0.132301,0.08052499999999996,0.0,0.9370482255493103,single,-0.750374
114,0.95,jog,-1.1080043201728227,0.7903516140645809,-0.023280931237239677,0.29295043069659293,-0.21087721367882817,1.1657859272560638,-3.4353774150966303,2.518300732029301,-0.5659426377055148,0.02232089283571597,0.007200288011514404,0.06444257770310904,-1.6430895438892827,4.057618771478898,4.780273558946246,7.121445730176711,-7.782625189352383,-9.48297028551848,0.403505281938821,-3.0237753745143516,8.237398503538644,0.12491199999999991,0.08029599999999998,-0.754896,0.0673189999999999,-0.07293000000000005,-0.830168,0.057593000000000005,0.15322600000000003,0.075272,0.0,0.8857036961634182,single,-0.754896
115,0.958333,jog,-1.1298451938077416,0.8111124444977716,0.07008280331212234,0.5406148291779043,-0.05484041298108463,1.1600415696908741,-3.514460578423113,2.4869794791791526,-0.5611424456978256,0.028201128045119914,-0.0033601344053795614,-0.0032401296051841034,-2.6210096765773243,2.4913993079552,11.204096309775787,-9.490359213546437,-3.7587006900454094,0.5760460827660145,0.7056564513865257,-1.2673013820825538,-8.122249766985824,0.10504099999999994,0.09426099999999998,-0.7601559999999999,0.07696899999999984,-0.07971700000000004,-0.8307789999999999,0.028072000000000097,0.17397800000000002,0.07062299999999999,0.0,0.9523586149183922,single,-0.7601559999999999
116,0.966667,jog,-1.200623950084006,0.8897288216942516,0.15910727141829126,0.4190161572776744,0.1189154576014264,0.6782963829476912,-3.583753299736004,2.5452363810894942,-0.6049916006719406,-0.0038396928245512016,0.060715142788577224,0.035757139428845376,-8.492771331445134,9.433210606728984,10.68208160621169,-8.314461400634817,6.990269007720322,-5.261477678679467,-3.844590937085538,7.688418189819569,4.679297940248282,0.08518000000000003,0.10805800000000004,-0.766524,0.08694300000000021,-0.08662599999999998,-0.831807,0.001763000000000181,0.19468400000000002,0.06528299999999998,0.0,0.8823890024870344,single,-0.766524
117,0.975,jog,-1.1509660386415448,0.8561142445698008,0.12912516500659735,0.2485564066139136,-0.45732138243451187,0.9612069630549168,-3.5517820712828687,2.531141245649849,-0.6092643705748283,0.0811232449297858,0.06972278891156354,0.04452178087123482,5.959187740605014,-4.033910611358589,-3.597996689270873,3.8367008824115905,-1.691483912113903,-0.5127528984624694,10.19596036893529,1.0809607731892954,1.0517990450485446,0.06517400000000007,0.12201599999999996,-0.772677,0.09721000000000002,-0.09317900000000001,-0.8325119999999999,0.03203599999999995,0.21519499999999997,0.05983499999999997,0.0,0.8068935445186118,single,-0.772677
118,0.983333,jog,-1.1593663746549716,0.9043561742469646,0.18144725789032312,0.378731250543167,-0.28033327109297135,0.7596830563903968,-3.7532701308052263,2.5599423976958993,-0.48745949837993435,0.012360494419772447,0.025081003240131267,0.0416416656666265,-1.008080644837008,5.789263131784901,6.278902302139152,-24.179534324055773,3.456276496585855,14.617169350161218,-8.251860135606991,-5.357228569714639,-0.3456276496589832,0.0435589999999999,0.135812,-0.778251,0.1069739999999999,-0.10050599999999998,-0.833677,0.063415,0.23631799999999997,0.055425999999999975,0.0,0.9164026371806868,single,-0.778251
119,0.991667,jog,-1.176505879529652,0.9140868730501628,0.1663066954643636,0.25423907931017264,-0.6737469763539853,0.7935164268833804,-3.6132709383249613,2.529037676985857,-0.5095992320614381,0.014638828893683247,0.032997360211173,0.09311255099592072,-2.0565760588769377,1.1675904491478604,-1.8167221533428846,16.79855921289487,-3.708269823619214,-2.6565555173390765,0.2733782666079688,0.9498868455773671,6.176012158542659,0.02325099999999991,0.149271,-0.783884,0.11690099999999992,-0.10784900000000008,-0.834287,0.09365000000000001,0.25712000000000007,0.050402999999999976,0.0,0.8335579159349317,single,-0.783884
120,1.0,jog,-1.201368054722183,0.9152766110644315,0.2586103444137776,0.5019628456467776,-0.6347084323781061,0.6604387467756273,-3.7493099723988697,2.5267010680427098,-0.45469818792751526,-0.03924156966278229,0.08568342733709222,0.027241089643586226,-2.983580366318371,0.1427742726831499,11.0768809491676,-16.325337102353032,-0.28040428934922884,6.588388831623977,-6.465906463034359,6.322580958348614,-7.904891557942425,0.002018999999999993,0.16269900000000004,-0.7898280000000001,0.12658499999999995,-0.11476200000000003,-0.836215,0.12456599999999995,0.27746100000000007,0.046386999999999956,0.036130000000000106,0.8364998515563055,single,-0.7898280000000001
121,1.008333,jog,-1.2176887075483018,0.9529581183247388,0.26221048841953826,0.6399372577343541,-0.43940255702544023,0.3738324842606549,-3.769470778831197,2.4598583943357912,-0.372734909396379,-0.017160686427457765,0.04884195367815312,0.12264490579623238,-1.9585566814015336,4.521961749706903,0.4320345620737639,-2.4193935476212047,-8.021441702498398,9.835986863210971,2.649811980718196,-4.421153685220141,11.448915894953442,-0.01924500000000018,0.17525600000000002,-0.795119,0.13658899999999985,-0.12229599999999996,-0.8373780000000001,0.15583400000000003,0.297552,0.042259000000000047,0.07741000000000003,0.7781279240222276,single,-0.795119
122,1.016667,jog,-1.1688264938804807,0.8670506359491253,0.12251019918405698,1.1249571433593335,-2.4384558245939294,1.3365016113328845,-3.528437724981953,2.4475641948643956,-0.3225341972642159,-0.028077753779678864,0.025197984161272124,0.19930405567554477,5.862996600410463,-10.308073239214393,-16.762693692762205,28.921652729690685,-1.4751859216937313,6.02360356757412,-1.3099432868035776,-2.8370493780754518,9.198362116548092,-0.03891,0.18842799999999998,-0.798828,0.146096,-0.12931199999999998,-0.836738,0.185006,0.31773999999999997,0.03791,0.12090000000000001,0.661927829566326,single,-0.798828
123,1.025,jog,-1.1678867154686383,0.9990399615984696,0.3381735269410792,0.02756781576970874,-1.5072611174687351,0.34933527583814383,-3.8309132365295135,2.53702148085926,-0.18264730589223682,-0.068282731309258,0.013080523220918723,0.21648865954638383,0.11277792053790338,15.839352652027541,25.880634556225154,-36.29851332624065,10.735303731533108,16.787098448575584,-4.824790295161346,-1.4541534789815806,2.0622349538988622,-0.06110100000000007,0.20124400000000003,-0.803168,0.15525900000000004,-0.13752800000000004,-0.8377519999999999,0.2163600000000001,0.3387720000000001,0.03458399999999995,0.15415999999999996,0.6210358738944652,single,-0.803168
124,1.033333,jog,-1.3087723508940228,1.0043201728068964,0.4047761910476433,0.8157213875576388,-0.12608891674463754,0.21490254211001317,-3.615504620184736,2.4436577463098055,-0.1900876035041371,-0.08040321612866419,0.01464058562343266,0.2564502580103159,-16.906952529147006,0.6336506910388477,7.992639398363483,25.85006796409141,-11.204096309786758,-0.8928714282851475,-1.4545163589830774,0.18721497690074532,4.795583639017326,-0.08032299999999992,0.21323799999999998,-0.808125,0.16549499999999995,-0.145775,-0.8389880000000001,0.24581799999999987,0.35901299999999997,0.030863000000000085,0.19136999999999998,0.5514041699530408,single,-0.808125
125,1.041667,jog,-1.3081353491720873,0.9977201823854301,0.43112550995920634,-0.1390928783455696,-0.1836367840435096,0.30332178254488157,-3.4746820254380357,2.3281737461003567,-0.17206623470122773,-0.11615070794334968,0.010559155267576033,0.2912167026637923,0.07643409190490687,-0.7919354957363129,3.161665336160734,16.897359580837893,-13.856971467416729,2.1623912650479604,-4.289355869292797,-0.48973246410567617,4.171639627247067,-0.098379,0.22432599999999997,-0.813152,0.17542900000000006,-0.15400200000000003,-0.840154,0.27380800000000005,0.378328,0.02700199999999997,0.22998000000000002,0.5,flight,-0.813152
126,1.05,jog,-1.3303732149285654,1.0988839553581915,0.4720988839553491,0.5098140138982438,-0.5561986290260055,0.23774424481095588,-3.4702988119524174,2.291731669266731,-0.006600264010560246,-0.1555262210488349,-0.008760350414015176,0.32329293171726325,-2.6686506368028007,12.140138362265642,4.917001559599429,0.5260066585405309,-4.373224149000976,19.8567107513098,-4.725250582681451,-2.3184334191276696,3.849301458474787,-0.11621100000000006,0.234266,-0.817141,0.18521900000000002,-0.163232,-0.841394,0.3014300000000001,0.397498,0.02425299999999997,0.25747000000000003,0.5,flight,-0.817141
127,1.058333,jog,-1.3730949237969587,1.0900036001440168,0.4612984519380768,0.4848180524431051,-0.3540839210619456,0.019311452143955236,-3.772590903636172,2.3270130805232414,-0.24576983079323328,-0.20496819872795613,-0.038521540861636706,0.41569662786511863,-5.12681013661271,-1.065685253111103,-1.2961036862201392,-36.276502062133396,4.233938708329634,-28.701496073763977,-5.933274652480701,-3.571485713143142,11.088887093226475,-0.13620600000000005,0.24457399999999999,-0.8230329999999999,0.19495299999999993,-0.172636,-0.8417739999999999,0.331159,0.41720999999999997,0.018741000000000008,0.31259000000000003,0.5,flight,-0.8230329999999999
128,1.066667,jog,-1.4026877849772152,1.075833933285326,0.4809215262778955,-0.9537880653739554,-0.5895733168723074,-0.34159643467354006,-3.358051355891511,2.1886249100071833,0.11855051595872274,-0.24994000479962097,0.012479001679864673,0.4566834653227703,-3.550859272888922,-1.7002240051224744,2.3545805543338783,49.74076646804152,-16.605252041763507,43.71494441468121,-5.396185033797036,6.119575538937004,4.918027052753946,-0.15250199999999992,0.253848,-0.8260529999999999,0.20456000000000008,-0.181498,-0.841976,0.357062,0.435346,0.01592300000000002,0.3407699999999999,0.5,flight,-0.8260529999999999
129,1.075,jog,-1.4411376455058258,1.132245289811606,0.4995799831993359,-0.07774621786596572,-0.31854365221230946,-0.10479066707921263,-3.274090963638569,2.039361574462998,0.17184687387495523,-0.2598103924156957,0.059642385695424724,0.4209768390735665,-4.614167830146513,6.769633568496407,2.23910439474866,10.075650096356979,-17.91231675797271,6.395818782699266,-1.1844938936847256,5.659832475166264,-4.284966548566443,-0.16777599999999993,0.261407,-0.828784,0.21440400000000004,-0.19043600000000005,-0.842631,0.38217999999999996,0.45184300000000005,0.013847000000000054,0.36153,0.5,flight,-0.828784
130,1.083333,jog,-1.4447377895115445,1.1633265330612999,0.494899795991833,0.1362310241096969,-0.1531253543990246,-0.04493451452514502,-3.1068042721708387,1.8564742589703245,0.20448817952717885,-0.2860914436577343,0.08196327853115183,0.399255970238803,-0.43203456206872287,3.7298983858986334,-0.5616449306975668,20.07520598436668,-21.94735575335058,3.9171133628012775,-3.1538523031367034,2.6786142848586003,-2.606608524512553,-0.18162600000000007,0.267183,-0.831204,0.224059,-0.19944699999999993,-0.843428,0.4056850000000001,0.46662999999999993,0.012223999999999902,0.37775999999999993,0.5,flight,-0.831204
131,1.091667,jog,-1.4808015358771769,1.1954643628509947,0.48776097912167776,0.007804745147759605,-0.4872998992799003,-0.17723954822376878,-3.0008399328054396,1.691744660427198,0.3135349172066283,-0.3350131989441062,0.12850971922245663,0.4368850491960724,-4.327303379605597,3.856231076277349,-0.8565894972588617,12.714703547564325,-19.765970547531754,13.084561756593654,-5.8701410230828905,5.585126072870852,4.5151282646112465,-0.19429399999999997,0.271319,-0.832656,0.23360800000000004,-0.208339,-0.843852,0.427902,0.47965800000000003,0.011196000000000095,0.38804000000000005,0.5,flight,-0.832656
132,1.1,jog,-1.5181807272290588,1.235809432377277,0.4346573862954459,0.1210483792927321,0.3179988365549506,-0.2592365560178321,-2.7830313212527966,1.5522620904835924,0.2964118564742538,-0.3888155526220872,0.1374054962198539,0.5072602904116069,-4.485682389521336,4.841602007234088,-6.372686046589573,26.138078909473077,-16.738577936349824,-2.054849481864181,-6.45654070298573,1.0675359411252987,8.445366760534416,-0.20483399999999996,0.273956,-0.833808,0.2430190000000001,-0.21749199999999996,-0.843247,0.44785300000000006,0.49144799999999994,0.009438999999999975,0.40560999999999997,0.5,flight,-0.833808
133,1.108333,jog,-1.507980319212765,1.213488539541594,0.49561982479299227,-0.203008657602674,-0.4696827202041672,-0.3256118244507083,-2.5905436217448963,1.4125765030601358,0.29317172686907755,-0.45037801512062303,0.1248049921996807,0.5127805112204551,1.224097925872308,-2.678614284853386,7.315785251115673,23.099447918865007,-16.762941008455282,-0.38883110586538494,-7.387791011464823,-1.5121209672594875,0.6624529951815944,-0.21385500000000013,0.27561499999999994,-0.835495,0.25183199999999983,-0.22656400000000004,-0.843104,0.46568699999999996,0.502179,0.007608999999999977,0.4239100000000001,0.5,flight,-0.835495
134,1.116667,jog,-1.5305975521958115,1.2260619150467875,0.44720422366210794,-0.023915134976432148,0.5445799010791214,-0.31784420974718514,-2.298536117110608,1.2662586993040468,0.2628989680825512,-0.500599952003817,0.178665706743468,0.5081593472522146,-2.71385084989757,1.5086843658739448,-5.809407383115427,35.03809750831368,-17.55673191217758,-3.632440459146403,-6.026150333956516,6.462768723756525,-0.5544953165635339,-0.2202550000000001,0.27595,-0.837031,0.260416,-0.23529299999999997,-0.842596,0.48067100000000007,0.5112429999999999,0.005565000000000042,0.44435,0.5,flight,-0.837031
135,1.125,jog,-1.5475819032761475,1.2127685107404345,0.4066962678507148,-0.12931569702006412,0.24110936884510326,-0.27220239259070705,-2.056162246489876,1.141245649826004,0.13428537141485888,-0.5432617304692441,0.24900996039841078,0.5151806072242943,-2.038203657786653,-1.5952723276554883,-4.861149143332957,29.086027915604692,-15.002166024006236,-15.434248970082022,-5.1196182005793185,8.441648104517393,0.8425849000455731,-0.22449300000000005,0.27535400000000004,-0.839301,0.26878499999999983,-0.24332399999999998,-0.841692,0.4932779999999999,0.518678,0.002391000000000032,0.47608999999999996,0.5,flight,-0.839301
136,1.133333,jog,-1.5641425657026413,1.227889115564636,0.3751350054002149,-0.377662970098387,0.2801375650361084,-0.15452667118271154,-1.7746309852394286,1.0247209888395619,0.0520820832833306,-0.621744869794783,0.2290891635665507,0.5154206168246769,-1.9873589855386944,1.814545160710641,-3.787502994179789,33.78510275416417,-13.983518659119545,-9.864789167350176,-9.41835345320289,-2.3905912434729695,0.028802304138079944,-0.2262470000000001,0.273661,-0.841993,0.27663799999999994,-0.25164699999999995,-0.8405229999999999,0.502885,0.525308,0.0014700000000000824,0.5,0.4853,flight,-0.8405229999999999
137,1.141667,jog,-1.5908327333813164,1.2239020878329625,0.31725461963043805,-0.27495822037642464,0.49767997849145545,-0.3776335899761698,-1.4882409407247237,0.9036477081833396,0.003359731221502284,-0.8488120950323939,0.3820494360451092,0.553515718742497,-3.202563916327675,-0.47840505539639505,-6.945090685118357,34.36405621726695,-14.527631468229101,-5.846214550255333,-27.245887357524488,18.353764396275178,4.571046546414673,-0.22539200000000004,0.270992,-0.844609,0.2828219999999999,-0.258663,-0.838554,0.5082139999999999,0.529655,0.006055000000000033,0.5,0.43944999999999995,flight,-0.838554
138,1.15,jog,-1.5675027001080342,1.2384495379815301,0.3026521060842357,-0.4866596791056656,0.34270632270388224,-0.15861782183203785,-1.304452178087141,0.7357494299772055,0.008040321612865968,-0.803792151686086,0.3454938197527891,0.36037441497660305,2.799715981433147,1.7457638483820657,-1.752371720413114,22.05553373785964,-20.148599328709427,0.5616933146962351,5.402609305929232,-4.3868494290556175,-23.17788356725018,-0.22319999999999995,0.266803,-0.8470639999999999,0.28918599999999994,-0.266104,-0.838073,0.5123859999999999,0.532907,0.008990999999999971,0.5,0.41009,flight,-0.838073
139,1.158333,jog,-1.587423496939852,1.2156486259450199,0.23616944677787668,-0.621092590857908,0.4091802925938637,-0.2712986348835565,-1.065402616104632,0.6329053162126376,-0.17556702268090488,-0.8456738269530397,0.3360134405376186,0.45433817352693284,-2.3905912434678327,-2.736218893136907,-7.978238246292794,28.68709492169745,-12.341787323240865,-22.033762665758747,-5.026002072117246,-1.1376910134609757,11.276102070122182,-0.21885,0.261947,-0.850495,0.29536700000000016,-0.273434,-0.836255,0.5142170000000001,0.535381,0.01424000000000003,0.5,0.3576,flight,-0.836255
140,1.166667,jog,-1.6045116390688978,1.2342212622990416,0.1949844012479024,-0.17847200836591323,0.6016680639888642,-0.3393553143598107,-0.8466522678185847,0.4594432445404454,-0.23962083033357773,-0.9852411807055851,0.39500839932805665,0.5436765058795392,-2.0504130224437462,2.2285380794362952,-4.941810118787505,26.24794195896945,-20.813783497983618,-7.685842050956811,-16.746742710888892,7.078828748552815,10.719742302928731,-0.212534,0.25549,-0.854117,0.3005279999999999,-0.28042800000000007,-0.833349,0.5130619999999999,0.535918,0.02076800000000001,0.5,0.29232,flight,-0.833349
141,1.175,jog,-1.5997839913596241,1.2100084003359866,0.16680667226688803,-0.6240095418119233,0.4948385492279676,-0.1800716763964618,-0.738029521180833,0.36385455418216006,-0.37573502940117054,-1.0171606864274307,0.5252610104404175,0.6879875195007682,0.5673404187295829,-2.9056596619530337,-3.381462736231114,13.035251006570242,-11.47110168706152,-16.334357262401348,-3.8304939063776664,15.63093857102587,17.31801435512138,-0.205353,0.24843900000000002,-0.858638,0.30538299999999996,-0.28613399999999994,-0.829006,0.510736,0.534573,0.02963199999999999,0.5,0.20367999999999997,flight,-0.829006
142,1.183333,jog,-1.602064082563314,1.2293291731669416,0.0804032161286397,0.39052682377023046,0.983872257801906,-0.18316929040746432,-0.6186247449898077,0.2216488659546404,-0.4686187447497933,-1.0132005280211276,0.5035401416056662,0.7592703708148395,-0.2736218893183478,2.318585483133948,-10.368829489769485,14.329146308775517,-17.06536520191059,-11.146491701502896,0.4752380182771133,-2.6066085245111634,8.554284329061797,-0.19715800000000006,0.24004199999999998,-0.863213,0.31028999999999995,-0.292182,-0.823349,0.507448,0.532224,0.03986400000000001,0.5,0.10136000000000006,flight,-0.823349
143,1.191667,jog,-1.5634749220062392,1.183345332373399,0.02387808975282682,-0.308649124737805,-0.31736352628900233,-0.30676288862766427,-0.5341972642188598,0.11483081353491627,-0.5511159107271376,-1.0514758819294467,0.5227981761458976,0.8232541396688209,4.630328840541689,-5.517619485666225,-6.78247256729211,10.130487253533383,-12.81714091909327,-9.898868007840614,-4.5926750549938635,2.3107792824851576,7.677438067432313,-0.18857999999999997,0.231137,-0.868005,0.314557,-0.29768700000000003,-0.816687,0.503137,0.5288240000000001,0.051317999999999975,0.5,0.0,flight,-0.816687
144,1.2,jog,-1.5531021240849787,1.2102484099364097,-0.04452178087123648,0.15297363786238477,0.2797302695894792,-0.12031451582898336,-0.49813992559703035,0.007080283211328938,-0.6169446777871179,-1.1278051122045005,0.5828633145325867,0.8496339853594225,1.2447855419729439,3.2284984474992258,-8.208312807399967,4.327053716768247,-12.930580862065082,-7.899768037919226,-9.159874027967657,7.208104930599974,3.1657081111966674,-0.17978899999999998,0.221111,-0.8727750000000001,0.31810099999999997,-0.30291500000000005,-0.8092360000000001,0.49788999999999994,0.5240260000000001,0.06353900000000001,0.5,0.0,flight,-0.8092360000000001
145,1.208333,jog,-1.5561022440897305,1.153726149045943,-0.09564382575303416,0.11408809650483104,0.4124386332499803,-0.25587660479420105,-0.35329413176525803,-0.09420376815072366,-0.6657866314652466,-1.2892115684627097,0.6505460218408633,0.8253930157206139,-0.3600288017222792,-6.7829426245608735,-6.134890781446872,17.38219054743427,-12.154572346339952,-5.8612688921310285,-19.36954953296608,8.122249766983733,-2.909032717965702,-0.16976599999999997,0.210712,-0.877526,0.32032499999999997,-0.30710800000000005,-0.801561,0.49009099999999994,0.5178200000000001,0.07596500000000006,0.5,0.0,flight,-0.801561
146,1.216667,jog,-1.5464362850972229,1.128629709623248,-0.15502759779217476,-0.08560343292512754,0.3068343371397813,-0.3955800606995394,-0.21718262538997032,-0.1381089512839015,-0.5824334053275846,-1.5586753059755585,0.676385889128883,0.8910487161027273,1.159822293317476,-3.0113318241775118,-7.12548260608852,16.33207419909891,-5.268200519939844,10.001587009558872,-32.33306185659394,3.1005360316798862,7.878053801549638,-0.15868799999999994,0.20015500000000003,-0.881088,0.3202229999999999,-0.310877,-0.792843,0.47891099999999986,0.511032,0.08824500000000002,0.5,0.0,flight,-0.792843
147,1.225,jog,-1.4998199927996736,1.1502460098403746,-0.28261130445217264,0.5363476905289578,1.0326501457066988,-0.44482945611990565,-0.11424456978279698,-0.1764070562822481,-0.3321732869314714,-1.596183847353867,0.8097923916956641,0.7825513020520682,5.594178842859528,2.594059788446681,-15.310657225488498,12.353060795292397,-4.595956438059034,30.03241550415322,-4.5012050135974855,16.009420684840848,-13.020210494498638,-0.1471420000000001,0.1891,-0.881501,0.3194199999999998,-0.31371399999999994,-0.7839670000000001,0.4665619999999999,0.502814,0.0975339999999999,0.5,0.0,flight,-0.7839670000000001
148,1.233333,jog,-1.413296531861305,1.0909636385455537,-0.31249249969999693,0.1246557284645408,0.1721566733971246,-0.4388145401431222,-0.16008640345613326,-0.07884315372614868,-0.15120604824193074,-1.8922356894275683,1.037321492859722,0.8531141245649909,10.383230641829988,-7.114169122143465,-3.585886865213556,-5.5012400904040195,11.708136632197323,21.71693732023789,-35.52764215453066,27.304584323060133,8.467877416647465,-0.1366989999999999,0.179352,-0.880157,0.3154290000000002,-0.31416099999999997,-0.774254,0.4521280000000001,0.493513,0.10590299999999997,0.6101739401920316,0.0,single,-0.774254
149,1.241667,jog,-1.3346532277417564,1.0625149988000882,-0.4076073914086822,0.13329730666856035,0.19440076103872567,-0.5665572799269579,-0.17710583153347992,0.06791456683465236,-0.17014638828893588,-2.0418766498680023,1.1479481641468585,0.7956563474921943,9.436441579019448,-3.4135636843610877,-11.412873975124134,-2.042167995841916,17.609517705879522,-2.272658992921167,-17.955478814546787,13.274138623366401,-6.894381698199689,-0.12705200000000005,0.171063,-0.878178,0.309535,-0.313449,-0.764226,0.43658700000000006,0.48451199999999994,0.11395200000000005,0.5753149618074028,0.0,single,-0.764226
150,1.25,jog,-1.3162126485059629,1.0364814592583804,-0.4746189847593864,0.36578493823204866,0.3581792039425804,-0.7435946494929374,-0.18732749309972985,0.14280571222849003,-0.2188887555502239,-2.183727349093986,1.31417256690268,0.7907116284651472,2.2129580266163127,-3.124149710993396,-8.041712870599405,-1.2266484538881581,8.987296939138169,-5.84931804407638,-17.022764817710893,19.947726239748352,-0.5933900188464081,-0.117645,0.16361599999999998,-0.876047,0.3023060000000001,-0.31113500000000005,-0.7536820000000001,0.4199510000000001,0.47475100000000003,0.12236499999999995,0.5,0.0,flight,-0.7536820000000001
151,1.258333,jog,-1.28129125165007,1.0432017280691297,-0.5457818312732555,1.0729394572519455,0.5981263491308514,-0.8612739198477926,-0.28489139565582733,0.15468618744749912,-0.26341053642145956,-2.340333613344571,1.3091323652946307,0.7509900396015893,4.190735252117259,0.8064645158705551,-8.539883176991452,-11.708136632197093,1.4257140548432976,-5.342827417645033,-18.79350345020838,-0.6048483869013975,-4.766781334880389,-0.10934200000000005,0.15621200000000002,-0.8736940000000001,0.2934809999999999,-0.30891899999999994,-0.7428760000000001,0.40282299999999993,0.46513099999999996,0.130818,0.5,0.0,flight,-0.7428760000000001
152,1.266667,jog,-1.322534197264206,1.0106791456683404,-0.5352771778257757,1.148832246697777,0.8227101358650661,-0.8518347868677031,-0.24586033117350034,0.11723062155027576,-0.3106551475881907,-2.467842572594174,1.686705063594898,0.6583873290136762,-4.948757573090421,-3.9023976962789853,1.2604575770914064,4.6833530696336325,-4.494308362997729,-5.668899828021449,-15.299851121862499,45.30509938808067,-11.111436355641027,-0.10036900000000004,0.148766,-0.871822,0.28393599999999986,-0.303285,-0.732928,0.3843049999999999,0.452051,0.13889399999999996,0.5,0.0,flight,-0.732928
153,1.275,jog,-1.3525741029641347,0.994119764790599,-0.535101404056166,1.2454131124687753,0.9128941544899032,-1.018492916603773,-0.15420616824672895,0.06144245769830832,-0.2919716788671571,-2.609504380175219,1.6408256330253415,0.5396615864634636,-3.6049328813067363,-1.98720519353672,0.021093696101001508,10.99893950879302,-6.6948474561344,2.242105930761283,-17.00009691360212,-5.505751898422762,-14.24765901238614,-0.09038299999999999,0.140994,-0.869796,0.273462,-0.29789599999999994,-0.7239720000000001,0.363845,0.43888999999999995,0.14582399999999995,0.5,0.0,flight,-0.7239720000000001
154,1.283333,jog,-1.3408136325452769,0.9807992319692632,-0.5655826233049184,1.5622313274672617,0.9584765930760355,-0.974072260292513,-0.06576263050521822,0.024360974438976515,-0.2067682707308259,-2.6038641545661365,1.670586823472905,0.4700588023520863,1.4113129027790297,-1.5985278796754585,-3.657892625555241,10.6136490749441,-4.449955989359313,10.224817969078325,0.6768541472557924,3.5714857131361004,-8.352668200093136,-0.079758,0.13302399999999998,-0.8668060000000001,0.262937,-0.29214799999999996,-0.715342,0.34269499999999997,0.425172,0.15146400000000004,0.6361040349083331,0.0,single,-0.715342
155,1.291667,jog,-1.282337413006984,1.0092392608591507,-0.5370770338373075,2.0060070815469233,1.0080431562397894,-0.9152842018287007,-0.03623710103192107,0.01439884809215398,-0.07475401967842697,-2.690064794816462,1.7059035277178125,0.40064794816415217,7.016585017793852,3.4125304643494174,3.420397104345018,3.542780114386574,-1.1953595328560986,15.840442890856906,-10.343249370089646,4.237665496149277,-8.328636211655322,-0.06937300000000002,0.124733,-0.862953,0.251205,-0.286342,-0.707527,0.32057800000000003,0.411075,0.15542599999999995,0.8594789678092711,0.0,single,-0.707527
156,1.3,jog,-1.2730109204368025,0.9690387615504449,-0.5643825753030037,1.5688234933077017,0.7546555393224714,-0.8238252777683477,-0.031441257650303596,0.04464178567142576,-0.06876275051001886,-2.7502700108003832,1.8403936157445995,0.27973118924756496,1.1192238773768528,-4.824252887160102,-3.276796047725395,0.5755242267631574,3.629297681419807,0.7189810594513392,-7.224914914667011,16.139456141459814,-14.510591493649956,-0.05902699999999994,0.11703,-0.858823,0.23889500000000008,-0.279081,-0.700493,0.297922,0.396111,0.15832999999999997,0.853657958039418,0.0,single,-0.700493
157,1.308333,jog,-1.2604104164166596,0.9347173886955552,-0.5249009960398451,1.1735294331943913,0.39291113537335964,-0.8725784080917118,-0.05136205448217783,0.02724108964358659,-0.0686427457098294,-2.8930757230289497,1.9523580943237882,0.22344893795752066,1.512120967255852,-4.118729491766469,4.737979030740311,-2.390591243474669,-2.08816705002272,0.014401152068818474,-17.13737096226662,13.436274880497983,-6.754140320418195,-0.048951999999999996,0.10946800000000001,-0.855021,0.22529,-0.270601,-0.694257,0.274242,0.380069,0.16076400000000002,0.8500744245357381,0.0,single,-0.694257
158,1.316667,jog,-1.2423806095512366,0.9450443964482762,-0.522918166546669,1.3059188538720272,0.25324873287849065,-0.8426410237286972,-0.060715142788577224,0.0061195104391642795,-0.041636669066474376,-2.931125509959195,1.996040316774644,0.1143508519318457,2.1634037515506184,1.2391417989825915,0.23792050554068392,-1.1222808143027745,-2.5343867535903706,3.240469959605809,-4.565609182894783,5.24144737831241,-13.090723065235677,-0.03910399999999992,0.10164300000000001,-0.85101,0.21121599999999996,-0.261842,-0.6889460000000001,0.2503199999999999,0.363485,0.16206399999999999,0.876876426316175,0.0,single,-0.6889460000000001
159,1.325,jog,-1.2808112324493015,0.9359174366974765,-0.45397815912638023,0.8719495302571582,-0.33724943650227107,-0.7248158256010815,-0.03576143045722107,-0.010320412816513084,-0.03264130565222655,-3.0765630625225184,2.077883115324635,0.055082203288130495,-4.611859222136712,-1.095278981255223,8.273131815707357,2.9945652623732606,-1.9728697054695203,1.0794867891813158,-17.453204435776392,9.821528687146495,-7.112522338139415,-0.028729000000000005,0.09375800000000001,-0.847499,0.19625199999999998,-0.25232599999999994,-0.684704,0.224981,0.34608399999999995,0.16279500000000002,0.9174899726004304,0.0,single,-0.684704
160,1.333333,jog,-1.2900516020640644,0.9697587903515976,-0.3855754230169032,0.6725103519744109,-0.11764592985904901,-0.610714505650765,-0.019680787231495276,-0.003840153606144688,-0.03012120484819355,-3.130085203408091,2.1484459378374763,-0.08772350894035388,-1.1088887093199054,4.061124883489802,8.20865667940428,1.929754377262152,0.7776622117326631,0.3024241934516933,-6.4229138228215135,8.46787741663746,-17.137370962256316,-0.01814300000000002,0.085645,-0.8445370000000001,0.18091899999999994,-0.24250399999999997,-0.682222,0.19906199999999996,0.32814899999999997,0.1623150000000001,0.9396913690699386,0.0,single,-0.682222
161,1.341667,jog,-1.2859371250300193,0.9988000959923393,-0.33141348692105765,0.08064008463256848,-0.34673376866126276,-0.6528442956212192,-0.007199424046070329,-0.0025197984161259472,-0.021838252939764595,-3.156227501799902,2.3060955123590534,-0.1684665226781909,0.4936977482655608,3.4846779026568577,6.498912418508105,1.4976437707493622,0.1584299484063794,0.9938747190339706,-3.1368248610284883,18.916435627739396,-9.688386577614416,-0.007485999999999993,0.07730000000000001,-0.841957,0.16533200000000003,-0.23160899999999998,-0.680864,0.17281800000000003,0.308909,0.16109299999999993,0.9614466321504931,0.0,single,-0.680864
162,1.35,jog,-1.2407296291851442,1.00696027841112,-0.3355334213368501,0.18416938865633445,0.04193557900305281,-0.7389710734315833,-0.006840273610941167,0.0,-0.026401056042241817,-3.1599663986558935,2.3350534021360416,-0.3019320772830849,5.425116506045166,0.9792610606960939,-0.4944119063713399,0.04309977620654703,0.30238790545132643,-0.5475582746282421,-0.4486855701417768,3.4750857766695913,-16.016507212875517,0.0027960000000000207,0.068909,-0.8393809999999999,0.149339,-0.22054200000000002,-0.680584,0.14654299999999998,0.289451,0.15879699999999997,0.9545453491189622,0.0,single,-0.680584
163,1.358333,jog,-1.2359294371775054,0.996879875195018,-0.3014520580823211,-0.18147834555528986,0.5623980207896865,-0.6225520391047111,-0.03792151686067273,-0.01764070562822628,0.023520940837633928,-3.3026521060842757,2.341173646945899,-0.35989439577583454,0.5760460827599735,-1.209696773803208,4.08992718763102,-3.7298983859032577,-2.1169693541613395,5.990879260755574,-17.122969810198438,0.7344587555331161,-6.955756449387995,0.012779000000000096,0.06045499999999998,-0.836673,0.13211700000000004,-0.20934000000000003,-0.681071,0.11933799999999994,0.269795,0.15560200000000002,0.9200265565959637,0.0,single,-0.681071
164,1.366667,jog,-1.2974562035037052,1.01811855051595,-0.2497000239980782,-0.15780371476288088,-0.310045403831774,-0.6059068236882617,0.004319654427636754,0.03239740820734393,0.024958003359731012,-3.3123350131989175,2.5339572834173105,-0.4800815934725191,-7.382621349435965,2.548437163538743,6.2097473103242775,5.068535071791356,6.004093332801754,0.17243370795501234,-1.161855905284586,23.132185801705067,-14.421310018800535,0.023627999999999982,0.052239999999999995,-0.834384,0.11532500000000001,-0.196707,-0.682991,0.09169700000000003,0.24894699999999997,0.151393,0.9314606073400158,0.0,single,-0.682991
165,1.375,jog,-1.2977319092763817,0.9672386895475905,-0.2158886355454232,-0.058042096701741236,-0.33180181519260155,-0.648341652253079,0.01680067202688471,-0.012960518420736587,-0.026761070442818075,-3.3608544341773947,2.519380775231034,-0.5823832953318181,-0.03308601616183263,-6.105827549305168,4.057528915475255,1.4977820231906958,-5.443168922126597,-6.206537117790659,-5.822563419954111,-1.7492509523912962,-12.276695290927629,0.034582,0.044072,-0.832808,0.09813300000000003,-0.18377299999999996,-0.686045,0.06355100000000002,0.22784499999999996,0.14676299999999998,0.9430791848867933,0.0,single,-0.686045
166,1.383333,jog,-1.2425297011880558,0.9913596543861833,-0.05268210728428792,0.04766625572140531,-0.8546051431914553,-1.0756027415573757,-0.014400576023042132,-0.01812072482899313,-0.0009600384015361976,-3.386055442217722,2.656786271450878,-0.6711868474739069,6.624529951797237,2.8946315658938016,19.585566814008974,-3.744299537972774,-0.6192495389723496,3.096247694861648,-3.0242419345166605,16.48931911914621,-10.656852531152,0.04481599999999997,0.03566000000000001,-0.832377,0.08027099999999998,-0.16989500000000002,-0.6911990000000001,0.035455000000000014,0.20555500000000002,0.14117799999999991,0.9613901663412627,0.0,single,-0.6911990000000001
167,1.391667,jog,-1.3172546196304247,0.9872810175185925,-0.06407487401008284,-0.2653520799474231,-0.057856687514882946,-0.8955047810178186,-0.013798896088309977,-0.017518598512119767,0.0022798176145914302,-3.4488840892728274,2.615550755939503,-0.7491000719942346,-8.966272911251291,-0.4893972723291061,-1.3670226452837575,0.07219581650253788,0.07224937807455696,0.38875162180556794,-7.538834539849427,-4.947866032082429,-9.348839035316423,0.055679000000000034,0.02728599999999999,-0.831824,0.06250600000000006,-0.15632500000000005,-0.6969080000000001,0.0068270000000000275,0.18361100000000002,0.13491599999999992,0.9626388349485495,0.0,single,-0.6969080000000001
168,1.4,jog,-1.2456498259930444,0.9853594143765836,-0.11640465618625168,-0.10130695347514966,2.2321776072919555,-1.0259569594969034,-0.05436217448698438,0.0074402976119053235,-0.03276131045241869,-3.435977439097594,2.645505820232838,-0.7963518540741673,8.59291895324384,-0.23060160110512082,-6.279825054142483,-4.867788119365748,2.9951873423767332,-4.20510357218414,1.5488599754270262,3.5947515052604766,-5.670440667218671,0.06560599999999994,0.019137,-0.831127,0.044254000000000016,-0.14249099999999998,-0.702574,0.021351999999999927,0.161628,0.12855299999999992,0.893490904065182,0.0,single,-0.702574
169,1.408333,jog,-1.345973838953535,0.9723988959558211,-0.007440297611905125,-0.8218289899625151,-1.5572526406192988,-0.9360484017601313,-0.0030001200047931474,-0.027481099243970113,0.05328213128525047,-3.466578663146478,2.6961478459137878,-0.8472338893555607,-12.039363129783846,-1.555324423468413,13.076246078764509,6.163693085586264,-4.190735252115063,10.325626033561461,-3.6722937776170927,6.07728617316078,-6.106088477306187,0.076797,0.010804999999999995,-0.8306209999999999,0.026582999999999912,-0.128127,-0.709572,0.05021400000000009,0.138932,0.12104899999999996,0.8999556063817616,0.0,single,-0.709572
170,1.416667,jog,-1.351571874250092,1.020878329733641,0.017878569714431074,-0.4283458895197374,-1.02360492605431,-1.0285422945020664,-0.02567794576434504,-0.04331653467722667,0.1504679625629976,-3.528557715382832,2.876649868010613,-0.7751379889608971,-0.6717104987469533,5.817066688003463,3.0380210374774035,-2.7211214014341643,-1.9001002439713048,11.661366843982359,-7.436891317057246,21.658509970821797,8.65081598208122,0.08784700000000001,0.0019359999999999933,-0.829516,0.008440000000000003,-0.11266100000000001,-0.7161810000000001,0.079407,0.114597,0.11333499999999996,0.7355493806178359,0.0,single,-0.7161810000000001
171,1.425,jog,-1.4024960998439695,1.0472818912756325,0.1944077763110436,-0.08805059328275132,0.02718683646696079,-0.814353253050284,-0.05976239049561859,0.0003600144005763768,-0.06456258250329862,-3.703708148325865,2.6489859594383325,-0.8841953678146988,-6.111151517325892,3.168554127204016,21.18435216567976,-4.09029697963194,5.24139554515808,-25.80469759585893,-21.018892708871988,-27.32076185914757,-13.087408958814319,0.09903600000000001,-0.006788000000000002,-0.831674,-0.010735999999999968,-0.099314,-0.725169,0.10977199999999998,0.092526,0.10650500000000007,0.8533712171311638,0.0,single,-0.725169
172,1.433333,jog,-1.4039361574463125,1.0272410896435948,0.1176047041881663,-0.43985185023846396,-0.37694936106226956,-0.6443114128152914,0.0043201728069166365,-0.04392175687027584,-0.021720868834753663,-3.7365894635785737,2.8540741629665445,-0.7826713068522813,-0.17281382483415536,-2.404992395540367,-9.21673732423833,7.690215204912494,-5.314025113506855,5.141211288676989,-3.9459156669517395,24.61156888614111,12.183374650476232,0.11077100000000006,-0.015714000000000006,-0.832835,-0.030173999999999923,-0.084091,-0.732671,0.140945,0.068377,0.10016400000000003,0.9180179429761572,0.0,single,-0.732671
173,1.441667,jog,-1.4042476601871765,1.1139908807295331,0.012359011279093286,-0.5446130931968884,-0.37546892630173023,-0.8177476219864364,-0.028557715382777737,-0.0015598752099830842,0.041636669066474376,-3.7940964722821997,2.813894888408906,-0.7426205903527662,-0.03737733871658243,10.4091421989366,-12.628472871258964,-3.945030980284872,5.083019157702475,7.602296364438152,-6.900289021313364,-4.821127256736055,4.8057015238198675,0.12223600000000001,-0.025011000000000005,-0.832591,-0.050091,-0.069924,-0.7389629999999999,0.172327,0.044912999999999995,0.09362800000000004,0.9158112482852179,0.0,single,-0.7389629999999999
174,1.45,jog,-1.5253810152406135,1.0499219968798847,0.6176647065882707,-0.6805779632228819,1.0101280081914479,-0.05743784754967126,-0.05532221288850809,-0.012840513620544457,0.1150846033841366,-3.840753630145235,2.927037081483286,-0.8054722188887624,-14.536584069775367,-7.688573604902071,72.63958902066277,-3.211868175414688,-1.3537307584977172,8.814104682306839,-5.599082906880557,13.577606273176638,-7.542497124204586,0.134486,-0.033867,-0.8367789999999999,-0.06938500000000003,-0.054282000000000004,-0.750822,0.20387100000000002,0.020415000000000003,0.08595699999999995,0.7861082051531869,0.0,single,-0.750822
175,1.458333,jog,-1.5804632185287153,1.1164046561862278,0.5168606744269754,-0.35597599137696995,1.3275610678162295,-0.33089856591009226,-0.09120364814592219,0.013440537621504744,0.03828153126124976,-3.811592463698476,2.9284771390855133,-0.778471138845541,-6.610128799724085,7.978238246290872,-12.096967738064746,-4.305944468668363,3.1538523031379744,-9.21673732423923,3.4994799528091085,0.17281382482029461,3.2402592155551377,0.14689600000000003,-0.043058,-0.840767,-0.08797699999999997,-0.039181999999999995,-0.7616160000000001,0.234873,0.0038760000000000044,0.07915099999999997,0.8336316910320634,0.0,single,-0.7616160000000001
176,1.466667,jog,-1.585073194144505,1.1028317734581445,0.6244300455963625,-0.7306701319756946,1.8114057570538333,0.14066858974008764,-0.05591552675786973,-0.03167746580273643,0.1923446124310092,-3.8342932565395578,2.9671226301896403,-0.7229421646268422,-0.5531528216690526,-1.628615638118967,12.907291956970145,4.234235827700159,-5.413727312724026,18.48609085310324,-2.723877230751386,4.637087965458087,6.662943870734316,0.15964,-0.052513000000000004,-0.844368,-0.10672199999999998,-0.023645000000000003,-0.772845,0.266362,0.028867999999999998,0.071523,0.6620056792738443,0.0,single,-0.772845
177,1.475,jog,-1.5142205688227153,1.1303252130085006,0.4244569782791252,-2.0655460773164847,0.19056624002350456,0.12202523828604352,-0.07368294731789184,-0.03516140645625783,0.10884435377414883,-3.8834753390134895,2.8435137405495725,-0.820832833313318,8.502655144820423,3.299344719831468,-23.99772798718754,-2.1321757542327844,-0.41808960200664114,-10.020431856097312,-5.902085980310918,-14.833660103212003,-11.747350136382343,0.1716439999999999,-0.062225,-0.846998,-0.12646500000000005,-0.009369000000000002,-0.783222,0.29810899999999996,0.052856,0.06377600000000005,0.7732316736675373,0.0,single,-0.783222
178,1.483333,jog,-1.6038641545662058,1.1993279731189357,0.15444617784710654,-1.4523688538245414,-2.5300225121923963,-0.03248709944901615,-0.06324252970118192,0.0025201008040330393,0.2058082323292952,-3.8463938557542616,2.9282371294852063,-0.7971918876755155,-10.757660595642786,8.280662439749872,-32.40259215552875,1.2529002300144017,4.521961749704934,11.636130871852545,4.449955989346961,10.167213360810582,2.8370269576146305,0.18448200000000003,-0.072198,-0.8465699999999999,-0.14515199999999995,0.005038,-0.791152,0.329634,0.077236,0.05541799999999997,0.6411321933048926,0.0,single,-0.791152
179,1.491667,jog,-1.5656347492200442,1.0727141828653626,0.43256539476842487,-1.1515874772069619,0.30797699028780173,0.2909980078589327,-0.08663306935445103,0.023038156947443756,0.2458603311735045,-3.8418526517878333,3.0563954883609075,-0.5873530117590544,4.587161668605868,-15.192439435273835,33.37163629965398,-2.8066402271740976,2.461969779626897,4.805867391913726,0.5449008839006821,15.37777284325656,25.17865081790971,0.19680799999999998,-0.08094599999999999,-0.848126,-0.16412200000000005,0.02157,-0.799652,0.36093000000000003,0.102516,0.04847400000000002,0.5638446128510648,0.015260000000000051,single,-0.799652
180,1.5,jog,-1.6877475099004207,1.1723268930757338,0.4980199207968349,-1.2134698187118287,-1.0921274843062658,0.22371904792724848,-0.09084363374535157,0.04008160326413105,0.3333733349333999,-4.045481819272807,2.9679587183487617,-0.4806192247689945,-14.654117446343163,11.95400338538007,7.854857317701981,-0.5052879384256057,2.045295369817287,10.501980530408757,-24.43647755729931,-10.612836914934189,12.808566781478566,0.21011500000000005,-0.09038099999999999,-0.849498,-0.18376899999999996,0.036533,-0.807807,0.393884,0.126914,0.04169099999999992,0.5,0.08308999999999994,flight,-0.807807
181,1.508333,jog,-1.7321492859714482,1.1716068642745818,0.46081843273730827,-0.7914554220276331,-0.49875591411127657,0.09961899657274804,-0.123844953798157,0.1246849873994969,0.33097323892956065,-4.069842793711786,2.895475819032787,-0.40441617664706936,-5.328426265573981,-0.08640691241473279,-4.464357141428891,-3.9603168190094493,10.152812208732346,-0.2880230413823649,-2.923433870032308,-8.69829584975101,9.144731563893655,0.22351699999999997,-0.099105,-0.85058,-0.203249,0.050898,-0.815017,0.426766,0.150003,0.03556300000000001,0.5,0.14437,flight,-0.815017
182,1.516667,jog,-1.693544516438667,1.154787616990632,0.6603071754259652,-0.9408698113020417,-1.1415573640043244,0.09645394500187952,-0.13054955603551352,0.12754979601631705,0.4041276697864135,-4.101151907847343,2.926805855531535,-0.29409647228221625,4.632201767792278,-2.0181482222161953,23.936734183903933,-0.8044879094500195,0.3437495340556906,8.77782947646416,-3.7567931528146175,3.7593036355588456,13.237305539339125,0.23654299999999995,-0.10766600000000001,-0.852715,-0.22331400000000007,0.065666,-0.822971,0.459857,0.17333199999999999,0.029743999999999993,0.5,0.20256000000000002,flight,-0.822971
183,1.525,jog,-1.791911676467082,1.2778111124445093,0.468018720748836,-0.8351247594107271,0.31220868483334213,-0.018289948299172753,-0.12756510260410966,0.16848673946958062,0.4459378375135051,-3.9671186847474234,2.742469698787976,-0.28825153006120524,-11.804531384665275,14.763409990865053,-23.075537582759022,0.3581487377179746,4.9126297195804565,5.017420824083997,16.084630157196774,-22.121223658173566,0.701421123366262,0.25041199999999997,-0.11691,-0.8528990000000001,-0.24144,0.077871,-0.829273,0.49185199999999996,0.19478099999999998,0.023626000000000036,0.5,0.2637400000000001,flight,-0.829273
184,1.533333,jog,-1.781591263650518,1.100444017760691,0.6781471258850189,1.07747407783274,-0.08698474881551573,-0.2712967564176951,-0.16116644665786148,0.19680787231488947,0.540261610464409,-3.8906756270250167,2.7915516620664342,-0.16680667226688803,1.2384990779507679,-21.284902758168162,25.21641727303243,-4.0323225793533215,3.398671888312535,11.319305526329329,9.173533868043362,5.890071196262713,14.573965893953568,0.263915,-0.12444,-0.854048,-0.259015,0.091963,-0.836314,0.52293,0.216403,0.017734000000000028,0.5,0.32266000000000006,flight,-0.836314
185,1.541667,jog,-1.8797696184305561,1.1730261579073906,0.5211183105351654,-0.7051126833890089,-0.7529283254188156,-0.1348875962384164,-0.207343412526996,0.20878329733621606,0.5481161507079533,-3.8696904247660857,2.45380369570439,-0.04535637149028037,-11.780460136793854,8.709160084797348,-18.841950485943897,-5.540792640884978,1.4369360476754043,0.9424694316707957,2.5180228292454245,-40.526513842338716,14.57287026357211,0.277853,-0.132476,-0.853823,-0.275599,0.10263699999999999,-0.841035,0.553452,0.23511300000000002,0.012788000000000022,0.5,0.3721199999999999,flight,-0.841035
186,1.55,jog,-1.8545541821672504,1.1573262930517019,0.5723028921156774,0.1824534290647656,-0.5496913203785865,-0.11025615767390828,-0.2706108244329734,0.29701188047521443,0.6139445577823017,-3.650066002640048,2.4526581063242117,0.17244689787591128,3.025973390532251,-1.884059145048419,6.142395485480749,-7.5923931244421325,10.587853490819251,7.899724837915192,26.355984894519846,-0.13747622467036472,26.1374378214554,0.291052,-0.13964500000000002,-0.853476,-0.29056100000000007,0.113431,-0.844367,0.581613,0.253076,0.009109000000000034,0.5,0.4089100000000001,flight,-0.844367
187,1.558333,jog,-1.8649945997840116,1.1680067202688205,0.48793951758070936,0.0571972157196845,-0.35199866195625845,-0.1466991754437343,-0.25189007560303517,0.3356534261370487,0.6264250570022845,-3.388455538221558,2.372134885395435,0.35257410296412134,-1.2529002300205536,1.2817025341556092,-10.124009904592443,2.2465797227815205,4.637170966258803,1.4977198151905493,31.394511510679514,-9.663173038374804,21.616129255755634,0.30449399999999993,-0.146581,-0.852322,-0.303256,0.12346499999999999,-0.845495,0.60775,0.270046,0.0068270000000000275,0.5,0.43173,flight,-0.845495
188,1.566667,jog,-1.8624910007199325,1.1306695464362766,0.5427165826733752,0.5998799514861939,1.4125235424171387,-0.2483076978004055,-0.32469402447803764,0.3741300695944299,0.6580273578113705,-3.062275017998535,2.0728341732661244,0.343532517398606,0.3004078550610913,-4.480102451709094,6.572721993360381,-8.73577500299999,4.616827868656219,3.7919727392711486,39.13853134425489,-35.91321239852513,-1.0849034755837834,0.31731,-0.152886,-0.8513609999999999,-0.31325499999999995,0.13131700000000002,-0.847155,0.6305649999999999,0.284203,0.004205999999999932,0.5,0.45794,flight,-0.847155
189,1.575,jog,-1.8801152046082,1.1466458658346448,0.33037321492860083,-0.08312672364395277,-1.6355257654392097,-0.07923352535181918,-0.5373814952598132,0.37009480379215465,0.6776671066842734,-2.6884675387015733,1.853234129365193,0.3199327973118956,-2.1149890661547612,1.9172350172048884,-25.48222341830989,-25.523517434510676,-0.48425126632368815,2.3568641393139522,44.85869186331037,-26.353059390487623,-2.8320796935930184,0.328499,-0.159357,-0.848467,-0.319991,0.13720500000000002,-0.8472419999999999,0.64849,0.296562,0.0012250000000000316,0.5,0.48774999999999996,flight,-0.8472419999999999
190,1.583333,jog,-1.9216368654745852,1.1926077043081518,0.3326533061322391,0.04698772162106949,-1.8966609204994478,-0.13316085177716738,-0.4616584663386375,0.5089403576142959,0.7621504860194286,-2.3049321972878514,1.6326653066122365,0.27361094443777323,-4.982798615910787,5.515641242470441,0.27362188931215853,9.087126955619144,16.662132943974417,10.138411056660708,46.026082012926345,-26.46931750305444,-5.5588446986825355,0.34066500000000005,-0.165054,-0.844888,-0.323185,0.140872,-0.847734,0.66385,0.30592600000000003,0.002846000000000015,0.47153999999999996,0.5,flight,-0.844888
