frame_id,timestamp,gait_type,root_linear_velocity_x,root_linear_velocity_y,root_linear_velocity_z,root_angular_velocity_x,root_angular_velocity_y,root_angular_velocity_z,left_linear_velocity_x,left_linear_velocity_y,left_linear_velocity_z,right_linear_velocity_x,right_linear_velocity_y,right_linear_velocity_z,root_acceleration_x,root_acceleration_y,root_acceleration_z,left_acceleration_x,left_acceleration_y,left_acceleration_z,right_acceleration_x,right_acceleration_y,right_acceleration_z,left_pos_rel_x,left_pos_rel_y,left_pos_rel_z,right_pos_rel_x,right_pos_rel_y,right_pos_rel_z,step_length,step_width,step_height,left_contact_prob,right_contact_prob,support_type,max_foot_height
1,0.008333,jog,0.09228369134765627,0.045601824072968554,-0.018120724828994628,-0.0654657484368334,-0.00529058505573834,-0.18347630831010853,-0.002400096003855877,-0.013440537621504978,0.008280331213248483,-0.020040801632068672,0.0351614064562701,-0.010560422416896828,0.0,0.0,0.0,0.0,0.0,0.0,0.0,0.0,0.0,0.03020899999999993,0.006073999999999913,-0.904216,-0.10236099999999992,0.164061,-0.895794,0.13256999999999985,0.1579870000000001,0.00842200000000004,0.9733869081202549,0.8460686754843341,double,-0.895794
2,0.016667,jog,0.13294936405088897,0.057835373170144276,-0.010559155267589153,-0.157098179259381,0.07484774567134643,-0.1605992693370935,-0.002519798416105917,-0.01715862730981572,0.007919366450683954,-0.01883849292056188,0.02963762898968049,-0.013798896088312996,4.879490365158712,1.4679084589843676,0.9073157621076883,-0.014363140418771276,-0.4461350717915457,-0.043312306523221614,0.14426550414048397,-0.6628002719689953,-0.3885857537096433,0.029079999999999995,0.005448999999999926,-0.9040619999999999,-0.103626,0.16382600000000003,-0.895821,0.132706,0.1583770000000001,0.008240999999999943,0.9682245622376872,0.8547036960480779,double,-0.895821
3,0.025,jog,0.10308412336492777,0.07176287051481908,0.02976119044762102,-0.20480818929690686,0.27969875764495444,-0.11977909697127431,-0.011520460818444258,-0.007680307212282849,0.012960518420736884,-0.02676107044282782,0.024840993639740454,-0.007920316812672518,-3.583972241204993,1.6713665360224177,4.83863503122647,-1.0801226931883285,1.137443909460323,0.6049624349037477,-0.9507473325652157,-0.5756192667634749,0.7054577313861128,0.028124999999999956,0.004786999999999986,-0.904202,-0.10470800000000002,0.163435,-0.896135,0.13283299999999998,0.158648,0.008066999999999935,0.9683911416214355,0.8570590580815328,double,-0.896135
4,0.033333,jog,0.10188407536299983,0.07644305772230874,0.003600144005757169,-0.1465134411430369,0.22899720771546378,-0.2655019750023183,-0.007440297611905255,-0.016080643225725125,0.012720508820352628,-0.011640465618626394,0.01548061922477448,-0.017520700828033156,-0.14401152069218037,0.5616449306959862,-3.139451151069705,0.48963917035149446,-1.0080806448388666,-0.028802304138276197,1.8145451607105996,-1.1232898613903726,-1.1520921655298977,0.02721400000000007,0.0040160000000000196,-0.904126,-0.10565399999999991,0.16292700000000004,-0.896311,0.13286799999999999,0.15891100000000002,0.007815000000000016,0.9636469296820348,0.8783207962363733,double,-0.896311
5,0.041667,jog,0.10415166786658157,0.05819534437244512,-0.006719462442997958,-0.17042484048914291,0.04466353351248409,-0.015455155581533419,-0.02939764818815103,-0.03839692824573877,-0.007799376049915896,-0.015118790496768716,0.009479241660659974,-0.01175905927525808,0.27208933328314666,-2.189550437948598,-1.2382537135535308,-2.634671295445857,-2.677739983202981,-2.462189209295479,-0.4173655961293883,-0.7201076990778144,0.691341678998689,0.02610099999999993,0.003211000000000075,-0.904135,-0.10664800000000008,0.16252100000000003,-0.896353,0.132749,0.15930999999999995,0.007782000000000067,0.9183609556157459,0.8865620689826113,double,-0.896353
6,0.05,jog,0.10560422416896578,0.08124324972999385,0.0002400096003775938,-0.23386501786788247,0.18596949981017596,-0.19584483582423287,-0.0030001200047932,-0.013080523220931926,0.011040441617664506,-0.011640465618626394,0.0004800192007685108,-0.01248049921996879,0.17431372883525845,2.765859277276938,0.8351700520071463,3.167830095206748,3.038090126581885,2.260868554851842,0.41741568200435886,-1.0799498931827027,-0.08657625641554179,0.025195999999999996,0.0024250000000000105,-0.904045,-0.10762500000000008,0.161848,-0.8964589999999999,0.13282100000000008,0.15942299999999998,0.007586000000000093,0.9710367973451389,0.8956846881042118,double,-0.8964589999999999
7,0.058333,jog,0.09228369134765627,0.0937237489499618,0.011640465618626394,-0.2194058759397197,0.1981095123585982,-0.18852858671701722,0.001080043201719157,-0.01692067682708001,0.006600264010560361,-0.007680307212269526,-0.008040321612869225,-0.009600384015360224,-1.5985278796723288,1.4977198151887618,1.3681094465677186,0.4896391703482968,-0.46083686621241876,-0.5328426265575597,0.47523801828355555,-1.0224817969084048,0.3456276496590144,0.024435999999999902,0.001502999999999921,-0.904087,-0.10845799999999994,0.16099999999999992,-0.896636,0.13289399999999985,0.159497,0.007450999999999985,0.9696758584158705,0.9010063737392384,double,-0.896636
8,0.066667,jog,0.11927045836332364,0.06215502759778106,-0.013318934485237847,-0.07084531642398655,-0.02575957975284246,-0.0019427909280671776,-0.007319414446828259,-0.009359251259888584,0.005399568034557223,-0.004439644828421497,-0.009359251259888584,-0.00527957763378958,3.2381529896409136,-3.7879435267795456,-2.9948884213899976,-1.0078542894825313,0.9072984841842364,-0.1440719913610677,0.3888483781915081,-0.15825889693056852,0.5184552893653279,0.023381000000000096,0.0009070000000001022,-0.903931,-0.10948899999999995,0.1604040000000001,-0.896569,0.13287000000000004,0.159497,0.007362000000000091,0.9782485794237878,0.9070021797508174,double,-0.896569
9,0.075,jog,0.09564382575302259,0.09864394575784245,0.018840753630140747,-0.10357843944131027,0.23616500532690593,-0.19384873472103856,-0.005040201608076029,-0.012120484819394916,0.011880475219008993,-0.004800192007685112,-0.014880595223810524,0.0001200048001921278,-2.835309325609153,4.378845333020691,3.8593169465232955,0.2735164813095202,-0.33136128159202377,0.7777399717330824,-0.04326739220732217,-0.6625877791818007,0.6479758111102499,0.022542000000000062,-1.6000000000016e-05,-0.9039889999999999,-0.11032599999999992,0.159458,-0.896725,0.13286799999999999,0.159474,0.007263999999999937,0.9704922102593267,0.9012997941362695,double,-0.896725
10,0.083333,jog,0.11004440177607774,0.10236409456378158,0.007800312012491624,-0.18974960576284958,0.12925130211980887,-0.13841901395340755,-0.016680667226675758,-0.0016800672026964479,0.007200288011520578,-0.0007200288011461039,-0.02220088803552029,-0.004440177607104141,1.7281382482965488,0.44643571414126054,-1.324905990357508,-1.3969117507019944,1.2529002300130154,-0.5616449306958372,0.4896391703514947,-0.8784702762162199,-0.5472437786266969,0.021486000000000116,-0.0008830000000000782,-0.9039940000000001,-0.11124899999999993,0.15842,-0.896827,0.13273500000000005,0.15930300000000008,0.0071670000000000345,0.9695902321804728,0.8905766687186262,double,-0.896827
11,0.091667,jog,0.08819294456442653,0.0825533957283311,0.006239500839925728,-0.0719762980517681,0.14224626776438676,-0.01939381525095131,-0.012598992080636168,0.003839692824577877,0.006239500839932805,0.0002399808015427781,-0.017398608111358512,0.0005999520038394606,-2.6219651081894924,-2.377093692758638,-0.1872823581192581,0.4897618365778249,0.6623182178154942,-0.1152852377715111,0.1151919369677085,0.5762274926999977,0.6047671719394775,0.020646000000000164,-0.001538999999999957,-0.903994,-0.1119819999999998,0.15758700000000003,-0.896874,0.13262799999999997,0.159126,0.007120000000000015,0.9757095575970844,0.8997823283055226,double,-0.896874
12,0.1,jog,0.10272410896438128,0.09516380655226725,0.018120724828994614,-0.21225637614070395,0.3182860546424737,-0.07058296920555053,-0.00684027361094128,0.0012000480019146143,0.004080163206528174,-0.0014400576023188543,-0.002760110404415604,0.010440417616704691,1.7438094803737834,1.5133098312655866,1.425803910844699,0.6910738593177587,-0.3167700495215721,-0.25913088124380523,-0.20161267297031454,1.7566899924328447,1.1809031096682134,0.019733,-0.0023220000000000462,-0.904111,-0.11285000000000012,0.156771,-0.896938,0.13258300000000012,0.15909300000000004,0.007172999999999985,0.9865756036685127,0.9101121814090277,double,-0.896938
13,0.108333,jog,0.12456498259928876,0.0901236049442047,-0.017880715228603725,-0.00022742717310947057,-0.0490833710222546,-0.013900107610778575,-0.0014400576023188567,0.0036001440057704956,0.0027601104044160246,0.003720148805965954,-0.01596063842552968,0.0037201488059522146,2.621009676575963,-0.6048483869029829,-4.320345620736633,0.6480518431084157,0.28802304138436136,-0.1584126727603685,0.6192495389757365,-1.5841267276027944,-0.8064645158709327,0.018683000000000005,-0.003043000000000018,-0.903939,-0.11385699999999987,0.155887,-0.896758,0.13253999999999988,0.15893000000000002,0.007180999999999993,0.9920674698927547,0.9001810236001895,double,-0.896758
14,0.116667,jog,0.084713222942176,0.08867290616749861,0.0011999040076739237,-0.15678808961364063,0.46915757090343163,-0.16968294778713738,-0.005519558435324028,0.006479481641468495,-0.00011999040076805845,0.00755939524837103,-0.011279097672190834,0.005759539236860977,-4.781828612564523,-0.17406992761052162,2.2894911490613903,-0.4895009398854292,0.3454928768536113,-0.3455844498661003,0.460672719271067,0.5617399512045645,0.2447072751270411,0.01793099999999992,-0.0037279999999999536,-0.90395,-0.11450000000000005,0.15505400000000003,-0.89672,0.13243099999999997,0.15878199999999998,0.00723000000000007,0.9858124070870041,0.9031182320814312,double,-0.89672
15,0.125,jog,0.08676347053882512,0.11460458418337213,0.025561022440899906,-0.028307743430212307,0.034703584636357816,-0.12574734235792157,-0.006720268810759157,0.009840393615734494,0.0020400816032640906,0.013080523220918613,-0.010920436817480299,0.007320292811712718,0.2460395531800223,3.111925838938383,2.923451150033122,-0.1440910086925633,0.4033255699347176,0.25921900924422786,0.6625618591800777,0.04304102420623251,0.18729792089904498,0.017151999999999834,-0.004601000000000077,-0.904146,-0.11511400000000016,0.15400799999999992,-0.896872,0.132266,0.158609,0.007274000000000003,0.979850744957979,0.8963505122950006,double,-0.896872
16,0.133333,jog,0.13368534741387691,0.09696387855514584,-0.007800312012478302,-0.057421758066769475,0.07345560387858467,0.009940224330910645,-0.010080403216125395,0.00936037441497929,0.00048001920076809403,0.015720628825165384,-0.004200168006707812,0.012000480019200685,5.630850459024572,-2.1169693541613204,-4.00352027521639,-0.40323225793426565,-0.057604608274955435,-0.1872149768985954,0.31682534552343317,0.8064645158733327,0.5616449306957835,0.015954000000000024,-0.005331000000000086,-0.904077,-0.1160969999999999,0.153165,-0.896707,0.13205099999999992,0.15849600000000008,0.007369999999999988,0.9770591608321307,0.8926023614974108,double,-0.896707
17,0.141667,jog,0.09011279097674225,0.10571154307654328,0.012479001679864798,-0.2329666769705514,0.2873431071145407,-0.13323451836936678,-0.009959203263718911,0.007319414446841598,0.0007199424046079368,0.02171826253899534,-0.024598032157428753,0.004319654427645956,-5.228288509375422,1.049635771705959,2.433322977242998,0.014542830862309153,-0.24489560452816134,0.028788481382270616,0.7196584729817579,-2.447547894254978,-0.9216253409592929,0.015120000000000022,-0.0061510000000000176,-0.9041750000000001,-0.11666700000000008,0.15207900000000008,-0.896775,0.1317870000000001,0.1582300000000001,0.007400000000000073,0.9793657596753832,0.8708384814057413,double,-0.896775
18,0.15,jog,0.10116404656185364,0.11352454098163946,0.006960278411136739,-0.16491833924618174,0.2289643821025161,-0.19599590052745794,-0.007320292811723114,0.004200168006721135,0.0019200768030719598,0.024000960038398873,-0.0019200768030740415,0.015000600024000544,1.3262037183620996,0.9375972525016409,-0.6622732831786937,0.31668192151635605,-0.37432454579628716,0.14402188869123028,0.2739346573147163,2.7214635010626056,1.2817647421522356,0.014216000000000006,-0.007062000000000013,-0.904217,-0.11731000000000003,0.15111700000000006,-0.8967080000000001,0.13152600000000003,0.15817900000000007,0.007508999999999988,0.9855744446415644,0.8776297839479412,double,-0.8967080000000001
19,0.158333,jog,0.13056522260890158,0.08856354254170357,-0.035401416056647664,0.03020872191461885,0.10104819266829827,-0.07399863722022337,-0.009720388815552343,0.0036001440057704896,0.0009600384015361881,0.02496099843993589,0.00048001920076851036,0.021360854434177477,3.5282822569360266,-2.9954396303775197,-5.083606680401339,-0.2880230413811624,-0.07200576034449113,-0.11520921655295463,0.11520921655310427,0.28802304138276125,0.7632610596636179,0.01304700000000003,-0.007769999999999944,-0.903914,-0.11819000000000002,0.15038300000000004,-0.896235,0.13123700000000005,0.158153,0.007678999999999991,0.982649954425274,0.8684487007167139,double,-0.896235
20,0.166667,jog,0.10991120710342164,0.128389728821696,0.013438924886009224,-0.33147012276227616,0.23823005224537092,-0.13603711250811576,-0.00839932805375743,-0.0005999520038436226,0.003119750419966189,0.032037437005041636,-0.0004799616030722338,0.020758339332853298,-2.478283597969752,4.778760052794864,5.860372083352153,0.15851461024656963,-0.5039712034574163,0.2591447106347491,0.8491046994367336,-0.11518848138237861,-0.07229602847662335,0.0120610000000001,-0.008844999999999992,-0.904,-0.11883899999999992,0.14930900000000003,-0.896174,0.13090000000000002,0.15815400000000002,0.007826,0.985033231547819,0.8581105085660763,double,-0.896174
21,0.175,jog,0.04368174726989462,0.08964358574343634,0.019200768030727157,0.05638909972084634,-0.02155626736763991,0.47149087837552583,-0.008640345613833216,-0.00240009600384256,0.005520220808832475,0.03408136325452438,0.001440057602305536,0.027481099243969832,-7.947853094147027,-4.649723158317503,0.6914488353195665,-0.028923264139659944,-0.21602592103671447,0.2880679693827303,0.24528096117637666,0.2304115211061772,0.8067634598723811,0.011624999999999996,-0.009612000000000065,-0.9041140000000001,-0.118919,0.14857399999999998,-0.896105,0.130544,0.15818600000000005,0.008009000000000044,0.982449369199971,0.8469026962778206,double,-0.896105
22,0.183333,jog,0.11700468018722782,0.12408496339853337,0.014400576023041988,-0.27209515127200573,0.3184683564458403,-0.17616494490659035,-0.007560302412087385,-0.004200168006721135,0.007800312012480383,0.03972158886356426,-0.0010800432017324792,0.03000120004800192,8.799103914236545,4.133130643837394,-0.5760460827655304,0.1296103686242446,-0.21601728103667026,0.27362188931332126,0.676854147250675,-0.30242419345229965,0.3024241934515884,0.010586999999999902,-0.010681000000000052,-0.904169,-0.11956300000000009,0.14753099999999997,-0.8959750000000001,0.13015,0.15821200000000002,0.008193999999999924,0.9805889170160916,0.8350766830775294,double,-0.8959750000000001
23,0.191667,jog,0.11471082313414398,0.115430765538759,0.0008399328053730787,-0.006660999888455557,0.0032857006501822517,-0.11890808474584653,-0.008159347252214653,-0.0021598272138183914,0.005159587233021518,0.04307655387568969,-0.0004799616030722338,0.038156947444204704,-0.27524082710389214,-1.0384206695193612,-1.627147014359119,-0.07187963044483651,0.24482130944357347,-0.3168616246050951,0.4025635963673423,0.07200403151670805,0.9786113986324425,0.009562999999999988,-0.011661000000000032,-0.9041330000000001,-0.12016000000000004,0.14656499999999995,-0.895664,0.12972300000000003,0.15822599999999998,0.00846900000000006,0.9835125349304614,0.819396663897885,double,-0.895664
24,0.2,jog,0.15228609144365338,0.11484459378374953,0.0021600864034516352,-0.10929058412161179,0.10005204909020524,-0.10761774338360361,-0.007680307212296166,-0.003840153606148083,0.004920196807872235,0.0494419776791166,-0.008760350414015322,0.033361334453377745,4.509212565643749,-0.07034342433810963,0.15842476876017705,0.05748710427438936,-0.20164723296888157,-0.02872800013791944,0.7638814116676953,-0.9936864047693605,-0.5754965787623851,0.00822999999999996,-0.01265000000000005,-0.90411,-0.12101699999999993,0.14553499999999997,-0.895404,0.1292469999999999,0.15818500000000002,0.008705999999999992,0.983505705092176,0.8124656869102476,double,-0.895404
25,0.208333,jog,0.14748589943596876,0.12480499219967989,0.017400696027848567,-0.17058797369452747,0.3097297973849908,-0.13974895165309023,-0.006840273610941304,-0.003840153606148096,0.0052802112084482196,0.05268210728427424,-0.023280931237252847,0.04044161766470675,-0.5760460827654654,1.195295621736515,1.8289463127801475,0.10080806448516312,-1.5613135809223672e-15,0.04320345620736653,0.38883110586315234,-1.7425394003645218,0.8496679720783655,0.006944000000000061,-0.013722000000000012,-0.9042110000000001,-0.121807,0.144301,-0.895212,0.12875100000000006,0.15802300000000002,0.00899900000000009,0.984239927982647,0.7927148993809512,double,-0.895212
26,0.216667,jog,0.15286777057835327,0.12287017038637196,0.0011999040076739237,-0.03434317940571066,0.010263161824674925,-0.11788285937917903,-0.0038396928245778704,-0.004919606431480405,0.0027597792176628465,0.05075593952484543,-0.009239260859130509,0.05459563234941206,0.6457728752561193,-0.23216004479336722,-1.943939527258775,0.36004089109232423,-0.12952397712170724,-0.30242764468266986,-0.23112164140014507,1.684865656122189,1.6983458944930765,0.005638000000000032,-0.014786999999999995,-0.9041980000000001,-0.12265799999999993,0.1432,-0.894767,0.12829599999999997,0.157987,0.009431000000000078,0.9886272560530278,0.7804988970823561,double,-0.894767
27,0.225,jog,0.14040561622466272,0.12636505460218045,0.01596063842554298,-0.17682889308869648,0.21921185787491426,-0.12099294715381871,-0.01680067202688454,0.004080163206525676,0.003720148805952208,0.049201968078725684,0.004320172806916593,0.06696267850714016,-1.4955183431765922,0.4194028820122984,1.7713589845036652,-1.5553797194655776,1.0800155571830161,0.11524896055314543,-0.18648403289568524,1.6271971278107633,1.4841049031234959,0.0043279999999998875,-0.015805999999999987,-0.9043000000000001,-0.12341800000000003,0.14218300000000006,-0.8943420000000001,0.12774599999999992,0.15798900000000005,0.009958000000000022,0.9705254431997672,0.7617407350599535,double,-0.8943420000000001
28,0.233333,jog,0.1702868114724392,0.11664466578664144,-0.01716068642745759,0.09619665944604022,0.07614159621847262,-0.07633333479281734,-0.007800312012478302,-0.002520100804024687,0.005760230409216295,0.05976239049560626,-0.00684027361094128,0.06360254410176393,3.5858868652077844,-1.166493317597384,-3.9747179710789076,1.080086405184955,-0.7920633638005949,0.24481958517509725,1.2673013820809516,-1.339307142428641,-0.4032322579354651,0.0028440000000000687,-0.01679900000000001,-0.904109,-0.12433899999999998,0.141154,-0.893669,0.12718300000000005,0.157953,0.010440000000000005,0.9833020269092889,0.7496965285136294,double,-0.893669
29,0.241667,jog,0.16582673386129082,0.12526997840172022,0.006719462442997974,0.0027581777675381282,0.11797183705076791,-0.046459127393202536,0.0020398368130470092,-0.009599232061444708,0.005159587233021118,0.06647468202545798,-0.007199424046083531,0.06743460523158164,-0.5351665000178065,1.034954717432061,2.8653886333640055,1.1807234011909449,-0.8494277966666712,-0.072071415430187,0.8054105507381485,-0.04309460464869835,0.45981055073406757,0.001479000000000008,-0.017923000000000022,-0.904122,-0.1251669999999998,0.14005,-0.893163,0.12664599999999981,0.15797300000000003,0.010958999999999941,0.9815212185640692,0.7321368444207896,double,-0.893163
30,0.25,jog,0.1590063602544125,0.13368534741390356,0.009120364814588375,-0.1309454488517895,0.3362434212840954,-0.17117604298527775,0.0009600384015370207,-0.00792031681267376,0.007560302412096544,0.07056282251287777,-0.018360734429372205,0.07608304332173312,-0.8184775719282744,1.0098846768490743,0.2881198093832232,-0.12958099262090333,0.20147788896807228,0.2880973453828662,0.49059648234966824,-1.3394108224275367,1.0378540849815758,0.00016199999999999548,-0.019103000000000092,-0.9041349999999999,-0.12590400000000002,0.138783,-0.892605,0.126066,0.15788600000000008,0.01152999999999993,0.9816809703747487,0.7090673501399825,double,-0.892605
31,0.258333,jog,0.16908676347053847,0.13080523220927961,-0.0007200288011461063,-0.08312363203993692,0.20137957574081577,-0.04075173127934663,-0.004320172806903284,-0.0030001200047932073,0.0040801632065286045,0.0811232449298119,-0.01536061442457906,0.08640345613824556,1.209696773806071,-0.34562764966086074,-1.1808944696669275,-0.6336506910404798,0.5904472348350611,-0.41763341000455395,1.2673013820873835,0.36002880172724744,1.238499077944614,-0.001282999999999923,-0.020217999999999958,-0.904095,-0.1266369999999999,0.13756500000000005,-0.891879,0.12535399999999997,0.157783,0.012216000000000005,0.9889054136178724,0.6786577371791482,double,-0.891879
32,0.266667,jog,0.1837053035757343,0.12215022798177026,-0.006119510439167651,0.1309165249389277,0.08440990084051447,-0.014011258430036793,-0.006359491240710428,0.0002399808015294561,0.0032397408207342476,0.0903527717782581,-0.02903767698583684,0.1058315334773214,1.7540844858646296,-1.0385174259070487,-0.6478859656853299,-0.24469863616596374,0.3887809942791769,-0.10084261888581186,1.1074546254435063,-1.641116218053488,2.331182786066213,-0.002867000000000175,-0.021234000000000086,-0.904017,-0.12741500000000006,0.136305,-0.890946,0.12454799999999988,0.1575390000000001,0.013070999999999944,0.9880980113459852,0.6323703961320002,double,-0.890946
33,0.275,jog,0.16236649465977823,0.15660626425056945,0.008640345613819834,-0.15624060032990242,0.28403601552026575,-0.12928019297034407,-0.00588023520940424,-0.0006000240009506435,0.0018000720028798262,0.10812432497300335,-0.021840873634947165,0.10404416176647102,-2.56075950029473,4.134889747845799,1.7712535765015507,0.05751302427771349,-0.10080460848195082,-0.17276716882928303,2.1326716902370313,0.8636509481446834,-0.21449318502944523,-0.004269000000000078,-0.02254400000000001,-0.9040739999999999,-0.12786699999999995,0.134818,-0.8901509999999999,0.12359799999999987,0.157362,0.013923000000000019,0.9897020155511455,0.6080455067838311,double,-0.8901509999999999
34,0.283333,jog,0.19200768030721826,0.1362054482179287,0.014400576023042035,-0.0869892720992699,0.01566300903765712,-0.006513380251301775,-0.004680187207476338,-0.0006000240009639708,0.003360134405376253,0.1303252130085111,-0.002520100804038019,0.1196447857914317,3.5570845610752557,-2.448195851750965,0.6912552993186386,0.14401152069217626,-1.5993315666178268e-12,0.1872149768986476,2.6642131327862484,2.3185854831284285,1.8721497689860456,-0.005908000000000024,-0.02368400000000004,-0.9041659999999999,-0.12838100000000008,0.13366199999999995,-0.8892739999999999,0.12247300000000005,0.15734599999999999,0.014892000000000016,0.9903455991150623,0.5561888391887709,double,-0.8892739999999999
35,0.291667,jog,0.2085433165346791,0.11435085193184313,-0.010319174466033044,-0.031097073919073927,0.3027919171427889,-0.13292295439624818,-0.0043196544276634255,-0.004079673626107326,0.004199664026877882,0.1426685865130916,-0.005759539236853484,0.13426925845932336,1.984117617885869,-2.6223417669889075,-2.966132768067561,0.043260472739730264,-0.41752455305295805,0.10073549574053621,1.481086333642968,-0.3887015158165901,1.754796336440082,-0.007682000000000189,-0.024671,-0.904045,-0.12893,0.13266100000000003,-0.888069,0.1212479999999998,0.15733200000000003,0.01597599999999999,0.9878733157860856,0.5135744743341315,double,-0.888069
36,0.3,jog,0.1982479299171956,0.11388455538221288,-0.01776071042842162,0.17777050022249644,0.11823151450026761,0.0023579276621727065,-0.005640225609013362,-0.001920076803074048,0.005400216008640347,0.15972638905555914,-0.014760590423628412,0.13284531381255246,-1.2354958139305834,-0.05595782426860076,-0.8930200362880829,-0.15847488075722305,0.2591619852434038,0.14407200069152382,2.047018185823541,-1.0801693491869615,-0.1708801928202209,-0.009381000000000084,-0.025635999999999992,-0.903852,-0.129251,0.13158899999999996,-0.886814,0.11986999999999992,0.15722499999999995,0.017037999999999998,0.98659797146467,0.48249581555996457,single,-0.886814
37,0.308333,jog,0.17976719068762667,0.1664466578663172,0.005640225609026647,-0.1764664420270017,0.21920093499712032,-0.15285606054964837,-0.004680187207476307,-0.003000120004806511,0.0020400816032640806,0.1851674066962491,-0.010200408016320819,0.1414856594263764,-2.2177774186450065,6.307704606276744,2.8082246534799196,0.11520921655310827,-0.12961036862263992,-0.40323225793546774,3.053044238652328,0.5472437786280541,1.0368829489768263,-0.010917999999999983,-0.027048000000000072,-0.9038820000000001,-0.12920600000000015,0.13011699999999993,-0.885682,0.11828800000000017,0.157165,0.018200000000000105,0.9901304613852857,0.4292369736029197,single,-0.885682
38,0.316667,jog,0.2039836813055009,0.14194864410846422,-0.006359491240697149,0.024998757201465834,0.10532259147178091,0.009365453647130522,-0.005999520038409623,-0.0002399808015294577,0.00371970242380609,0.20578353731703178,-0.05123590112790468,0.12790976721862293,2.90574641443177,-2.9395264888232693,-1.4398508339001517,-0.15830727512998846,0.33119020917651415,0.20153837539501068,2.4737377754718985,-4.923865264168958,-1.628976746790681,-0.012668000000000124,-0.028232999999999953,-0.9037980000000001,-0.12919100000000006,0.12850700000000004,-0.8845630000000001,0.11652299999999993,0.15674,0.019235000000000002,0.9882280916304428,0.3948920323636618,single,-0.8845630000000001
39,0.325,jog,0.21504860194405212,0.15024600984039668,0.002520100804024679,-0.08885248593356426,0.3228243398184176,-0.05597028592595231,-0.005280211208440274,-0.0006000240009639668,0.006600264010560751,0.21780871234848104,0.0006000240009639668,0.1546861874474979,1.3278435903697554,0.9957237167805623,1.0655936691133794,0.08632051241681825,-0.04320691220862925,0.34568121765926424,1.443078726922982,6.220559837857726,3.21329895942336,-0.01450399999999985,-0.029490000000000016,-0.903764,-0.12916799999999995,0.12726000000000004,-0.8832949999999999,0.1146640000000001,0.15675000000000006,0.02046900000000007,0.9858771123293728,0.3500609692107761,single,-0.8832949999999999
40,0.333333,jog,0.20604824192970056,0.13140525621025692,-0.003360134405379584,0.08218643145858757,0.22806050369082162,-0.0019860485758949734,-0.006240249609977332,0.001920076803074048,0.0016800672026881264,0.25105004200167863,0.0056402256090266846,0.15696627865114604,-1.0800864051783972,-2.260980874851771,-0.7056564513865687,-0.11520921655310945,0.30242419345230065,-0.5904472348341098,3.989119123148647,0.6048483869030037,0.2736218893133498,-0.016272999999999982,-0.03056900000000007,-0.9037219999999999,-0.12879300000000016,0.126212,-0.8819589999999999,0.11252000000000018,0.15678100000000006,0.021762999999999977,0.9887638930315807,0.2888105125137887,single,-0.8819589999999999
41,0.341667,jog,0.21022318214542526,0.14866810655147455,-0.015358771298284838,0.17893125295402992,-0.0013422793532543238,-0.021849152988500407,-0.00011999040078471047,-0.002399808015361169,0.0011999040076793356,0.27561795056395383,0.030597552195824933,0.18262538996880262,0.5009527496669907,2.0713763308396467,-1.439721249448673,0.7343723553146887,-0.5183447106353747,-0.0576149742031186,2.9479131944174677,2.994639619246247,3.0788470503547583,-0.018026000000000098,-0.03182800000000008,-0.903584,-0.12824800000000014,0.125228,-0.880309,0.11022200000000004,0.15705600000000008,0.023275000000000046,0.9955237522426958,0.26725,single,-0.880309
42,0.35,jog,0.21924876995080134,0.16200648025920625,-0.009720388815552376,-0.2654540874766855,0.3342183883109153,-0.0898301493013751,-0.006360254410159468,0.0031201248050019893,-0.0007200288011523517,0.3051722068882984,0.03144125765030423,0.17556702268090754,1.0831138611995794,1.6006688716826745,0.6766329632464271,-0.7488616355903964,0.6624184351809879,-0.23040115310592726,3.546652625026356,0.10124870448569503,-0.8470379560656541,-0.01990599999999998,-0.03315199999999996,-0.903509,-0.12753199999999998,0.12414000000000003,-0.878765,0.107626,0.157292,0.024743999999999988,0.9881319223175933,0.25256,single,-0.878765
43,0.358333,jog,0.23016920676825348,0.16980679227168344,-0.012120484819394855,-0.04400507463863517,0.10853464958120927,-0.0731258026997379,-0.005520220808857836,0.002280091203647086,0.0,0.3394935797431848,0.04476179047161348,0.19140765630625137,1.3105048382877829,0.9360748844926385,-0.28802304138275164,0.10080806447877459,-0.1008080644851674,0.08640691241477842,4.118729491766022,1.5985278796722906,1.900952073124176,-0.021870000000000056,-0.03454799999999991,-0.903408,-0.12662099999999987,0.12309800000000004,-0.877069,0.10475099999999982,0.15764599999999995,0.026339,0.9900457081177827,0.23661,single,-0.877069
44,0.366667,jog,0.23626109911208396,0.15862730981522008,-0.013798896088323392,0.025522221329909365,0.21376768231691107,-0.07374207338666793,-0.006359491240683785,0.0017998560115175463,-0.0013198944084469777,0.37161027117829404,0.04835613150948426,0.1987041036717058,0.7309686037713551,-1.3414305803291753,-0.20139324081215926,-0.10070439546747635,-0.05762361316649137,-0.15837465904091388,3.853694676638976,0.43128642163076236,0.8755036435630454,-0.023892000000000024,-0.03585499999999997,-0.903304,-0.12549300000000008,0.12217900000000004,-0.8752979999999999,0.10160100000000005,0.158034,0.028006000000000086,0.9887670213023364,0.21994000000000008,single,-0.8752979999999999
45,0.375,jog,0.2294491779671089,0.16512660506420823,-0.013560542421687147,-0.10219268779127022,0.25185984561103036,-0.03164534403541094,-0.00588023520940428,0.004680187207489661,-0.001560062402496415,0.44065762630506766,0.023880955238203494,0.1267250690027606,-0.8174632359264461,0.7799466277436898,0.02860358413971502,0.05751302427451172,0.34565356965944094,-0.02882131213841808,8.286014055775086,-2.937138638099223,-8.637829673460384,-0.025852999999999904,-0.037192,-0.903204,-0.12373299999999987,0.12100199999999994,-0.874129,0.09787999999999997,0.15819399999999995,0.029074999999999962,0.9872073031777729,0.20925,single,-0.874129
46,0.383333,jog,0.260770430817231,0.17652706108244376,-0.013080523220931959,-0.08397668942088173,0.2565524996961245,-0.06253478887905392,-0.020760830433214826,0.004680187207489661,-0.008520340813632345,0.4108964358574199,0.07980319212768851,0.1958478339133572,3.7587006900422635,1.3681094465661294,0.057604608274953756,-1.7857428565715328,0.0,-0.8352668200091141,-3.5714857131462643,6.710936864212787,8.295063591815286,-0.028198999999999863,-0.03862399999999999,-0.903166,-0.12248199999999998,0.12019599999999997,-0.872388,0.09428300000000012,0.15881999999999996,0.030777999999999972,0.9617932364861091,0.19222,single,-0.872388
47,0.391667,jog,0.26277897768180153,0.135949124070067,-0.02843772498200654,0.1774018263791518,0.4225200353907579,-0.31852948409334586,0.005039596832238472,-0.006479481641468495,-0.012718982481401707,0.4569234461243136,0.08255339572834429,0.19570434365250766,0.24100634324100365,-4.868962924451249,-1.8427167939854292,3.0958036075657875,-1.3390531376239674,-0.5037966963966112,5.522799408074594,0.3299980322361146,-0.01721745390563144,-0.030347000000000124,-0.03981099999999993,-0.9030349999999999,-0.12086400000000008,0.11975100000000005,-0.87052,0.09051699999999996,0.15956199999999998,0.03251499999999996,0.9747702923159666,0.17485,single,-0.87052
48,0.4,jog,0.2551302052081893,0.17340693627745393,-0.019800792031677672,0.5000147083843978,-0.39618839107353565,0.005644488435434835,0.010920436817480244,0.004800192007671764,0.006120244809792658,0.5034201368054639,0.0992439697587926,0.1970478819152755,-0.9178894124099602,4.495117269577195,1.0364734129759787,0.7057290273901052,1.3536149824961252,2.260797706851588,5.579826074781005,2.0029490016138536,0.16123104077377115,-0.03238199999999991,-0.04121600000000003,-0.902819,-0.11879499999999998,0.11913300000000004,-0.868713,0.08641300000000007,0.16034900000000007,0.03410600000000008,0.9776545318957756,0.15894000000000003,single,-0.868713
49,0.408333,jog,0.2826113044521916,0.17424696987879665,-0.03588143525740297,-0.08992312868863182,0.3278067956566892,-0.20965489026643935,0.012480499219954665,0.001440057602305536,-0.009720388815552792,0.5190207608304506,0.1377655106204164,0.20580823232929382,3.2978638238332407,0.10080806448370548,-1.929754377262131,0.18721497689600683,-0.40323225793426576,-1.9009520731243836,1.87214976898916,4.622769814187434,1.0512841010462428,-0.034633000000000136,-0.04265600000000003,-0.9026010000000001,-0.11682499999999996,0.11882899999999996,-0.8666990000000001,0.08219199999999982,0.161485,0.03590199999999999,0.9735255581633294,0.14098,single,-0.8666990000000001
50,0.416667,jog,0.2778977681785436,0.178305735541155,-0.012119030477563911,0.12936326570779108,0.07181822462744147,-0.15200913923765794,0.0015598752099880903,0.007679385649155741,-0.009599232061435101,0.7324214062874828,0.14566834653228308,0.21598272138228958,-0.56557910650924,0.4870129184495261,2.8512604727428648,-1.3103700515918604,0.7486594728641948,0.014537647482324308,25.606028972526037,0.9482644482681405,1.2208410190779633,-0.03693600000000008,-0.04407799999999995,-0.90258,-0.11303700000000005,0.11855700000000002,-0.8647980000000001,0.07610099999999997,0.16263499999999997,0.03778199999999998,0.9793473548379338,0.12218000000000001,single,-0.8647980000000001
51,0.425,jog,0.2979719188767574,0.20724828993160185,0.01176047041880856,0.38422900844800967,0.03575543228122333,-0.19878866597254932,-0.00036001440057305316,0.0069602784111234385,-0.013440537621505011,0.6955478219128677,0.16260650426017023,0.21156846273850932,2.408994443563402,3.4732454566718975,2.8656547337540537,-0.23039596910610202,-0.08629632041669316,-0.4609751062126389,-4.42500712523883,2.0326602337558133,-0.5297322265426937,-0.03942200000000007,-0.04574700000000009,-0.90279,-0.10972400000000015,0.11818499999999998,-0.8631329999999999,0.07030200000000009,0.16393200000000008,0.03965700000000005,0.9747664719578151,0.10343000000000002,single,-0.8631329999999999
52,0.433333,jog,0.3054122164886606,0.16908676347053733,-0.06972278891154929,0.011082243066989534,0.041639657664208345,-0.21260122362324987,0.0006000240009639668,0.014040561622468889,-0.01296051842073683,0.6240249609984485,0.18384735389415233,0.16128645145805823,0.8928714282855159,-4.579566357982043,-9.7783822549331,0.11520921655310402,0.8496679720803337,0.057604608276512606,-8.583086633195594,2.54900391623449,-6.034082716962785,-0.041962000000000055,-0.04703900000000005,-0.902317,-0.10706900000000008,0.11830799999999997,-0.861208,0.06510700000000003,0.16534700000000002,0.04110900000000006,0.9681377776281509,0.08890999999999993,single,-0.861208
53,0.441667,jog,0.3140148788096813,0.20554355651547568,-0.04379649628030499,0.1818166801028859,-0.06607196238415786,-0.2500795952862039,-0.005279577633781285,0.0075593952483844025,0.001319894408447403,0.7774178065754932,0.18466522678185335,0.15694744420446413,1.0322368995705233,4.374465208175972,3.110906243249873,-0.7054957565089135,-0.7776777506700892,1.7135124585054373,18.40566901572421,0.09813689557247729,-0.520639219293751,-0.04462299999999986,-0.04868899999999998,-0.901941,-0.10320699999999983,0.11813399999999996,-0.8595349999999999,0.05858399999999997,0.16682299999999994,0.042406000000000055,0.984475778981623,0.07594000000000001,single,-0.8595349999999999
54,0.45,jog,0.3310932437297425,0.2126485059402362,-0.026761070442814387,0.22617450297149233,0.07783824751107392,-0.2607051109792601,-0.0008400336013548828,0.03516140645625663,-0.025081003240129185,0.7988719548781813,0.20796831873275992,0.15180607224288936,2.04948576983813,0.852628036092704,2.0443328738138167,0.5327665945549482,3.312373839898249,-3.1682344472070656,2.5746007803537756,2.796482893424514,-0.6169893149615683,-0.0473889999999999,-0.05016799999999999,-0.901927,-0.09930899999999987,0.11809500000000006,-0.858047,0.051919999999999966,0.16826300000000005,0.04388000000000003,0.9280029536878063,0.06119999999999998,single,-0.858047
55,0.458333,jog,0.32233289331575604,0.2053282131285278,-0.018120724828994673,-0.009625291636948112,0.391683995965617,-0.18027738069323426,-0.002640105604220154,0.00024000960037759439,-0.019320772830913456,0.8549141965678538,0.16728669146764655,0.11664466578663184,-1.0512841010424223,-0.8784702762160589,1.0368829489763274,-0.2160172810350745,-4.190735252115579,0.6912552993178619,6.725338016281372,-4.881990551435674,-4.219537556253163,-0.05009700000000006,-0.05187700000000006,-0.901937,-0.09487100000000015,0.11777799999999994,-0.856924,0.04477400000000009,0.169655,0.04501299999999997,0.9674970076166709,0.049870000000000025,single,-0.856924
56,0.466667,jog,0.3635709143268374,0.22174226061914554,-0.1294696424285985,-1.0467260041283193,0.262254554456983,-0.1060628099949176,-0.015598752099827615,-0.01991840652747772,0.015598752099831779,0.9198464122870369,0.3124550035997178,0.14254859611231024,4.94816666799632,1.9695281366231956,-13.36080124785262,-1.5549131864179806,-2.418816430028233,4.190007791066139,7.791242586895009,17.41880395153241,3.1082229812429065,-0.05325699999999989,-0.05389100000000002,-0.9007280000000001,-0.09023499999999984,0.11853400000000003,-0.854657,0.036977999999999955,0.17242500000000005,0.046071000000000084,0.9504636762696708,0.03928999999999999,single,-0.854657
57,0.475,jog,0.34201368054722503,0.2178087123484958,-0.051242049681995354,0.6150710544410716,-0.5475931377535052,-0.22475137752553032,0.07728309132363717,0.01824072962919013,-0.01872074882995323,0.9985599423976744,0.30637225489019965,0.1936877475099014,-2.586971532414789,-0.47204467426493985,9.387686637057884,11.146267061498262,4.579279509980553,-4.118504851768282,9.446001453334661,-0.7299590435039185,6.136943645456771,-0.05546300000000004,-0.05555399999999999,-0.900457,-0.08476400000000006,0.11927200000000004,-0.8526159999999999,0.02930100000000002,0.17482600000000004,0.04784100000000002,0.8640275062671268,0.021589999999999998,single,-0.8526159999999999
58,0.483333,jog,0.4004560182407454,0.2301692067682668,-0.15276611064442136,-0.8930007704769187,0.1625086617104664,-0.4644618494856455,0.013440537621518246,0.008160326413051327,-0.02196087843513721,0.953438137525508,0.23988959558381912,0.06336253450137988,7.013361057664721,1.483318663119038,-12.183374650477088,-7.66141290077027,-1.2096967738076039,-0.3888311058663107,-5.414833177987069,-7.978238246295482,-15.639651147068399,-0.05868800000000007,-0.05740400000000001,-0.899367,-0.08015600000000012,0.11935300000000004,-0.850815,0.021468000000000043,0.17675700000000005,0.04855200000000004,0.9549839793836972,0.014480000000000048,single,-0.850815
59,0.491667,jog,0.4004079673626014,0.2372210223182151,-0.038636909047281516,-0.18940455060195727,0.8724776801762794,-0.32465186776033933,-0.024838012958971447,0.011519078473733612,-0.028437724982001127,0.9676025917926642,0.34161267098632603,-0.02567794576433953,-0.005765644125746111,0.8461501739798766,13.694408638965651,-4.593058624968761,0.4030180058414065,-0.7771594128706396,1.6995985441752057,12.205792584894025,-10.684002911653387,-0.062232000000000065,-0.05928499999999992,-0.8992819999999999,-0.07542899999999997,0.12022300000000008,-0.850707,0.013196999999999903,0.179508,0.048574999999999924,0.9342073911026728,0.014250000000000096,single,-0.850707
60,0.5,jog,0.38437537501499625,0.24228969158766328,-0.0650426017040601,0.04057502512357892,0.0017627266053243894,-0.27802224963214567,-0.02448097923915414,0.008280331213246839,-0.028681147245890277,0.8808352334093268,0.2590903636145345,-0.06756270250809977,-1.9239880412342756,0.6082646429195003,-3.1688098712082855,0.04284576020848518,-0.3886652178671284,-0.02921184014030371,-10.412499505980751,-9.903073007535307,-5.026371864125807,-0.06563899999999989,-0.06123499999999993,-0.898979,-0.07129200000000002,0.120363,-0.850728,0.00565300000000013,0.18159799999999993,0.04825099999999993,0.9356552161129547,0.017490000000000006,single,-0.850728
61,0.508333,jog,0.3669746789871586,0.24816992679707922,-0.04992199687987162,0.08099751381171187,0.06524896627615717,-0.22470755996650882,-0.012000480019199396,0.013680547221882515,-0.020040801632064842,1.0973238929557185,0.3603744149766082,-0.016800672026881153,-2.0881670500225127,0.7056564513879654,1.8145451607090373,1.4977198151871705,0.6480518431100029,1.036882948977007,25.979678332700207,12.154572346342645,6.091687325239219,-0.06879699999999989,-0.06318900000000005,-0.89873,-0.06520599999999999,0.12129800000000002,-0.8504520000000001,0.0035909999999999,0.18448700000000007,0.04827799999999993,0.9548827877438131,0.017220000000000013,single,-0.8504520000000001
62,0.516667,jog,0.4343652507799349,0.240580753539709,-0.07451403887690151,0.2375463318530617,0.3870493148902777,-0.17623069364525332,0.0015598752099614574,0.009599232061431418,-0.014638828893688657,1.2715382769378483,0.3927285817134616,0.03995680345572376,8.08622171739581,-0.9106279406491788,-2.95080897492561,1.6271124585026315,-0.4897186417627934,0.6481848738152406,20.904053753555402,3.8821894332677656,6.81035222973425,-0.07240400000000002,-0.065114,-0.898231,-0.058228999999999975,0.12256600000000006,-0.849498,0.014175000000000049,0.18768000000000007,0.048733000000000026,0.9707086579810045,0.012670000000000015,single,-0.849498
63,0.525,jog,0.31573262930517687,0.2986919476779148,0.0692427697107941,1.4552735459164163,-0.6897439063251245,-0.06970344924738821,0.0008400336013548828,0.002040081603269493,-0.017400696027840955,1.2084483379335151,0.4815792631705168,0.016200648025920517,-14.236484036332355,6.973622241474324,17.251507090807035,-0.08638444841072501,-0.9071343403530414,-0.331437313590818,-7.571095524340917,10.662508275177588,-2.850852685683805,-0.07502799999999998,-0.06758600000000003,-0.898953,-0.05079,0.12408999999999992,-0.84994,0.024237999999999982,0.19167599999999996,0.04901299999999997,0.9707666566109517,0.009870000000000101,single,-0.84994
64,0.533333,jog,0.45169806792271977,0.289571582863317,-0.10116404656186798,-0.2904982809726226,0.3558940862979006,-0.1861047840689544,0.013560542421700562,0.028561142445693345,-0.028321132845314085,1.1989679587183697,0.4794191767670849,-0.04128165126605067,16.31650529431707,-1.0944875572540327,-20.44963593815716,1.5265221193262684,3.1826546072751825,-1.310504838290319,-1.1376910134580016,-0.25922073724132055,-6.898151841110249,-0.07867899999999994,-0.06976100000000007,-0.898346,-0.04456299999999991,0.125672,-0.849441,0.034116000000000035,0.19543300000000008,0.048904999999999976,0.9292556689704269,0.01095000000000007,single,-0.849441
65,0.541667,jog,0.44828413726901045,0.2817374610031196,-0.12059035277176805,0.025220819518767548,-0.22665878401012038,-0.049628027303715246,0.015478761699069445,0.01727861771058698,-0.01595872330213585,1.224502039836806,0.51667866570673,-0.0638348932085434,-0.4096389073325285,-0.9400194216699521,-2.3309702675665855,0.2301678998522761,-1.3537946646395822,1.4833704755433337,3.0638446266422084,4.4707810102765615,-2.7061725392959626,-0.08228599999999986,-0.07196500000000006,-0.8974740000000001,-0.03809399999999985,0.1276299999999999,-0.8489680000000001,0.04419200000000001,0.19959499999999997,0.04850600000000005,0.9530714626278742,0.014940000000000064,single,-0.8489680000000001
66,0.55,jog,0.47209888395535543,0.316452658106323,-0.09108364334574127,-0.12167441240730209,0.30344344817479785,-0.1327724320181533,0.03756150246009917,0.02244089763591113,-0.008400336013440576,1.170406816272634,0.7039481579263187,0.005760230409217109,2.857883917718094,4.165990291996073,3.540946768993958,2.650034892719265,0.6194983709737343,0.907042756353683,-6.491686495160428,22.47323799587038,8.351748904087389,-0.08590699999999984,-0.07441500000000001,-0.8967849999999999,-0.03227499999999994,0.13085899999999995,-0.8481609999999999,0.0536319999999999,0.20527399999999996,0.048624,0.9257439490137862,0.013759999999999994,single,-0.8481609999999999
67,0.558333,jog,0.48697947917917234,0.3160926437057408,-0.2635305412216484,-1.0506720330095976,-0.47993532584956666,-0.23827426005010965,0.01584063362532103,0.013200528021114183,-0.01428057122284917,1.2931717268690874,0.6162246489859652,-0.06720268810752551,1.785742856572308,-0.043203456208112494,-20.694455523329975,-2.6066085245143813,-1.1088887093240167,-0.7056564513870932,14.732378566717218,-10.52724216252902,-8.755900458027515,-0.08983300000000005,-0.07693899999999998,-0.8947080000000001,-0.02555699999999994,0.13336000000000003,-0.846525,0.06427600000000011,0.210299,0.04818300000000009,0.9581964140248066,0.018170000000000075,single,-0.846525
68,0.566667,jog,0.48620110391169,0.29733621310296043,0.026757859371246882,1.2205365786273086,0.6447132323680371,0.00036073255158522097,0.02051835853133453,0.011039116870647982,-0.014518838492920405,1.4505639548836002,0.6367890568754525,-0.10235181185504993,-0.09339756029305327,-2.250591625003627,34.83182152542513,0.5612820861547231,-0.2593485901687286,-0.0285897852257299,18.885556517220014,2.467531544214923,-4.21755744510729,-0.09371399999999996,-0.07932500000000009,-0.895052,-0.01751999999999998,0.136189,-0.8476009999999999,0.07619399999999998,0.2155140000000001,0.04745100000000002,0.9542451639080717,0.025489999999999957,single,-0.8476009999999999
69,0.575,jog,0.6291851674067017,0.2331693267730631,-0.02124084963398348,2.3264326200284757,-0.5492144557946672,-0.8080243305594372,0.003480139205575066,0.015000600024006107,-0.014880595223808982,1.539541581663278,0.8018720748829985,0.055562222488899006,17.158773970360375,-7.700334372962669,-5.760075483647041,-2.044668105815387,0.4753969942827506,-0.04341254420839793,10.677742323254364,19.810754591089342,18.950442138959605,-0.0989279999999999,-0.08114299999999997,-0.894999,-0.009933999999999998,0.14092800000000005,-0.846961,0.0889939999999999,0.22207100000000002,0.048038000000000025,0.9643099187376303,0.019620000000000026,single,-0.846961
70,0.583333,jog,0.5677427097083908,0.3270130805232302,-0.12504500180006997,0.28907214376074974,-0.09537215859727374,0.07377330622571542,0.0007200288011461016,0.008160326413051327,-0.015120604824193038,1.47197887915516,0.7231489259570324,0.07920316812672568,-7.373389859391654,11.261700918056727,-12.456996539791918,-0.331226497591378,-0.8208656679412879,-0.028802304138252136,-8.107848614918726,-9.447155757346186,2.837026957617493,-0.103653,-0.0838000000000001,-0.894083,-0.00239900000000004,0.14422899999999994,-0.845259,0.10125399999999996,0.22802900000000004,0.04882399999999998,0.9713380789348852,0.011759999999999937,single,-0.845259
71,0.591667,jog,0.5389968802495688,0.33585313174945697,-0.14074874010078842,-0.03849390718446001,0.005743761603928297,0.050424853895500873,0.006479481641468453,0.013918886489081366,-0.012479001679865506,1.4584833213342854,0.6073914086873017,-0.054475641948643225,-3.4492235971708376,1.0607212894440494,-1.8842978522580185,0.6910790545143156,0.69097193136909,0.31696701995770477,-1.619337391513623,-13.889790889096451,-16.040173995124537,-0.10809099999999994,-0.08648300000000009,-0.8930140000000001,0.005264000000000046,0.14649199999999996,-0.8445400000000001,0.11335499999999998,0.23297500000000004,0.04847400000000002,0.9670250698609053,0.015259999999999996,single,-0.8445400000000001
72,0.6,jog,0.554902196087844,0.35617424696987854,-0.13236529461179483,0.10980655359186402,-0.0910640924319966,0.03269048542597698,0.001800072002865278,0.020040801632068856,-0.015960638425536893,1.5089403576143152,0.6348253930157285,-0.1872074882995344,1.9087142491630016,2.438631371705479,1.0060537008272725,-0.561551618697134,0.7346592035266466,-0.4178131220054505,6.055086557065919,3.2922098078035593,-15.928458700455106,-0.11270000000000002,-0.08928400000000003,-0.892044,0.013214000000000059,0.148814,-0.844997,0.12591400000000008,0.23809800000000003,0.04704699999999995,0.9571950168976218,0.029530000000000056,single,-0.844997
73,0.608333,jog,0.5219008760350449,0.37417496699867286,-0.16524660986438927,-0.763930025498093,0.4042017908623624,0.1841618636178564,0.002640105604220137,0.015600624024956551,-0.012480499219968738,1.3609744389775589,0.5876635065402507,-0.18300732029281078,-3.9603168190086357,2.1601728103677247,-3.945915666937994,0.10080806448516205,-0.5328426265585366,0.417633410004577,-17.756620501230735,-5.65965276316784,0.5040403224197297,-0.1170270000000001,-0.09227200000000002,-0.890771,0.020206000000000057,0.15059299999999998,-0.845145,0.13723300000000016,0.242865,0.045625999999999944,0.9664129452703242,0.04374,single,-0.845145
74,0.616667,jog,0.578833693304545,0.3642908567314682,-0.16270698344132847,-0.057270693781537374,-0.11347330721261573,0.13662409405719336,0.007199424046096877,0.01103911687066145,-0.011279097672186537,1.5868730501559882,0.7954163666906688,-0.10403167746580329,6.831391561015178,-1.1859983521963888,0.30473079230391314,0.5470744470694463,-0.5473370715496911,0.1441566532016088,27.10566488822062,24.92834895013431,9.476319033718255,-0.12179099999999998,-0.09521599999999997,-0.889509,0.028606999999999938,0.15418599999999993,-0.844656,0.15039799999999992,0.2494019999999999,0.04485300000000003,0.9710886483185063,0.05146999999999996,single,-0.844656
75,0.625,jog,0.5910236409456302,0.3888155526221057,-0.19848793951757188,-0.5513619059184596,0.21301275226773767,0.10673815526582718,-0.0018000720028919003,0.02280091203647086,-0.012600504020160656,1.6571462858514356,0.6720268810752461,-0.08412336493459706,1.4628522310194543,2.943081230125692,-4.293886484608575,-1.0799827251876564,1.4114718787722742,-0.15857510476108405,8.433125608477994,-14.807330567073349,2.3890930674674364,-0.12673100000000004,-0.09826600000000008,-0.8879600000000001,0.03749100000000005,0.15654599999999996,-0.8437030000000001,0.1642220000000001,0.25481200000000004,0.04425699999999999,0.9564781488319896,0.05742999999999998,single,-0.8437030000000001
76,0.633333,jog,0.5427817112684418,0.38137525501020053,-0.17988719548782214,-0.3765139548811844,0.10603291546436185,0.2140486194016949,0.011520460818444211,0.02256090243610659,-0.012000480019200645,1.5906636265450438,0.6584663386535458,-0.11652466098643893,-5.789263131787859,-0.8928714282857491,2.232178570712787,1.5985278796755138,-0.0288023041358779,0.07200576034561483,-7.978238246296841,-1.6273301838113876,-3.8883110586633554,-0.13115799999999989,-0.10125600000000001,-0.886561,0.046223000000000014,0.15885499999999997,-0.843175,0.1773809999999999,0.260111,0.043386000000000036,0.9532819670525614,0.06614000000000003,single,-0.843175
77,0.641667,jog,0.5485961123110207,0.3156947444204408,-0.3471322294216524,0.212003181519381,-0.5678809926657612,0.1394705442505093,0.022558195344355172,0.014518838492911856,-0.012479001679865672,1.576073914086883,0.747300215982727,-0.11207103431725576,0.6976723113245671,-7.881030788308146,-20.06779864816789,1.324422189334176,-0.9649704755453298,-0.05741800583933642,-1.7506254449437195,10.65921254249841,0.5343924489060708,-0.13554200000000005,-0.10376600000000002,-0.883772,0.054786,0.16245200000000004,-0.841216,0.19032800000000005,0.26621800000000007,0.04255600000000004,0.9506882273662027,0.07444000000000006,single,-0.841216
78,0.65,jog,0.619704788191532,0.42229689187567926,-0.16632665306612174,-0.41820763644110615,0.35486986043033475,0.014709373659168535,0.00900036001440621,0.021120844833801063,-0.013320532821312795,1.6708268330733183,0.7595103804152036,-0.1057242289691583,8.533382440958956,12.792769405404774,21.697537064146154,-1.627005319806661,0.7922724518047737,-0.10098777648471369,11.370805110576617,1.4652783430309044,0.7616471076559989,-0.14063100000000006,-0.10710900000000001,-0.882497,0.06354499999999996,0.1652619999999999,-0.840711,0.20417600000000002,0.2723709999999999,0.04178599999999999,0.9557615940635887,0.08214000000000005,single,-0.840711
79,0.658333,jog,0.5810632425297081,0.40777631105244727,-0.1984879395175745,0.18372845539818364,-0.7093112998248441,0.08425396071253158,0.013320532821309641,0.007920316812673838,-0.008040321612864719,1.6963878555142407,0.8402736109444531,-0.015960638425536477,-4.637170966257558,-1.742539400363869,-3.8595087545245494,0.5184414744873961,-1.5841267276043856,0.6336506910414166,3.067445390726345,9.69197534252373,10.772061747704624,-0.1453620000000001,-0.11044100000000001,-0.8809100000000001,0.07283899999999999,0.16886599999999996,-0.83919,0.2182010000000001,0.27930699999999997,0.04172000000000009,0.9709017571791023,0.08279999999999993,single,-0.83919
80,0.666667,jog,0.6316294696424161,0.3706503479721471,-0.2704583633309422,-0.8898096607619763,0.41271324211881893,0.2954435727994232,0.008879289656842928,0.023998080153584886,-0.0073194144468442315,1.7350611951043817,0.7594192464602809,-0.04307655387569023,6.067461856576385,-4.454759188900877,-8.635759996804312,-0.5329065472122246,1.9291772667279727,0.08650193976727641,4.640429516455577,-9.701747598292721,-3.2536495620534613,-0.1505519999999999,-0.11332999999999993,-0.878717,0.08203500000000008,0.1721060000000001,-0.8372949999999999,0.232587,0.285436,0.04142200000000007,0.9556427550790217,0.08578000000000002,single,-0.8372949999999999
81,0.675,jog,0.7395895835833438,0.4429377175086985,-0.031681267250681606,0.39277490447482183,0.26152540653990713,0.1424635792653982,0.010680427217089328,0.034201368054719614,-0.0021600864034559994,1.7301092043681559,0.8569542781711176,0.08928357134285353,12.955731902187363,8.674831337639638,28.654397705539374,0.21614515303568863,1.2244435258771973,0.6191441309718241,-0.5942626588534566,11.704671992180037,15.883850380240395,-0.15662599999999993,-0.11673599999999995,-0.878471,0.09028899999999995,0.17555600000000005,-0.836287,0.24691499999999988,0.292292,0.042184,0.940174534509302,0.07816000000000001,single,-0.836287
82,0.683333,jog,0.6900276011040544,0.4774990999640108,-0.3126125045001791,-0.8346110626506885,-0.1492145765263184,-0.16216062441480836,0.011520460818417717,0.024240969638790032,-0.006240249609984452,1.7056282251290245,0.8119524780991374,-0.05508220328813216,-5.94767580454697,4.1475317959093525,-33.71309699381976,0.10080806448198683,-1.1952956217364301,-0.4896391703502327,-2.937835022096678,-5.4004320259187075,-17.324585939156005,-0.1622800000000001,-0.12051299999999998,-0.8759180000000001,0.09875199999999995,0.17834300000000003,-0.834141,0.26103200000000004,0.298856,0.041777000000000064,0.9540747484827443,0.08223000000000008,single,-0.834141
83,0.691667,jog,0.6598272138228796,0.4289656827453765,-0.23074154067674507,-0.4856610122454924,-0.04503231822596106,0.11685645803464913,0.011159107271432692,0.029757619390451653,-0.0025197984161267127,1.6388288936884996,0.843412526997828,-0.03155747540196752,-3.623756573215091,-5.823544182701456,9.82372976043117,-0.043358956921648935,0.6619450145982215,0.4464184297885422,-8.015278550578875,3.774903875532799,2.8227415270175733,-0.1676859999999999,-0.12383999999999995,-0.874016,0.10691100000000009,0.181797,-0.832481,0.274597,0.30563699999999994,0.04153499999999999,0.946865187940374,0.08465,single,-0.832481
84,0.7,jog,0.6482659306372336,0.42181687267491635,-0.26737069482779646,-1.239601278409914,0.37537001667996744,0.3005697007704552,0.0021600864034383334,0.036241449657976266,0.008160326413056638,1.6390255610224496,0.8523940957638348,-0.027961118444737698,-1.3874094786566762,-0.8578915241161896,-4.395674325099211,-1.0799257011873804,0.77809075573319,1.28166624615186,0.023601024114960314,1.0778313651754405,0.4315800980715058,-0.17307000000000006,-0.12705300000000008,-0.87172,0.11516700000000002,0.1853849999999999,-0.8304860000000001,0.2882370000000001,0.312438,0.04123399999999999,0.9379807473048898,0.08766000000000002,single,-0.8304860000000001
85,0.708333,jog,0.6135845433817368,0.4120964838593451,-0.3466938677547124,-0.5892557166930767,-0.2482440776346347,-0.09140879738973297,0.012480499219981228,0.027121084843400763,0.006960278411136299,1.608904356174247,0.8749549981999301,-0.004200168006720288,-4.161932947977511,-1.1664933176012486,-9.519161517690579,1.23849907794826,-1.094487557251346,-0.14401152069126777,-3.6146891693510548,2.7074165889949735,2.8514281096864647,-0.178079,-0.13026099999999996,-0.868773,0.12346100000000004,0.18924200000000002,-0.827632,0.30154000000000003,0.319503,0.04114099999999998,0.9489074483732537,0.08859,single,-0.827632
86,0.716667,jog,0.7403407727381763,0.57763378929685,-0.1772258219342513,-1.0123449939454365,0.2956873894407027,0.05799670712257876,0.00851931845451544,0.027237820974319114,0.010919126469882422,1.6003119750419763,0.8893688504919508,0.011999040076793276,15.209530760311797,19.86288762149072,20.334538735356347,-0.47530366756248593,0.014007215132991467,0.47502376514831934,-1.0310032556120377,1.729523913129426,1.9437494700640077,-0.18417800000000006,-0.13484799999999997,-0.8672049999999999,0.13062799999999997,0.19184,-0.826055,0.31480600000000003,0.326688,0.04114999999999991,0.9490723552144866,0.08850000000000002,single,-0.826055
87,0.725,jog,0.7155886235449412,0.44401776071043686,-0.20640825633024834,-0.45735661191012095,0.01823730109736847,-0.35198011780354443,0.001560062402501005,0.018840753630140906,0.011520460818432707,1.5891035641425773,0.89139565582624,-0.0013200528021117513,-2.970376718256969,-16.03456481296225,-3.5020322088080302,-0.8351441320070202,-1.0076883888369477,0.07216300834636864,-1.3450631104523172,0.24322636916947635,-1.5983550796718047,-0.19012799999999996,-0.13839100000000004,-0.865389,0.137907,0.19556799999999996,-0.824346,0.32803499999999997,0.333959,0.04104299999999994,0.9631019117658588,0.08956999999999998,single,-0.824346
88,0.733333,jog,0.8093123724949064,0.4618984759390346,-0.2673706948277929,-1.7192538579594494,-0.2650953448793113,-0.39862326541281484,0.000480019200781832,0.010680427217089328,0.01980079203168121,1.5528621144845804,0.8991959678387064,0.016560662426496897,11.247299765986412,2.145771658298052,-7.315785251115362,-0.12961036862104505,-0.9792783406998132,0.9936794927695272,-4.349147924876593,0.9360748844913362,2.1457716582993607,-0.19686799999999993,-0.14215100000000003,-0.862996,0.14410299999999998,0.19921199999999994,-0.82198,0.3409709999999999,0.34136299999999997,0.04101599999999994,0.9624954332760458,0.08984000000000003,single,-0.82198
89,0.741667,jog,0.7037437005039647,0.4762419006479509,-0.10151187904967822,0.6331536187488711,-0.24129887246553086,-0.3613784073670525,0.007679385649129148,0.004199664026878744,0.03083753299736042,1.5265178785697244,0.873410127189834,0.017398608111351105,-12.667227260732213,1.7210732792076302,19.901465776111785,0.8638548654124499,-0.7776293724754766,1.3243029716437813,-3.1610554253487124,-3.094053353596412,0.1005454385474217,-0.2026690000000001,-0.14608500000000002,-0.861893,0.15095999999999998,0.20252199999999998,-0.820989,0.3536290000000001,0.348607,0.04090400000000005,0.946573945618214,0.09096000000000004,single,-0.820989
90,0.75,jog,0.7472698907956266,0.48625945037800644,-0.16224648985959608,-0.6093087688337759,-0.5325132333109213,-0.0860911688192215,0.011280451218053295,0.00504020160806268,0.03684147365894641,1.5150606024240902,0.8576743069722771,0.03276131045241825,5.2233517690701605,1.2021540537688093,-7.288444834983513,0.43214515407705884,0.10086854448385132,0.7205016994582941,-1.3749281346014808,-1.8883739610652661,1.8435980248490438,-0.20880200000000004,-0.15009499999999998,-0.8602339999999999,0.157358,0.20561700000000005,-0.819364,0.36616000000000004,0.35571200000000003,0.04086999999999996,0.9352366188580898,0.09129999999999999,single,-0.819364
91,0.758333,jog,0.6913476539061553,0.29677187087484075,-0.21528861154445636,1.4482904456060413,3.1940746904932,-2.031645673533462,0.01284051362055428,0.0004800192007685088,0.052682107284290965,1.5337813512540355,0.9295571822872913,-0.06648265930637184,-6.710936864211095,-22.739419117144475,-6.365309214551789,0.18721497689919336,-0.5472437786264434,1.9009520731242635,2.2465797227823296,8.62629008940525,-11.909752761165208,-0.21445599999999998,-0.15256400000000003,-0.858001,0.1643779999999999,0.21089000000000002,-0.818124,0.3788339999999999,0.36345400000000005,0.03987700000000005,0.9096224948651139,0.10122999999999999,single,-0.818124
92,0.766667,jog,0.8262538996880234,0.548716102711792,-0.13078953683705802,-0.7637871289067311,-0.4218436152565559,-0.14668468456105013,0.02075833933285094,0.0007199424046150163,0.062035037197024606,1.4786417086633254,0.867170626349895,-0.005999520038397134,16.187454497464476,30.230889349286386,10.139077838660766,0.9500630804291702,0.02878848138307042,1.1222618085833567,-6.616227812660228,-7.485787849459653,7.257396120467369,-0.22116899999999995,-0.15713100000000002,-0.856394,0.16981500000000005,0.21354399999999996,-0.8170839999999999,0.390984,0.370675,0.03931000000000007,0.8909667124100782,0.10690000000000005,single,-0.8170839999999999
93,0.775,jog,0.8492739709588348,0.520100804032153,-0.20760830433217353,-0.47151741784393475,-0.2713291082648142,-0.47263267408207377,0.024720988839544895,0.0014400576023055264,0.07536301452058052,1.444857794311759,0.8393135725428916,-0.009600384015361016,2.762519053259487,-3.4339732004846946,-9.218620844247592,0.475536962281764,0.08641728041407742,1.5994212556769294,-4.054231891463605,-3.3429801760474263,-0.432120962074147,-0.22804000000000002,-0.16145299999999996,-0.8540359999999999,0.174778,0.21620399999999995,-0.815434,0.402818,0.3776569999999999,0.038601999999999914,0.8677882063933015,0.11398000000000003,single,-0.815434
94,0.783333,jog,0.8442337693507833,0.5823832953318181,-0.10332413296531964,-1.5470725197882194,0.33144912769679324,-0.34082129517230686,0.034441377655097666,-0.0037201488059526618,0.09312372494899868,1.41977679107166,0.8178327133085417,-0.0025201008040322066,-0.604848386901664,7.474197923876838,12.514601148068504,1.166493317599047,-0.6192495389725472,2.131370506230448,-3.0098407824432036,-2.577806220370832,0.8496679720783481,-0.2347880000000001,-0.16633699999999996,-0.8523989999999999,0.179574,0.21816599999999997,-0.8145939999999999,0.4143620000000001,0.38450299999999993,0.03780499999999998,0.8344027966696813,0.12195000000000006,single,-0.8145939999999999
95,0.791667,jog,0.8838492920566268,0.5590352771778178,-0.2290616750659856,-0.06045757944172609,-0.17797468499059638,-0.55329788699449,0.04319654427647411,-0.02183825293976651,0.0994720422366203,1.3946484281257319,0.7918166546676231,0.025317974562035186,4.753482446105489,-2.8015380554355844,-15.087298068234341,1.0505359516890302,-2.1739985761715515,0.7617371355437459,-3.0151623405241237,-3.1216773027259905,3.340301819782479,-0.24179399999999995,-0.17117799999999994,-0.849661,0.18383099999999997,0.22010600000000002,-0.812474,0.4256249999999999,0.39128399999999997,0.03718699999999997,0.8156276569636672,0.12813000000000002,single,-0.812474
96,0.8,jog,0.8677547101884024,0.604704188167526,-0.11364454578183454,-0.09075653677443347,0.796120274656172,-0.4733872400116354,0.04452178087122256,-0.000240009600390916,0.11196447857914267,1.3555742229689232,0.7934717388695589,-0.005160206408256473,-1.9314270812701615,5.480488538306501,13.850609538479608,0.15903475275992401,2.591892876440118,1.4991523271957656,-4.689092182504325,0.19861804895425697,-3.6575280175556864,-0.24865400000000004,-0.17621900000000001,-0.847781,0.18789600000000006,0.22167900000000007,-0.81157,0.4365500000000001,0.3978980000000001,0.03621099999999999,0.799180214564479,0.13789,single,-0.81157
97,0.808333,jog,0.948157926317067,0.6457458298331955,-0.10212408496339169,-2.5678780666881043,-0.5894856865696577,-0.05345482575144209,0.05292211688469216,-0.01068042721708947,0.13344533781351398,1.3628945157806378,0.7526701068042724,-0.008880355214208371,9.648771886315284,4.925194007640688,1.3825105986371002,1.0080806448421542,-1.2529002300130387,2.577806220373395,0.8784702762168142,-4.896391703502569,-0.44643571414279754,-0.25611399999999995,-0.181689,-0.8458180000000001,0.19135199999999997,0.22257000000000005,-0.8107930000000001,0.4474659999999999,0.40425900000000003,0.03502499999999997,0.7600782525415872,0.14975,single,-0.8107930000000001
98,0.816667,jog,0.9456443484521199,0.601151907847376,0.021838252939753187,0.46161965063431815,2.234855409842907,-0.7382507551347514,0.06479481641468453,-0.010559155267575752,0.14098872090232661,1.315094792416593,0.741060715142778,-0.03047756179505667,-0.30160521537641993,-5.350842570892623,14.874290605128861,1.4246099748010894,0.014551469824060193,0.9051335599727119,-5.735507963048289,-1.393015558134658,-2.591457473103928,-0.263455,-0.18678700000000004,-0.8448249999999999,0.1944309999999999,0.22373599999999993,-0.811229,0.4578859999999999,0.41052299999999997,0.03359599999999996,0.7407935002966233,0.16404000000000002,single,-0.811229
99,0.825,jog,0.9017160686427431,0.7314292571702888,-0.25177007080282643,0.15520617963332378,-1.531214209675881,-0.08709281314306093,0.07488299531980842,-0.02136085443417894,0.1650066002640122,1.272890915636641,0.7038281531261326,-0.06324252970118859,-5.27160444130291,15.63390727504068,-32.834312221598715,1.210629893810631,-1.2962557502224035,2.8822608138348507,-5.064667800306294,-4.4680861654441175,-3.93195342687294,-0.27034499999999995,-0.19306,-0.841352,0.19752400000000003,0.22350599999999998,-0.809658,0.467869,0.416566,0.031694,0.6959033084101915,0.18306,single,-0.809658
100,0.833333,jog,1.0256810272410952,0.5856234249369945,-0.2524900996039825,-0.6935509248804219,1.5807895422577034,-1.1120264970974665,0.08676347053882469,-0.018840753630140653,0.18180727229089075,1.2384495379815137,0.6686667466698666,-0.06204248169926731,14.876390087405687,-17.497399763985808,-0.0864069124152246,1.4257140548441396,0.3024241934523314,2.016161289677004,-4.1331306438410165,-4.219537556254149,0.1440115206913804,-0.278169,-0.19809699999999997,-0.8377330000000001,0.19929699999999995,0.224198,-0.808071,0.47746599999999995,0.422295,0.029662000000000077,0.6627860962602387,0.20338,single,-0.808071
101,0.841667,jog,0.964722822174211,0.729901607871372,0.016078713702899743,0.16994856519027396,1.2804568056979089,-0.5248443026933853,0.08339332853370349,-0.021478281737465667,0.18706503479721495,1.215742740580748,0.6783057355411538,-0.16390688744900272,-7.314399456069563,17.311996992365785,32.22567954246223,-0.40438468983935394,-0.3164780546346284,0.6308810302764776,-2.724597720274248,1.156586137663445,-12.222750869898565,-0.28551400000000005,-0.20435900000000007,-0.8363079999999999,0.20138900000000004,0.22376799999999997,-0.809571,0.4869030000000001,0.42812700000000004,0.0267369999999999,0.6567755388071361,0.23263,single,-0.809571
102,0.85,jog,1.0667226689067704,0.519140765630623,-0.257290291611671,-0.6804187832491475,-0.22676446314361964,-1.1306863582916338,0.12012480499220435,-0.02928117124685278,0.2128885155406233,1.1398055922237,0.5928237129485167,-0.09192367694707906,12.240471226756304,-25.292312761400577,-32.805592861463246,4.40795349315987,-0.9363841964943218,3.0989416468749047,-9.11282231573846,-10.258253041238202,8.638330793462657,-0.29340200000000005,-0.20892900000000003,-0.83239,0.201998,0.22438199999999997,-0.8081929999999999,0.49540000000000006,0.433311,0.024197000000000024,0.5896855006586992,0.25803,single,-0.8081929999999999
103,0.858333,jog,0.9569182767310697,0.7373094923796967,0.08580343213728768,-1.1757951379750027,1.0801539744640152,0.02551611956129313,0.11544461778472644,-0.02412096483858093,0.2320892835713421,1.0814832593303711,0.5478219128765177,-0.1335653426137035,-13.177054143249759,26.181294461667203,41.172893765625496,-0.5616449306945749,0.6192495389741784,2.304184331059488,-6.998959905595661,-5.400432025920887,-4.997199767985632,-0.30041399999999996,-0.21527399999999997,-0.831171,0.203036,0.22280299999999997,-0.810021,0.50345,0.43807699999999994,0.021150000000000002,0.5661070399893013,0.2885,single,-0.810021
104,0.866667,jog,1.033717302615788,0.6773458123350183,-0.09611231101511222,-0.8721334212217963,2.3836600426309906,-0.760587318158083,0.09935205183583316,-0.045956323494123395,0.32469402447804363,1.0177585793136594,0.47384209263258975,-0.15766738660907248,9.215145894494691,-7.195066000081435,-21.828142926853964,-1.9309534375921964,-2.6200334359902318,11.111679974406295,-7.646349894013929,-8.876868279809022,-2.8920139183308264,-0.30820100000000006,-0.221302,-0.8276640000000001,0.20290300000000006,0.22110699999999994,-0.8105340000000001,0.5111040000000001,0.44240899999999994,0.01712999999999998,0.5,0.3287,flight,-0.8105340000000001
105,0.875,jog,1.0543621744869835,0.9570382815312518,0.17208688347533052,0.44516619941978003,-0.36289825290804795,-0.0010419005792029498,0.1399255970238804,-0.03132125285012188,0.21960878435137293,0.9187567502700065,0.4084963398536013,-0.21336853474138898,2.4774837238924134,33.56443888110312,32.18519074648285,4.869020183372984,1.7562787284293113,-12.610733244530213,-11.880694713026827,-7.841804005638808,-6.684405152084035,-0.31582100000000013,-0.22953800000000002,-0.827268,0.20177299999999998,0.21653600000000006,-0.813746,0.5175940000000001,0.4460740000000001,0.013522000000000034,0.56287488522901,0.36478,single,-0.813746
106,0.883333,jog,1.0717628705148055,0.7257890315612658,-0.1274450978039125,-0.39713654829237194,0.4848124687477056,-0.7648654714562808,0.13152526101043818,-0.015360614424578957,0.26185047401896006,0.7885515420616784,0.3284531381255224,-0.2535701428057108,2.088167050020621,-27.751020037199687,-35.94527556453159,-1.0080806448388566,1.915353225194151,5.069205528331567,-15.625249994999098,-9.60556843010663,-4.824385943156321,-0.32365600000000005,-0.2357140000000001,-0.824024,0.19941300000000006,0.213225,-0.814797,0.5230690000000001,0.4489390000000001,0.009226999999999985,0.5109518499526108,0.40773000000000004,single,-0.814797
107,0.891667,jog,1.0823134149268154,0.7632589392848556,0.0013198944084453212,-0.7837691861539502,1.5670908383451547,-0.699503899914472,0.14518838492922514,-0.05087592992560384,0.3198944084473254,0.6331893448524125,0.16558675305974857,-0.3057355411567094,1.265964052317019,4.496029244491232,15.450563020441392,1.6394437147572642,-4.26149694036778,6.964714954207547,-18.64197230732743,-19.542402815667717,-6.259347054355525,-0.3314659999999999,-0.24249900000000002,-0.8213689999999999,0.19567,0.20824399999999998,-0.817356,0.5271359999999999,0.450743,0.004012999999999933,0.5,0.45987,flight,-0.817356
108,0.9,jog,1.1356054242169638,0.8172326893075668,-0.048121924876993044,-1.4876216229723127,0.17297408700556766,-0.17902816911346037,0.19308772350893613,-0.02868114724588842,0.31777271090843556,0.36121444857793644,0.06120244809792492,-0.3608544341773659,6.39529692669484,6.4771090870888015,-5.933255644478359,5.748150555587518,2.66348046078427,-0.25461388922235045,-32.638293084660376,-12.526617660125192,-6.6145317437485,-0.33931999999999995,-0.249548,-0.8183199999999999,0.18921699999999997,0.201944,-0.819962,0.5285369999999999,0.451492,0.0016420000000000323,0.48357999999999995,0.5,flight,-0.8183199999999999
109,0.908333,jog,1.1243249729989255,0.8282731309252536,-0.13440537621505103,-2.480659706188246,0.5107459390121621,-0.13264068522872977,0.25333013320532743,-0.0006000240009639748,0.3342133685347439,0.11280451218049448,-0.09888395535820754,-0.3543741749670016,-1.353708294496379,1.3249059903620428,-10.354428337700561,7.22937833870057,3.3698695841743316,1.9729578334703606,-29.810384783084633,-19.211136860210477,0.7776622117321954,-0.34657799999999994,-0.2564550000000001,-0.814415,0.18078800000000006,0.194218,-0.8217949999999999,0.527366,0.4506730000000001,0.007379999999999942,0.4262,0.5,flight,-0.814415
110,0.916667,jog,1.130309575233984,0.867050635949112,0.07271418286536967,0.21237800779570767,0.9114661514206477,-0.5932473947343163,0.31017518598512595,0.029277657787379424,0.3539716822654162,-0.12814974802015236,-0.1915046796256335,-0.30969522438204705,0.7180948206213622,4.652928368593492,24.852358900938217,6.820860664722591,3.5850350118002368,2.370807983042011,-28.912198248217543,-11.113597824265089,5.361045186579576,-0.353413,-0.26343700000000003,-0.812071,0.1703,0.185396,-0.824982,0.523713,0.44883300000000004,0.012911000000000006,0.37089000000000005,0.5,flight,-0.812071
111,0.925,jog,1.154926197047873,0.9068762750510025,-0.017520700828030585,-1.8147162460436659,0.02499969750287889,0.30331543547775375,0.35773430937236145,0.03768150726029463,0.35881435257410144,-0.24180967238690648,-0.30685227409096616,-0.24036961478459012,2.954112782177957,4.77926786294136,-10.828619187975505,5.707323099392212,1.008502276840894,0.5811436827895377,-13.639736513470977,-13.842265026440918,8.319405927931914,-0.36005600000000004,-0.27068000000000003,-0.808935,0.15866099999999994,0.17528199999999994,-0.826839,0.518717,0.44596199999999997,0.01790400000000003,0.32096,0.5,flight,-0.808935
112,0.933333,jog,1.1696867874715036,0.9265570622824971,0.011160446417857985,0.6351709015784364,-0.6632993545978545,-0.34267983100741084,0.38881555262212425,0.048001920076798224,0.37213488539541917,-0.3307332293291739,-0.3559342373695009,-0.196327853114127,1.7713417045038609,2.3617889393369444,3.4418753445204406,3.7298983859070067,1.2384990779435605,1.5985278796733293,-10.671253683219513,-5.890071196272076,5.285222809367997,-0.36656299999999986,-0.27800100000000005,-0.805927,0.146158,0.16459499999999994,-0.828568,0.5127209999999999,0.442596,0.022641000000000022,0.27359,0.5,flight,-0.805927
113,0.941667,jog,1.146028317734583,0.9448044156467335,0.12179025677945529,-0.6967942335480563,0.8021533538702094,0.2103787060414184,0.43028557715380844,0.07871370290376589,0.3686105111591051,-0.2353011759059246,-0.2222222222222163,-0.14206863450923787,-2.8387892652892335,2.1895072431288924,13.274515282169002,4.976004863412992,3.6851191297057158,-0.4228910770715202,11.450930336362918,16.044158285011232,6.510585385755786,-0.3725280000000001,-0.285219,-0.80387,0.13464599999999993,0.15486900000000003,-0.8307669999999999,0.507174,0.44008800000000003,0.02689699999999995,0.23102999999999996,0.5,flight,-0.80387
114,0.95,jog,1.1510860434417403,0.9509180367214826,0.05100204008160478,-0.35818080866380947,0.25332215394058055,0.2546756807811329,0.46885875435019086,0.10212408496340501,0.4022560902436127,-0.09504380175207275,-0.15660626425057153,-0.12588503540141696,0.6069513629134036,0.7336638755249208,-8.49492580077417,4.628966422222822,2.8093582214855797,4.0376309953807645,16.831558160788806,7.8742299257944754,1.9421095773216202,-0.3782129999999999,-0.292292,-0.800943,0.12426199999999998,0.14564,-0.832241,0.5024749999999999,0.437932,0.03129800000000005,0.18702000000000008,0.6295427435361389,single,-0.800943
115,0.958333,jog,1.1158046321852861,0.9335173406936215,0.0390015600624047,0.0914783892192176,-0.15369862442437973,0.36713549235304943,0.5237009480379234,0.1276851074042901,0.4239769590783615,0.016200648025920517,-0.07812312492499153,-0.13476539061562437,-4.2339387083228095,-2.0881670500253238,-1.44011520691228,6.581326495587705,3.0674453907218258,2.606608524510829,13.34986796807786,9.41835345320769,-1.0656852531150092,-0.3831469999999999,-0.299007,-0.797735,0.11509899999999995,0.13721000000000005,-0.833689,0.49824599999999986,0.4362170000000001,0.03595400000000004,0.14046000000000003,0.7389795976881872,single,-0.797735
116,0.966667,jog,1.1165106791456607,0.9428845692344578,0.07055435565155128,-0.17771895783967065,0.24408003445302487,0.6197701434598216,0.6003119750419763,0.15286777057835224,0.4614830813534885,0.13174946004320073,0.006959443244540683,-0.11327093832493319,0.08471885773632926,1.1239775066998212,3.786032588090514,9.192587833459598,3.021677846659702,4.500374643043757,13.864748262212544,10.209091453027547,2.57912794464735,-0.38744900000000004,-0.30559100000000006,-0.794477,0.10689199999999999,0.12941000000000003,-0.835221,0.49434100000000003,0.4350010000000001,0.040744,0.09255999999999998,0.7101884734053692,single,-0.794477
117,0.975,jog,1.0942037681507313,0.9296771870874858,-0.043921756870272506,0.03630450136064531,-0.6645358492722228,0.7218367297853684,0.66854674186968,0.18684747389896134,0.4956198247929956,0.16092643705748816,0.03612144485779413,-0.04224168966758687,-2.67693639684743,-1.584949255606883,-13.73768300993938,8.188499559306889,4.077727507573432,4.096573075663919,3.501377296806395,3.499580176797518,8.523850792913354,-0.390996,-0.311781,-0.789981,0.09911500000000006,0.12196400000000007,-0.835207,0.4901110000000001,0.43374500000000005,0.04522599999999999,0.04774000000000006,0.7162432709138322,single,-0.789981
118,0.983333,jog,1.1118444737789426,0.9385575423016975,0.15084603384134734,-0.42358452445533273,2.1225516217634954,0.8134798314504474,0.6561862474498986,0.2301692067682668,0.4082563302532087,0.1664466578663039,-0.012000480019199396,-0.08928357134285353,2.116969354159513,1.0656852531155254,23.37306980818661,-1.4833186631202837,5.198815896952512,-10.48403870632264,0.6624529951776919,-5.774861979718388,-5.64525161109642,-0.39479299999999995,-0.3176840000000001,-0.787836,0.09123700000000001,0.114043,-0.837208,0.48602999999999996,0.4317270000000001,0.04937199999999997,0.006280000000000008,0.6845635407033963,single,-0.787836
119,0.991667,jog,1.0658747300216145,0.822174226061916,-0.11759059275257817,0.09129631585157523,-1.152436279688906,1.075141971532159,0.8209743220542421,0.2591792656587549,0.729781617470607,0.0737940964722865,0.01751859851211667,-0.010439164866810747,-5.515927976641271,-13.964880758313193,-32.209818405798785,19.77298711355225,3.4809285925711833,38.579948070242395,-11.117417973844242,3.5420060632728863,9.460571931370678,-0.396834,-0.322376,-0.7807740000000001,0.08296899999999996,0.10733700000000002,-0.836315,0.479803,0.429713,0.05554099999999995,0.0,0.8723998636026251,single,-0.7807740000000001
120,1.0,jog,1.1348853954158045,0.9506780271210791,0.12180487219488587,0.2082120003279042,0.024484153285868233,1.1846459438795316,1.0230409216368617,0.4309372374894991,1.0067202688107475,-0.004800192007685088,-0.0010800432017324755,-0.0015600624024959882,8.281611111747234,15.421072970018301,28.72860493789308,24.248961908390577,20.611781090932855,33.233967519517506,-9.431691885271961,-2.2319262827131965,1.065534917114451,-0.39776599999999995,-0.32670699999999997,-0.7734,0.07347199999999998,0.099406,-0.8373430000000001,0.47123799999999993,0.42611299999999996,0.06394300000000008,0.0,0.9913973306261735,single,-0.7734
121,1.008333,jog,1.1040441617664791,0.9377175087003551,0.06888275531020865,0.5239512165041768,0.8870832861113305,1.0035056316128224,1.1687267490699667,0.5269410776431146,1.0879635185407521,-0.04128165126603901,-0.029521180847230374,-0.03300132005280211,-3.701096081762345,-1.5553244234638313,-6.350908062483823,17.482998611917235,11.52092165530018,9.749579950798676,-4.377950229011671,-3.413073040381394,-3.7731018421104534,-0.397227,-0.3301299999999999,-0.7649079999999999,0.0639280000000001,0.09134600000000004,-0.8381919999999999,0.4611550000000001,0.42147599999999996,0.07328400000000002,0.0,0.8991045373901336,single,-0.7649079999999999
122,1.016667,jog,1.0806335493160548,0.9851211903047742,0.034197264218859796,1.5434634820097433,1.3556632641296475,0.43942875523360114,1.2205423566114701,0.7378209743220439,1.2067434605231486,-0.036477081833462884,-0.041396688264943256,-0.041396688264938676,-2.8090487701492832,5.6879867535899615,-4.161925976883681,6.217375514939177,25.303563316406006,14.252452841660139,0.5765022117321925,-1.4249468943739851,-1.0073635963686707,-0.396061,-0.332191,-0.7551359999999999,0.054617999999999944,0.08279099999999995,-0.838822,0.45067899999999994,0.41498199999999996,0.08368600000000004,0.0,0.8850368525510295,single,-0.7551359999999999
123,1.025,jog,1.1178447137885572,0.9834393375735062,0.010200408016320954,0.7942294149196334,0.7467912675275307,0.9685913534396685,1.6025441017640825,0.8670346813872678,1.3079323172927044,0.018960758430336365,-0.001800072002878601,-0.04476179047161949,4.465518357434625,-0.2018304009681975,-2.8797379338220406,45.8420431000379,15.506265098430953,12.143148538288338,6.652806943933728,4.751784022808715,-0.4038284179384188,-0.392022,-0.33316099999999993,-0.7443219999999999,0.045460999999999974,0.07458100000000001,-0.8392799999999999,0.43748299999999996,0.40774199999999994,0.09495799999999999,0.0,0.9189244435779144,single,-0.7443219999999999
124,1.033333,jog,1.095163806552239,0.9650786031441081,0.04692187687507781,1.533831728980348,0.21125075426206477,0.9816148357432485,2.2286091443657363,1.2156486259450132,1.1497659906396063,0.00840033601344213,-0.011040441617662232,-0.02916116644665696,-2.7218177410677677,-2.203376266578399,4.406752533152072,75.13081034461094,41.83534676079915,-18.98071842710853,-1.2673013820825692,-1.1088887093223891,1.87214976898623,-0.38257699999999994,-0.33107299999999995,-0.735132,0.03640500000000002,0.06644700000000003,-0.8399139999999999,0.41898199999999997,0.39752,0.10478199999999993,0.0,0.9461785197574071,single,-0.735132
125,1.041667,jog,1.0992320614351163,0.9414446844252662,0.004919606431480503,1.1765451357818033,0.5298680334377446,1.331882883064407,2.5329973602112266,1.3510919126470062,1.0679145668346726,-0.03311735061194483,-0.0434365250779914,0.00011999040076764454,0.4881515338225686,-2.8358433787907793,-5.039869263690678,36.523664008338855,16.251894252699255,-9.82138514578057,-4.981723857137959,-3.887219037716557,3.5134577450714137,-0.37062800000000007,-0.32765900000000003,-0.726273,0.026967999999999992,0.05823900000000004,-0.839954,0.39759600000000006,0.3858980000000001,0.11368100000000003,0.0,0.90896421613054,single,-0.726273
126,1.05,jog,1.143165726629036,1.0082803312132333,-0.029281171246838676,1.027526418962067,0.31313221400645,0.768693942142538,2.753390135605385,1.6084243369734572,0.8874354974198828,-0.025681027241094893,0.01644065762629789,-0.028921156846273124,5.272250713298806,8.020598438493458,-4.104257491697898,26.448190974937564,30.881126164220145,-21.65835466396095,0.8923945002819884,7.1855493464884495,-3.4850770727277403,-0.3572099999999999,-0.322658,-0.718634,0.01722800000000002,0.04997399999999996,-0.839951,0.37443799999999994,0.37263199999999996,0.12131700000000001,0.0,0.9299554963558934,single,-0.718634
127,1.058333,jog,1.1830073202928266,0.9780391215648704,-0.08304332173287318,0.862849232452968,-0.09829714594582513,0.7836317563478,3.004680187207516,1.8033121324853174,0.48313932557302425,-0.042601704068162424,0.020880835233410427,-0.0018000720028802666,4.781182486954393,-3.6290903214164456,-6.451716126969279,30.156012432753307,23.387470960261847,-48.51748132087631,-2.030562441745792,0.5328426265585717,3.2546603676218777,-0.34202999999999995,-0.315781,-0.713916,0.0070149999999999935,0.04199799999999998,-0.839274,0.34904499999999994,0.35777899999999996,0.12535799999999997,0.0,0.9208701010157687,single,-0.713916
128,1.066667,jog,1.1539476841852547,0.8748500119990391,0.1778257739380816,4.567925866809525,-2.532018670797794,0.36611095699149954,3.0682745380369214,1.8228941684665068,0.4385649148068144,0.0016798656107461464,-0.008999280057587673,-0.014398848092152347,-3.4868773827179833,-12.381702611690724,31.301787337527333,7.630711642597162,2.3496563452350854,-5.348501411832192,5.313363292405596,-3.5853270087590436,-1.511732192137267,-0.32607600000000003,-0.30788000000000004,-0.711743,-0.0025880000000000347,0.034631999999999996,-0.840876,0.323488,0.34251200000000004,0.12913299999999994,0.0,0.9715621625096489,single,-0.711743
129,1.075,jog,1.1117244689787753,0.8523940957638348,-0.19248769950797473,1.226321578140219,1.623044612766219,0.41001396463455997,3.307452298091961,2.0597623904956337,0.1131645265810642,0.0016800672026964648,-0.0009600384015370304,0.011760470418816548,-5.0669885043177505,-2.694817740934174,-44.43939438930274,28.70247930577724,28.42532365644175,-39.04960857143324,2.4192001718280234e-05,0.9647475886296311,3.1392437910679387,-0.307779,-0.29781900000000006,-0.709196,-0.011838000000000015,0.027521000000000018,-0.8391740000000001,0.295941,0.3253400000000001,0.12997800000000004,0.0,0.9801356709981419,single,-0.709196
130,1.083333,jog,1.0286811472458615,0.9728789151565863,-0.17628705148206264,-0.3215980732481046,-0.3377860509276998,1.1551306424494878,3.4570982839312903,2.0229209168366395,0.10056402256090133,0.0016800672026830968,0.0030001200047931474,0.01536061442457667,-9.96559723183876,14.458756677397018,1.94415552933059,17.95823663018441,-4.4211536852266295,-1.5121209672582083,-1.6042236825046849e-12,0.47523801828034423,0.4320345620736901,-0.287543,-0.289069,-0.706889,-0.02039599999999997,0.019438999999999984,-0.837577,0.267147,0.308508,0.13068800000000003,0.0,0.9737653843309388,single,-0.706889
131,1.091667,jog,1.1483081353492033,0.95812335013201,0.0004799616030722434,1.9460745007386733,-0.087276393513514,0.5239052113080047,3.957883369330534,2.2982961363091396,0.2414206863450953,0.00287976961843346,0.009479241660673477,0.00899928005759582,14.354090245181677,-1.7705261608563225,21.210344742637176,60.08940309566273,33.042382946064954,16.901447538300534,0.1439527736681529,0.7774324041133254,-0.7632990601129075,-0.26412800000000003,-0.27790000000000004,-0.704881,-0.029942000000000024,0.011533000000000015,-0.837506,0.234186,0.28943300000000005,0.132625,0.0,0.9776930418757994,single,-0.704881
132,1.1,jog,1.0463218528740938,0.9845193807752125,-0.20112804512180266,0.16381060430421143,-0.8344607549584909,0.8569336715275093,3.892715708628273,2.1866074642985387,0.1891275651026001,0.016680667226688803,0.0009600384015370048,0.01428057122284879,-12.238843450750949,3.1676503831995735,-24.193928564127127,-7.820432101555257,-13.403176768342613,-6.275425566121961,1.6561739599490102,-1.022345284907755,0.633780291041987,-0.24040900000000004,-0.267883,-0.7016290000000001,-0.038522,0.0033370000000000344,-0.835711,0.20188700000000004,0.27122,0.13408199999999992,0.0,0.9633674003974446,single,-0.7016290000000001
133,1.108333,jog,1.1623664946597938,1.0062402496099907,-0.0969638785551468,-0.37899638579863054,-0.08710666844537301,1.927688510270638,3.9270370814833058,2.357734309372393,-0.07536301452058028,0.028921156846279723,-0.007320292811723187,0.015000600024001111,13.925914050846156,2.606608524514388,12.500199995998656,4.1187294917836565,20.536042850576706,-31.740139160348345,1.468917511051366,-0.9936794927709428,0.08640691241477588,-0.21737099999999993,-0.256621,-0.701449,-0.047966999999999926,-0.00510900000000003,-0.8347779999999999,0.169404,0.25151199999999996,0.13332899999999992,0.0,0.9443463587779903,single,-0.701449
134,1.116667,jog,1.170026397888161,0.9984401247900119,-0.08039356851451203,0.6082690392519631,-0.6814057829267243,1.4908365646136184,4.640628749699977,2.586873050155967,0.15538756899447814,0.026997840172776337,-0.006599472042226519,0.0032397408207342263,0.919114858215411,-0.9359401031891968,1.9882781426247482,85.6241502539796,27.49444933808166,27.687854993407328,-0.23077953845732802,0.08649157301375843,-1.4111902091752813,-0.18844700000000003,-0.24338300000000002,-0.699484,-0.057493000000000016,-0.01348499999999997,-0.834081,0.13095400000000001,0.22989800000000005,0.13459699999999997,0.0,0.9533651201764519,single,-0.699484
135,1.125,jog,1.2150486019440883,0.9068762750510146,-0.18744749789992532,0.71244607150792,0.5487888269372256,0.5221841076927602,4.293651746069883,2.3771750870034976,-0.1912876515060601,0.028081123244938153,-0.010440417616711875,0.012480499219968903,5.4028806019353866,-10.988101492739478,-12.846985405665938,-41.638905991851374,-25.16476216878333,-41.602690567687674,0.1299991686261641,-0.46093190621449553,1.1089353653227842,-0.16279300000000002,-0.2311310000000001,-0.6995159999999999,-0.06738399999999994,-0.021129000000000064,-0.8324149999999999,0.09540900000000008,0.21000200000000002,0.132899,0.0,0.9459086507355793,single,-0.6995159999999999
136,1.133333,jog,1.4731789271571007,1.2166086643465825,0.2366494659786515,0.18993858078461276,-2.242950096468299,3.1206080166761567,4.3102124084963895,2.5577823112924816,-0.1305652226089062,0.025561022440886795,-0.01068042721708947,0.00936037441497647,30.97687810068581,37.169373490408105,50.893671412286174,1.9873589855402398,21.67373386403284,7.286982946976414,-0.3024241934539038,-0.028802304137477277,-0.3744299537972474,-0.13915199999999994,-0.219955,-0.7025760000000001,-0.07944700000000005,-0.03135600000000005,-0.8343090000000001,0.0597049999999999,0.18859899999999996,0.131733,0.0,0.9512644892486093,single,-0.7025760000000001
137,1.141667,jog,1.2001439884809137,0.9790016798655999,-0.118430525557963,-0.3299715195053059,-0.3617279433704716,1.255898604273666,4.0043196544276105,2.756899448044135,-0.43100551955843347,0.04007679385649795,0.0013198944084453037,-0.01871850251979826,-32.761571715404955,-28.510557293134244,-42.60619048915429,-36.70419415272099,23.892145038595128,-36.049951637811965,1.7417532296149558,1.4399234011920665,-3.3691956965172207,-0.115782,-0.205138,-0.705181,-0.089115,-0.03950400000000004,-0.8334779999999999,0.026666999999999996,0.16563399999999995,0.128297,0.0,0.9262460196243738,single,-0.705181
138,1.15,jog,1.1765270610824516,0.9735989439577717,-0.1603264130565242,-1.3277103866458186,-0.4618006974156968,1.5738611293860263,4.13284531381259,2.573862954518207,-0.2552502100084015,0.042121684867393906,-0.026161046441850768,0.03972158886355508,-2.834144653601623,-0.6483542431091202,-5.027707608131715,15.423696074040617,-21.96525783342491,21.09148080523624,0.24539673717700425,-3.297844815828192,7.013091489662051,-0.09114699999999998,-0.191803,-0.7059719999999999,-0.09856799999999999,-0.047835000000000016,-0.831811,0.007421000000000011,0.14396799999999998,0.12583900000000003,0.0,0.8941116768995905,single,-0.7059719999999999
139,1.158333,jog,1.1904476179047,0.967118684747371,-0.0024000960038291887,-0.46927119002376344,-1.169581686301591,1.1647781828558663,4.6279851194046975,2.829833193327679,-0.18732749309972152,0.06108244329772864,-0.031561262450499054,0.011400456018240274,1.6705336400153872,-0.7776622117365447,18.95191612296799,59.41915343718937,30.717657363430668,8.151052071124298,2.2753820269212053,-0.6480518431115074,-3.3986718883132494,-0.062502,-0.17628100000000002,-0.7075130000000001,-0.10797900000000005,-0.05615700000000001,-0.8316960000000001,0.045477000000000045,0.12012400000000001,0.12418300000000004,0.0,0.883844589687956,single,-0.7075130000000001
140,1.166667,jog,1.2325413966882888,0.9538036957043599,-0.06443484521238539,0.09528406633652545,-0.8972051036839225,0.8942985144898646,4.835853131749553,2.8616510679146225,-0.24754019678425976,0.010679145668347424,-0.022678185745140186,-0.0019198464122868921,5.050849386079849,-1.5976708714916423,-7.44357441907336,24.94216610809446,3.817839523271433,-7.224946446429011,-6.047911882575255,1.0658839339283703,-1.598308426989131,-0.032472,-0.160381,-0.709039,-0.11816200000000004,-0.06429499999999999,-0.831175,0.08569000000000004,0.096086,0.12213600000000002,0.0,0.9580996529070451,single,-0.709039
141,1.175,jog,1.3578543141725388,1.2040081603263937,-0.011280451218053144,0.5740011500302707,-0.2758497695977675,1.7499381205679654,4.396615864634505,2.7368294731788785,-0.48301932077282256,0.0135605424217002,-0.028321132845314994,0.009120364814592385,15.038151624174704,30.025736784114898,6.378782430616983,-52.71058047702389,-14.979190535910462,-28.25862522363599,0.3457814416599934,-0.6771807392505351,1.3248783423591843,-0.00714999999999999,-0.14760800000000002,-0.71297,-0.12936399999999998,-0.07456400000000002,-0.831005,0.12221399999999999,0.073044,0.118035,0.0,0.9455034167543004,single,-0.71297
142,1.183333,jog,1.4042961718468856,1.1413656546261945,-0.044281771270845566,-0.9584973858019622,-0.15688723146793002,1.191719536469857,4.522860914436622,2.761310452418119,-0.4014160566422711,0.017040681627262303,-0.034201368054720065,0.06132245289811661,5.573245850755701,-7.517401380079169,-3.9603168190078875,15.150011976733252,2.9378350221097613,9.792783407002545,0.41763341000385645,-0.7056564513866704,6.264501150068967,0.018837000000000048,-0.13410900000000003,-0.7159460000000001,-0.140924,-0.08435999999999999,-0.830125,0.15976100000000004,0.04974900000000004,0.11417899999999992,0.0,0.8795775764169929,single,-0.7159460000000001
143,1.191667,jog,1.4282457403407616,1.2852171826253833,-0.018238540916731442,-0.6608419631364505,0.41909788621307137,1.6548219698994664,4.264818814494807,2.8998080153587553,-0.6189104871610219,0.010439164866817684,-0.0027597792176619956,0.015478761699064033,2.873718321799351,17.260802495702865,3.1249376474818726,-30.962574987018648,16.618378082629633,-26.09724388273928,-0.7921186417620072,3.7726888453393124,-5.500802879655894,0.04247700000000004,-0.12065300000000001,-0.720952,-0.15273999999999993,-0.09509400000000001,-0.829844,0.19521699999999997,0.025559,0.10889199999999999,0.0,0.9685452437714435,single,-0.720952
144,1.2,jog,1.8601944077763333,1.7459498379935332,0.3403336133445308,-0.6959934827685322,-3.108932692139365,4.225758036005601,4.154926197047915,2.995919836793501,-0.6192247689907651,-0.009480379215174844,-0.04452178087123648,0.07296291851674103,51.83591352881023,55.29013024938847,43.03037972654093,-13.187641599291045,11.533879927366673,-0.037715328182303824,-2.390440907475424,-5.011640664055546,6.898374753111426,0.06159899999999996,-0.11023699999999997,-0.7289479999999999,-0.16832000000000003,-0.110014,-0.8320719999999999,0.22991899999999998,0.00022299999999997322,0.103124,0.0,0.8566700190266985,single,-0.7289479999999999
145,1.208333,jog,1.9927997119884457,1.7355094203767816,0.7113884555382144,-2.133312320139807,-4.408731195043516,4.354007083925689,4.223688947557829,3.225969038761489,-0.6930277211088325,0.019920796831872863,0.029041161646461085,0.07824312972518761,15.913273036374674,-1.2529002300193743,44.52836219772916,8.251860135594878,27.60700851649877,-8.856708522508836,3.5282822569359404,8.82790621837229,0.633650691041221,0.08018899999999995,-0.09781699999999999,-0.740651,-0.18476000000000004,-0.12423400000000001,-0.837348,0.264949,0.026417000000000024,0.09669700000000003,0.0,0.8569944196369987,single,-0.740651
146,1.216667,jog,1.6714662826974158,1.4918406527478119,0.19030477561795134,-2.1936953041269383,-0.4998710323695072,1.4074104660357607,4.7060235181186405,3.5196784257260085,-0.6597072234221392,0.06179505639549472,0.02867770578353657,0.13174946004319926,-38.55692696076746,-29.237913082430328,-62.52503958726577,57.875518425824446,35.24230705117889,3.998139871213577,5.024509186899766,-0.04361121465377035,6.420246018480042,0.10547899999999996,-0.08091700000000002,-0.747735,-0.198175,-0.13642800000000005,-0.837836,0.303654,0.05551100000000003,0.09010099999999999,0.0,0.7527992267541533,single,-0.747735
147,1.225,jog,1.6961478459138044,1.2029281171246613,0.1843273730949184,-0.34041528413540545,1.6295477482888805,-0.29354741693315606,4.632905316212567,3.7527901116044013,-0.4454578183127239,0.0014400576023055071,-0.009360374414965811,0.19620784831392923,2.9619060622090676,-34.67089111042188,-0.7173169954437584,-8.774535210137037,27.9745212862581,25.710957051411437,-7.24288957076541,-4.564752213908762,7.735316005127666,0.12995099999999998,-0.05966899999999997,-0.752983,-0.21229699999999996,-0.14652999999999994,-0.837737,0.34224799999999994,0.08686099999999997,0.084754,0.0,0.6726062084216039,single,-0.752983
148,1.233333,jog,1.9049561982479473,1.5231009240369797,0.23388935557423585,-0.06452305721803243,-0.07880800666372982,1.5342230487178419,4.313692547701948,3.2847713908556653,-0.6788671546861947,0.033361334453378494,0.021000840033592563,0.2542901716068661,25.058004600281382,38.42227372042738,5.947675804550331,-38.30706450385478,-56.16449306957163,-28.010240774447734,3.830706450386809,3.643491473485978,6.970157601456549,0.150023,-0.044989,-0.7605890000000001,-0.22789299999999996,-0.15904700000000005,-0.8375670000000001,0.3779159999999999,0.11405800000000005,0.07697799999999999,0.0,0.5711206291894209,single,-0.7605890000000001
149,1.241667,jog,1.7823374130069431,1.4361651067914467,0.6025917926565794,-1.3276869393873794,-1.6781143277958772,0.5304489122459248,4.2968562514998485,3.470362371010293,-0.5716342692584538,0.03383729301655895,0.08471322294216212,0.3677705783537295,-14.713077182745762,-10.431463552379691,44.240753189625714,-2.0201939287376627,22.26913608766813,12.86691689797697,0.057110458744955066,7.644874359079561,13.616559484864712,0.17097900000000002,-0.028036000000000005,-0.770375,-0.24246499999999993,-0.17031000000000007,-0.839524,0.4134439999999999,0.14227400000000007,0.06914900000000002,0.0,0.5,flight,-0.770375
150,1.25,jog,1.808952358094344,1.4546981879275263,0.5917436697467975,-1.0735044823739261,-1.8870765293032918,0.32614474926672016,4.186367454698226,3.5145805832233554,-0.5427817112684556,0.030001200047998892,0.1202448097923998,0.4663386535461462,3.193921167334833,2.2240586986775126,-1.3018268222467269,-13.259185983634126,5.306397721476413,3.46244545661808,-0.46034957021002,4.263960980467781,11.82864216877686,0.19079,-0.01087100000000002,-0.779829,-0.257289,-0.18142999999999998,-0.840569,0.448079,0.17055899999999996,0.060740000000000016,0.0,0.5,flight,-0.779829
151,1.258333,jog,1.944677787111502,1.5113404536181578,0.6187447497899898,-1.355132489327754,-1.2683573417283476,1.1324982940612867,4.132125285011438,3.4335773430937584,-0.47317892715709087,0.07044281771270966,0.18888755550221753,0.4692187687507539,16.287702990178705,6.797343776626916,3.240259215551734,-6.509320735244092,-9.720777646657599,8.352668200091854,4.853188247295229,8.237458983537543,0.34562764965891785,0.20901799999999998,0.005147000000000013,-0.788928,-0.272907,-0.19245,-0.841815,0.481925,0.19759700000000002,0.05288700000000002,0.0,0.5,flight,-0.788928
152,1.266667,jog,1.8951283897288043,1.521358291336681,0.4223662107031366,1.5241706978724403,0.5155812797204995,0.17327135132659302,4.0341972642188315,3.4606431485480904,-0.40580753539716635,0.16690664746819167,0.15910727141829126,0.603071754259655,-5.945452049759698,1.202044362673756,-23.563539607253624,-11.750422461315763,3.247636843572331,8.083920297567074,11.574733591970395,-3.5733482222133484,16.06107337519799,0.22684500000000002,0.021309000000000022,-0.7958299999999999,-0.28731000000000007,-0.20380299999999996,-0.840309,0.514155,0.22511199999999998,0.044479000000000046,0.05521000000000009,0.5,flight,-0.7958299999999999
153,1.275,jog,1.9903996159846598,1.3591743669746918,0.5691827673107039,-0.0793597561927665,-0.5201853130738673,-0.22362949400766863,3.947677907116321,3.437297491899704,-0.40141605664226776,0.15396615864635135,0.26929077163087056,0.6483859354374232,11.433004470881599,-19.46284943741637,17.618691540569863,-10.38273816182785,-2.801590861440837,0.5269985305290571,-1.5529207754518703,13.222548927466736,5.437919258102558,0.243155,0.038625999999999994,-0.803918,-0.302613,-0.21288499999999994,-0.839649,0.545768,0.25151099999999993,0.03573099999999996,0.14268999999999998,0.5,flight,-0.803918
154,1.283333,jog,1.950918036721434,1.4140165606624002,0.5982239289571499,-0.39912139650025424,-0.2655458207170347,-0.16007890082210094,3.681507260290347,3.2566902676106504,-0.20304812192487498,0.2353294131765218,0.2796111844473662,0.6945877835113284,-4.737979030748232,6.5813264955847135,3.485078800725487,-31.941755289327883,-21.67373386404063,23.805104370261528,9.763981102864399,1.238499077942574,5.544443546610399,0.257576,0.05398100000000003,-0.8105950000000001,-0.316909,-0.22233799999999998,-0.838846,0.574485,0.276319,0.028250999999999915,0.21749000000000013,0.5,flight,-0.8105950000000001
155,1.291667,jog,1.9636429085673508,1.4126469882409716,0.5904727621790313,-0.657450347792709,-0.061159885162554946,0.052776347252590984,3.4748020158387987,3.037796976241959,-0.11087113030957665,0.2709383249340083,0.2996160307175449,0.7775377969762558,1.5268624725122384,-0.16433554372794354,-0.9300656081255998,-24.802645122576457,-26.265093756742928,11.060354165502769,4.272727592691047,2.400389521259786,9.953205359362723,0.27017,0.067525,-0.8164399999999999,-0.33101600000000003,-0.23161400000000004,-0.837287,0.601186,0.29913900000000004,0.02084700000000006,0.29152999999999996,0.5,flight,-0.8164399999999999
156,1.3,jog,1.9773190927636783,1.4330973238929317,0.585023400936036,0.2115709012745004,0.1625676855570391,-0.006210346812145519,3.1879275171006287,2.86019440777626,-0.039961598463937854,0.4238569542781746,0.28189127565102656,0.933157326293036,1.6412077518693515,2.454138443772918,-0.653949507139714,-34.42631690125584,-21.313160742313173,8.509484200844541,18.350969560082035,-2.1270556902097706,18.675090521634168,0.280258,0.07941699999999999,-0.821648,-0.34396099999999996,-0.241207,-0.8343860000000001,0.624219,0.320624,0.012738000000000027,0.37262,0.5,flight,-0.821648
157,1.308333,jog,1.9990399615984829,1.4117364694587908,0.5318612744509819,-0.3880224888202898,0.37579452682047537,0.15265330621219853,2.872434897395922,2.6485059402376345,0.01752070082803415,0.3957758310332344,0.30673226929077474,1.0429617184687487,2.6066085245175454,-2.563405068299654,-6.37971036662122,-37.86062878971672,-25.403632249925312,6.898151841110348,-3.3698695841762243,2.9810384783089408,13.177054143251373,0.287536,0.089723,-0.8259340000000001,-0.35732100000000006,-0.250415,-0.8301270000000001,0.644857,0.340138,0.004193000000000002,0.45807,0.5,flight,-0.8259340000000001
158,1.316667,jog,1.9874010079193507,1.4295656347492067,0.5046796256299376,-0.5031495936279798,0.728403717699397,0.11662695055671107,2.5052795776337713,2.4022078233741095,-0.007559395248380971,0.4698824094072475,0.3754499640028694,1.2680585553155643,-1.3965627164785286,2.1393286885548064,-3.2615369355704376,-44.05511396234078,-29.553409750842704,-3.0093707795074307,8.892078038638417,8.245463728353029,27.009459664844478,0.291852,0.097829,-0.830203,-0.369968,-0.25920000000000004,-0.823765,0.6618200000000001,0.35702900000000004,0.006438000000000055,0.5,0.43562,flight,-0.823765
159,1.325,jog,2.0032401296052007,1.44137765510622,0.4185767430697322,-0.14542032802828964,0.3868005825202265,0.15799296780617772,2.0738029521181027,2.0550822032881504,-0.06348253930157284,0.5810632425297081,0.4974198967958842,1.4616584663386665,1.9007706331273424,1.4174991428073263,-10.33275921759345,-51.779266232530006,-41.65674067994268,-6.7110457282122145,13.342233664041952,14.636977414258483,23.23291863951805,0.29244000000000003,0.10294299999999998,-0.83422,-0.381819,-0.267066,-0.815073,0.6742589999999999,0.370009,0.019146999999999914,0.5,0.30853,flight,-0.815073
160,1.333333,jog,1.9770790831632923,1.4249369974798738,0.377415096603852,-0.2672521097571806,0.8155842227918212,0.06061922539169406,1.660626425056972,1.764430577223059,-0.1311652466098617,0.8298331933277191,0.7099483979359023,1.6403456138245243,-3.1394511510749985,-1.9729578334748579,-4.939595159711929,-49.58316657399778,-34.8795903114228,-8.1222497669852,29.85358823929037,25.504440314414293,21.443315430919796,0.289803,0.10577199999999999,-0.8384579999999999,-0.391379,-0.27302400000000004,-0.804549,0.681182,0.378796,0.03390899999999997,0.5,0.16091000000000005,flight,-0.804549
161,1.341667,jog,1.9702423806095892,1.4346052315815,0.27381809455244177,-0.30093798833572133,0.3408890556554664,0.220117647417698,1.2927765778737954,1.457043436525106,-0.2518598512119083,0.9484041276698004,0.7645788336933177,1.592152627789809,-0.8203386793500342,1.1600952845724142,-12.4306457945059,-44.13845058593515,-36.88350620325882,-14.482193976727729,14.227373931135538,6.555127880659525,-5.782695708509256,0.284157,0.105959,-0.842839,-0.399895,-0.278608,-0.793562,0.684052,0.384567,0.049277000000000015,0.5,0.007229999999999848,flight,-0.793562
162,1.35,jog,1.9707188287531148,1.4386175447017628,0.22416896675866413,-0.32475118038923945,0.3511920990098769,0.05969529514258278,0.8625945037801361,1.1862474498979758,-0.36637465498619304,1.1796471858874156,0.9896795871834705,1.6099843993759448,0.057176064265634784,0.4814968343048918,-5.9581336605996364,-51.62391384779212,-32.496818267985766,-13.742326145959767,27.75027699719322,27.013170945655688,2.1398981862637094,0.27492300000000003,0.103856,-0.84776,-0.40648700000000004,-0.282349,-0.782014,0.6814100000000001,0.386205,0.06574599999999997,0.5,0.0,flight,-0.782014
163,1.358333,jog,1.918276731069261,1.4695787831513403,0.1518060722428997,-0.4340830725682574,0.54649190835056,-0.015784879961259653,0.5522620904836238,0.9098763950558095,-0.49453978159126816,1.465258610344427,1.2180487219488882,1.6157446297852067,-6.293303454200678,3.7154972338386796,-8.683894697679719,-37.24137925075185,-33.16585321518887,-15.380430409825548,34.27474192451866,27.405392387545884,0.6912552993234048,0.26354,0.09919199999999999,-0.8531460000000001,-0.410262,-0.28444500000000006,-0.769815,0.673802,0.383637,0.08333100000000004,0.5,0.0,flight,-0.769815
164,1.366667,jog,1.9467242620590206,1.474202063834881,0.05003599712023008,0.14153571864669734,-0.21589403933363907,0.024236444568104934,0.2781377489800812,0.6581473482121385,-0.6079913606911403,1.7826973842092508,1.405807535397158,1.5688744900407852,3.413430644319581,0.5547493020807104,-12.211432100152248,-32.89228959725708,-30.205069215703038,-13.613100443949044,38.08960569532295,22.529255273370325,-5.623966851982385,0.249634,0.092391,-0.85863,-0.411629,-0.285015,-0.7571570000000001,0.661263,0.377406,0.10147299999999992,0.5,0.0,flight,-0.7571570000000001
165,1.375,jog,1.9792391695668003,1.4850594023761083,0.0116404656186265,0.003535459106404688,-0.8465725636928686,0.4974245123295055,0.02544101764070466,0.49381975279011536,-0.7406696267850779,1.925717028681169,1.4610584423377058,1.3376935077403207,3.9019449787327543,1.302932742256989,-4.607648086115916,-30.324820753555603,-19.720100254653143,-15.922028812425145,17.16304385838466,6.630374047827709,-27.742827589159557,0.233353,0.084131,-0.8648990000000001,-0.41207499999999997,-0.285215,-0.7461070000000001,0.645428,0.369346,0.11879200000000001,0.5,0.0,flight,-0.7461070000000001
166,1.383333,jog,1.9090363614544759,1.4690987639505717,-0.16536661466458694,0.6970301108044084,-0.4902995401020163,-0.10455887400469518,-0.07368294731789381,0.2750510020400844,-0.8991959678387217,2.332413296531877,1.8243129725189233,1.2276491059642518,-8.424673960437433,-1.915353225193421,-21.241699301957883,-11.895351609096288,-26.253300222012832,-19.023921883312767,48.805504362259924,43.592287313239034,-13.205856447386283,0.216831,0.074181,-0.8710140000000001,-0.40854700000000005,-0.282255,-0.734499,0.625378,0.356436,0.13651500000000005,0.5,0.0,flight,-0.734499
167,1.391667,jog,1.9140868730501415,1.505639548836082,-0.23434125269979345,0.8875961197128825,-0.9852298460230263,-0.023126710394495525,-0.2311015118790459,0.0053995680345575985,-0.92740580753539,2.390208783297324,1.9830813534917004,0.9756419486441009,0.6060129104470325,4.384543422787389,-8.276294460667865,-18.88871665000611,-32.35558363397225,-3.3849099708025117,6.934903619563981,19.050681662200134,-30.238439803233618,0.19895300000000002,0.061678,-0.87679,-0.40457899999999997,-0.278276,-0.7244149999999999,0.603532,0.33995400000000003,0.15237500000000004,0.5,0.0,flight,-0.7244149999999999
168,1.4,jog,1.8519140765630795,1.4178567142685827,-0.3937357494299782,0.16935317163998864,-0.271530030356945,-0.6413507417195724,-0.2882515300612069,-0.06264250570022795,-0.9519980799232051,2.8417136685467654,2.2295691827673325,0.8456738269530856,-7.461034019808298,-10.534361522560921,-19.128104731811618,-6.8582765129199,-8.165375463192868,-2.9511907341671972,54.1827535400751,29.5797227019842,-15.596798474860979,0.181119,0.04934100000000001,-0.881442,-0.396331,-0.271512,-0.7140869999999999,0.57745,0.320853,0.16735500000000003,0.5,0.0,flight,-0.7140869999999999
169,1.408333,jog,1.9012360494419442,1.3693747749909762,-0.4251770070802713,1.1796354725479228,-1.2964536596930238,-0.6920283116790276,-0.11880475219008443,-0.07620304812192481,-0.6672266890675513,2.8921156846273357,2.2839313572542492,0.6077043081723145,5.9188735004036825,-5.818065435930125,-3.77310184210879,20.334426721603204,-1.627330183810948,34.17393386003225,6.048483869023087,6.523721887305384,-28.557484553074154,0.164286,0.037294999999999995,-0.883459,-0.388074,-0.263891,-0.70548,0.55236,0.301186,0.177979,0.5,0.0,flight,-0.70548
170,1.416667,jog,1.8166546676266244,1.2840172786177353,-0.5165586753059858,0.5575698174220707,-0.7129051939750978,-0.8970441144990032,0.08399328053755933,-0.007199424046075325,-0.1504679625629976,3.0965922726182455,2.550035997120278,0.4469642428605804,-10.148953901526449,-10.242080198373229,-10.964922993246486,24.33381722193996,8.279772507301512,62.00608669361213,24.53522774069039,31.93000238373338,-19.28726485621996,0.149846,0.026534000000000002,-0.880408,-0.37740700000000005,-0.25334,-0.69745,0.527253,0.279874,0.18295799999999995,0.7125431885583312,0.0,single,-0.69745
171,1.425,jog,1.6947077883115023,1.2836913476538834,-0.5941437657506242,1.04796384297943,-0.4010968195599626,-1.0554002630792625,0.13932557302291793,0.1482059282371269,-0.13200528021120658,3.2158886355453706,2.659066362654461,0.2832113284531333,-14.634210886249853,-0.03911328019343709,-9.31058327668752,6.64014070387107,18.64938824951392,2.2156105066351492,14.316136196702628,13.084167230790921,-19.65113577432428,0.136885,0.017072000000000004,-0.876557,-0.36473099999999997,-0.241879,-0.690139,0.501616,0.25895100000000004,0.18641800000000008,0.5958479161859981,0.0,single,-0.690139
172,1.433333,jog,1.7457098283931523,1.196807872314903,-0.6716668666746687,1.0673379865506296,-1.2335607818366014,-1.092758118581211,0.1882875315012602,0.22728909156366378,-0.08940357614304602,3.386175447017911,2.8725549021961125,0.1638065522620926,6.12048962938323,-10.42643409804167,-9.303144236654887,5.875670044202896,9.490359213553056,5.112408984538696,20.435234786096455,25.61964953097968,-14.329146308777366,0.12390699999999999,0.008993000000000001,-0.871705,-0.35106099999999996,-0.22791500000000003,-0.683177,0.47496799999999995,0.236908,0.18852799999999992,0.5,0.0,flight,-0.683177
173,1.441667,jog,1.6803455723541991,1.184185265178777,-0.7084233261339064,1.1721961660892557,-1.2553267998798365,-1.4462684889313246,0.11999040076793775,0.15670746340292677,-0.05135589152867789,3.632709383249312,3.0355171586272918,0.03923686105111489,-7.843083278012075,-1.5145916889999826,-4.41042230132438,-8.195000087991593,-8.469117849860389,4.565356925170128,29.581705811303014,19.55390645922462,-14.947167171943455,0.11090299999999999,0.0004299999999999998,-0.866229,-0.33479,-0.21248599999999998,-0.676946,0.445693,0.212916,0.18928299999999998,0.6600966111225488,0.0,single,-0.676946
174,1.45,jog,1.6681867274691136,1.0691227649106063,-0.7073082923316943,0.9754437864372029,-1.3222134081693646,-1.4581247978484222,0.04272170886835788,0.1024840993639764,-0.04368174726989075,3.722188887555535,3.204728189127592,-0.08928357134285389,-1.4591197510003209,-13.808052354274777,0.13380940864178767,-9.27261393250697,-6.507063967232793,0.9209341484204019,10.737970035548264,20.306135905472438,-15.423068810028793,0.09735800000000001,-0.007624999999999993,-0.860699,-0.317674,-0.19469,-0.6717960000000001,0.415032,0.187065,0.18890299999999993,0.8011405432386653,0.0,single,-0.6717960000000001
175,1.458333,jog,1.6236649465978354,1.1651266050641824,-0.6536661466458653,1.6454459387571816,-1.5349102773845216,-1.1740758982189015,0.01920076803072011,0.08784351374054766,-0.07032281291251566,3.7671906876274397,3.2764910596423276,-0.2239289571582832,-5.342827417649986,11.520921655295142,6.437314974898367,-2.822625805548705,-1.756940552433515,-3.1970557593453073,5.4004320259095175,8.611888937325604,-16.158092621556097,0.08398800000000001,-0.016602,-0.855838,-0.29981199999999997,-0.177096,-0.668215,0.38380000000000003,0.16049400000000003,0.18762299999999998,0.8097483361498952,0.0,single,-0.668215
176,1.466667,jog,1.620110391168739,1.136789056875471,-0.6093112550995935,1.68442039935368,-1.5097422729508994,-1.4242672605120803,-0.013918886489081737,0.040676745860330994,-0.03395728341732708,3.8501319894409183,3.365010799136135,-0.35133189344852916,-0.4265125304891551,-3.4002337639443136,5.322161212655707,-3.9740406191267668,-5.6595593808756375,4.363514458266051,9.952160044814034,10.621519017735661,-15.287129384479048,0.07036999999999999,-0.025737000000000003,-0.851043,-0.281227,-0.158526,-0.666065,0.351597,0.132789,0.18497799999999998,0.9086911506058426,0.0,single,-0.666065
177,1.475,jog,1.6794671786871156,1.1420856834273176,-0.5761430457218254,1.642992257814018,-1.8715422312928323,-1.770339547755065,-0.06192247689907352,0.017760710428417936,-0.030601224048961633,3.9825993039720884,3.4659786391455043,-0.4273370934837329,7.123099426182126,0.6356206110460221,3.9803443391056663,-5.760661275649939,-2.750034253199647,0.40274323393320394,15.896713612284627,12.116625466142764,-9.120988843778038,0.05585900000000002,-0.035106,-0.8464969999999999,-0.262035,-0.139161,-0.664825,0.317894,0.10405500000000001,0.18167199999999994,0.8811365057731588,0.0,single,-0.664825
178,1.483333,jog,1.6159846393855908,1.2464898595943947,-0.5321012840513595,1.944896317563456,-1.3010465821951294,-1.9161864963563404,-0.044041761670467965,0.025681027241088915,-0.00972038881555244,3.9801992079683552,3.5564622584903716,-0.5913836553462212,-7.618209444560829,12.529002300141372,5.285222809368333,2.1457716582990183,0.9504760365619886,2.5058004600275274,-0.2880230413696346,10.858468660130576,-19.686374878493915,0.04202600000000001,-0.045279,-0.842144,-0.242334,-0.119912,-0.665319,0.28436,0.074633,0.176825,0.9134989099310598,0.0,single,-0.665319
179,1.491667,jog,1.752339812814962,1.32769378449723,-0.24850011999040428,-0.10098732625250191,-1.2409893496586117,-1.7087222667604705,-0.047036237101031976,0.014638828893688047,-0.010439164866810608,4.077993760499129,3.584713222942139,-0.766618670506351,16.361311906571906,9.743691493020725,34.02941733392765,-0.3593083070031184,-1.324957805063689,-0.08624622645286335,11.734407551088646,3.3898445466483094,-21.02651969763961,0.02703,-0.05622200000000001,-0.84016,-0.222952,-0.101102,-0.669637,0.249982,0.04487999999999999,0.17052299999999998,0.9160741220692723,0.0,single,-0.669637
180,1.5,jog,1.8226329053162302,1.2804512180487335,-0.28525141005640037,-0.9967957518132572,0.4278893963407786,-1.8271564048416797,-0.008880355214207538,0.05160206408256375,0.0026401056042243353,4.142325693027759,3.6617064682587634,-0.843873754950207,8.435508520493073,-5.669334747209527,-4.410331221168418,4.5788889819782534,4.435765653291257,1.569575239533789,7.720140709064087,9.239559020355857,-9.270980972501702,0.011768,-0.06646200000000001,-0.837761,-0.20362200000000003,-0.081259,-0.674292,0.21539000000000003,0.01479699999999999,0.16346899999999998,0.9126214512099957,0.0,single,-0.674292
181,1.508333,jog,1.7851914076563227,1.3842553702148213,-0.3666146645865904,0.2718831445619481,0.20198479141907544,-1.521262391220181,-0.014280571222850003,0.020760830433218296,0.023880955238209482,4.274090963638585,3.6427457098284264,-0.9485179407176367,-4.493159445566771,12.456996539792234,-9.76398110286701,-0.6480518431108261,-3.701096081764759,2.5490039162348905,15.812464971898127,-2.2753820269215455,-12.557804604275853,-0.0032270000000000076,-0.077824,-0.834507,-0.18288200000000002,-0.062438999999999995,-0.679141,0.179655,0.015385000000000003,0.155366,0.9421388919284316,0.0,single,-0.679141
182,1.516667,jog,1.8771298296136156,1.4562035037196912,0.05015598752100147,1.6236205325496182,0.38021855356666884,-1.6092673585367443,-0.006359491240700395,0.03179745620350364,0.017398608111350876,4.388168946484248,3.867170626349862,-1.0521958243340452,11.03172809662734,8.633085373754428,50.00847757470467,0.95045356157302,1.324289149302287,-0.7778194296686534,13.688262880448974,26.92883567571801,-12.440350805904453,-0.018923999999999996,-0.089695,-0.8347800000000001,-0.16195500000000002,-0.042345999999999995,-0.688328,0.14303100000000002,0.047349,0.14645200000000003,0.938666827127324,0.0,single,-0.688328
183,1.525,jog,1.8097923916956824,1.6764670586823631,0.12840513620545124,-0.6193868095671609,0.2034741511648334,-0.6114071868727144,0.004440177607102104,-0.020640825633026168,-0.0324012960518423,4.4759390375615435,3.7169086763470878,-1.0726029041161746,-8.080815782783374,26.432683902876988,9.390273453072181,1.2960121022204005,-6.292845534205003,-5.976227548685183,10.532832242565298,-18.03215528654453,-2.448947531756822,-0.033968,-0.10383700000000001,-0.8361200000000001,-0.13973799999999997,-0.025343,-0.6983360000000001,0.10576999999999999,0.07849400000000001,0.13778400000000002,0.9355449586956852,0.0,single,-0.6983360000000001
184,1.533333,jog,1.8966758670346497,1.4129365174606736,0.04128165126605123,2.511529701389282,0.6664930414706691,-1.1494031773784712,-0.06420256810272058,0.006720268810752372,0.07056282251289907,4.392655706228173,3.843753750149939,-1.0968438737549322,10.42643409803982,-31.624929943799938,-10.455236402183905,-8.23745898353792,3.2834626717602378,12.356188475307759,-9.9943995359857,15.222017737051367,-2.9090327179595734,-0.05030799999999999,-0.115555,-0.8358760000000001,-0.11893899999999999,-0.005087000000000001,-0.7078200000000001,0.068631,0.11046800000000001,0.12805599999999995,0.8406066737346107,0.0,single,-0.7078200000000001
185,1.541667,jog,1.823734101271935,1.5549556035517453,0.08531317494599468,0.22957464707072142,0.3583068641653996,-0.5512432716343604,0.029397648188144936,0.03899688024958148,-0.04379649628029808,4.628029757619478,3.91288696904255,-1.1087113030957731,-8.752311706589404,17.04092705676439,5.283360172779491,11.231127464706898,3.8728835419762087,-13.722020493544434,28.24262675681656,8.295322641302178,-1.4239776026927258,-0.06526200000000001,-0.128189,-0.8369519999999999,-0.09556800000000001,0.014563999999999994,-0.7177709999999999,0.030306,0.142753,0.11918099999999998,0.8906698237927335,0.0,single,-0.7177709999999999
186,1.55,jog,1.8870754830192864,1.5361814472578643,0.14832593303732067,0.7842274065278977,0.607094189552484,-0.7464436548457192,0.022560902436096295,0.07116284651385886,0.04452178087123446,4.633385335413336,4.079563182527231,-1.2323292931717054,7.601269860476451,-2.2529888748206752,7.5618334442967585,-0.82044230793814,3.8600703545273993,10.598617202871834,0.6426950430646555,20.001945695989193,-14.834752199199574,-0.08079900000000001,-0.140397,-0.8378169999999999,-0.072683,0.035758,-0.729276,0.008116000000000012,0.176155,0.10854099999999989,0.8551309593821572,0.0,single,-0.729276
187,1.558333,jog,1.897755910236426,1.556222248889969,0.04380175207009037,0.5562613736841135,1.5780610697208066,-1.1122680397969236,-0.06744269770790977,0.04380175207008371,0.09600384015360644,4.802112084483423,4.051722068882793,-1.162246489859605,1.2817025341581405,2.4049923955484145,-12.543403452205839,-10.8008640518429,-3.2834626717599185,6.1780942376542,20.24801980920302,-3.3410672800238284,8.410272808364455,-0.09717500000000001,-0.153,-0.8373820000000001,-0.048480999999999996,0.056553000000000006,-0.739326,0.048694000000000015,0.209553,0.09805600000000003,0.7912747134870494,0.0,single,-0.739326
188,1.566667,jog,1.961723062155013,1.6107511399087957,0.18622510199183898,-0.24027522597205256,1.1210842467908555,-0.8784550092183809,-0.045356371490279164,0.056755459563234655,0.15598752099831925,4.801175905927492,4.08711303095749,-1.1771058315334681,7.675444194694797,6.542943486780203,17.089434835822836,2.6501471343449046,1.554320553533819,7.197465904093155,-0.11233244011653379,4.246575722905861,-1.7829783625945577,-0.113902,-0.16595100000000002,-0.837634,-0.024816999999999978,0.07719099999999998,-0.750688,0.08908500000000003,0.24314199999999997,0.08694599999999997,0.7132050222613564,0.0,single,-0.750688
189,1.575,jog,2.042481699267987,1.680907236289466,-0.10548421936878462,-4.4547802380232495,1.900482648468957,-0.8928910741003674,-0.053762150486020406,0.04392175687027417,0.23040921636865663,4.877355094203811,4.054242169686826,-1.1172446897876016,9.691424110521394,8.41906832841364,-35.00651882402811,-1.008733828842112,-1.5401059273923678,8.930960682867882,9.14186826788905,-3.9446611389253357,7.18362435447823,-0.13137,-0.179592,-0.834835,-0.0011939999999999729,0.096968,-0.759119,0.13017600000000001,0.27656000000000003,0.075716,0.5989323396681212,0.0,single,-0.759119
190,1.583333,jog,1.9488779551181745,1.837153486139412,0.3460938437537438,0.621100558096495,0.26417394623019286,-0.2037256190280058,-0.018480739229567358,0.03708148325933017,0.31681267250689515,4.985599423976872,4.143165726628992,-1.0146405856234078,-11.232898613921865,18.75029999399297,54.1915352361119,4.233938708322625,-0.8208656679399838,10.368829489768032,12.989839166333784,10.671253683207118,12.312985019103811,-0.147764,-0.194592,-0.8350789999999999,0.024110999999999994,0.11618400000000001,-0.770458,0.171875,0.310776,0.06462099999999993,0.5,0.0,flight,-0.770458
