frame_id,timestamp,gait_type,root_linear_velocity_x,root_linear_velocity_y,root_linear_velocity_z,root_angular_velocity_x,root_angular_velocity_y,root_angular_velocity_z,left_linear_velocity_x,left_linear_velocity_y,left_linear_velocity_z,right_linear_velocity_x,right_linear_velocity_y,right_linear_velocity_z,root_acceleration_x,root_acceleration_y,root_acceleration_z,left_acceleration_x,left_acceleration_y,left_acceleration_z,right_acceleration_x,right_acceleration_y,right_acceleration_z,left_pos_rel_x,left_pos_rel_y,left_pos_rel_z,right_pos_rel_x,right_pos_rel_y,right_pos_rel_z,step_length,step_width,step_height,left_contact_prob,right_contact_prob,support_type,max_foot_height
1,0.008333,jog,0.0,0.0,0.0,0.0,0.0,0.0,0.0014400576023022016,-0.001080043201719157,0.00036001440057596674,-0.0025201008040330163,-0.00012000480018213529,0.00012000480019191952,0.0,0.0,0.0,0.0,0.0,0.0,0.0,0.0,0.0,0.381372,-0.02058899999999997,-0.83891,0.10451999999999999,0.08942000000000005,-0.837415,0.276852,0.11000900000000002,0.001495000000000024,0.9969404659104919,0.9808403185767726,double,-0.837415
2,0.016667,jog,0.0,0.0,0.0,0.0,0.0,0.0,0.0004799616030722342,-0.00047996160308555583,0.0,-0.001799856011519213,-0.0017998560115308694,-0.0019198464122870634,0.0,0.0,0.0,-0.11520230372329822,0.07200403151351105,-0.04319827220733941,0.08642246130475201,-0.20156602008024163,-0.24476256449231854,0.381376,-0.020593000000000083,-0.83891,0.10450499999999999,0.08940499999999996,-0.837431,0.276871,0.10999800000000004,0.001479000000000008,0.9988687196525126,0.9798962929943147,double,-0.837431
3,0.025,jog,0.0,0.0,0.0,0.0,0.0,0.0,0.0006000240009606385,-0.001680067202683126,0.0004800192007680944,-0.0016800672026881223,-0.0008400336013282398,-0.00036001440057596674,0.0,0.0,0.0,0.014408064069171281,-0.14401843268901598,0.057604608276502385,0.014375232069013638,0.1151832965561778,0.18718732889848752,0.38138099999999997,-0.020607000000000042,-0.838906,0.10449099999999999,0.08939800000000009,-0.837434,0.27689,0.11000500000000013,0.0014720000000000288,0.9969209159729779,0.98209239700579,double,-0.837434
4,0.033333,jog,0.0,0.0,0.0,0.0,0.0,0.0,-0.0006000240009606385,-0.0007200288011461046,-0.000600024000960014,-0.0022800912036470954,-0.0018000720028919079,-0.002640105604224103,0.0,0.0,0.0,-0.14401152069138087,0.1152092165531047,-0.1296103686221179,-0.0720057603454906,-0.11520921655630241,-0.27362188931334885,0.381376,-0.020612999999999992,-0.838911,0.104472,0.08938299999999999,-0.837456,0.276904,0.10999599999999998,0.001454999999999984,0.9981452021089912,0.9789075674091701,double,-0.837456
5,0.041667,jog,0.0,0.0,0.0,0.0,0.0,0.0,0.001079913606912527,-0.0010799136069025357,0.00035997120230375936,-0.0032397408207342506,-0.0008399328053864011,-0.0005999520038396683,0.0,0.0,0.0,0.20157638683383314,-0.04318272207300588,0.1151902091749188,-0.11514874215108652,0.11520748710169267,0.244798848138281,0.381385,-0.020621999999999918,-0.838908,0.104445,0.0893759999999999,-0.837461,0.27694,0.10999799999999982,0.001446999999999976,0.9973848698442971,0.9798630024336792,double,-0.837461
6,0.05,jog,0.0,0.0,0.0,0.0,0.0,0.0,0.0015600624024943292,-0.000720028801172751,0.0009600384015359807,-0.0027601104044172715,-0.0024000960038292308,-0.00180007200288025,0.0,0.0,0.0,0.05762016027622731,0.04318790420374231,0.07201094434564038,0.05755795227612854,-0.1872270728960554,-0.14402016069129747,0.381398,-0.02062800000000009,-0.8389,0.10442199999999999,0.08935599999999999,-0.837476,0.276976,0.10998400000000008,0.0014239999999999808,0.9967196248916141,0.9789656131239491,double,-0.837476
7,0.058333,jog,0.0,0.0,0.0,0.0,0.0,0.0,0.00156006240249766,-0.001680067202683126,0.0004800192007680944,-0.002400096003839223,-0.0012000480019279385,-0.0016800672026881223,0.0,0.0,0.0,3.997222986091404e-13,-0.115209216549907,-0.057604608276477405,0.043203456207614094,0.14401152068898262,0.014401152069138098,0.381411,-0.02064200000000005,-0.838896,0.104402,0.08934599999999993,-0.83749,0.277009,0.10998799999999997,0.0014060000000000183,0.9960959995807988,0.9806634265537492,double,-0.83749
8,0.066667,jog,0.0,0.0,0.0,0.0,0.0,0.0,0.00011999040076805855,0.00035997120230084524,0.0010799136069114862,-0.004559635229181229,-0.0019198464122889367,-0.001799856011519005,0.0,0.0,0.0,-0.17279481662222237,0.24478502579601286,0.07198157021159009,-0.25912397712287083,-0.08636889973134126,-0.014373507179131592,0.381412,-0.020639000000000074,-0.838887,0.104364,0.08932999999999991,-0.8375049999999999,0.277048,0.10996899999999998,0.0013820000000001054,0.9980922742152304,0.9774057375536032,double,-0.8375049999999999
9,0.075,jog,0.0,0.0,0.0,0.0,0.0,0.0,0.0,-0.0008400336013282406,-0.0009600384015361897,-0.0043201728069132694,-0.002280091203647097,-0.0018000720028800434,0.0,0.0,0.0,-0.014399424069129802,-0.14400633668895796,-0.2448040331750483,0.02873664013776067,-0.043231104207147576,-2.5920000124615832e-05,0.381412,-0.020645999999999942,-0.838895,0.10432799999999999,0.08931099999999992,-0.83752,0.277084,0.10995699999999986,0.001374999999999904,0.9978738857929019,0.9775732481445316,double,-0.83752
10,0.083333,jog,0.0,0.0,0.0,0.0,0.0,0.0,0.0019200768030707108,-0.00252010080403801,0.001920076803072168,-0.005160206408256491,0.0021600864034649584,-0.0008400336013440605,0.0,0.0,0.0,0.23041843310580934,-0.201616128970331,0.34562764965898896,-0.10080806448376582,0.5328426265585084,0.11520921655297997,0.381428,-0.02066699999999999,-0.838879,0.10428499999999999,0.08932899999999999,-0.837527,0.27714300000000003,0.10999599999999998,0.0013520000000000199,0.9938256134083576,0.9770520038806352,double,-0.837527
11,0.091667,jog,0.0,0.0,0.0,0.0,0.0,0.0,0.0008399328053764106,-0.0004799616030855562,0.0004799616030718183,-0.0071994240460751925,-0.00011999040075806745,0.0008399328053755779,0.0,0.0,0.0,-0.12960691117042247,0.2447971203446671,-0.1728000000000421,-0.24468654161491518,-0.27358732952040166,0.20157984241896323,0.38143499999999997,-0.020671000000000106,-0.838875,0.104225,0.08932800000000007,-0.83752,0.27721,0.10999900000000018,0.001354999999999995,0.9982001439884696,0.9743679205927601,double,-0.83752
12,0.1,jog,0.0,0.0,0.0,0.0,0.0,0.0,0.002760110404415604,-0.0007200288011461039,0.0007200288011519328,-0.005160206408256491,-0.0010800432017458023,-0.004680187207488396,0.0,0.0,0.0,0.23043052910586725,-0.02880921613591114,0.02880921613825925,0.244715905174451,-0.11521094455631034,-0.6624408991796434,0.38145799999999996,-0.020677000000000056,-0.838869,0.104182,0.08931899999999993,-0.837559,0.27727599999999997,0.10999599999999998,0.0013099999999999223,0.9950967436008948,0.9751504875053157,double,-0.837559
13,0.108333,jog,0.0,0.0,0.0,0.0,0.0,0.0,0.0010800432017291502,-0.001320052802110075,0.00036001440057617523,-0.009720388815554024,0.0010800432017458042,-0.0014400576023040762,0.0,0.0,0.0,-0.2016161289675333,-0.07200576034609042,-0.04320345620733924,-0.5472437786268495,0.25922073724848294,0.38883110586635333,0.381467,-0.02068800000000004,-0.838866,0.10410099999999999,0.08932800000000007,-0.837571,0.277366,0.11001600000000011,0.0012950000000000461,0.9970947159793737,0.9705739046948871,double,-0.837571
14,0.116667,jog,0.0,0.0,0.0,0.0,0.0,0.0,0.0004799616030722338,-0.0010799136069025348,0.00035997120230375903,-0.008639308855290217,-0.0032397408207342476,-0.0037197024238060654,0.0,0.0,0.0,-0.0720040315163086,0.028814398273042944,-5.183378019702235e-06,0.1297192176942411,-0.5183326160883186,-0.27353549574057917,0.381471,-0.020696999999999965,-0.838863,0.104029,0.08930100000000007,-0.837602,0.277442,0.10999800000000004,0.0012610000000000676,0.9979410386887202,0.9708094085847759,double,-0.837602
15,0.125,jog,0.0,0.0,0.0,0.0,0.0,0.0,0.0026401056042234805,-0.002760110404428932,-0.00012000480019191961,-0.009960398415936614,-0.004080163206539007,-0.002280091203648138,0.0,0.0,0.0,0.25922764924411956,-0.20163168097040662,-0.057599424276452545,-0.15853708876111816,-0.1008547204853906,0.1727602568292246,0.38149299999999997,-0.02072000000000007,-0.838864,0.103946,0.08926699999999999,-0.837621,0.277547,0.10998700000000006,0.0012430000000001051,0.9936310719116257,0.969232418348804,double,-0.837621
16,0.133333,jog,0.0,0.0,0.0,0.0,0.0,0.0,0.0010800432017258176,-0.00048001920075518715,0.0019200768030719598,-0.011280451218050002,-0.004800192007685103,-0.0027601104044162285,0.0,0.0,0.0,-0.18721497689879535,0.2736218893164218,0.24481958517507232,-0.15841267276051688,-0.08640691241402809,-0.057604608276501865,0.381502,-0.020723999999999965,-0.838848,0.10385199999999999,0.08922699999999995,-0.837644,0.27765,0.10995099999999991,0.0012039999999999829,0.9962421908420291,0.967016383070119,double,-0.837644
17,0.141667,jog,0.0,0.0,0.0,0.0,0.0,0.0,0.0026397888168972947,-0.0015598752099880956,0.0008399328053755793,-0.012479001679864798,-0.003959683225335951,-0.00095992320614343,0.0,0.0,0.0,0.18715450146046086,-0.12957235531952374,-0.1296069111706723,-0.14381455025375556,0.10085298564304712,0.21600518337806607,0.381524,-0.020737000000000005,-0.838841,0.10374799999999999,0.089194,-0.837652,0.277776,0.109931,0.0011889999999999956,0.9947013673708059,0.9662311653054596,double,-0.837652
18,0.15,jog,0.0,0.0,0.0,0.0,0.0,0.0,0.0031201248049919864,-0.0033601344053662495,0.001200048001920235,-0.012480499219969613,-0.005640225609013343,-0.001920076803072168,0.0,0.0,0.0,0.05764262427633401,-0.2160397450351797,0.043215552207446946,-0.00017971200105779998,-0.20167315296740557,-0.11522304055307057,0.38155,-0.020764999999999922,-0.838831,0.10364399999999999,0.08914700000000009,-0.837668,0.277906,0.10991200000000001,0.0011630000000000251,0.9921003169494373,0.965320433805605,double,-0.837668
19,0.158333,jog,0.0,0.0,0.0,0.0,0.0,0.0,0.005280211208446952,0.00012000480018213519,0.003360134405376034,-0.01236049441977582,-0.005760230409222125,-0.0010800432017281075,0.0,0.0,0.0,0.25922073724408545,0.41763341000220594,0.2592207372441854,0.014401152069337935,-0.014401152071136672,0.10080806448386653,0.381594,-0.020764000000000005,-0.838803,0.103541,0.08909900000000004,-0.837677,0.278053,0.10986300000000004,0.0011259999999999604,0.9895669415930701,0.9659408424871642,double,-0.837677
20,0.166667,jog,0.0,0.0,0.0,0.0,0.0,0.0,0.004079673626110657,-0.00227981761458978,0.006479481641468703,-0.010559155267579152,-0.008039356851456585,-0.005399568034557219,0.0,0.0,0.0,-0.14405298564150398,-0.28795565332036394,0.3742917249931205,0.2161434067910566,-0.2734732952045186,-0.5183015158182274,0.38162799999999997,-0.020782999999999996,-0.838749,0.10345299999999999,0.089032,-0.837722,0.278175,0.109815,0.0010270000000000001,0.9866849096058575,0.9658505368622069,double,-0.837722
21,0.175,jog,0.0,0.0,0.0,0.0,0.0,0.0,0.002280091203647101,-0.006000240009613062,0.01128045121804879,-0.011160446417856245,-0.00480019200768512,-0.0014400576023040788,0.0,0.0,0.0,-0.21595852903678872,-0.4464685461446407,0.5761393947654024,-0.07215782434622521,0.3887153298657714,0.4751602582807092,0.38164699999999996,-0.0208330000000001,-0.838655,0.10336,0.08899199999999996,-0.837734,0.278287,0.10982500000000006,0.0009210000000000607,0.9783686007700297,0.9703999715646185,double,-0.837734
22,0.183333,jog,0.0,0.0,0.0,0.0,0.0,0.0,0.0031201248049919864,-0.005520220808831208,0.011760470418816846,-0.010800432017281491,-0.006480259210368228,-0.0024000960038400537,0.0,0.0,0.0,0.10080806448396551,0.05760460827815353,0.057604608276497805,0.043203456207218785,-0.20161612896713155,-0.11520921655297901,0.381673,-0.020879000000000092,-0.838557,0.10326999999999999,0.08893799999999996,-0.837754,0.278403,0.10981700000000005,0.0008029999999999982,0.9777316442102223,0.9706000085776333,double,-0.837754
23,0.191667,jog,0.0,0.0,0.0,0.0,0.0,0.0,0.007079433645308788,-0.005759539236840162,0.014158867290616743,-0.010559155267577487,-0.00455963522917956,-0.0027597792176626383,0.0,0.0,0.0,0.4750790545136546,-0.028715914087947454,0.2877846018478395,0.028950893892969023,0.2304564412273418,-0.04315853297607203,0.38173199999999996,-0.020926999999999918,-0.838439,0.103182,0.08889999999999998,-0.837777,0.27854999999999996,0.1098269999999999,0.0006620000000000514,0.9719244968427234,0.9736666081390912,double,-0.837777
24,0.2,jog,0.0,0.0,0.0,0.0,0.0,0.0,0.005400216008642411,-0.007560302412114031,0.016680667226688872,-0.00984039361574447,-0.0063602544101860935,-0.0025201008040321815,0.0,0.0,0.0,-0.20151417696704374,-0.21610022504186574,0.30262809745255337,0.08625484841389845,-0.21608294503858536,0.028762560138060316,0.38177700000000003,-0.020990000000000064,-0.8383,0.1031,0.0888469999999999,-0.837798,0.278677,0.10983699999999996,0.0005020000000000024,0.9681773506310125,0.9750052179307146,double,-0.837798
25,0.208333,jog,0.0,0.0,0.0,0.0,0.0,0.0,-0.0027601104044189437,0.007320292811723138,-0.02244089763590545,-0.011760470418816886,-0.0030001200047932073,-0.0028801152046081576,0.0,0.0,0.0,-0.9792783407009931,1.7857428565747278,-4.6947755745343125,-0.23041843310601468,0.40323225793746487,-0.043203456207365536,0.381754,-0.020928999999999975,-0.838487,0.103002,0.08882199999999996,-0.837822,0.278752,0.10975099999999993,0.0006650000000000267,0.9603908406005515,0.972559748003582,double,-0.837822
26,0.216667,jog,0.0,0.0,0.0,0.0,0.0,0.0,-0.0029997600191981307,-0.01475881929446786,0.011039116870650345,-0.013918886489081458,-0.009359251259901898,-0.007919366450683947,0.0,0.0,0.0,-0.02875565332123671,-2.6492815102220995,4.017280358358024,-0.25898920929500474,-0.7630347078364151,-0.6046617765869672,0.381729,-0.02105200000000007,-0.838395,0.10288599999999999,0.08874399999999993,-0.837888,0.278843,0.109796,0.0005070000000000352,0.9688782226825271,0.9640158109608168,double,-0.837888
27,0.225,jog,0.0,0.0,0.0,0.0,0.0,0.0,-0.005280211208446952,-0.014400576023028664,0.008280331213248476,-0.020040801632065324,-0.007320292811696468,-0.005520220808832457,0.0,0.0,0.0,-0.2736650893134309,0.04299091220919175,-0.33106752158908753,-0.7346592035262044,0.24468480117669844,0.2879089933819139,0.381685,-0.02117199999999997,-0.838326,0.10271899999999999,0.08868300000000007,-0.837934,0.278966,0.10985500000000004,0.00039200000000005897,0.9709492252349474,0.959349250896897,double,-0.837934
28,0.233333,jog,0.0,0.0,0.0,0.0,0.0,0.0,-0.010800432017281491,-0.012960518420736457,0.010800432017280658,-0.02136085443417706,-0.008760350414015322,-0.009960398415936598,0.0,0.0,0.0,-0.6624529951799513,0.17281382482805785,0.30242419345159965,-0.1584126727603187,-0.17281382483125562,-0.5328426265575588,0.381595,-0.021279999999999966,-0.838236,0.102541,0.08861000000000008,-0.838017,0.279054,0.10989000000000004,0.00021899999999996922,0.9666136379617336,0.9559027154920587,double,-0.838017
29,0.241667,jog,0.0,0.0,0.0,0.0,0.0,0.0,-0.012838972882168976,-0.009359251259901929,0.009959203263739102,-0.014038876889849564,-0.006959443244554074,0.006239500839932815,0.0,0.0,0.0,-0.24460533535966997,0.4321174899009523,-0.10093937527496505,0.878567019957705,0.2160915730095095,1.9438324041120052,0.381488,-0.021357999999999988,-0.838153,0.10242399999999999,0.08855199999999996,-0.837965,0.279064,0.10990999999999995,0.000188000000000077,0.9687474206191838,0.9700103295933171,double,-0.837965
30,0.25,jog,0.0,0.0,0.0,0.0,0.0,0.0,-0.011640465618626384,-0.005400216008649072,0.00888035521420849,-0.015960638425536317,-0.006480259210368228,0.009000360014400619,0.0,0.0,0.0,0.14382662469009852,0.47510323427971357,-0.12946694462145805,-0.23062060910677443,0.057504384277672536,0.3313163535902797,0.381391,-0.02140300000000006,-0.838079,0.10229099999999999,0.08849799999999997,-0.83789,0.2791,0.10990100000000003,0.00018899999999999473,0.9739912684806187,0.9657173474220409,double,-0.83789
31,0.258333,jog,0.0,0.0,0.0,0.0,0.0,0.0,-0.009960398415936631,-0.004680187207476338,0.014760590423616963,-0.018840753630145774,-0.003480139205575043,0.011040441617664742,0.0,0.0,0.0,0.20161612896792952,0.086406912417225,0.7056564513870739,-0.34562764965912207,0.36002880172725227,0.24481958517510244,0.381308,-0.02144199999999996,-0.837956,0.10213399999999999,0.08846899999999991,-0.837798,0.279174,0.10991099999999987,0.00015799999999999148,0.969313922875033,0.9615653034292817,double,-0.837798
32,0.266667,jog,0.0,0.0,0.0,0.0,0.0,0.0,0.016078713702906512,-0.03851691864651013,-0.01247900167986559,-0.01619870410367124,-0.003959683225335938,0.008399328053755765,0.0,0.0,0.0,3.1244434987812717,-4.060082966046767,-3.268489573252043,0.3170205815304214,-0.05754067911697797,-0.3169082750070764,0.381442,-0.021762999999999977,-0.83806,0.10199899999999999,0.08843599999999996,-0.837728,0.279443,0.11019899999999994,0.00033199999999999896,0.9273936883045129,0.9655607929247194,double,-0.837728
33,0.275,jog,0.0,0.0,0.0,0.0,0.0,0.0,0.003720148805949281,-0.01140045601823543,0.012360494419776819,-0.0105604224168972,-0.004800192007685088,0.007800312012480357,0.0,0.0,0.0,-1.4830871111193062,3.254105679620135,2.980858766307729,0.6766208672475718,-0.100865088485437,-0.07188480034506241,0.38147299999999995,-0.021857999999999933,-0.837957,0.10191099999999999,0.08839599999999992,-0.837663,0.279562,0.11025399999999985,0.00029399999999990545,0.9712969355650993,0.97376185794091,double,-0.837663
34,0.283333,jog,0.0,0.0,0.0,0.0,0.0,0.0,0.014040561622465652,-0.01692067682709338,0.017160686427457026,-0.0075603024120957365,-0.006840273610941304,0.00612024480979249,0.0,0.0,0.0,1.2384990779450855,-0.6624529951827628,0.5760460827649369,0.3600288017282457,-0.24481958517415348,-0.20161612896770323,0.38159,-0.021999000000000102,-0.837814,0.101848,0.08833899999999995,-0.837612,0.279742,0.11033800000000005,0.00020199999999992446,0.9535141648329928,0.9781610337634578,double,-0.837612
35,0.291667,jog,0.0,0.0,0.0,0.0,0.0,0.0,0.01991840652747772,-0.017158627309815707,0.01943844492440611,0.01907847372210131,-0.013078953683695058,-0.009239260859131342,0.0,0.0,0.0,0.7052849658041832,-0.028551773784776555,0.27330915490149765,3.196397424309698,-0.7485817221926744,-1.8429932408115932,0.381756,-0.022142000000000106,-0.837652,0.10200699999999999,0.08823000000000003,-0.837689,0.279749,0.11037200000000014,3.700000000006476e-05,0.9451370200537978,0.9584865774635538,double,-0.837652
36,0.3,jog,0.0,0.0,0.0,0.0,0.0,0.0,0.022560902436096746,-0.019320772830895967,0.0190807632305292,-0.0013200528021117424,-0.008280331213260163,0.004440177607104364,0.0,0.0,0.0,0.31711219352202474,-0.25946784124328154,-0.04292352020603747,-2.447921099749563,0.5758577307614192,1.641598279879484,0.38194399999999995,-0.022302999999999962,-0.837493,0.10199599999999999,0.08816099999999993,-0.837652,0.279948,0.1104639999999999,0.00015899999999990921,0.939570243339934,0.9841867143072418,double,-0.837493
37,0.308333,jog,0.0,0.0,0.0,0.0,0.0,0.0,0.02424096963878638,-0.02376095043803452,0.022320892835713382,0.0002400096003842544,-0.009240369614770478,0.0038401536061441147,0.0,0.0,0.0,0.2016161289679138,-0.5328426265616868,0.38883110586633485,0.1872149768985948,-0.11520921654989925,-0.07200576034564346,0.382146,-0.022501000000000104,-0.837307,0.10199799999999999,0.08808400000000005,-0.83762,0.280148,0.11058500000000016,0.0003130000000000077,0.9291608665333289,0.9833176061749194,double,-0.837307
38,0.316667,jog,0.0,0.0,0.0,0.0,0.0,0.0,0.024358051355892713,-0.033717302615788015,0.02219822414206869,0.0021598272138234013,-0.009599232061444739,0.0011999040076795518,0.0,0.0,0.0,0.014048682158187525,-1.1946666879953864,-0.014719065712106294,0.2303596848379119,-0.043060048797007866,-0.3168046074471536,0.382349,-0.02278200000000008,-0.837122,0.102016,0.08800399999999997,-0.83761,0.280333,0.11078600000000005,0.00048799999999993293,0.916540028057002,0.9834798204718957,double,-0.837122
39,0.325,jog,0.0,0.0,0.0,0.0,0.0,0.0,0.020880835233410146,-0.044881795271795616,0.029761190447617776,0.002760110404415595,-0.009480379215161394,0.0018000720028800343,0.0,0.0,0.0,-0.41728262600294647,-1.3397927104293237,0.9075922603563009,0.07203686434563675,0.014262912070484116,0.07202304034567143,0.382523,-0.023155999999999954,-0.836874,0.10203899999999999,0.08792500000000003,-0.837595,0.280484,0.11108099999999999,0.0007209999999999717,0.8965248383698621,0.983272107564229,double,-0.836874
40,0.333333,jog,0.0,0.0,0.0,0.0,0.0,0.0,0.01236049441977586,-0.05496219848794799,0.03216128645145824,0.00648025921036825,-0.011280451218053369,0.0036001440057603007,0.0,0.0,0.0,-1.0224817969079931,-1.2096967738092403,0.28802304138251206,0.44643571414288546,-0.21601728103827902,0.21601728103687398,0.382626,-0.023614000000000024,-0.836606,0.10209299999999999,0.08783099999999999,-0.837565,0.28053300000000003,0.11144500000000002,0.0009590000000000432,0.8822951763794281,0.9775028782100998,double,-0.836606
41,0.341667,jog,0.0,0.0,0.0,0.0,0.0,0.0,-0.00011999040076805845,-0.03983681305495544,0.05087592992560579,0.00803935685145159,-0.010079193664503588,0.005399568034557219,0.0,0.0,0.0,-1.497538375395237,1.8149010598743143,2.2455775706920478,0.1870767507899375,0.14413937527595155,0.2159136103668006,0.382625,-0.023946000000000023,-0.836182,0.10215999999999999,0.08774700000000002,-0.83752,0.280465,0.11169300000000004,0.0013380000000000614,0.8789251337514321,0.9767037951069182,double,-0.836182
42,0.35,jog,0.0,0.0,0.0,0.0,0.0,0.0,-0.016560662426497008,-0.027121084843400943,0.06768270730829253,0.009000360014401272,-0.010320412816516345,0.005520220808832267,0.0,0.0,0.0,-1.9729595614699378,1.5259484233234766,2.0168939616808808,0.11532499255366424,-0.02894745613977655,0.014478912069488615,0.382487,-0.024172000000000082,-0.835618,0.10223499999999999,0.08766099999999999,-0.837474,0.280252,0.11183300000000007,0.0018560000000000798,0.8568210513375168,0.9753925124950412,double,-0.835618
43,0.358333,jog,0.0,0.0,0.0,0.0,0.0,0.0,-0.02160086403456291,-0.014760590423601668,0.048721948877954925,0.007320292811713097,-0.008880355214197428,0.00468018720748838,0.0,0.0,0.0,-0.6048483869033817,1.4833186631224318,-2.275382026921579,-0.20161612896773895,0.17281382483126254,-0.10080806448384533,0.38230699999999995,-0.024294999999999956,-0.835212,0.102296,0.08758700000000008,-0.837435,0.280011,0.11188200000000004,0.002223000000000086,0.885600158897961,0.9792936169344464,double,-0.835212
44,0.366667,jog,0.0,0.0,0.0,0.0,0.0,0.0,0.011999040076795853,-0.07907367410606726,-0.05063594912407009,0.01031917446604137,-0.00863930885530021,0.00275977921766243,0.0,0.0,0.0,4.031665960086241,-7.716952685681009,-11.921994000722933,0.35983701155846787,0.028923249207729658,-0.23043052433716682,0.382407,-0.02495399999999992,-0.835634,0.10238199999999999,0.08751500000000001,-0.837412,0.280025,0.11246899999999993,0.0017780000000000573,0.8244523945103951,0.9771029234951932,double,-0.835634
45,0.375,jog,0.0,0.0,0.0,0.0,0.0,0.0,-0.05076203048122018,-0.009480379215188104,0.02388095523820974,0.011400456018240501,-0.00756030241208741,0.0021600864034562223,0.0,0.0,0.0,-7.531629732151229,8.351529448083443,8.942386218922358,0.12975897662296085,0.12948595262364118,-0.07196601634539894,0.381984,-0.025033000000000083,-0.835435,0.10247699999999998,0.08745200000000009,-0.837394,0.279507,0.11248500000000017,0.001958999999999933,0.885586166970747,0.976918348842494,double,-0.835435
46,0.383333,jog,0.0,0.0,0.0,0.0,0.0,0.0,-0.05844233769350638,-0.001800072002865266,0.024120964838593578,0.012960518420738166,-0.005640225609040008,0.005160206408256299,0.0,0.0,0.0,-0.9216737324236433,0.92167373242804,0.028802304138226306,0.18721497689879618,0.2304184331030129,0.3600288017280792,0.381497,-0.02504799999999996,-0.835234,0.102585,0.08740499999999995,-0.837351,0.278912,0.11245299999999991,0.0021169999999999245,0.8734132603552031,0.9749215169234786,double,-0.835234
47,0.391667,jog,0.0,0.0,0.0,0.0,0.0,0.0,-0.052675785937127705,-0.006359491240710428,0.010199184065274768,0.013438924886009224,-0.005759539236866806,0.007079433645308371,0.0,0.0,0.0,0.6919308562969367,-0.5470865416180895,-1.670480054393904,0.05740418349784713,-0.014316490020014111,0.23028884533862137,0.381058,-0.02510100000000004,-0.835149,0.102697,0.08735699999999991,-0.837292,0.27836099999999997,0.11245799999999995,0.002143000000000006,0.8885205551172004,0.9729252385333618,double,-0.835149
48,0.4,jog,0.0,0.0,0.0,0.0,0.0,0.0,-0.06912276491059531,0.0152406096243835,0.020880835233409105,0.01716068642745587,-0.004680187207476307,0.007200288011520554,0.0,0.0,0.0,-1.9737164254731234,2.5921157884427983,1.281849414152681,0.4466292501436015,0.1295274246238443,0.014503104069624588,0.380482,-0.02497400000000005,-0.834975,0.10283999999999999,0.087318,-0.837232,0.277642,0.11229200000000006,0.0022569999999999535,0.854432234769025,0.9680174761954395,double,-0.834975
49,0.408333,jog,0.0,0.0,0.0,0.0,0.0,0.0,-0.05976239049561979,0.0008400336013548883,0.006600264010560586,0.02256090243609841,-0.007320292811723138,0.004200168006720108,0.0,0.0,0.0,1.1232898613915212,-1.7281382482933694,-1.7137370962256757,0.648051843110831,-0.3168253455234415,-0.3600288017281235,0.379984,-0.02496699999999996,-0.83492,0.103028,0.08725699999999992,-0.837197,0.276956,0.11222399999999988,0.0022769999999999735,0.8770106231419812,0.9598536560103333,double,-0.83492
50,0.416667,jog,0.0,0.0,0.0,0.0,0.0,0.0,-0.0359971202303809,-0.00227981761458978,-0.008879289656827582,0.013198944084473108,0.0009599232061444676,0.015238780897528227,0.0,0.0,0.0,2.8516043034843848,-0.3743521977375408,-1.857397848258718,-1.1233451345842687,0.9935464384290376,1.3245275846901978,0.379684,-0.024985999999999953,-0.834994,0.103138,0.08726499999999993,-0.83707,0.276546,0.11225099999999988,0.0020759999999999668,0.917329849646485,0.9663616447113312,double,-0.834994
51,0.425,jog,0.0,0.0,0.0,0.0,0.0,0.0,-0.03612144485779389,0.009480379215161457,-0.000960038401535983,0.017040681627265523,0.002640105604220154,0.020760830433217532,0.0,0.0,0.0,-0.014919552071641069,1.411280070772983,0.9503481645615767,0.46102694621293944,0.2016299529672016,0.6626724511807655,0.379383,-0.024907000000000012,-0.835002,0.10328,0.08728699999999989,-0.836897,0.276103,0.1121939999999999,0.00189499999999998,0.9187880524091442,0.9550195391740891,double,-0.835002
52,0.433333,jog,0.0,0.0,0.0,0.0,0.0,0.0,-0.006240249609983953,-0.0004800192007551856,-0.008760350414016542,0.02664106564262559,0.009600384015370176,0.018840753630145025,0.0,0.0,0.0,3.5858868652117857,-1.1952956217348614,-0.9360748844930429,1.1520921655298244,0.8352668200107995,-0.23041843310602417,0.379331,-0.024910999999999905,-0.835075,0.103502,0.08736699999999997,-0.83674,0.275829,0.11227799999999988,0.0016650000000000276,0.9654060383876515,0.9433115789510307,double,-0.835075
53,0.441667,jog,0.0,0.0,0.0,0.0,0.0,0.0,-0.0410367170626363,-0.004319654427663454,0.011879049676026002,0.07175425965922783,0.005639548836108776,-0.0011999040076793436,0.0,0.0,0.0,-4.175242074952309,-0.4607193696794205,2.4765298884140465,5.413150229973901,-0.4752622005353278,-2.4046865416156087,0.378989,-0.024947000000000052,-0.834976,0.1041,0.0874140000000001,-0.83675,0.274889,0.11236100000000016,0.0017739999999999423,0.9106945019723813,0.8800240989482286,double,-0.834976
54,0.45,jog,0.0,0.0,0.0,0.0,0.0,0.0,-0.006840273610944588,-0.004440177607085391,-0.02676107044281751,0.04020160806432097,0.03216128645145012,0.02388095523820937,0.0,0.0,0.0,4.103737363697536,-0.01446336006503492,-4.636999894256972,-3.786469650174814,3.1827358232738785,3.0098235024467312,0.378932,-0.024983999999999895,-0.835199,0.10443499999999999,0.08768200000000004,-0.836551,0.274497,0.11266599999999993,0.0013520000000000199,0.939853248871118,0.9054129198941986,double,-0.835199
55,0.458333,jog,0.0,0.0,0.0,0.0,0.0,0.0,-0.004440177607105405,-0.005160206408258173,-0.017880715228609168,0.06060242409696468,0.03996159846392866,0.038521540861634576,0.0,0.0,0.0,0.288023041382358,-0.08640691241723074,1.0656852531151282,2.448195851751321,0.9360748844928072,1.7569405524331263,0.378895,-0.02502699999999991,-0.835348,0.10493999999999999,0.08801499999999995,-0.83623,0.273955,0.11304199999999986,0.0008820000000000494,0.9592920501492994,0.8630339430879232,double,-0.835348
56,0.466667,jog,0.0,0.0,0.0,0.0,0.0,0.0,-0.005159587233019853,0.0,-0.019078473722102352,0.059275257979360924,0.0651547876169858,0.058315334773218125,0.0,0.0,0.0,-0.08632224932978726,0.6191752349721823,-0.14371952165744933,-0.15924719433690382,3.0229408630978063,2.37506526416889,0.37885199999999997,-0.02502699999999991,-0.835507,0.10543399999999999,0.08855799999999991,-0.835744,0.273418,0.11358499999999982,0.00023700000000004273,0.9646902612512851,0.8239367157048446,double,-0.835507
57,0.475,jog,0.0,0.0,0.0,0.0,0.0,0.0,-0.00120004800192128,-0.008040321612869245,-0.026041041641665753,0.07260290411616582,0.07236289451579656,0.08172326893075735,0.0,0.0,0.0,0.47516371428040105,-0.964877188631857,-0.8355415720104905,1.5993815116770589,0.8650074281544188,2.8090644614831732,0.378842,-0.02509399999999995,-0.835724,0.106039,0.08916100000000005,-0.835063,0.272803,0.114255,0.0006610000000000227,0.9545325899184598,0.7748960204647483,double,-0.835063
58,0.483333,jog,0.0,0.0,0.0,0.0,0.0,0.0,0.0016800672026897807,-0.006720268810759123,-0.019080763230529072,0.0855634225369001,0.07164286571462333,0.11760470418816703,0.0,0.0,0.0,0.3456276496593122,0.15841267276012436,0.8352668200091985,1.5553244234650447,-0.08640691241728303,4.3059444686678905,0.37885599999999997,-0.025150000000000006,-0.835883,0.10675199999999999,0.089758,-0.834083,0.272104,0.11490800000000001,0.0018000000000000238,0.9661678914772632,0.7117908940837674,double,-0.834083
59,0.491667,jog,0.0,0.0,0.0,0.0,0.0,0.0,0.011639068874488349,-0.0027597792176486924,-0.02015838732901363,0.12526997840172813,0.06803455723541921,0.1283897288216941,0.0,0.0,0.0,1.1949846018476793,0.47522073351456995,-0.12930454745435033,4.764405551335252,-0.4329623805140535,1.294099428069003,0.378953,-0.02517299999999989,-0.836051,0.10779599999999999,0.09032499999999999,-0.833013,0.271157,0.11549799999999988,0.003037999999999985,0.9609329321230149,0.6498753495630498,double,-0.833013
60,0.5,jog,0.0,0.0,0.0,0.0,0.0,0.0,-0.01116044641785458,-0.008040321612869245,-0.027481099243969832,0.21396855874235104,0.05664226569063112,0.15168606744269822,0.0,0.0,0.0,-2.736051277132243,-0.6336904350438696,-0.8787605802179553,10.64425541109122,-1.3671296705613964,2.795672461418957,0.37886,-0.02523999999999993,-0.83628,0.109579,0.09079700000000002,-0.831749,0.269281,0.11603699999999995,0.004531000000000063,0.9487811571256053,0.50747779133305,double,-0.831749
61,0.508333,jog,0.0,0.0,0.0,0.0,0.0,0.0,0.02748109924396715,-0.02208088323532476,-0.019440777631105244,0.37033481339253316,0.08088323532942045,0.24132965318612631,0.0,0.0,0.0,4.637170966257238,-1.6849347920863382,0.9648771886312918,18.76470114606762,2.909032717963426,10.757660595635151,0.379089,-0.02542399999999989,-0.836442,0.11266499999999999,0.09147100000000008,-0.829738,0.266424,0.11689499999999997,0.006704000000000043,0.932903054072424,0.43296,single,-0.829738
62,0.516667,jog,0.0,0.0,0.0,0.0,0.0,0.0,0.02627789776817833,-0.005399568034565996,-0.009959203263738926,0.41804655627550047,0.03959683225341293,0.2750179985601166,0.0,0.0,0.0,-0.14437262728447633,2.0015976962753608,1.1376979082513046,5.724951149864121,-4.953972051356822,4.042278062633847,0.379308,-0.025468999999999964,-0.836525,0.11614899999999999,0.09180100000000002,-0.827446,0.263159,0.11726999999999999,0.009078999999999948,0.9523068553807198,0.40921,single,-0.827446
63,0.525,jog,0.0,0.0,0.0,0.0,0.0,0.0,0.02364094563782574,0.002520100804038002,-0.01500060002400091,0.39097563902555904,0.05196207848312779,0.27505100204008076,0.0,0.0,0.0,-0.3164469135188504,0.9503982765635384,-0.6049918109038717,-3.2486400155935815,1.483888903121902,0.003960576018739384,0.379505,-0.025447999999999915,-0.83665,0.11940699999999999,0.09223399999999993,-0.8251539999999999,0.260098,0.11768199999999984,0.011496000000000062,0.9531472987914607,0.38504,single,-0.8251539999999999
64,0.533333,jog,0.0,0.0,0.0,0.0,0.0,0.0,0.02040081603264191,0.020520820832824048,0.0007200288011521483,0.41713668546742333,0.06516260650428263,0.2900516020640851,0.0,0.0,0.0,-0.388831105866298,2.16017281036676,1.8865509210552263,3.1394511510697862,1.5841267276076993,1.8001440086408815,0.379675,-0.025276999999999994,-0.8366439999999999,0.12288299999999999,0.09277700000000011,-0.822737,0.256792,0.1180540000000001,0.013906999999999892,0.9517582527516923,0.36093000000000003,single,-0.822737
65,0.541667,jog,0.0,0.0,0.0,0.0,0.0,0.0,0.018838492920568398,-0.020518358531307884,-0.013678905687545042,0.45128389728821355,0.09323254139666423,0.2853371730261559,0.0,0.0,0.0,-0.18746377634671216,-4.924307579089467,-1.727733919930055,4.097337631484277,3.3681227372667855,-0.565686229653125,0.379832,-0.025447999999999915,-0.836758,0.12664399999999998,0.09355399999999992,-0.820359,0.253188,0.11900199999999983,0.016399000000000052,0.9482794820118544,0.33601,single,-0.820359
66,0.55,jog,0.0,0.0,0.0,0.0,0.0,0.0,0.01944077763110462,-0.01488059522381045,-0.009240369614784427,0.4556582263290506,0.10248409936399003,0.28369134765390475,0.0,0.0,0.0,0.07227705634660016,0.6765586592460592,0.5326456345566538,0.5249404825197466,1.1102313653337044,-0.19750694494793677,0.379994,-0.025571999999999928,-0.836835,0.13044099999999997,0.09440800000000005,-0.817995,0.24955300000000002,0.11997999999999998,0.018839999999999968,0.9563867890894291,0.3116,single,-0.817995
67,0.558333,jog,0.0,0.0,0.0,0.0,0.0,0.0,0.018960758430336365,-0.01848073922956785,-0.018000720028801417,0.6968678747149958,0.22536901476059804,0.3861754470178841,0.0,0.0,0.0,-0.05760460827652211,-0.43203456207337504,-1.0512841010460903,28.94631565894004,14.746779718781847,12.298583867032315,0.380152,-0.025725999999999916,-0.836985,0.13624799999999998,0.0962860000000001,-0.814777,0.243904,0.12201200000000001,0.022208000000000006,0.9466387051350224,0.27792000000000006,single,-0.814777
68,0.566667,jog,0.0,0.0,0.0,0.0,0.0,0.0,0.005639548836092049,0.010799136069105207,0.008999280057595373,0.7696184305255525,0.24094072474201997,0.3305735541156683,0.0,0.0,0.0,-1.5984172779270716,3.513303971523018,3.239740831101102,8.72936834779891,1.8684557213129127,-6.671693412792821,0.38019899999999995,-0.025635999999999992,-0.83691,0.142662,0.0982940000000001,-0.812022,0.237537,0.1239300000000001,0.02488800000000002,0.9747560297370754,0.25112,single,-0.812022
69,0.575,jog,0.0,0.0,0.0,0.0,0.0,0.0,-0.008880355214207538,-0.007920316812660515,-0.0021600864034562366,0.833313332533308,0.3825753030121202,0.3564142565702661,0.0,0.0,0.0,-1.7424581843633409,-2.2464242027800183,-1.3391775424279027,7.64369398869028,16.99682926558281,3.1010083348851594,0.380125,-0.02570199999999989,-0.836928,0.149606,0.10148200000000007,-0.809052,0.230519,0.12718399999999996,0.027876000000000012,0.9798437974521619,0.22124000000000005,single,-0.809052
70,0.583333,jog,0.0,0.0,0.0,0.0,0.0,0.0,0.011520460818434218,-0.01500060002401923,-0.01308052322092875,0.9395175807032246,0.4608184327372888,0.2896915876635053,0.0,0.0,0.0,2.4481958517510707,-0.8496679720819256,-1.3105048382902276,12.745019581173183,9.38955114906615,-8.007040550433283,0.38022100000000003,-0.025827000000000044,-0.837037,0.157435,0.10532199999999992,-0.806638,0.222786,0.13114899999999996,0.030399000000000065,0.961672496592491,0.19601000000000002,single,-0.806638
71,0.591667,jog,0.0,0.0,0.0,0.0,0.0,0.0,0.013918886489078035,-0.009239260859117126,-0.0020398368130548987,1.0790736741060634,0.657067434605231,0.2970962323014135,0.0,0.0,0.0,0.2877880574326613,0.6913053953566188,1.3247763868339053,16.745391577014367,23.54799638444213,0.8884862776467706,0.380337,-0.025903999999999927,-0.837054,0.166428,0.11079799999999995,-0.804162,0.213909,0.13670199999999988,0.03289199999999992,0.9719494366989346,0.17108000000000007,single,-0.804162
72,0.6,jog,0.0,0.0,0.0,0.0,0.0,0.0,0.02928117124685278,-0.02760110404418296,-0.01572062882515305,1.2076083043321841,0.7615504620184832,0.2630505220208832,0.0,0.0,0.0,1.8435479128495003,-2.2035093225808233,-1.6417607118802684,15.424772618039356,12.538464828183509,-4.085648659610061,0.380581,-0.0261340000000001,-0.837185,0.17649099999999998,0.11714399999999991,-0.80197,0.20409000000000002,0.14327800000000002,0.035214999999999996,0.9279979532562603,0.14785000000000004,single,-0.80197
73,0.608333,jog,0.0,0.0,0.0,0.0,0.0,0.0,0.04476179047161681,-0.00828033121323346,-0.005040201608064346,1.2311292451698017,0.8823952958118486,0.18636745469818783,0.0,0.0,0.0,1.8577486169163526,2.3185854831332557,1.2817025341520052,2.8226258055463194,14.501960133609133,-9.202336172170291,0.380954,-0.026202999999999976,-0.8372269999999999,0.18675,0.12449700000000008,-0.800417,0.194204,0.15070000000000006,0.0368099999999999,0.9236676600596716,0.13190000000000002,single,-0.800417
74,0.616667,jog,0.0,0.0,0.0,0.0,0.0,0.0,0.008399328053757487,-0.011639068874491756,-0.0077993760499161496,1.272018238540924,0.9412047036237109,0.09743220542356669,0.0,0.0,0.0,-4.363146438428069,-0.40301627804875384,-0.33107444706645306,4.9062867015985745,7.056564412270532,-10.671376202858369,0.38102400000000003,-0.02629999999999999,-0.837292,0.197351,0.13234100000000004,-0.799605,0.183673,0.15864100000000003,0.037687000000000026,0.9727742512199794,0.12312999999999996,single,-0.799605
75,0.625,jog,0.0,0.0,0.0,0.0,0.0,0.0,0.04188167526700909,-0.004440177607112037,-0.0044401776071041265,1.2388095523820901,1.1172446897875783,0.08688347533901265,0.0,0.0,0.0,4.018042387285667,0.8639015081458885,0.4031199379349585,-3.985201747129934,21.125643365398616,-1.2658982460763222,0.38137299999999996,-0.026337000000000055,-0.837329,0.207674,0.14165099999999997,-0.798881,0.173699,0.16798800000000003,0.03844800000000004,0.9294170094944074,0.11552000000000007,single,-0.798881
76,0.633333,jog,0.0,0.0,0.0,0.0,0.0,0.0,0.010920436817473582,-0.012600504020163363,-0.014520580823233027,1.4092163686547403,1.2836913476538956,0.1526461058442334,0.0,0.0,0.0,-3.7154972338335988,-0.9792783406997829,-1.2096967738064153,20.449635938155463,19.974397919874786,7.891831333879813,0.381464,-0.026442000000000077,-0.83745,0.219417,0.15234799999999993,-0.797609,0.162047,0.17879,0.039841000000000015,0.9631491026307579,0.10159000000000001,single,-0.797609
77,0.641667,jog,0.0,0.0,0.0,0.0,0.0,0.0,0.014518838492918518,0.00011999040078471127,0.008639308855291732,1.3256539476841929,1.3098152147828426,-0.025677945764338867,0.0,0.0,0.0,0.43177365916066185,1.5263372235358947,2.7789644442674457,-10.026688381395239,3.1346132864107434,-21.39717441907527,0.38158499999999995,-0.026440999999999937,-0.837378,0.230465,0.16326400000000008,-0.797823,0.15111999999999998,0.189705,0.03955500000000001,0.9718412868045325,0.10445000000000004,single,-0.797823
78,0.65,jog,0.0,0.0,0.0,0.0,0.0,0.0,-0.03348133925357018,-0.04764190567622453,-0.02376095043801745,1.3235329413176473,1.458298331933264,-0.03648145925837003,0.0,0.0,0.0,-5.760251739648205,-5.731656795512906,-3.8881866426627925,-0.2545309452232742,17.818686805522727,-1.2964734782228629,0.381306,-0.026837999999999917,-0.837576,0.241494,0.17541600000000002,-0.798127,0.139812,0.20225399999999993,0.039448999999999956,0.8951809227977287,0.10550999999999999,single,-0.798127
79,0.658333,jog,0.0,0.0,0.0,0.0,0.0,0.0,0.0098403936157479,-0.03024120964840313,-0.03024120964838627,1.2986919476779188,1.5327013080523368,-0.12084483379335295,0.0,0.0,0.0,5.198815896954095,2.088167050020588,-0.7776622117327346,-2.981038478306576,8.928714282860128,-10.124009904594228,0.381388,-0.02709000000000006,-0.837828,0.252316,0.18818800000000002,-0.799134,0.12907200000000002,0.21527800000000008,0.038694000000000006,0.9268583021247043,0.11305999999999994,single,-0.799134
80,0.666667,jog,0.0,0.0,0.0,0.0,0.0,0.0,0.01115910727141604,0.012598992080636062,-0.012479001679865506,1.1821454283657218,1.5645548356131418,-0.1157907367410599,0.0,0.0,0.0,0.1582329800417723,5.140412974446708,2.1312944526662623,-13.98446356037871,3.8221175378935333,0.6064431308246957,0.38148099999999996,-0.026985000000000037,-0.837932,0.262168,0.20122700000000004,-0.800099,0.119313,0.22821200000000008,0.037833000000000006,0.965080021657884,0.12166999999999994,single,-0.800099
81,0.675,jog,0.0,0.0,0.0,0.0,0.0,0.0,0.01224048961958365,0.026881075243009846,-0.001320052802111942,1.1994479779191114,1.64610584423376,-0.15276611064442552,0.0,0.0,0.0,0.12977107262301757,1.7139185362262959,1.3391274304276393,2.0763890019668234,9.786512494973936,-4.437222357298149,0.381583,-0.026761000000000035,-0.837943,0.272163,0.21494400000000002,-0.801372,0.10941999999999999,0.24170500000000006,0.03657100000000002,0.9507228830504955,0.13429000000000002,single,-0.801372
82,0.683333,jog,0.0,0.0,0.0,0.0,0.0,0.0,-0.06756270250809857,0.01860074402977663,0.017040681627265217,1.2053282131285359,1.7910716428657403,-0.06096243849754064,0.0,0.0,0.0,-9.576766125966993,-0.9936794927677055,2.203376266575942,0.7056564513890007,17.39659169950578,11.016881332879601,0.38102,-0.026605999999999908,-0.837801,0.282207,0.2298690000000001,-0.80188,0.09881300000000001,0.256475,0.03592099999999998,0.8798023470489253,0.14079000000000008,single,-0.80188
83,0.691667,jog,0.0,0.0,0.0,0.0,0.0,0.0,0.008759299256058218,0.008399328053757375,-0.02879769618430511,1.1853851691864576,1.8369330453563328,-0.1042716582673372,0.0,0.0,0.0,9.157907579092416,-1.2240719913629925,-5.500165324162464,-2.3929738351425596,5.502928064625896,-5.196690637124577,0.381093,-0.026535999999999893,-0.838041,0.292086,0.2451779999999999,-0.802749,0.08900699999999999,0.2717139999999998,0.03529199999999999,0.9479161642494803,0.14708,single,-0.802749
84,0.7,jog,0.0,0.0,0.0,0.0,0.0,0.0,0.015000600024002777,0.028081123244911507,-0.07008280331213305,1.170166806672277,1.9099963998560165,-0.02256090243609773,0.0,0.0,0.0,0.7489860515954176,2.3619098993344907,-4.95441103178067,-1.8262765527638025,8.767953258092449,9.805682927065908,0.381218,-0.026302000000000048,-0.838625,0.301837,0.26109399999999994,-0.802937,0.07938100000000001,0.287396,0.03568799999999994,0.8717081581806636,0.14312000000000002,single,-0.802937
85,0.708333,jog,0.0,0.0,0.0,0.0,0.0,0.0,0.010080403216128691,0.0032401296051841034,-0.03336133445337805,1.0354014160566376,1.933637345493817,-0.09264370574822976,0.0,0.0,0.0,-0.5904472348342812,-2.9810384783064086,4.406752533151908,-16.172493773627608,2.8370269576143397,-8.410272808368143,0.38130200000000003,-0.02627500000000005,-0.838903,0.310465,0.277207,-0.803709,0.07083700000000001,0.30348200000000003,0.03519399999999995,0.9416644856272434,0.14805999999999997,single,-0.803709
86,0.716667,jog,51.50119990400729,20.709383249339904,-95.1761459083266,79.91904230223929,70.46420388429624,-331.3058368789094,0.02891768658507192,0.044156467482618575,-0.03167746580273558,1.0009599232061361,1.8498920086392965,-0.12491000719942312,6179.649616511506,2484.92719574511,-11420.223891087819,2.2602931808187043,4.909567779869709,0.2020480742311562,-4.13264853017773,-10.048636531619849,-3.871646442427779,-0.04766799999999999,-0.19849899999999998,-0.045968999999999996,-0.11040399999999999,0.12003199999999992,-0.011552,0.062736,0.3185309999999999,0.034416999999999996,0.8974019702152094,0.15582999999999997,single,-0.011552
87,0.725,jog,-2.4329773190927844,-6.322692907716385,-18.01608064322589,-179.54287611278357,118.60633730727308,-18.36654897449268,0.017280691227649893,-0.007920316812687163,0.019440777631105504,1.0333613344533867,2.1092043681747508,0.01656066242649712,-6472.360161178515,-3243.978898002704,9259.578214940768,-1.396495302702764,-6.249464094000506,6.134434589444564,3.888324882665414,31.118727893370533,16.977159441488244,-0.027249999999999996,-0.14587799999999995,0.104321,-0.08151900000000001,0.1902950000000001,0.138714,0.05426900000000001,0.33617300000000006,0.03439300000000001,0.9546832891191583,0.15607000000000004,single,0.138714
88,0.733333,jog,-1.9464778591143579,-5.0580823232929095,-14.41293651746064,-89.45964456461974,59.09754988739593,-9.151524900978222,-0.01392055682227343,-0.04092163686546541,-0.009840393615744646,1.079443177727105,1.9792391695667586,0.08544341773670963,58.38227048823046,151.75934050443655,432.39459087546334,-3.744299537972302,-3.9603168190061333,-3.513881104866198,5.530042394541946,-15.59644769086663,8.266261287676974,-0.01114599999999999,-0.10406999999999988,0.224342,-0.05630399999999999,0.24893699999999996,0.259529,0.045158000000000004,0.35300699999999985,0.035186999999999996,0.9261157885512753,0.14812999999999998,single,0.259529
89,0.741667,jog,0.0,0.0,0.0,-9.754376624749026e-05,-2.361674333683943e-05,0.000182997543446224,0.01559875209983105,-0.0010799136069291853,-0.009959203263738926,0.9418046556275546,2.047516198704138,-0.1022318214542849,233.55865840105218,606.9213250891455,1729.4140289729687,3.5420337079559214,4.780624341077089,-0.014256017277931535,-16.515301427831915,8.19258808943841,-22.519227164746294,-0.011015999999999998,-0.10407900000000003,0.22425900000000001,-0.048455,0.26600100000000015,0.258677,0.037439,0.3700800000000002,0.034417999999999976,0.9691026336020329,0.15582000000000007,single,0.258677
90,0.75,jog,0.0,0.0,0.0,0.0,0.0,0.0,0.01944077763110462,0.02472098883957154,-0.0019200768030721614,0.974198967958716,2.08292331693265,-0.004560182407295837,0.0,0.0,0.0,0.4610615062130749,3.0962321428657886,0.9647337646305931,3.8874729786584994,4.249024148387365,11.72106552825977,-0.010854000000000003,-0.10387299999999988,0.22424300000000003,-0.040336999999999984,0.283358,0.258639,0.02948299999999998,0.3872309999999999,0.03439599999999998,0.9474865673523544,0.15604,single,0.258639
91,0.758333,jog,0.0,0.0,0.0,0.0,0.0,0.0,0.013560542421697049,0.0033601344053662383,-0.0061202448097922415,0.8631945277811083,2.029161166446657,0.007680307212288646,0.0,0.0,0.0,-0.705656451386961,-2.563405068307358,-0.5040403224193043,-13.321065663939425,-6.451716126964196,1.4689175110505739,-0.010741,-0.10384499999999997,0.224192,-0.03314399999999998,0.30026700000000006,0.258703,0.02240299999999998,0.404112,0.034511000000000014,0.9745793057549257,0.15489000000000003,single,0.258703
92,0.766667,jog,0.0,0.0,0.0,0.0,0.0,0.0,0.000479961603072237,-0.014398848092140466,-0.0003599712023039696,0.8915286777057877,2.0231581473482256,0.03467722582193415,0.0,0.0,0.0,-1.56954413470421,-2.1309074271066484,0.6911775386955009,3.399826004881159,-0.7203046674383871,3.2393710834708016,-0.010736999999999997,-0.10396499999999986,0.22418900000000003,-0.025713999999999987,0.3171280000000001,0.258992,0.01497699999999999,0.42109299999999994,0.03480299999999997,0.9759810972133145,0.15197,single,0.258992
93,0.775,jog,0.0,0.0,0.0,0.0,0.0,0.0,0.00636025441017608,-0.009960398415943227,0.0012000480019202311,0.8391935677427061,2.0225609024360933,0.08904356174246927,0.0,0.0,0.0,0.7056633633869936,0.5326352665543287,0.18720979289861925,-6.2804644141463255,-0.07167225634613085,6.52422127931536,-0.010683999999999999,-0.10404799999999992,0.224199,-0.018720999999999988,0.3339820000000001,0.259734,0.008036999999999989,0.43803000000000003,0.03553500000000001,0.9802022386244891,0.14465000000000006,single,0.259734
94,0.783333,jog,0.0,0.0,0.0,0.0,0.0,0.0,0.00588023520941098,-0.0060002400096131015,0.00924036961478455,0.8771150846033934,1.9983199327973302,0.04920196807872368,0.0,0.0,0.0,-0.05760460827614355,0.47523801828035056,0.9648771886312723,4.550764053844663,-2.909032717960317,-4.781182486948993,-0.010634999999999978,-0.10409800000000002,0.224276,-0.011411999999999978,0.3506340000000001,0.26014400000000004,0.0007769999999999999,0.45473200000000014,0.03586800000000004,0.9791857102432012,0.14132000000000006,single,0.26014400000000004
95,0.791667,jog,0.0,0.0,0.0,0.0,0.0,0.0,0.009479241660666562,-0.023518118550499335,0.026637868970482155,0.8302135829133583,1.9490040796735988,0.06299496040316699,0.0,0.0,0.0,0.4318462264525504,-2.101977266724994,2.087532920050093,-5.627729984405409,-5.917428980529285,1.6550266767990407,-0.010555999999999982,-0.10429399999999989,0.224498,-0.004492999999999997,0.366877,0.26066900000000004,0.006062999999999985,0.4711709999999999,0.036171000000000036,0.9387053114068049,0.13829000000000008,single,0.26066900000000004
96,0.8,jog,0.0,0.0,0.0,0.0,0.0,0.0,-0.006240249609983953,-0.02004080163206859,-0.0034801392055681495,0.8712348493939741,1.9619584783391324,0.09840393615744604,0.0,0.0,0.0,-1.886414409054416,0.4172947220005678,-3.614305553348155,4.9227488876293775,1.5545900234649648,4.249247060395884,-0.010607999999999979,-0.10446099999999992,0.224469,0.0027670000000000194,0.38322600000000007,0.261489,0.013374999999999998,0.487687,0.037020000000000025,0.9645393091601983,0.12980000000000003,single,0.261489
97,0.808333,jog,0.0,0.0,0.0,0.0,0.0,0.0,-0.0025201008040347046,-0.022200888035533835,0.001920076803072187,0.7961118444737864,1.9045961838473675,0.11592463698548067,0.0,0.0,0.0,0.44643571414247957,-0.2592207372453217,0.6480518431105706,-9.015121195270424,-6.883750689039411,2.1025682020922583,-0.010629,-0.10464600000000002,0.22448500000000002,0.00940100000000002,0.39909700000000004,0.262455,0.02003000000000002,0.503743,0.037969999999999976,0.962623647086601,0.12029999999999996,single,0.262455
98,0.816667,jog,0.0,0.0,0.0,0.0,0.0,0.0,0.023278137748979872,0.027717782577404666,0.0001199904007678495,0.8180945524357978,1.8726901847852073,0.12011039116870581,0.0,0.0,0.0,3.0955409830830787,5.989761292649163,-0.2159930888294125,2.637713938326282,-3.828413614370043,0.5022503219612564,-0.010435,-0.10441499999999992,0.22448600000000002,0.01621900000000001,0.4147040000000001,0.263456,0.02665400000000001,0.519119,0.038970000000000005,0.9396730766350492,0.11029999999999995,single,0.263456
99,0.825,jog,0.0,0.0,0.0,0.0,0.0,0.0,-0.001800072002878601,-0.004440177607112096,0.03816152646105886,0.8197527901116124,1.8401536061442576,0.12852514100564086,0.0,0.0,0.0,-3.009505550445062,-3.859109586525508,4.5651669339123195,0.1989964809569961,-3.9045456187387515,1.0098103728471288,-0.010449999999999987,-0.10445199999999999,0.224804,0.023050000000000015,0.43003800000000003,0.264527,0.0335,0.53449,0.03972300000000001,0.9358981379574417,0.10277000000000008,single,0.264527
100,0.833333,jog,0.0,0.0,0.0,0.0,0.0,0.0,-0.006960278411136715,0.004800192007685088,0.04692187687507469,0.7946717868714702,1.7964718588743522,0.12456498259930396,0.0,0.0,0.0,-0.6192495389725301,1.1088887093240303,1.0512841010459368,-3.009840782448346,-5.242019353162749,-0.47523801828115725,-0.01050799999999999,-0.10441199999999995,0.225195,0.029672000000000004,0.44500800000000007,0.265565,0.040179999999999993,0.54942,0.04036999999999999,0.9205373978886425,0.0963,single,0.265565
101,0.841667,jog,0.0,0.0,0.0,0.0,0.0,0.0,-0.014398848092153596,0.013078953683694971,0.06671466282697344,0.7747780177585756,1.7399808015358622,0.12706983441324565,0.0,0.0,0.0,-0.8925569571654457,0.993371931366669,2.374944318682338,-2.387061328641048,-6.778384609849963,0.3005581730191595,-0.010627999999999999,-0.10430300000000003,0.225751,0.03612900000000002,0.45950900000000006,0.266624,0.04675700000000002,0.5638120000000001,0.04087300000000002,0.8841788724421491,0.09127000000000002,single,0.266624
102,0.85,jog,0.0,0.0,0.0,0.0,0.0,0.0,-0.0007200288011527728,0.017520700828057467,0.08976359054362261,0.7584303372134945,1.6878675147006028,0.12144485779431276,0.0,0.0,0.0,1.6415239758791489,0.5330309785626468,2.7659819652765365,-1.9618001374152425,-6.2538445740141455,-0.6750241952397631,-0.010634000000000005,-0.10415699999999983,0.226499,0.042449000000000014,0.47357400000000005,0.267636,0.05308300000000002,0.5777309999999999,0.04113699999999998,0.8475660836600558,0.08863000000000004,single,0.267636
103,0.858333,jog,0.0,0.0,0.0,0.0,0.0,0.0,0.003120124804995307,0.018360734429358823,0.10536421456858214,0.7706708268330681,1.633865354614183,0.12612504500179994,0.0,0.0,0.0,0.46083686621241615,0.1008080644787415,1.872149768985895,1.4689175110492654,-6.480518431107591,0.5616449306956874,-0.010607999999999979,-0.10400399999999999,0.22737700000000002,0.048871,0.4871890000000001,0.268687,0.059478999999999976,0.5911930000000001,0.041309999999999986,0.8216707986519314,0.08690000000000003,single,0.268687
104,0.866667,jog,0.0,0.0,0.0,0.0,0.0,0.0,0.006719462443004657,0.04931605471561573,0.10571154307655446,0.7204223662107083,1.5671946244300532,0.09803215742740616,0.0,0.0,0.0,0.4318859656838697,3.7143412870478865,0.04167608686972964,-6.029332928048963,-7.999847634284883,-3.37087683878017,-0.010551999999999978,-0.10359300000000005,0.22825800000000002,0.05487500000000001,0.5002500000000001,0.269504,0.06542699999999999,0.6038430000000001,0.041246000000000005,0.8052626072554319,0.08753999999999995,single,0.269504
105,0.875,jog,0.0,0.0,0.0,0.0,0.0,0.0,0.01008040321612536,0.06492259690389085,0.10764430577223047,0.713068522740907,1.4843393735749324,0.07752310092403672,0.0,0.0,0.0,0.40332902593552017,1.8728599769920862,0.23194080111316445,-0.8824965162367994,-9.943027823727403,-2.461185227813435,-0.010468000000000005,-0.10305199999999992,0.22915500000000003,0.06081700000000001,0.512619,0.27015,0.07128500000000002,0.615671,0.040994999999999976,0.789815856641728,0.09004999999999996,single,0.27015
106,0.883333,jog,7.779071162846484,20.327373094923722,129.1584063362529,-117.51791387728225,-256.4916847927218,-122.85640052470451,0.0037201488059526123,0.026041041641654963,0.14604584183367286,0.674786991479655,1.407176287051478,0.044881795271810604,933.5258805767972,2439.382346684704,15499.628745500104,-0.7632610596631131,-4.665973270399102,4.6083686621195525,-4.593967510050623,-9.259940780445719,-3.9171133628016297,-0.07526000000000002,-0.2722230000000001,-0.845905,0.0016169999999999796,0.35495699999999997,-0.8057529999999999,0.076877,0.6271800000000001,0.040152000000000077,0.7526733869184143,0.09848000000000001,single,-0.8057529999999999
107,0.891667,jog,1.1262299016078785,1.1252699784017206,1.9408447324214233,-24.08798727412906,2.7169461044877394,6.825266773338297,0.05627549796016317,0.07127429805615393,0.16906647468202646,0.6335493160547201,1.314854811615081,0.0014398848092150459,-798.2770891815027,-2304.06804853877,-15264.88620156374,6.306137407512702,5.427556565214689,2.7622549614055347,-4.948125200976144,-11.077690837100711,-5.212612246531775,-0.08417700000000003,-0.281007,-0.860671,-0.002489000000000019,0.3565370000000001,-0.821916,0.08168800000000001,0.6375440000000001,0.038754999999999984,0.6801457358964951,0.11245000000000005,single,-0.821916
108,0.9,jog,0.6092643705748202,1.42421696867874,1.6342253690147561,-22.052682249484114,0.042253973406461746,5.23735837777319,0.05244209768390962,0.04980199207968949,0.17760710428417045,0.6312252490099561,1.216368654746189,-0.011760470418816808,-62.03834525777705,35.87507383619563,-36.79579544061753,-0.4600264342077922,-2.576779788367257,1.024916548919232,-0.27889920133972707,-11.81881157673008,-1.58410599160348,-0.08881700000000001,-0.29245999999999994,-0.8728090000000001,-0.0023060000000000302,0.35480500000000015,-0.835632,0.08651099999999998,0.6472650000000001,0.037177000000000016,0.6803878412964899,0.12823,single,-0.835632
109,0.908333,jog,0.8597143885755514,1.0160806432257385,1.500900036001446,-15.186169985019998,5.635998907150953,3.1380371864359486,0.11820472818912696,0.0033601344053929296,0.2984519380775258,0.6011040441617769,1.0990039601584163,-0.05856234249369973,30.055204368262746,-48.978318187088114,-15.99967994879532,7.891831333879507,-5.573245850749668,14.501960133608117,-3.6146891693483183,-14.08432672360179,-5.61644930695828,-0.09499600000000002,-0.3008989999999998,-0.882829,-0.004460999999999993,0.35549600000000015,-0.848627,0.09053500000000003,0.656395,0.034201999999999955,0.5,0.15798,flight,-0.848627
110,0.916667,jog,0.25053995680345126,0.7552195824334021,-0.8728101751859788,3.9820923746066916,-8.00511397328758,1.3072445560859947,0.0619150467962578,0.0956323494120387,0.1969042476601857,0.5398368130549485,0.9917206623470007,-0.11975041996640247,-73.09508420591499,-31.30082322922179,-284.822439547325,-6.754221429429894,11.071780058392736,-12.1847480702351,-7.351479614450198,-12.872965900097759,-7.341981938169219,-0.09656799999999999,-0.3063959999999999,-0.873914,-0.0020499999999999963,0.3574670000000001,-0.842351,0.09451799999999999,0.663863,0.03156300000000001,0.6208551214301349,0.1843700000000001,single,-0.842351
111,0.925,jog,0.15012600504020124,1.39601584063362,-1.3538941557662267,5.083945745299923,-6.147711261033177,-0.07399312813859045,0.09132365294611554,0.060722428897143084,0.22812912516500564,0.5444617784711382,0.8652346093843644,-0.12984519380775172,-12.050156217838666,76.89862692910299,-57.73238696510811,3.5291739049391118,-4.189358036108901,3.7471351859858175,0.5550180506647919,-15.178933512856815,-1.2114213178146183,-0.097058,-0.317523,-0.8607309999999999,0.0012360000000000149,0.353044,-0.832151,0.09829400000000002,0.670567,0.02857999999999994,0.5781320615170682,0.21420000000000006,single,-0.832151
112,0.933333,jog,0.27709108364334895,1.003480139205575,-0.1670466818672701,1.0908165557790461,-0.9671461440097018,-0.8097004361739247,0.11292451698067994,0.03816152646106365,0.2684507380295236,0.49141965678627114,0.7208688347534082,-0.2010080403216142,15.236418889133429,-47.10616841810256,142.42739396363464,2.5922073724426498,-2.7074165889931168,4.838787095226006,-6.365309214552687,-17.32458593915246,-8.539883176990655,-0.09842600000000001,-0.32556699999999994,-0.857102,0.003021999999999969,0.35068900000000014,-0.832434,0.10144799999999998,0.6762560000000001,0.024668000000000023,0.5104592645886401,0.25332,single,-0.832434
113,0.941667,jog,0.259659227261817,1.1330693544516461,-0.07595392368610389,0.8780652790400648,-0.9638767958112406,-1.654382618209068,0.0812335013198951,0.053635709143278476,0.2467002639788801,0.42044636429085436,0.5374370050395807,-0.2654187664986779,-2.091655433349149,15.549461872578613,10.930256561214964,-3.8026176698805623,1.8567533815952377,-2.6098480982293393,-8.516113810345121,-22.01005876095826,-7.728668847739765,-0.099913,-0.33456299999999994,-0.854413,0.004361999999999977,0.34572499999999995,-0.834013,0.10427499999999998,0.6802879999999999,0.020399999999999974,0.5579822424405425,0.296,single,-0.834013
114,0.95,jog,0.37009480379215215,1.087723508940363,-0.07284291371655223,-2.7726835243004637,-1.7314692678469799,-1.5290885131179521,0.0854434177367091,0.08532341293650698,0.22860914436577637,0.4502580103204209,0.3508940357614382,-0.3152526101044076,13.252799295612164,-5.441719130119236,0.37333612979139413,0.5052101784248225,3.8026765622499457,-2.1710211944202435,3.5775406251730244,-22.386051755447525,-5.980300444705404,-0.10228499999999999,-0.342916,-0.851901,0.0050300000000000344,0.339585,-0.836033,0.10731500000000002,0.682501,0.015867999999999993,0.569100413484521,0.34132,single,-0.836033
115,0.958333,jog,0.06528261130445724,1.5804632185287497,-0.0012000480019146104,4.483840611316714,1.2610983698990725,-2.8116011615359713,0.0828033121324845,0.08520340813632371,0.30613224528981087,0.3705748229929157,0.14808592343693175,-0.3745349813992543,-36.578926255573464,59.131130395822,8.597487785267889,-0.3168253455207721,-0.014401152068075513,9.303144236653567,-9.562364973899538,-24.337946996820545,-7.1141691221464605,-0.10213900000000004,-0.35537600000000014,-0.84934,0.00757399999999997,0.32764899999999986,-0.839144,0.109713,0.683025,0.010195999999999983,0.5,0.39804000000000006,flight,-0.839144
116,0.966667,jog,0.1445884329253596,1.4287257019438204,-0.14446844252459487,1.29520141290416,-0.48642314454413277,-2.5541008077757086,0.08267338612911179,0.1388288936885128,0.2601391888648884,0.2816174706023482,-0.021958243340524576,-0.41864650827933436,9.51593731952265,-18.20704542655725,-17.190832076155406,-0.01558987321486757,6.434543502782421,-5.518725272968816,-10.674028364598852,-20.403667719877014,-5.292959788826463,-0.10265499999999997,-0.36612599999999995,-0.845968,0.008716000000000002,0.31555900000000003,-0.8414290000000001,0.11137099999999997,0.681685,0.00453899999999996,0.5,0.45460999999999996,flight,-0.8414290000000001
117,0.975,jog,-0.5034201368054774,1.3946957878315285,-0.6864274570982972,7.117806770710609,-4.902098033960017,-6.264287606480018,0.086283451338054,0.12312492499699756,0.3506540261610498,0.1789271570862875,-0.21060842433698285,-0.46225849033961797,-77.76413893325848,-4.083753043596815,-65.03768325617511,0.4332251540792319,-1.8845516250468486,10.862214964138031,-12.323330555149603,-22.638927276666266,-5.233647193121805,-0.09774099999999997,-0.376722,-0.837326,0.014402000000000026,0.30218199999999995,-0.839561,0.11214299999999999,0.678904,0.002234999999999987,0.47765,0.5,flight,-0.837326
118,0.983333,jog,0.7682707308292323,1.4972998919956821,0.2836913476539089,0.06985022023309481,5.058433536762372,-0.8404935101309965,0.11808472338893325,0.2612504500180111,0.42265690627624897,0.1519260770430798,-0.22668906756269178,-0.35629425177006924,152.6090084765036,12.312985019099152,116.41891332679732,3.816305298317427,16.57572603156282,8.640691241473524,-3.2402592155535324,-1.9297543772601538,12.716217277036876,-0.103159,-0.387022,-0.836168,0.009265999999999996,0.28781599999999996,-0.844894,0.112425,0.6748379999999999,0.008726000000000012,0.41274,0.5,flight,-0.836168
119,0.991667,jog,0.17350611951044048,1.3936885049196062,-0.23362131029518157,2.725548350071853,-1.5045325337012148,-2.14526986159499,0.1339092872570209,0.2970962323014083,0.37401007919366686,0.09851211903048006,-0.2242620590352796,-0.20830333573314272,-71.36604407472944,-12.432371859380437,-62.07255314963925,1.8987957605096872,4.301149782025125,-5.837152277727668,-6.409162228533724,0.2912177258713933,17.75748932528526,-0.103489,-0.396161,-0.831104,0.00864100000000001,0.274332,-0.844683,0.11213000000000001,0.670493,0.013579000000000008,0.36421000000000003,0.5,flight,-0.831104
120,1.0,jog,0.15540621624864817,1.3763350534021246,-0.08496339853594612,2.8327819706297523,-0.3073929789618563,-2.484278027046938,0.1600864034561378,0.3325333013320614,0.4147365894635769,0.06924276971078744,-0.10716428657146633,-0.13956558262330404,-2.1720752744260454,-2.0824974819970605,17.839662997628086,3.1413795990779803,4.252618388413889,4.887376727458282,-3.512462416859774,14.052294787449032,8.248860327593711,-0.10344999999999999,-0.40485899999999986,-0.82694,0.007923000000000013,0.26197000000000004,-0.845138,0.111373,0.6668289999999999,0.018197999999999936,0.31802,0.6848399995127042,single,-0.82694
121,1.008333,jog,-0.1140045601824091,1.6223448937957736,-0.04044161766469744,-0.6652342904850561,-1.3513863209766357,-2.7105777646192672,0.16080643225729271,0.4041761670466634,0.3866554662186526,0.07800312012480377,0.052922116884678835,-0.10368414736589561,-32.330586395182976,29.522361741707822,5.342827417646595,0.08640691241508586,8.597487785263734,-3.3698695841743125,1.0512841010460117,19.211136860212005,4.305944468667798,-0.10115999999999997,-0.4150100000000001,-0.823381,0.009523000000000004,0.248892,-0.845665,0.11068299999999998,0.6639020000000001,0.02228399999999997,0.27715999999999996,0.7664546224216746,single,-0.823381
122,1.016667,jog,-0.05363570914326515,1.5803935685144987,0.056635469162456605,-0.18100360432704157,-1.2317455392720038,-2.166803972910166,0.17494600431965154,0.5520758339332904,0.35097192224621726,0.08411327093832516,0.18358531317494836,-0.14602831773458003,7.243682630086812,-5.033756333246287,11.648318553774095,1.6966129184495706,17.74654030317085,-4.281682742072842,0.7331594448669712,15.678329288489143,-5.080893972724273,-0.09925500000000001,-0.42357999999999996,-0.820928,0.010670999999999986,0.2372510000000001,-0.8473539999999999,0.109926,0.6608310000000001,0.02642599999999995,0.23574000000000006,0.5846591789670419,single,-0.820928
123,1.025,jog,0.10308412336493537,1.4860194407776486,-0.3698547941917612,-0.5891844610837543,-2.891198796628427,-0.39050087665848426,0.1845673826953109,0.5706228249130095,0.4564982599304016,0.06732269290772097,0.20904836193446852,-0.14940597623905089,18.807132186271687,-11.325348342355818,-51.18087883766011,1.1546115895427143,2.2257279466841826,12.663667068784989,-2.014949961670988,3.0556880786655936,-0.4053352339458647,-0.098576,-0.4312079999999999,-0.814042,0.010373000000000021,0.22660999999999998,-0.8455170000000001,0.10894900000000002,0.6578179999999999,0.03147500000000003,0.18524999999999997,0.5572945914801692,single,-0.814042
124,1.033333,jog,0.6506660266410521,1.1382455298211689,-0.009840393615747638,1.3726722186223907,-0.372693924564571,1.2818912620810348,0.30625225008999807,0.699147965918611,0.4946597863914471,0.08148325933037001,0.12828513140525236,-0.1263650546021821,65.71245689140852,-41.734538696324684,43.20345620736917,14.602768198090128,15.423633866026542,4.579566357979696,1.6993359441556213,-9.69197534251947,2.7650211972720986,-0.10144599999999998,-0.434867,-0.8098380000000001,0.005630000000000024,0.218194,-0.846488,0.107076,0.653061,0.03664999999999996,0.1335,0.670586702035204,single,-0.8098380000000001
125,1.041667,jog,0.8436525077993933,1.12047036237104,0.05315574754019434,-0.6928478103640002,-0.9365785899929606,3.297334847411872,0.21646268298536528,0.6521478281737679,0.5092392608591407,0.06923446124310118,0.022078233741309874,-0.11819054475642171,23.156525216984022,-2.1328494660582322,7.5589322241352495,-10.773886141664807,-5.639565364152137,1.7493969843645212,-1.469738191416975,-12.743808215016138,0.9808627124742657,-0.10667299999999999,-0.43877,-0.806037,-0.0008239999999999914,0.20904,-0.847916,0.105849,0.64781,0.041879,0.08121,0.7687602020353828,single,-0.806037
126,1.05,jog,0.40201608064322103,1.37429497179885,0.055082203288129024,-0.9501514240994939,-0.10075573183347279,0.5768013938265887,0.3942157686307362,0.7003480139205388,0.6348253930157098,0.05328213128525047,0.007080283211332079,-0.07632305292211569,-52.998491198387676,30.4601715381982,0.23118393710964277,21.331223526385195,5.784253659758794,15.070938696335883,-1.9143561691888185,-1.7998260566395694,5.024299992116319,-0.10673800000000003,-0.44438600000000006,-0.801206,-0.003730000000000011,0.19764700000000002,-0.849011,0.10300800000000002,0.6420330000000001,0.047804999999999986,0.021950000000000025,0.8444157576173369,single,-0.801206
127,1.058333,jog,0.41569662786511447,1.3062522500900062,0.02520100804032706,-0.9069962019643162,-0.14311617869787185,1.0273222871721595,0.4264970598823994,0.8622344893795827,0.7503900156006302,0.10776431057242507,-0.029641185647425836,-0.03420136805472256,1.6417313358806624,-8.16545322319025,-3.5858868652108766,3.873909906595881,19.427154141251094,13.868309442568277,6.538123039382587,-4.406752533152316,5.054804376262272,-0.10664799999999999,-0.448086,-0.7951630000000001,-0.006295999999999968,0.1865150000000001,-0.849506,0.10035200000000002,0.6346010000000001,0.05434299999999992,0.0,0.8051961093208106,single,-0.7951630000000001
128,1.066667,jog,0.623830093592509,1.2640988720902318,0.15442764578834034,-2.0385473899633246,0.9642102299672847,1.4322348938291132,0.4560835133189309,1.0357571394288345,0.8984881209503182,0.0584353251739808,-0.03563714902808981,-0.011279097672185762,24.97401796584988,-5.058000719915306,15.505956053277211,3.5500904051513396,20.821052321724324,17.770351013881307,-5.919004727435072,-0.7194580490357484,2.7504524097116185,-0.108046,-0.4499890000000001,-0.788962,-0.011008000000000018,0.17568299999999992,-0.8508870000000001,0.09703799999999999,0.625672,0.06192500000000001,0.0,0.8843867598972781,single,-0.788962
129,1.075,jog,0.43657746309853157,1.3434537381495328,-0.020280811232459773,-1.490799532407555,0.44115792915104474,1.3717695014615403,0.6426257050282068,1.292331693267746,1.1083643345733925,0.005160206408258207,-0.010080403216125496,-0.029881195247810508,-22.471214507857805,9.522964845710046,-20.96585347663527,22.385958443451056,30.79017806779237,25.18615308089238,-6.393269982686077,3.0669321747227345,-2.2323410027150987,-0.10632900000000003,-0.450415,-0.7795569999999999,-0.014603000000000033,0.164404,-0.8509669999999999,0.091726,0.614819,0.07140999999999997,0.0,0.9467415085379368,single,-0.7795569999999999
130,1.083333,jog,0.35257410296411196,1.285131405256184,-0.10020400816031495,0.8540133170304552,0.07598445925841912,0.332661409474622,0.6601464058562234,1.532101284051332,1.0021600864034383,0.0020400816032628043,-0.000360014400573046,-0.024840993639745016,-10.080806448388113,-6.998959905597966,-9.591167278033575,2.1025682020900387,28.773501834103175,-12.745019581177518,-0.3744299537975937,1.1664933175989776,0.6048483869033245,-0.10376600000000002,-0.448357,-0.770371,-0.01752400000000004,0.15369200000000005,-0.8503390000000001,0.08624199999999999,0.6020490000000001,0.07996800000000004,0.0,0.9584546262661585,single,-0.770371
131,1.091667,jog,0.27261819054476116,1.2438204943604865,-0.3302135829133837,2.7548692173268416,-1.5890199006392363,0.5484269204706304,0.7661387089033025,1.7405807535397655,1.0292776577873968,0.0259179265658745,0.007919366450685356,-0.02603791696664298,-9.593941974964281,-4.956912754463437,-27.59894105508437,12.718058920936056,25.015535095804836,3.253848258214416,2.865112186538535,0.9934462264529108,-0.14361930968298361,-0.09965300000000002,-0.444217,-0.759041,-0.019580000000000042,0.14339199999999996,-0.847804,0.08007299999999998,0.5876089999999999,0.08876300000000004,0.0,0.9373628526437099,single,-0.759041
132,1.1,jog,0.32761310452417647,1.3162126485059145,-0.2036481459258273,-0.2678001780886761,0.4968397604132067,0.5491010363204207,0.7742709708388216,2.1227649105963677,0.8298331933277191,0.0034801392055683117,0.03492139685587857,-0.011280451218048564,6.599653663676269,8.687405993690954,15.188459976905579,0.9759104686810198,45.86393340412763,-23.93429310688518,-2.6926421889242524,3.2403732635536713,1.770966728500439,-0.09593100000000002,-0.4374960000000001,-0.750429,-0.02228100000000005,0.13271500000000003,-0.846201,0.07364999999999997,0.5702110000000001,0.09577199999999997,0.0,0.9385620478554295,single,-0.750429
133,1.108333,jog,0.44953798151926144,1.3261730469218795,-0.13224528981159936,3.1053774261939338,-0.2805286023228289,0.13588193478069366,1.1038041521660948,2.4353774150966303,0.8046321852874192,-0.006720268810752551,0.04116164646585688,-0.0025201008040322066,14.63157050223042,1.1952956217406898,8.568685481126677,39.545563581816424,37.51500114007745,-3.024241934513396,-1.2240979258755498,0.7488599075937075,1.0512841010460143,-0.090479,-0.428253,-0.7426219999999999,-0.026083000000000023,0.12200700000000009,-0.84512,0.06439599999999998,0.5502600000000001,0.10249800000000009,0.0,0.9303621658401395,single,-0.7426219999999999
134,1.116667,jog,0.3059755219582406,1.2558195344372458,-0.28953683705303335,2.243786545906582,-0.4513008977939984,0.2545407135787971,1.0742740580753478,2.596952243820484,0.5316774658027306,-0.010919126469876594,0.018478521718260896,-0.012479001679865506,-17.22611705795773,-8.441746158463307,-18.87347579090866,-3.5433278246636433,19.38742845258611,-32.75194618246779,-0.5038226132858185,-2.7217572291331664,-1.1949725072994029,-0.08407599999999998,-0.417076,-0.7357779999999999,-0.028723999999999972,0.11169499999999999,-0.842811,0.05535200000000001,0.528771,0.10703300000000004,0.0,0.9586207053023332,single,-0.7357779999999999
135,1.125,jog,0.37213488539542167,1.2874114964598653,-0.1822872914916538,1.826324214390534,0.27107843969483253,0.11831418030397364,1.27433097323894,2.6002640105604486,0.5357014280571267,0.005040201608062748,0.02124084963398348,-0.013440537621505102,7.9394411901094015,3.7911870901979814,12.870460285777096,24.00779013123654,0.3974279059119768,0.48289478631899674,1.915195977191826,0.3314926095910966,-0.11538892855389468,-0.07655800000000001,-0.40613599999999994,-0.729795,-0.031783000000000006,0.10114400000000001,-0.841404,0.04477500000000001,0.50728,0.11160900000000007,0.0,0.9572726545738853,single,-0.729795
136,1.133333,jog,0.35785431417256836,1.3078123124925072,-0.21708868354735114,0.7013705436935964,0.4029065767135812,0.36582096753698606,1.2824912996519982,2.8407536301452216,0.39121564862595015,0.017040681627262303,0.017040681627262303,0.0031201248049920177,-1.7137370962262621,2.4481958517511178,-4.176334100047722,0.9792783407006069,28.859908746522883,-17.338987091224997,1.4401152069122365,-0.5040403224194425,1.987358985539094,-0.068853,-0.393362,-0.724726,-0.034623000000000015,0.09038800000000002,-0.839569,0.03422999999999998,0.48375,0.11484300000000003,0.0,0.959499491106004,single,-0.724726
137,1.141667,jog,0.3459323254139672,1.3050155987520895,-0.11303095752339708,1.353157286775607,-0.5505967244757634,0.65545453136191,1.3652507799375946,2.9593232541396586,0.3081353491720623,-0.0025197984161258805,0.016318694504442517,-0.0028797696184304695,-1.4305242090954027,-0.3355788025459151,12.485928248614503,9.930343206814952,14.227216701996165,-9.968838427392273,-2.3470698396193947,-0.08663152421643633,-0.7199297364317784,-0.06035800000000002,-0.3795749999999999,-0.721216,-0.03752700000000003,0.07964800000000005,-0.8386509999999999,0.02283099999999999,0.45922299999999994,0.11743499999999996,0.0,0.9720644468144153,single,-0.721216
138,1.15,jog,0.35197407896315736,1.2754110164406791,-0.07692307692307795,0.6824440299145741,0.1629180381926693,0.8550593273498859,1.4650186007440427,3.2217688707548406,0.2518900756030285,0.008280331213246894,-0.006120244809795237,0.0012000480019200388,0.725039427479927,-3.552691985048681,4.3331189967982064,11.972617401469938,31.494733783173462,-6.749702816396774,1.2960673982206736,-2.6927804289257122,0.48959769834999944,-0.05108299999999999,-0.3633560000000001,-0.7184759999999999,-0.04039100000000001,0.06896899999999995,-0.838,0.01069199999999998,0.43232500000000007,0.11952400000000007,0.0,0.982722735175011,single,-0.7184759999999999
139,1.158333,jog,0.4153366134645303,1.2769710788431328,-0.12312492499699429,0.47776994436381254,0.25809401303776436,0.5906097064592025,1.483139325572998,3.2271690867634306,0.1314052562102443,0.016440657626304554,0.008040321612869085,-0.0008400336013436301,7.603808292496323,0.18721497689351102,-5.544443546611728,2.1745739624331115,0.6480518431045099,-14.458756677400949,0.9792783407005301,1.6993359441574554,-0.24481958517504301,-0.04218499999999997,-0.347105,-0.716355,-0.043715000000000004,0.058394999999999975,-0.836981,0.0015300000000000313,0.40549999999999997,0.12062600000000001,0.0,0.9694655180676773,single,-0.716355
140,1.166667,jog,0.30165586753060525,1.345932325413983,-0.12263018958483163,1.708275238651005,-0.6117661294114942,0.31141565413817224,1.529517638588943,3.32217422606198,0.03623710103191774,0.01307895368370864,0.01295896328293725,0.0002399808015357054,-13.640598264210132,8.274687613493105,0.05936350037949012,5.564952365724245,11.399704739447012,-11.419265080192988,-0.4033722033352505,0.590189785225373,0.1295913610366398,-0.03195199999999998,-0.3306349999999999,-0.715031,-0.046119999999999994,0.04728600000000005,-0.8359570000000001,0.014168000000000014,0.37792099999999995,0.12092600000000009,0.0,0.9693110882486209,single,-0.715031
141,1.175,jog,0.3782551302052002,1.3148925957038045,-0.05412216488659202,0.8020291012266413,-0.09515358460952665,0.7472292960819453,1.659786391455627,3.5507020280810546,0.017520700828033683,0.005760230409215367,0.002520100804024645,0.00024000960038383484,9.192279212119717,-3.7249165618838354,8.221291815461226,15.63287565902816,27.424433219617235,-2.2460578667807187,-0.8782819242161461,-1.2527136060137314,3.4560000155339545e-06,-0.021272999999999986,-0.31200399999999995,-0.714434,-0.04922399999999999,0.03634999999999999,-0.835504,0.027951000000000004,0.34835399999999994,0.12107000000000001,0.0,0.989513399152838,single,-0.714434
142,1.183333,jog,0.5059402376095087,1.3283331333253445,0.3253330133205247,3.8260019520643107,1.3788254058875127,-0.06903571587395915,1.6197047881915403,3.4948997959918726,-0.11124444977799347,0.016680667226689247,-0.01068042721708947,0.012120484819392935,15.322825801549222,1.6129290317460931,45.53644284256813,-4.809984791082093,-6.696535712130387,-15.452436170170209,1.310504838290409,-1.5841267276028124,1.425714054843299,-0.011992000000000003,-0.29394999999999993,-0.7180719999999999,-0.05330099999999999,0.025191999999999992,-0.8381139999999999,0.041308999999999985,0.3191419999999999,0.12004199999999998,0.0,0.9612980643276139,single,-0.7180719999999999
143,1.191667,jog,0.3966882649388056,1.3230141588672915,0.036237101031920106,1.4778915272990998,0.06992259808855122,0.6197278173541338,1.659347252219814,3.4787616990640373,-0.1996640268778481,0.023158147348211814,-0.008159347252214599,0.003959683225342156,-13.109187985445434,-0.638225876896212,-34.68873437588221,4.75671514618112,-1.936416718002781,-10.609500491943118,0.7772354357478423,0.302505395353354,-0.9792178538577775,-0.001468999999999998,-0.2759840000000001,-0.720038,-0.05641400000000002,0.014097999999999944,-0.838383,0.05494500000000002,0.29008200000000006,0.11834500000000003,0.0,0.9585487626699634,single,-0.720038
144,1.2,jog,0.40657626305052597,1.2692907716308706,0.005880235209417641,0.9563468732204192,-0.31667291826517996,1.2416851096968717,1.6692667706708395,3.615264610584468,-0.309132365294614,0.020160806432257653,-0.001320052802110086,-0.00036001440057597004,1.1866072376959624,-6.447064350944604,-3.642969617485029,1.190389829716254,16.381004622636752,-13.136726079055194,-0.3596952977264116,0.8207481639391067,-0.5183844504881994,0.009052999999999978,-0.25643499999999997,-0.722663,-0.05963400000000002,0.003510000000000013,-0.838435,0.068687,0.259945,0.11577199999999999,0.0,0.966321360801774,single,-0.722663
145,1.208333,jog,0.3426137045481755,1.3447737909516204,-0.021600864034569282,0.2618889883277801,-1.2407424631074588,0.9890356575945898,1.658466338653517,3.7167886715467966,-0.4348973958958268,0.0460818432737296,0.017760710428421266,0.033961358454337405,-7.675814052844032,9.058324651475884,-3.2978638238313263,-1.2961036862261268,12.183374650465222,-15.092407368440009,3.1106488469304563,2.2897831789908816,4.118729491769203,0.02001799999999998,-0.23666900000000002,-0.726107,-0.06210500000000002,-0.007547999999999999,-0.8379719999999999,0.082123,0.22912100000000002,0.11186499999999999,0.0,0.9001062650378079,single,-0.726107
146,1.216667,jog,0.3700503959683267,1.3587712982961622,-0.041156707463401575,-0.5089931651776333,-0.8926089205282299,1.3370352724216277,1.749460043196582,3.897288216942713,-0.3516918646508366,0.00851931845452233,0.007199424046070329,0.0017998560115192474,3.2921395992502607,1.6795665160237598,-2.3465134903806892,10.918371075481982,21.658212790487166,9.983865040195797,-4.507142406912405,-1.267252985643285,-3.8590715674128595,0.03151400000000004,-0.21551300000000007,-0.728695,-0.06511800000000001,-0.01881200000000005,-0.837614,0.09663200000000005,0.19670100000000001,0.10891899999999999,0.0,0.9811696185803882,single,-0.728695
147,1.225,jog,0.4316572662906461,1.4088563542541421,0.11628465138605312,0.6651204642645525,-0.30852291815229355,0.7423431208046953,1.6921876875074677,3.838593543741681,-0.5177007080283103,0.03480139205568311,-0.003840153606148019,0.008880355214208135,7.393120163484742,6.010447132842804,18.89371881068666,-6.872957600997644,-7.043642529824943,-19.92185807961967,3.1539749911388846,-1.324802310358593,0.8496938920783348,0.042018,-0.19526600000000005,-0.733978,-0.06842500000000001,-0.030584000000000056,-0.838509,0.11044300000000001,0.164682,0.10453099999999993,0.0,0.9397979241437941,single,-0.733978
148,1.233333,jog,0.41941677667106714,1.4080163206528382,0.10116404656186798,0.280577486129369,-0.6979264502372549,0.9928158854180549,1.6990279611184607,3.797911916476695,-0.5535821432857372,-0.015120604824194904,-0.03612144485779413,-0.006360254410176165,-1.4689175110499313,-0.10080806447904969,-1.8145451607086625,0.820865667945877,-4.881990551420412,-4.305944468670018,-5.990879260755847,-3.8739099065938323,-1.8289463127786438,0.05268100000000003,-0.17535100000000003,-0.739434,-0.072046,-0.042618000000000045,-0.8394050000000001,0.12472700000000003,0.132733,0.09997100000000003,0.0,0.9338804889901313,single,-0.739434
149,1.241667,jog,0.268658507319418,1.1874250059995128,-0.08807295416366773,-1.4026440061555534,-1.7049803007540525,2.6368928122321758,1.6964242860571006,3.9476841852651536,-0.6618670506359432,0.05015598752100147,-0.02543796496280158,0.07619390448764042,-18.089545158585075,-26.468840251178747,-22.706623557179537,-0.31241601408207775,17.97123455585043,-12.993149430070217,7.8325644762654045,1.2819150341963608,9.905706611209018,0.06457999999999997,-0.152347,-0.744216,-0.07386700000000002,-0.05272600000000005,-0.838036,0.138447,0.09962099999999996,0.09382000000000001,0.0,0.8421654855136835,single,-0.744216
150,1.25,jog,0.4557782311292455,1.386295451818086,0.17052682107284514,0.11851291182140386,-0.8051435168358593,1.157666181443648,1.7555502220088968,4.271810872434935,-0.48961958478339584,0.03744149765990421,0.006840273610941349,0.07992319692787783,22.455265067782218,23.865408114553592,31.03321435695611,7.095396130060807,38.896758330707385,20.670522723214802,-1.525799815324298,3.8735435705920107,0.44753299414825937,0.075411,-0.12830200000000003,-0.749717,-0.077353,-0.06422100000000008,-0.8387910000000001,0.152764,0.06408099999999994,0.0890740000000001,0.0,0.8524611868650085,single,-0.749717
151,1.258333,jog,0.4852994119764825,1.358214328573148,0.12960518420736586,-0.5680217489692799,-0.3730670673791577,1.1047542881737813,1.7053882155286402,4.092523700948075,-0.6329053162126544,0.046201848073926285,0.05232209288371486,0.05928237129485209,3.5426834090048374,-3.3698695841759645,-4.910792855571782,-6.019681564893442,-21.51532119127113,-17.194975570534012,1.0512841010467002,5.45803663419824,-2.4769981558893477,0.08557800000000004,-0.10551699999999997,-0.7560709999999999,-0.08101199999999997,-0.07510300000000003,-0.839377,0.16659000000000002,0.03041399999999994,0.0833060000000001,0.0,0.8473692571785771,single,-0.7560709999999999
152,1.266667,jog,0.5209983201343867,1.3552915766738622,0.19510439164866858,-1.0517808595146303,-0.2430318510330997,0.8866133745498028,1.7347012239020743,4.223782097432178,-0.6226301895848284,0.02987760979121638,-0.04139668826492993,-0.0022798176145905976,4.283526296844726,-0.35070217174055573,7.859276150864197,3.5172796224422687,15.7497475982844,1.2329165620141538,-1.9587518937736719,-11.24535410950853,-7.386871719395514,0.09569300000000003,-0.08161099999999999,-0.762886,-0.08510499999999999,-0.08674300000000001,-0.841022,0.18079800000000001,0.005132000000000025,0.0781360000000001,0.0,0.9148277083642323,single,-0.762886
153,1.275,jog,0.5259810392415776,1.3904956198248073,0.1941677667106712,-1.5918566271754218,-0.06532524192594155,0.675874805408156,1.7338293531741382,4.227889115564663,-0.5705028201128107,-0.011040441617662525,0.019560782431300338,-0.02220088803552176,0.5979502108713407,4.224654164280016,-0.11239948853922714,-0.10462867249922592,0.49286189037383765,6.2555345580245,-4.9103625835688565,7.3151890911113435,-2.3906240754747805,0.10575799999999996,-0.05796699999999999,-0.769258,-0.08957999999999999,-0.098167,-0.842825,0.19533799999999996,0.040200000000000014,0.07356700000000005,0.0,0.9473640651370332,single,-0.769258
154,1.283333,jog,0.5803432137285398,1.586823472938888,0.5679827193087609,1.2278613665741882,-1.5831537903711086,0.7706021566531446,1.5960638425536717,4.361814472578816,-0.6637465498619822,0.060482419296764685,-0.047521900876041766,0.05964238569542688,6.523721887310846,23.56028478508067,44.85958869531779,-16.532522575358705,16.07168570912644,-11.189695157706693,8.583086633196443,-8.050244006641178,9.821585711142111,0.11422199999999993,-0.03484300000000007,-0.779522,-0.09391200000000005,-0.11178600000000005,-0.8470610000000001,0.20813399999999999,0.07694299999999998,0.06753900000000002,0.0,0.8377787152759809,single,-0.779522
155,1.291667,jog,0.5897528197744296,1.3963282937365287,0.40112790976722446,-1.2000021868225879,-0.14933571777731808,0.2622941117817015,1.6049916006719833,4.330093592512692,-0.6205903527717895,0.02315814734821243,0.0005999520038436347,0.06611471082313533,1.1290624005147571,-22.8575928968518,-20.020975466947394,1.0712452745754453,-3.8062011118459984,5.178329384472464,-4.478554349478397,5.7741604127533375,0.7766168859741507,0.12268299999999999,-0.010392999999999986,-0.788037,-0.09863400000000005,-0.12341800000000003,-0.849853,0.22131700000000004,0.11302500000000004,0.06181599999999998,0.0,0.8832403380367836,single,-0.788037
156,1.3,jog,0.602784111364444,1.3674546981878954,0.35509420376814993,-2.0780192466440552,0.23007410476710113,-0.3155135135954694,1.5687027481098936,4.367214688587465,-0.5701428057122191,0.014640585623426,0.005520220808831116,0.13296531861274236,1.5638175435034374,-3.464970064638512,-5.524265690516467,-4.354836500910723,4.454709717361375,6.05394780506055,-1.0221482929060701,0.5904558748334807,8.022393830505923,0.13073199999999996,0.014604000000000061,-0.795747,-0.10353500000000004,-0.13476699999999997,-0.851704,0.234267,0.14937100000000003,0.055957000000000034,0.0,0.7768620535099717,single,-0.795747
157,1.308333,jog,0.6432257290291642,1.4692187687507638,0.40117604704188353,-1.3545135269145538,-0.3131765680651091,0.02802219124950626,1.5235809432377483,4.413896555862269,-0.5203408136325508,0.02208088323533171,0.015000600024006107,0.1854074162966533,4.8531882472963614,12.212176954622505,5.530042394543865,-5.41483317798461,5.602048154902774,5.976478108684597,0.892871428285825,1.1376910134615479,6.29330345420754,0.13806800000000002,0.03914200000000001,-0.803426,-0.108711,-0.14688499999999993,-0.853502,0.24677900000000003,0.18602699999999994,0.05007600000000001,0.0,0.6878012855775407,single,-0.803426
158,1.316667,jog,0.6166306695464321,1.5482361411086993,0.5187185025197903,-0.8022529683916154,-0.49492721441657833,-0.04274986680582821,1.4646028317734396,4.43388528917683,-0.4702423806095467,0.050515958723302314,0.023158147348211814,0.22126229901607683,-3.1911518457801664,9.481326176858039,14.103966340041508,-7.076807231138493,2.3984561212575706,6.011331056275943,3.4119361036681526,0.9788273727148602,4.302241746991031,0.14513499999999996,0.063191,-0.811668,-0.113429,-0.15959499999999993,-0.855981,0.25856399999999996,0.22278599999999993,0.04431300000000005,0.056869999999999976,0.6197765027125651,single,-0.811668
159,1.325,jog,0.6488659546381909,1.6236649465978839,0.5803432137285619,-0.40002385368817817,-0.948450088897475,0.15465650852073135,1.3883355334213556,4.411376455058244,-0.4075363014520614,0.04140165606624113,0.0936037441497672,0.23340933637345734,3.8683889465689503,9.051818731451483,7.395261155498874,-9.152441899926162,-2.701168140955977,7.525030500118313,-1.0937600692501217,8.453809768577468,1.4577027909973148,0.15129700000000001,0.08642099999999997,-0.8199000000000001,-0.11849100000000001,-0.17234499999999997,-0.8588720000000001,0.26978800000000003,0.25876599999999994,0.03897200000000001,0.11027999999999993,0.5752266082885417,single,-0.8199000000000001
160,1.333333,jog,0.6309852394095635,1.6259450378014877,0.5390615624624819,-0.4268630756614444,-0.612775404250537,0.04124863615483998,1.3586943477738804,4.4225369014759845,-0.36157446297851303,0.020520820832836822,0.1131645265810512,0.3097323892955664,-2.145771658301574,0.27362188930802833,-4.953996311781981,-3.557084561079405,1.3393071424145198,5.515641242475404,-2.5058004600268746,2.3473877872655287,9.159132715961565,0.15736099999999997,0.10972499999999996,-0.827405,-0.12357799999999997,-0.1849510000000001,-0.860783,0.28093899999999994,0.29467600000000005,0.03337800000000002,0.16621999999999998,0.5,flight,-0.827405
161,1.341667,jog,0.6985841132709508,1.5911927045836596,0.5866330693544667,-0.81654092942777,-0.632937239755051,-0.22859506429878182,1.3155747540197136,4.348692104631712,-0.24730021598272695,-0.0035997120230418255,0.1588672906167527,0.4115670746340374,8.111215966089343,-4.169946390428219,5.70812417710411,-5.17393733551328,-8.860666767971441,13.711812694479033,-2.894232404113164,5.483892972846457,12.219184705840286,0.16250300000000006,0.132706,-0.8343550000000001,-0.12943,-0.19688800000000006,-0.8622420000000001,0.29193300000000005,0.32959400000000005,0.027886999999999995,0.22113000000000005,0.5,flight,-0.8343550000000001
162,1.35,jog,0.7165486619464658,1.6221048841953396,0.6326653066122466,-0.41615452277974674,-0.5259808537131876,-0.16255988623896647,1.2686907476298728,4.264010560422343,-0.13476539061562215,0.022080883235331125,0.19020760830433586,0.42301692067681973,2.1558320743447363,3.70960993779905,5.524089434510876,-5.626305819013559,-10.162191792795802,13.504719232821651,3.081794702792812,3.760988562052396,1.374036486593318,0.16710399999999997,0.154721,-0.84075,-0.13521699999999998,-0.20882,-0.863989,0.30232099999999995,0.363541,0.02323900000000001,0.26761,0.5,flight,-0.84075
163,1.358333,jog,0.7267490699628059,1.6531861274451143,0.6403456138245597,-0.18954649142544733,-0.5484417997296168,-0.21181967389539613,1.2421696867874827,4.097443897755949,-0.05976239049562018,0.04068162726508836,0.19608784351374525,0.4052562102484134,1.2240979258778504,3.7298983859084323,0.9216737324268719,-3.182654607271124,-19.988799071930362,9.000720043202046,2.232178570713717,0.7056564513871888,-2.1313705062290276,0.17139899999999997,0.175089,-0.846584,-0.140934,-0.220962,-0.8659479999999999,0.31233299999999997,0.396051,0.019363999999999937,0.30636,0.5,flight,-0.846584
164,1.366667,jog,0.7223422126229877,1.7260619150467809,0.6112311015118795,-0.1252880174608449,-0.5904312044369098,-0.058346968014733935,1.1613870890328677,3.9625629949603725,0.04463642908567249,0.044636429085677484,0.2469402447804162,0.44624430045596014,-0.5287805783319086,8.744394960603074,-3.4934620005615455,-9.693136279651359,-16.184413582382454,12.526856201258925,0.47453825541025857,6.101800007999828,4.918177370715913,0.17505799999999994,0.193728,-0.851306,-0.146582,-0.23328899999999997,-0.8673230000000001,0.3216399999999999,0.427017,0.01601700000000006,0.3398300000000001,0.5,flight,-0.851306
165,1.375,jog,0.740549621984884,1.7583103324133125,0.5943837753510177,-0.22138201377336508,-0.40189912868020305,0.016071294559260107,1.0303612144485985,3.8083523340933936,0.18552742109684625,0.06684267370694578,0.2943717748709888,0.4772590903636191,2.184976522488482,3.869964882579132,-2.021760009703825,-15.723733899468424,-18.506019544819427,16.907595345154814,2.664855948790172,5.6920112913204175,3.721923665865741,0.17747300000000005,0.21081099999999997,-0.8547130000000001,-0.152196,-0.24548800000000004,-0.868299,0.32966900000000005,0.456299,0.013585999999999987,0.36414,0.5,flight,-0.8547130000000001
166,1.383333,jog,0.7590303612144585,1.7908316332653493,0.5684627385095445,0.10697667062396189,-0.04260884277403405,-0.014011313085452799,0.9648385935437429,3.571702868114762,0.2216488659546404,0.07272290891635677,0.3465738629545215,0.5147005880235249,2.2177774186457055,3.902712210732888,-3.1106488469306868,-7.863029029743935,-28.39907188031126,4.334746772806249,0.7056564513873803,6.264501150069986,4.493159445566564,0.17918799999999996,0.225651,-0.857603,-0.15791500000000003,-0.25752300000000006,-0.868747,0.337103,0.48317400000000005,0.011144000000000043,0.3885599999999999,0.5,flight,-0.857603
167,1.391667,jog,0.750659947204216,1.811015118790479,0.5608351331893353,0.02736516043955875,-0.025268687943011812,-0.11893216299632046,0.9662826973841991,3.292896568274512,0.2806575473962054,0.08123350131989177,0.4049676025917916,0.534437245020395,-1.0043693316825604,2.4218245170541834,-0.9152394192715588,0.17327859856686148,-33.45407965445737,7.08047533496095,1.0211893932727296,7.006688221414642,2.3682093828737645,0.18098499999999995,0.23800100000000002,-0.859938,-0.16349400000000003,-0.269241,-0.8689669999999999,0.344479,0.507242,0.009028999999999954,0.40971,0.5,flight,-0.859938
168,1.4,jog,0.7699507980319256,1.83991359654388,0.5085803432137422,0.1555898245594148,0.2257053538859485,-0.14328041960116442,0.8502340093603832,3.0524420976839335,0.29089163566542875,0.09576383055322552,0.4490579623184996,0.5609024360974487,2.31499469911313,3.4679560486500893,-6.2708256300964305,-13.926399618842796,-28.855690698497643,1.228139717895528,1.7437092563703207,5.291054809397384,3.1759499672451623,0.18165399999999998,0.248105,-0.8617520000000001,-0.16911199999999998,-0.280831,-0.868531,0.35076599999999997,0.528936,0.0067789999999999795,0.4322100000000001,0.5,flight,-0.8617520000000001
169,1.408333,jog,0.8288731549261821,2.0052802112084134,0.6038641545661632,0.9234087028511396,-0.7552167252603896,0.4791783269186725,0.7567502700107912,2.7981519260769945,0.26785071402855787,0.11136445457817931,0.4731789271570816,0.5699027961118349,7.070965665937295,19.84478755124571,11.434514742880026,-11.218497461849315,-30.516041234481527,-2.765021197272348,1.8721497689851823,2.8946315658924253,1.0800864051825323,0.18105300000000002,0.254712,-0.864552,-0.175091,-0.29359799999999997,-0.868814,0.356144,0.54831,0.004261999999999988,0.45738,0.5,flight,-0.864552
170,1.416667,jog,0.7615790736741196,1.857331413486952,0.4007679385649236,0.1643946816325267,0.5440988564967323,-0.17987203606729835,0.6925845932325545,2.513678905687592,0.24190064794816754,0.13234941204704123,0.5251979841612728,0.5881929445644448,-8.074643778745353,-17.752435531733155,-24.369596352441015,-7.699265272166778,-34.134031724191,-3.113758828940583,2.5179934567869355,6.2417874975032674,2.194642242933795,0.18047800000000003,0.260182,-0.865876,-0.18033499999999997,-0.30469999999999997,-0.8672519999999999,0.360813,0.564882,0.0013759999999999328,0.48624,0.5,flight,-0.865876
171,1.425,jog,0.7471498859954279,1.846153846153815,0.3123724948997932,-0.08359566740498155,0.39031035666134845,-0.21326512182436685,0.6547461898475844,2.2499699987999113,0.16164646585863163,0.14388575543021537,0.6131045241809602,0.5921036841473565,-1.7315717843143492,-1.3413617344458098,-10.60787755491766,-4.540790037797848,-31.646334679908335,-9.63088708622759,1.3844165826441779,10.549206770633122,0.469307522250281,0.17970800000000003,0.263547,-0.867132,-0.18536199999999997,-0.31497499999999995,-0.8649209999999999,0.36507,0.578522,0.002211000000000074,0.5,0.4778899999999999,flight,-0.8649209999999999
172,1.433333,jog,0.7651506060242471,1.8365534621385071,0.26413056522261236,0.4110657129218497,0.5650280862152032,-0.2552885956069789,0.5613824552982123,1.9761190447618098,0.082563302532103,0.1773670946837865,0.6189847593903808,0.5018600744029813,2.1601728103707445,-1.1520921655235707,-5.789263131787024,-11.204096309777142,-32.86342902173336,-9.490359213552063,4.017921427285664,0.7056564513885344,-10.82966635597936,0.17801,0.26471,-0.868645,-0.19025999999999998,-0.325121,-0.86294,0.36827,0.589831,0.00570499999999996,0.5,0.44294999999999995,flight,-0.86294
173,1.441667,jog,0.7740580753539639,1.8112550995920151,0.216102711783062,0.6239875006829969,0.8806319036874726,-0.35582388661497427,0.49160067194624263,1.7459803215742618,-0.008999280057595998,0.1798656107511419,0.7156227501799765,0.6577873770098326,1.0688108147008264,-3.0355606607261567,-5.7628813822354195,-8.373144150704238,-27.614437627495352,-10.986630980285373,0.2997979442471066,11.595631244251852,18.709779530459574,0.17565600000000003,0.264166,-0.8705210000000001,-0.19521199999999994,-0.334252,-0.859259,0.370868,0.598418,0.011262000000000105,0.5,0.38738000000000006,flight,-0.859259
174,1.45,jog,0.7734309372375007,1.8030721228849331,0.13872554902195433,0.3343973359013295,0.39927512306267693,-0.33671005626740613,0.41257650306013244,1.5270610824433117,-0.11220448817952884,0.21312852514100755,0.7905916236649584,0.7316692667706781,-0.07525958435895899,-0.9819964847092388,-9.28563095657127,-9.48327959751721,-26.271359550096246,-12.385120379447233,3.9917093951597202,8.996624683185242,8.866181418558288,0.17264900000000005,0.261866,-0.8726119999999999,-0.19988099999999998,-0.34268899999999997,-0.854318,0.37253000000000003,0.604555,0.01829399999999992,0.5,0.31705999999999995,flight,-0.854318
175,1.458333,jog,0.7783511340453472,1.7986319452777797,0.05364214568582352,0.3467747245138064,0.4482426969772556,-0.34284632731808545,0.3596543861754307,1.333973358934334,-0.20340813632544805,0.26497059882394686,0.811832473298907,0.7905916236649324,0.5904472348309628,-0.5328426265634646,-10.2104168170082,-6.350908062486595,-23.17145367922408,-10.944875572533014,6.221297693860362,2.5490039162304328,7.070965665937028,0.16915999999999998,0.257994,-0.8747539999999999,-0.20415899999999998,-0.35091200000000006,-0.848177,0.37331899999999996,0.6089060000000001,0.026576999999999962,0.5,0.2342300000000001,flight,-0.848177
176,1.466667,jog,0.7576193904487836,1.813774898008196,-0.013678905687538954,0.2961774991206247,0.5280899551594718,-0.4752463535359739,0.3069354451643999,1.1693064554835824,-0.3297336213103015,0.2918166546676309,0.8567314614831019,0.8286537077034006,-2.4876102227698578,1.817008966932639,-8.077879934408898,-6.325766859975019,-19.758447738271524,-15.157845570537058,3.2212689997221693,5.387447586296588,4.5670847178388465,0.165404,0.252623,-0.8773880000000001,-0.20804100000000003,-0.35888800000000004,-0.841157,0.373445,0.611511,0.03623100000000001,0.5,0.13769000000000003,flight,-0.841157
177,1.475,jog,0.7685107404295995,1.7935917436697104,-0.08640345613825048,0.20702028836130432,0.3731542806793485,-0.4769674756310678,0.240609624384962,1.039721588863537,-0.42601704068162116,0.3022920916836613,0.8766350654026015,0.8509540381615116,1.3070142782690253,-2.422075403634376,-8.727295145891066,-7.959416870207218,-15.550806026646244,-11.554472503458298,1.2571027260326644,2.3885280114603726,2.6761467008413033,0.16100499999999995,0.24634100000000003,-0.880218,-0.211926,-0.366529,-0.8333459999999999,0.37293099999999996,0.61287,0.046872000000000025,0.5,0.03127999999999992,flight,-0.8333459999999999
178,1.483333,jog,0.7655106204248269,1.8025921036841646,-0.1704068162726497,0.4942772367974445,0.21580598172053933,-0.45921936460121426,0.16632665306612396,0.9263170526821154,-0.5285011400456056,0.3046921876875119,0.9770790831633334,0.8719548781951352,-0.36002880172479357,1.0800864051907149,-10.080806448385934,-8.914313130785878,-13.609088705318923,-12.29858386703292,0.2880230413837305,12.053764281859209,2.5202016120993354,0.15601199999999993,0.239039,-0.8832019999999999,-0.215766,-0.373408,-0.82466,0.37177799999999994,0.6124470000000001,0.05854199999999998,0.5,0.0,flight,-0.82466
179,1.491667,jog,0.7840172786176961,1.7522198224141974,-0.235421166306696,0.555742684135888,0.09806703282244943,-0.27644061638588924,0.0884329253659819,0.7299016078713654,-0.6358291336693023,0.17002639788816784,1.1514278857691356,0.9408447324213975,2.2206213334376157,-6.044190217178641,-7.801097916252195,-9.346499604048653,-23.567967939854633,-12.878328968526025,-16.15860208775414,20.92018269808026,8.266121217454025,0.1502150000000001,0.23051899999999997,-0.886539,-0.22088299999999994,-0.378415,-0.8148569999999999,0.37109800000000004,0.608934,0.07168200000000002,0.5,0.0,flight,-0.8148569999999999
180,1.5,jog,0.6989079563182653,1.8187927517100855,-0.32413296531861013,0.41082327670870183,-0.18081219806929777,-0.777271546337366,-0.05256210248410578,0.4956198247929956,-0.7556702268090789,0.28513140525621156,1.2092883715348728,0.864394575783041,-10.21352721702047,7.989071078349778,-10.645841715098399,-16.92008014521648,-28.11493856694731,-14.38150643703081,13.813153410301783,6.943536033329862,-9.174385772033748,0.143953,0.21949299999999997,-0.890135,-0.224331,-0.383494,-0.804953,0.368284,0.6029869999999999,0.08518199999999998,0.5,0.0,flight,-0.804953
181,1.508333,jog,0.7326293051722168,1.7524300972039015,-0.3992559702388095,0.7675795966317217,-0.11557338993967275,-0.5437002843485944,-0.12312492499699756,0.22596903876155286,-0.8161526461058519,0.3334933397335962,1.457458298331942,0.9053162126485136,4.046723731423475,-7.963837094225916,-9.015121195271815,-8.467877416643757,-32.3593886993214,-7.25818064283854,5.803664283857563,29.78158247894773,4.910792855570976,0.136822,0.20677299999999998,-0.893609,-0.227657,-0.385952,-0.7940820000000001,0.364479,0.5927250000000001,0.09952699999999992,0.5,0.0,flight,-0.7940820000000001
182,1.516667,jog,0.7225821934245171,1.7309815214782678,-0.4479241660667096,1.0987872707037196,-0.2904549835354591,-0.5697472865140223,-0.15610751139908646,-0.011519078473721878,-0.6057115430765488,0.3717302615790696,1.6996640268778347,0.9590832733381256,-1.2055569651667388,-2.573623197220252,-5.839716322042205,-3.9575937607497775,-28.49629436468358,25.250912290532934,4.588063576370662,29.062362436511986,6.451531160260571,0.12949900000000003,0.192251,-0.894924,-0.23058099999999998,-0.38621300000000003,-0.782356,0.36008,0.5784640000000001,0.112568,0.5,0.0,flight,-0.782356
183,1.525,jog,0.7229089163566644,1.6579863194527926,-0.5355814232569346,1.168983747759766,-0.47658605588035646,-0.6217202733526348,-0.16812672506900256,-0.04284171366854751,-0.28549141965678876,0.4293771750870038,1.8973958958358532,0.9913596543861833,0.03920832019048461,-8.759774634042461,-10.519291634492475,-1.4423633349233416,-3.7588665780422326,38.4279519284487,6.9179063372056575,23.728773425899476,3.8733206585933084,0.12207400000000002,0.17807800000000001,-0.8928400000000001,-0.23302700000000004,-0.384218,-0.7696320000000001,0.35510100000000006,0.562296,0.12320799999999998,0.5,0.0,flight,-0.7696320000000001
184,1.533333,jog,0.7028681147245768,1.669146765870606,-0.5616224648985882,1.9929389571299965,-0.7493475611349248,-0.3952404264315491,-0.03228129125165847,0.16596663866554398,-0.1929677187087456,0.5267010680427163,2.0784831393255367,0.9704788191527505,-2.4049923955462984,1.3393071424232865,-3.1250499989983447,16.302104142246698,25.058004600274554,11.103288245294797,11.679334328058422,21.731338472300536,-2.5058004600303017,0.11594799999999994,0.165552,-0.889768,-0.234495,-0.380807,-0.756865,0.35044299999999995,0.546359,0.132903,0.5723983311978074,0.0,single,-0.756865
185,1.541667,jog,0.6720662347012327,1.5503959683225657,-0.6633069354451876,1.2938022900873434,-0.5747407540891458,-0.82145677707512,0.04283657307416109,0.33117350611951657,-0.21262299016079067,0.53815694744421,2.2221022318215042,0.9298056155507743,-3.695929928407084,-14.248955789301975,-12.201160372762333,9.013422645286896,19.823238235418255,-2.3584438987335545,1.3745955605344309,17.232912466519107,-4.88039400071717,0.11070400000000002,0.155391,-0.8860119999999999,-0.23561100000000001,-0.37520899999999996,-0.7435879999999999,0.34631500000000004,0.5306,0.142424,0.5,0.0,flight,-0.7435879999999999
186,1.55,jog,0.6212648505940114,1.5297011880474929,-0.7273490939637438,1.6966999467603598,-0.7089134397679748,-0.8528986147346186,0.04332173286930738,0.24960998439937143,-0.1656066242649676,0.5870634825392922,2.416656666266607,0.8457938317532552,-6.096409949264426,-2.4834729719275654,-7.685366436884086,0.05822150427772465,-9.788014126982324,5.642189595082471,5.86901897216864,23.347466032053195,-10.08181732839526,0.10588799999999998,0.14472400000000002,-0.881331,-0.235896,-0.367818,-0.730479,0.341784,0.5125419999999999,0.15085199999999999,0.5,0.0,flight,-0.730479
187,1.558333,jog,0.6168246729869291,1.4884195367814845,-0.7221888875555049,1.5740970406316168,-0.7713695482702476,-0.8644143077485521,-0.016920676827066845,0.15960638425537224,-0.0652826113044531,0.6715468618744799,2.5460218408736597,0.7812312492499757,-0.5328426265549386,-4.953996311773519,0.6192495389702309,-7.22937833869852,-10.800864051842074,12.039363129787041,10.13841105666488,15.524441930523695,-7.7478198131861395,0.100607,0.13365100000000002,-0.875857,-0.23544000000000004,-0.3590049999999999,-0.717951,0.33604700000000004,0.4926559999999999,0.157906,0.7112174667770079,0.0,single,-0.717951
188,1.566667,jog,0.6138708903287702,1.4666426685865033,-0.7019438444924379,1.6115343889783258,-1.387939375788273,-0.9895598306268856,-0.0040796736261072995,0.1226301895848317,-0.04571634269258417,0.736861051115906,2.681785457163404,0.7170626349891965,-0.35442556493387445,-2.6130151421863563,2.4292108307015736,1.540797120345506,-4.4367884173914405,2.3477644122712724,7.837075742911649,16.29033072831094,-7.699617741874087,0.09545700000000001,0.12245,-0.8703879999999999,-0.23441500000000004,-0.34887799999999997,-0.706125,0.32987200000000005,0.47132799999999997,0.16426299999999994,0.7817698009256362,0.0,single,-0.706125
189,1.575,jog,0.648745949838002,1.4147365894635908,-0.6674666986679475,1.8461966318160028,-2.0500344689236827,-0.9118693898526388,-0.023760950438021518,0.05700228009120455,-0.07104284171366947,0.7757110284411478,2.85815432617307,0.5960638425537075,4.185174548089786,-6.228978653895707,4.1374229958587145,-2.361847691337381,-7.875664165801962,-3.039301454588447,4.662183766379709,21.16511088559555,-14.520435909695207,0.08985299999999996,0.11113600000000001,-0.865418,-0.23335700000000004,-0.33685,-0.695596,0.32321,0.447986,0.16982200000000003,0.8431124955398177,0.0,single,-0.695596
190,1.583333,jog,0.6321852874114782,1.4280571222848657,-0.6765870634825313,1.7644883082065206,-1.9122288399561822,-0.9515417526295378,-0.015840633625347256,0.01548061922476838,-0.06264250570022628,0.8226329053161983,2.9398775951037486,0.4911796471858804,-1.987358985542252,1.5985278796681441,-1.0944875572523247,0.9504760365623572,-4.982798615916891,1.008080644838958,5.630850459024316,9.807184559063597,-12.586606908415364,0.084453,0.09936500000000001,-0.860302,-0.23176999999999998,-0.324252,-0.685865,0.316223,0.423617,0.17443700000000006,0.8892618357761874,0.0,single,-0.685865
191,1.591667,jog,0.5943124550036092,1.3807295416366974,-0.6493880489560926,1.0957646566527017,-1.3273709614829978,-0.9105472846304687,-0.05411567074633883,0.010919126469882714,-0.05771538276937982,0.9214062874970167,3.080033597312273,0.39776817854572205,-4.544376338837258,-5.67885536935076,3.2636206535204235,-4.592637043555592,-0.5473353437587897,0.5912074551051782,11.851857713081392,16.817374875033273,-11.208479558454542,0.07904900000000004,0.087949,-0.855371,-0.22904399999999997,-0.31009000000000003,-0.677138,0.308093,0.39803900000000003,0.17823299999999997,0.8668876982956844,0.0,single,-0.677138
192,1.6,jog,0.5892235689427571,1.4524180967238423,-0.6111844473778861,0.6076060877291236,-1.3438294614470003,-0.8624195961721192,-0.025681027241094893,0.002640105604224265,-0.004800192007680028,1.044881795271795,3.194767790711577,0.29881195247809295,-0.6106907549324405,8.602970729286408,4.584615574007655,3.4122937123777075,-0.9935222447687873,6.350076894479644,14.817653639118706,13.76865395407435,-11.875222137000765,0.07392499999999991,0.075868,-0.850318,-0.22524700000000003,-0.295571,-0.669555,0.29917199999999994,0.37143899999999996,0.180763,0.9562352513409,0.0,single,-0.669555
193,1.608333,jog,0.5917436697467842,1.459858394335788,-0.5391815672626917,0.06433541050871426,-1.0364590049631648,-0.7096219269426035,-0.025681027241082253,0.03096123844953842,-0.014040561622465746,1.0852034081363315,3.30853234129368,0.19716788671547109,0.30242419345099186,0.8928714282906173,8.640691241473066,1.516764100080059e-12,3.3986718883132623,-1.1088887093226691,4.838787095228234,13.652292161538973,-12.197775802546836,0.06878000000000006,0.06396099999999999,-0.8459420000000001,-0.22113499999999997,-0.280166,-0.663419,0.28991500000000003,0.344127,0.1825230000000001,0.9289903993744382,0.0,single,-0.663419
194,1.616667,jog,0.611471082313409,1.4503239740820624,-0.4464842812575062,-0.2790385338541432,-0.6536389311487855,-0.5633625074909652,-0.009239260859130448,0.023758099352051268,-0.01799856011519033,1.0986321094312368,3.4379649628029507,0.09131269498440195,2.3671001399837595,-1.144038907334468,11.122784497862348,1.9728541375032016,-0.8643075470946839,-0.474921825380916,1.6113152501686048,15.530672127342179,-12.701606879177865,0.06360700000000008,0.05207199999999999,-0.842371,-0.21707499999999996,-0.263601,-0.6589369999999999,0.28068200000000004,0.315673,0.1834340000000001,0.9479914699233247,0.0,single,-0.6589369999999999
195,1.625,jog,0.5237009480379304,1.5772230889235717,-0.3558142325693055,-1.0860536442953859,-0.8290805162682444,-0.1956079197016409,0.001560062402487682,0.006840273610944679,-0.026761070442818075,1.1880475219008892,3.517220688827582,-0.041761670466820854,-10.532837426554583,15.228502921098098,10.880841076227235,1.295970630219396,-2.030220297744719,-1.051543301047381,10.730278707506693,9.511067565658479,-15.969562636652348,0.059255999999999975,0.03898599999999999,-0.839629,-0.21153899999999998,-0.24743500000000002,-0.65632,0.27079499999999995,0.28642100000000004,0.18330899999999994,0.953890889396945,0.0,single,-0.65632
196,1.633333,jog,0.7044281771270966,1.4296171846873997,-0.36901476059041965,-0.23042670837911894,0.004735070262861319,-0.6551510003032812,-0.0010800432017191667,0.0026401056042243353,-0.021120844833793017,1.2086883475339087,3.6086643465738977,-0.20304812192487873,21.688135016100784,-17.713417045022595,-1.5841267276028173,-0.3168253455186455,-0.5040403224193426,0.6768541472489031,2.476998155888598,10.973677876673037,-19.355148380902357,0.05337700000000001,0.027095,-0.83673,-0.20733700000000005,-0.229277,-0.654937,0.26071400000000006,0.256372,0.18179299999999998,0.9644790070907906,0.0,single,-0.654937
197,1.641667,jog,0.708303335733135,1.390928725701933,-0.3568514518838504,-0.6942012922991058,0.27269507260004777,-0.7093051918175368,-0.00155987520998808,-0.010919126469882422,0.0034797216222695088,1.3062155027597702,3.695464362850943,-0.2789776817854543,0.4649818341778673,-4.64224369876008,1.4594802863653873,-0.05757523497347127,-1.6269776906775444,2.951831828181226,11.702322441307976,10.415168739746171,-9.110818317803574,0.047460999999999975,0.015412000000000002,-0.833727,-0.20235400000000003,-0.210071,-0.654288,0.249815,0.22548300000000002,0.17943900000000002,0.9807235754162045,0.0,single,-0.654288
198,1.65,jog,0.6644665786631543,1.4494179767190827,-0.1771270850834089,-0.5654673048101929,-0.4405295333047332,-0.5938327193544021,-0.018120724828994794,0.0024000960038400776,0.01428057122284917,1.3008520340813772,3.788311532461335,-0.4468978759150413,-5.2606212732486615,7.018990881693301,21.56778672752228,-1.9873814495388054,1.5983706316719817,1.2961537982215001,-0.6436419870866482,11.142106037488624,-20.151229344724417,0.04177299999999995,0.003353999999999996,-0.832132,-0.19705100000000003,-0.190581,-0.656536,0.23882399999999998,0.193935,0.17559599999999997,0.9613399487122163,0.0,single,-0.656536
199,1.658333,jog,0.6740669626784933,1.4076563062522252,-0.1668066722668747,-0.10892218047745365,-0.09061609908176467,-0.662901200879549,-0.015480619224760886,-0.003120124804991935,-0.0028801152046076836,1.459018360734404,3.7891515660625754,-0.5281411256450151,1.152092165527284,-5.011600920059617,1.2384990779472005,0.3168253455218843,-0.6624529951796372,-2.0593647458846216,18.980718427099976,0.10080806447145277,-9.74957995079472,0.03602700000000003,-0.008402,-0.830766,-0.19051,-0.170736,-0.6595470000000001,0.22653700000000004,0.162334,0.1712189999999999,0.9732459860761992,0.0,single,-0.6595470000000001
200,1.666667,jog,0.5357571394288488,1.474562035037225,0.02315814734821243,0.5015844305366028,0.28251842441157204,-0.37614936028687973,-0.015358771298298466,0.01271898248140196,-0.0005999520038403042,1.4894408447324505,3.8482121430286327,-0.6071514278857818,-16.595851121867902,8.028045210583294,22.793954837423893,0.01462058152896839,1.9005408311008156,0.2735976962763886,3.6504060472818645,7.086702299743028,-9.480477830665727,0.03143400000000007,-0.020585,-0.830964,-0.18256199999999995,-0.150954,-0.6648000000000001,0.21399600000000002,0.130369,0.16616399999999998,0.9667490888361037,0.0,single,-0.6648000000000001
201,1.675,jog,0.6126245049801916,1.3825753030120962,-0.04044161766470969,-0.5575626605581471,0.6451921514946304,-0.8535642399574893,-0.017640705628225808,0.008520340813631757,0.011520460818433232,1.4824192967718453,3.94371774870988,-0.7303492139685469,9.224452844274742,-11.03884939699115,-7.632277092634227,-0.27384307331420876,-0.5038571544185924,1.454507718981558,-0.8426194600510207,11.461131126994532,-14.784325702959672,0.02618200000000004,-0.032035,-0.830531,-0.17531399999999997,-0.129612,-0.6705490000000001,0.201496,0.097577,0.15998199999999996,0.9621218429951153,0.0,single,-0.6705490000000001
202,1.683333,jog,0.6041041641665701,1.47437897515902,0.32929317172686834,0.5204565378977847,0.25610960863552223,-0.8182762337294999,-0.021960878435142914,0.020160806432257653,0.011400456018240577,1.4627385095403955,4.055682227289128,-0.8549141965678695,-1.022481796906468,11.016881332884267,44.369949524970764,-0.5184414744890371,1.3969117507051485,-0.014401152069201516,-2.361788939331562,13.436274880505126,-14.948395847752757,0.02096500000000001,-0.044153,-0.83318,-0.16815899999999995,-0.108102,-0.680417,0.18912399999999996,0.063949,0.15276299999999998,0.9468046395332909,0.0,single,-0.680417
203,1.691667,jog,0.6480681545476299,1.4707223422126119,0.1491480681545458,-0.6980859221963307,0.6411155356894663,-0.8811184848477593,-0.018478521718260896,0.0010799136069116863,-0.0025197984161267127,1.5814734821214145,4.067314614830783,-0.8910487161027035,5.275256825181121,-0.43876085270074733,-21.615683174024618,0.4178493780755929,-2.289523977123329,-1.6702969083713923,14.247056945166552,1.3957748430111843,-4.335795480541608,0.015410000000000035,-0.056401,-0.834444,-0.16037999999999997,-0.086462,-0.689086,0.17579,0.030060999999999997,0.145358,0.9688653746543718,0.0,single,-0.689086
204,1.7,jog,0.604344173766961,1.465378615144619,0.300132005280211,-1.6462760173682114,0.4307093364693614,-0.6591039873700015,-0.02724108964358326,0.012000480019201221,-0.0018000720028802666,1.5381015240609726,4.104404176167084,-0.9419176767070763,-5.2470875771833985,-0.6412728990751047,18.11879720696827,-1.051550213047215,1.310520390290368,0.08637062441455091,-5.204843160979517,4.450925397372046,-6.104519453302917,0.010147000000000017,-0.06851199999999999,-0.8369599999999999,-0.15259900000000004,-0.064471,-0.699436,0.16274600000000006,0.004040999999999996,0.13752399999999998,0.9502973076719474,0.0,single,-0.699436
205,1.708333,jog,0.6146645865834478,1.4898595943837496,0.4387375495019715,-0.6602293364714487,1.2085525603880536,-0.7526204381163584,-0.035281411256451616,0.009240369614783679,0.038521540861634014,1.6174246969878634,4.107284291371583,-0.9464778591143487,1.2384990779415082,2.9378350220964933,16.633330639836565,-0.9648771886317311,-0.3312264975900029,4.838787095225438,9.519161517687442,0.34562764964581194,-0.5472437786238241,0.004731000000000041,-0.08085,-0.8402949999999999,-0.1442429999999999,-0.042660000000000003,-0.7109789999999999,0.14897399999999994,0.03819,0.129316,0.911586961726677,0.0,single,-0.7109789999999999
206,1.716667,jog,0.6237101031917608,1.5883129349652327,0.42956563474923154,0.07484889011815848,1.006114885231007,-0.6609904423307247,-0.03179745620349949,0.032277417806576315,0.07835373170146546,1.7699784017278906,4.279577633789379,-0.9546436285097396,1.0853751629845403,11.813455793314736,-1.1005417269906599,0.41804116306121814,2.7642246450435652,4.779480542336478,18.304980170389978,20.673547206359423,-0.979813942331544,-0.0007319999999999549,-0.093818,-0.843222,-0.13468999999999998,-0.020231,-0.722515,0.13395800000000002,0.073587,0.12070700000000001,0.8491485536398751,0.0,single,-0.722515
207,1.725,jog,0.6309852394095635,1.8091923676946753,0.6243849753990133,-0.315473559769731,-0.4947756068790109,-0.16876262406463285,-0.02064082563303228,0.05556222248889878,0.08196327853113934,1.8274330973238633,4.172446897875841,-0.8876755070202637,0.8730512681870405,26.506592191220292,23.37925604821533,1.3388492224249386,2.794288333411983,0.43316294607870076,6.894839265087208,-12.856202557726624,8.036496038578516,-0.006162000000000001,-0.108431,-0.847742,-0.12471999999999994,-0.0005379999999999968,-0.7351150000000001,0.11855799999999994,0.10789299999999999,0.11262699999999992,0.8314178136610756,0.0,single,-0.7351150000000001
208,1.733333,jog,0.6867874714988703,1.708148325933054,0.5143405736229377,-0.08899150206159125,1.7145382599510992,-0.28861570259314023,-0.030361214448571944,0.014520580823233011,0.09024360974439093,1.906636265450637,4.315852634105405,-0.8279131165246705,6.696535712145362,-12.12577004219634,-13.205856447387083,-1.166493317597474,-4.9251940076402425,0.9936794927699101,9.504760365627561,17.20937672261674,7.171773730420464,-0.012137999999999982,-0.122544,-0.8512759999999999,-0.11455499999999996,0.021192000000000003,-0.7463,0.10241699999999998,0.143736,0.10497599999999996,0.839475168847671,0.0,single,-0.7463
209,1.741667,jog,0.9653227741780547,1.580513558915275,0.47348212143028257,-0.1892335241334166,1.1451677318958706,-1.7302958046467205,-0.03803695704343764,0.08507319414446794,0.05795536357091356,1.8771298296136156,4.390568754499606,-0.8362131029517545,33.42156259649415,-15.314946846385663,-4.902622053354313,-0.9210154301494643,8.465636347640315,-3.874279598449378,-3.540489061317635,8.965217229925639,-0.9959186977542607,-0.020499999999999963,-0.13500700000000002,-0.8547389999999999,-0.10695599999999994,0.044611,-0.757215,0.08645599999999998,0.179618,0.09752399999999994,0.8170983671348674,0.0,single,-0.757215
210,1.75,jog,0.7122284891395749,1.7661106444257924,0.6456258250330134,0.08169355281246103,0.6731076981463344,-0.4779018315583744,-0.053762150486020406,0.04812192487699535,0.1674066962678523,1.9056762270491001,4.424696987879554,-0.8151926077043182,-30.37252910578208,22.2725411629088,20.65807075515809,-1.8870986970578316,-4.434329685284164,13.134685311045208,3.425704720446987,4.095551827666927,2.522560332105666,-0.02688299999999999,-0.149323,-0.858724,-0.09701099999999996,0.06676499999999999,-0.769388,0.07012799999999997,0.216088,0.08933600000000008,0.696176721531955,0.0,single,-0.769388
211,1.758333,jog,0.6419056762270607,1.7737909516380803,0.6344653786151554,-0.15780435750172359,1.3340346059595654,-0.3655796332177118,-0.025801032041277712,0.035641425657026445,0.21060842433697535,2.051002040081618,4.303732149286011,-0.78147125885036,-8.43907511250628,0.9216737324238609,-1.3393071424286647,3.3554684321064383,-1.4977198151888897,5.18441474488461,17.439795155708538,-14.516361285676707,4.046723731424287,-0.032447000000000004,-0.16380699999999998,-0.862256,-0.08526900000000004,0.08784700000000001,-0.7811870000000001,0.052822000000000036,0.251654,0.08106899999999995,0.6414074082109187,0.0,single,-0.7811870000000001
212,1.766667,jog,0.6763858891288649,1.7408207343412418,0.7636189104871463,-0.20447879128222074,1.4326743421981163,-0.1360044332315011,-0.007439404847612913,0.036837053035757066,0.318574514038875,1.9468442524597938,4.4325653947683845,-0.7792176625869871,4.1372945646512935,-3.9561095868536373,15.497184049914791,2.2032190057193013,0.14346380834300598,12.954894372678043,-12.497934679844429,15.458752757664064,0.2704099188112348,-0.03814600000000001,-0.178008,-0.865965,-0.074681,0.11027999999999999,-0.794045,0.036534999999999984,0.288288,0.07191999999999998,0.5,0.0,flight,-0.794045
213,1.775,jog,0.6289451578063108,1.7777511100444172,0.7277091083643495,-0.04349222474119313,0.3674439638875781,-0.28941736677734603,0.033241329653183035,0.10032401296051933,0.31189247569903045,1.9975999039961707,4.455538221528901,-0.6920676827073139,-5.693115483325878,4.431822357275376,-4.309348628680792,4.881883415432176,7.618739940569165,-0.8018766758483864,6.0909218212381395,2.7568494852413865,10.45841592219777,-0.04310999999999998,-0.191986,-0.86943,-0.063276,0.132594,-0.805876,0.020166000000000017,0.32458,0.063554,0.5,0.0,flight,-0.805876
214,1.783333,jog,0.6618264730589165,1.8630745229808847,0.8484339373574686,-1.0201737545257084,1.0847208747140025,-0.39074838095123166,0.09492379695187475,0.1363254530181181,0.3429737189487519,2.030601224048922,4.463338533541267,-0.5840633625344924,3.945915666939297,10.239219121140767,14.487558981533299,7.402192163529417,4.320345620736606,3.7298983859019446,3.960316819002841,0.9360748844793595,12.961036862212838,-0.04783400000000004,-0.20637499999999998,-0.8736419999999999,-0.05187000000000008,0.15426200000000004,-0.8178129999999999,0.0040360000000000396,0.36063700000000004,0.05582900000000002,0.5,0.0,flight,-0.8178129999999999
215,1.791667,jog,0.6807055435565198,1.8521718262539355,0.6106311495080522,0.42705048383475314,0.12625111172863324,-0.4512041687944455,0.13402927765779407,0.12910967122630443,0.45020398368131387,2.039476841852695,4.497840172786262,-0.5167986561075202,2.265307235133627,-1.308218949717953,-28.53405181778509,4.692282302126237,-0.8658245490537331,12.866602439712505,1.0649889373378192,4.139865520157793,8.071119081710286,-0.05238999999999994,-0.220735,-0.874979,-0.04054599999999997,0.17631100000000002,-0.827209,0.011843999999999966,0.397046,0.04776999999999998,0.5,0.02229999999999993,flight,-0.827209
