frame_id,timestamp,gait_type,root_linear_velocity_x,root_linear_velocity_y,root_linear_velocity_z,root_angular_velocity_x,root_angular_velocity_y,root_angular_velocity_z,left_linear_velocity_x,left_linear_velocity_y,left_linear_velocity_z,right_linear_velocity_x,right_linear_velocity_y,right_linear_velocity_z,root_acceleration_x,root_acceleration_y,root_acceleration_z,left_acceleration_x,left_acceleration_y,left_acceleration_z,right_acceleration_x,right_acceleration_y,right_acceleration_z,left_pos_rel_x,left_pos_rel_y,left_pos_rel_z,right_pos_rel_x,right_pos_rel_y,right_pos_rel_z,step_length,step_width,step_height,left_contact_prob,right_contact_prob,support_type,max_foot_height
1,0.008333,jog,0.11880475219006652,0.060722428897143334,-0.02616104644185053,-0.016044441181715895,0.1833184740424728,-0.03421455427614782,-0.0008400336013548863,0.025321012840508965,0.0187207488299536,0.01332053282130952,0.0003600144005730523,0.05388215528621121,0.0,0.0,0.0,0.0,0.0,0.0,0.0,0.0,0.0,-0.02379599999999993,-0.17795300000000003,-0.904776,-0.020688999999999957,0.11437699999999995,-0.9060060000000001,0.003106999999999971,0.29233,0.0012300000000000644,0.9351979951579932,0.9074909484413735,double,-0.904776
2,0.016667,jog,0.15538756899448594,0.07187425005999713,-0.023398128149754765,-0.19412365532731496,0.4993055485483643,-0.08661474912405327,-0.0019198464122889367,0.03203743700504166,0.01919846412287022,-0.02795776337892101,0.009239260859143839,0.008879289656827175,4.389586849582364,1.338111490623206,0.33152367315763903,-0.12956717193833098,0.8059064272297445,0.057321249450038164,-4.952999304083336,1.0654243410812076,-5.399911882575477,-0.02510699999999999,-0.17828500000000003,-0.904421,-0.02221699999999993,0.11385500000000004,-0.905737,0.002890000000000059,0.29214000000000007,0.0013159999999999838,0.9245088011779028,0.9487424190109708,double,-0.904421
3,0.025,jog,0.16056642265691365,0.06720268810751157,-0.022800912036484277,-0.06568656227821316,0.14159421684055787,-0.10478905106497886,0.0010800432017458032,0.03480139205568372,0.014040561622464785,-0.020040801632068672,-0.004800192007685108,0.008640345613824867,0.6214872989832841,-0.5606098586926158,0.07166880034447232,0.360001153730318,0.33168787359199153,-0.618973058971011,0.9500734125587827,-1.6848017360889171,-0.028674432137562454,-0.026435999999999904,-0.1785549999999999,-0.904114,-0.02372200000000002,0.1132550000000001,-0.905475,0.002713999999999883,0.29181,0.0013610000000000566,0.9238191345529532,0.9627571354450535,double,-0.904114
4,0.033333,jog,0.16224648985959678,0.047761910476433515,-0.023280931237252788,0.1205508157292676,0.14570081882533237,-0.2817134874241863,0.015360614424565698,0.07824312972518732,0.04668186727469104,-0.01728069122763974,-0.018360734429385545,-0.005160206408256494,0.201616128967134,-2.3329866351947737,-0.057604608276552394,1.7137370962222362,5.213217049022393,3.9171133628016626,0.33122649759137535,-1.627330183811405,-1.6561324879492814,-0.027660000000000018,-0.17830100000000004,-0.903531,-0.025217999999999963,0.11270399999999992,-0.9053239999999999,0.0024420000000000552,0.29100499999999996,0.0017929999999999335,0.8280756588616851,0.9571058606610264,double,-0.903531
5,0.041667,jog,0.1961843052555859,0.045716342692580354,-0.030597552195811634,-0.011654934226381747,0.21644748516478546,-0.30209920849567046,0.003719702423793163,0.05387568994480833,0.0023998080153586733,-0.028077753779705717,-0.009119270458359129,-0.020398368130549138,4.072212070553049,-0.2454484981825247,-0.8779242810845747,-1.396797696277002,-2.923858864936283,-5.313422037356895,-1.2955438627388978,1.1088869655659244,-1.8284331320245548,-0.02926400000000018,-0.17823299999999997,-0.9032560000000001,-0.027087000000000083,0.11224699999999999,-0.905239,0.0021770000000000955,0.29047999999999996,0.001982999999999957,0.8900745994566921,0.9401944174522356,double,-0.9032560000000001
6,0.05,jog,0.18912756510260673,0.05244209768390984,-0.02100084003360569,0.18446290459475487,0.07843539094578514,-0.32640207405053845,0.016200648025920583,0.05832233289331411,0.0020400816032636725,-0.027601104044156062,-0.014760590423601729,-0.043321732869314795,-0.8468426920651821,0.8071228838748931,1.1516515255257342,1.4977733831906181,0.5336184985606354,-0.04316889620724838,0.05720025627620965,-0.6769854752481219,-2.750913805204087,-0.030705000000000204,-0.178184,-0.903064,-0.028893000000000058,0.11168700000000009,-0.905425,0.0018120000000001468,0.2898710000000001,0.0023610000000000575,0.8754483578452066,0.9109234331707653,double,-0.903064
7,0.058333,jog,0.18036721468856476,0.038881555262209405,-0.03492139685587918,0.22696480919089865,0.1437653394071058,-0.36070185893534135,0.01860074402977646,0.047521900876029276,-0.007320292811712295,-0.047641905676224734,0.059642385695424176,0.01824072962918509,-1.051284101049078,-1.6273301838114045,-1.6705336400184194,0.28802304138436075,-1.2961036862216286,-1.1232898613915718,-2.4049923955440624,8.928714282854424,7.387791011460444,-0.03205299999999989,-0.17811200000000005,-0.902834,-0.03079299999999985,0.11186000000000007,-0.904982,0.0012600000000000389,0.2899720000000001,0.0021479999999999277,0.8925952036148015,0.8691938503260448,double,-0.902834
8,0.066667,jog,0.21022318214545208,0.03767698584112376,-0.041516678665701634,0.1562634579793633,0.13999465048251045,-0.3761535636378067,0.03239740820734251,0.06203503719702299,0.0027597792176628486,-0.015238780897526784,0.013438924885995915,0.01631869450443931,3.58242950046644,-0.14453676758887063,-0.7913705075380912,1.655467263926811,1.741437043555761,1.2095118825744111,3.8880639283294873,-5.5439717793890395,-0.23062576490830075,-0.03353500000000009,-0.17790899999999998,-0.9024650000000001,-0.032672000000000034,0.11165800000000004,-0.9045,0.0008630000000000582,0.289567,0.002034999999999898,0.8629172296805951,0.9565666239555248,double,-0.9024650000000001
9,0.075,jog,0.19668786751469428,0.033481339253587,-0.03072122884915807,0.26007018018858746,0.1743024058859418,-0.3068146588299566,0.03744149765991722,0.04524180967239554,0.011760470418816865,-0.019440777631104716,0.023160926437070673,0.02160086403456135,-1.6243027278000493,-0.5034977304136281,1.2955057982171574,0.6053149469068426,-2.015267913671842,1.0801261491844503,-0.5042597784204891,1.166686853603116,0.6338856990426069,-0.03486199999999995,-0.17781100000000005,-0.902111,-0.034472999999999976,0.111572,-0.904064,0.0003889999999999727,0.28938300000000006,0.0019529999999999825,0.8806507779321548,0.9380643327636322,double,-0.902111
10,0.083333,jog,0.20940837633503948,0.03540141605663434,-0.04788191527661561,0.12549528669584242,0.11724210460685752,-0.2841762595427244,0.04620184807390584,0.03384135365414667,0.011160446417856209,-0.04452178087124936,0.04344173766950356,-0.01152046081843259,1.5265221193261957,0.23041843310300517,-2.0593647458847384,1.0512841010426746,-1.3681094465677262,-0.07200576034569252,-3.0098407824486526,2.433794699679931,-3.9747179710781126,-0.036221999999999976,-0.17782399999999998,-0.901619,-0.03658899999999998,0.11163900000000004,-0.9037609999999999,0.0003670000000000062,0.289463,0.0021419999999999773,0.8813345552789926,0.8945631500064487,double,-0.901619
11,0.091667,jog,0.1978641708663322,0.02807775377970574,-0.05963522918166187,0.2379015851308335,0.17780069317647546,-0.29782397724219206,0.06179505639549359,0.05483561315093952,0.0014398848092158712,-0.043196544276447826,0.04187664986800251,-0.032157427405807244,-1.3851938407376143,-0.8787691716976967,-1.410284845817887,1.8710353157652706,2.519109610846276,-1.1663740831101925,0.1590156701225745,-0.1877955125391225,-2.476237891453644,-0.037355999999999945,-0.17760100000000012,-0.90111,-0.03859799999999991,0.11175399999999991,-0.903532,0.0012419999999999654,0.28935500000000003,0.0024220000000000352,0.8380640409794136,0.8863033351051757,double,-0.90111
12,0.1,jog,0.21420856834275123,0.027721108844338174,-0.051482059282372775,0.25199175112147604,0.06828362363895195,-0.19223799904321973,0.06972278891154952,0.043561742469699016,0.0003600144005755501,-0.03132125285012199,0.02484099363975376,-0.021600864034561316,1.961406153416418,-0.042799104208276435,0.9784195246956786,0.9513659565649739,-1.3529185984927994,-0.12958963262214332,1.425091974838093,-2.044360521810721,1.2668382780806335,-0.03856000000000015,-0.177469,-0.900678,-0.040644000000000124,0.11173000000000011,-0.903283,0.0020839999999999748,0.2891990000000001,0.0026049999999999685,0.8369278777900617,0.9242685084556562,double,-0.900678
13,0.108333,jog,0.22572902916114257,0.0364814592583802,-0.05280211208448294,0.20830336924009243,0.026879907415975342,-0.1603815454582361,0.09552382095284045,0.04752190087604264,0.03684147365894659,-0.08892355694226343,0.027121084843400898,0.08112324492979678,1.3825105986309068,1.051284101049086,-0.15841267276013035,3.0962476948627087,0.47523801828196655,4.377950229013689,-6.912552993176706,0.2736218893132294,12.32738617116983,-0.03964499999999993,-0.177377,-0.8999309999999999,-0.043265999999999805,0.11165200000000008,-0.9021669999999999,0.0036209999999998743,0.2890290000000001,0.0022360000000000158,0.7895175102517747,0.794357827699243,double,-0.8999309999999999
14,0.116667,jog,0.2203023758099555,0.014998800095983993,-0.07223422126229792,0.20640038401513502,0.025339508381488303,-0.12651044604803705,0.10103191744660531,0.059035277177818146,0.04199664026877883,-0.007559395248397674,0.0105591552675625,-0.01991840652747772,-0.6511463104376143,-2.577712882456946,-2.3316665680123543,0.6609187057553212,1.3814946366421281,0.6185705075392646,9.7629183697943,-1.987272567295222,-12.12402825261272,-0.04063900000000009,-0.17701,-0.898979,-0.04516500000000012,0.11161500000000002,-0.901731,0.00452600000000003,0.288625,0.0027519999999999767,0.7652741838529147,0.9603703556847256,double,-0.898979
15,0.125,jog,0.2221288851553854,0.014280571222846554,-0.08736349453977577,0.15705237967279229,0.07146714578182868,-0.20180020753328512,0.10536421456857496,0.0762030481219312,0.07332293291731597,0.04272170886835752,-0.012000480019199455,0.09108364334573422,0.21918988904715137,-0.08619091241298923,-1.8155854167140115,0.5198964504943788,2.0602149218904433,3.7593054900440617,6.033973852964747,-2.7072645249924365,13.32077881593808,-0.04161199999999998,-0.17649399999999993,-0.89764,-0.046659999999999924,0.11139600000000005,-0.900244,0.005047999999999941,0.28789,0.0026040000000000507,0.7251585689890023,0.8311362645466205,double,-0.89764
16,0.133333,jog,0.2256090243609867,-0.005640225609013343,-0.07500300012000313,0.27781176095115334,0.10568300571373826,-0.06917395272696453,0.11892475699030185,0.09564382575303576,0.05724228969158824,-0.00588023520940426,0.027241089643582985,-0.010560422416897235,0.4176334100085568,-2.3905912434729246,1.4833186631192394,1.6273301838145773,2.332986635197954,-1.9297543772624162,-5.832466587994929,4.709176726602953,-12.197775802547866,-0.0425009999999999,-0.17564999999999997,-0.8965380000000001,-0.04858899999999999,0.11166999999999994,-0.899707,0.006088000000000093,0.2873199999999999,0.0031689999999999774,0.6966509052230313,0.9503295120957975,double,-0.8965380000000001
17,0.141667,jog,0.23206143508520602,-0.0075593952483710555,-0.08099352051836979,0.10801009121253224,0.08934172903362125,-0.05196441481488483,0.15598752099830332,0.09899208063354531,0.06863450923926055,-0.0032397408207342584,0.017158627309815763,-0.007799376049915499,0.7742273487184221,-0.23028193416819262,-0.718804943408528,4.447175906887637,0.401758444985548,1.3669569891615478,0.3168339799220071,-1.2097986961563771,0.3312990601130001,-0.043135000000000145,-0.17476200000000008,-0.895291,-0.050550000000000095,0.11187599999999986,-0.8990969999999999,0.007414999999999949,0.28663799999999995,0.003805999999999976,0.633466110483528,0.968125912714127,double,-0.895291
18,0.15,jog,0.23904956198247834,-0.009840393615761124,-0.08844353774150811,0.13417937277250885,0.04026773863173095,-0.11623112853769682,0.17232689307572202,0.11928477139084825,0.08952358094323809,0.0013200528021100728,0.005160206408258156,-0.008880355214209115,0.838608772023559,-0.27373075331694063,-0.8940378282897288,1.9608030814134991,2.4352202996883388,2.506788876032344,0.5471971226262243,-1.4398681029110278,-0.12972268862277875,-0.043691000000000146,-0.173686,-0.8938079999999999,-0.052531000000000105,0.11200100000000002,-0.898434,0.008839999999999959,0.285687,0.004626000000000019,0.573901268475544,0.9827412680468763,double,-0.8938079999999999
19,0.158333,jog,0.24684987399495664,-0.02052082083282384,-0.08436337453498242,0.14329501312258444,0.0971408795280957,-0.04372752573116233,0.19764790591623096,0.1351254050162091,0.10020400816032578,0.003600144005757166,-0.0007200288011461039,-0.005160206408255657,0.9360748844927749,-1.2817025341488908,0.48963917034989557,3.038643086584534,1.9009520731262242,1.2817025341518875,0.2736218893132235,-0.7056564513865661,0.4464357141429803,-0.04410100000000017,-0.17238900000000001,-0.8922699999999999,-0.054558000000000106,0.11216599999999999,-0.897774,0.010456999999999939,0.284555,0.005504000000000064,0.512382412080598,0.9894449579567561,double,-0.8922699999999999
20,0.166667,jog,0.2576193904487517,-0.02459803215742867,-0.07139428845691152,0.09855658108794055,0.1171744725016957,-0.09223759404657748,0.256779457643392,0.12347012239020226,0.13582913366930646,0.0005999520038436226,-0.0035997120230350926,-0.001679865610751153,1.292238595367777,-0.48922622085491074,1.5561658361016186,7.095218589772135,-1.3985220333581498,4.2746730872307,-0.35999424069036967,-0.345534343879168,0.41760748710157203,-0.044108000000000036,-0.17115500000000006,-0.8905430000000001,-0.05669999999999997,0.11234100000000002,-0.897193,0.012591999999999937,0.2834960000000001,0.006649999999999934,0.43350000000000005,0.993304268041447,single,-0.8905430000000001
21,0.175,jog,0.25885035401415696,-0.039841593663746525,-0.08472338893556909,0.08429371006396745,0.12891923721455667,-0.0987010588210349,0.2770910836433604,0.13824552982119823,0.1380055202208098,-0.0014400576022922126,-0.019680787231495668,-0.000240009600384256,0.14772153671009902,-1.8293005527802584,-1.5995560396804993,2.4374926197010005,1.7731198165121806,0.26117683325373225,-0.2448109451741078,-1.9298062172639645,0.17278963282934123,-0.043955999999999884,-0.16967100000000002,-0.888687,-0.05886899999999984,0.11250899999999997,-0.896489,0.014912999999999954,0.28218,0.007801999999999976,0.42197999999999997,0.9671085642454859,single,-0.888687
22,0.183333,jog,0.27997119884797056,-0.0501620064802627,-0.07272290891635605,0.11823559488778196,0.23646429669762972,-0.149841029247922,0.33529341173646476,0.13884555382214842,0.14496579863194442,-0.013320532821336155,-0.002760110404428927,-0.014520580823233284,2.5346027641681967,-1.2384990779450578,1.4401152069138403,6.984558753522661,0.07200576034443638,0.8352668200089531,-1.4257140548474658,2.030562441745677,-1.713737096225731,-0.04349500000000006,-0.16809600000000002,-0.8868729999999999,-0.06131300000000017,0.1129039999999999,-0.8960039999999999,0.01781800000000011,0.2809999999999999,0.009131,0.40869,0.966837853258866,single,-0.8868729999999999
23,0.191667,jog,0.29901607871369523,-0.04907607391409927,-0.07367410607151462,-0.07912599920588534,0.1540866502657506,-0.226174859616452,0.396928245740351,0.13594912407008033,0.13342932565394777,-0.014758819294441216,0.0019198464122889352,-0.013558915286776451,2.2852027676655453,0.13030148382090537,-0.11413452785679944,7.395588433391672,-0.3475437667468296,-1.3842660160783102,-0.17258057032698096,0.5615498940146217,0.11539063312416986,-0.04267899999999991,-0.16655399999999987,-0.8851469999999999,-0.06392799999999998,0.11332900000000001,-0.8955029999999999,0.021249000000000073,0.2798829999999999,0.010356000000000032,0.39644,0.9664443769836009,single,-0.8851469999999999
24,0.2,jog,0.29017160686427806,-0.07776311052441874,-0.0609624384975342,0.0606618504854087,0.2227409426224597,-0.1900380084997388,0.4653786151445845,0.12792511700468145,0.16524660986439482,-0.014880595223810498,0.008880355214224103,-0.00948037921516892,-1.061379077093143,-3.442582096522194,1.5254611273227414,8.214372903424149,-0.9629193646224498,3.818226834327016,-0.014613696072156741,0.8352944680109399,0.4894439063491573,-0.04121900000000012,-0.16483999999999988,-0.883262,-0.06647000000000003,0.11405100000000012,-0.895074,0.025250999999999912,0.278891,0.011812000000000045,0.38188,0.9670787803566903,single,-0.883262
25,0.208333,jog,0.32977319092763463,-0.08700348013918954,-0.07956318252729759,-0.1293630180506954,0.21682444636527176,-0.30438332554939823,0.469698787951516,0.1303252130085111,0.11568462738509563,-0.029761190447621096,0.037681507260281556,-0.03300132005280189,4.752380182810112,-1.108888709320872,-2.232178570714441,0.5184414744907582,0.2880230413812139,-5.9476758045480995,-1.7857428565715392,3.4562764965867663,-2.822625805548185,-0.040053000000000116,-0.1630290000000001,-0.8816350000000001,-0.06946600000000003,0.11508999999999991,-0.894686,0.02941299999999991,0.278119,0.013050999999999924,0.36949,0.9028930776655946,single,-0.8816350000000001
26,0.216667,jog,0.3342932565394711,-0.10199184065274977,-0.05339572834173605,-0.034985161126558334,0.22460478092641697,-0.37490825566880953,0.5478761699064154,0.11699064074874709,0.11663066954643625,0.015358771298284838,-0.030117590592752697,0.014758819294456202,0.5423644842616371,-1.7984593848764356,3.139843314802197,9.380535391756581,-1.6000206695181192,0.11351597808262714,5.413962292525305,-8.135240923090256,5.7307582610100845,-0.038273,-0.16120400000000001,-0.880218,-0.07212400000000008,0.11568899999999993,-0.894118,0.033851000000000075,0.27689299999999994,0.013900000000000023,0.361,0.938518659879781,single,-0.880218
27,0.225,jog,0.3518540741629584,-0.09564382575302244,-0.06468258730348683,-0.1609897476311328,0.10432004071632012,-0.3843477834930405,0.6063842553702112,0.11700468018720117,0.11532461298451971,-0.007920316812660436,-0.00588023520940426,-0.018360734429377204,2.107382410114875,0.7617922596576656,-1.3544772545002726,7.02125110569972,0.0016848000064905724,-0.15673305675225488,-2.7936023174061266,2.9085989899614084,-3.9745054270770885,-0.03615199999999996,-0.15943200000000013,-0.878718,-0.07512199999999991,0.1164369999999999,-0.8937320000000001,0.03896999999999995,0.27586900000000003,0.015014000000000083,0.34985999999999995,0.9652618863927311,single,-0.878718
28,0.233333,jog,0.38941557662308435,-0.10716428657146669,-0.062042481699280005,-0.024658997138561962,0.18153470119643453,-0.45369193773423866,0.6599063962558668,0.11808472338893364,0.0856834273370925,-0.012360494419772489,0.025321012840508944,-0.00864034561382486,4.507560597639017,-1.3825105986372548,0.3168253455186397,6.422913822831573,0.1296103686226408,-3.557084561073705,-0.5328426265585083,3.7442995379711,1.1664933175989842,-0.033897999999999984,-0.1575550000000001,-0.8774869999999999,-0.07847000000000004,0.1175409999999999,-0.8932869999999999,0.044572000000000056,0.275096,0.015800000000000036,0.34199999999999997,0.9508802176676243,single,-0.8774869999999999
29,0.241667,jog,0.38060955123589635,-0.12191024718024122,-0.05411567074633793,-0.03911317415870551,0.1578088527641022,-0.3942557811761969,0.7741780657547297,0.10247180225582235,0.09731221502279915,0.028317734581221922,-0.02807775377970579,0.006239500839933232,-1.0566385153813318,-1.7693737231550957,0.9511412230552073,13.711503419590015,-1.8734006639202454,1.3953428948532125,4.8809970003593115,-6.407339407273201,1.7854387393518272,-0.030618000000000034,-0.15568499999999996,-0.8762249999999999,-0.08140600000000009,0.11832299999999996,-0.892784,0.050788000000000055,0.2740079999999999,0.0165590000000001,0.33441,0.9327280453049415,single,-0.8762249999999999
30,0.25,jog,0.39313572542902364,-0.13728549141966073,-0.05832233289331406,-0.13876031953578807,0.030520690842405763,-0.4496477332552244,0.7337093483739286,0.05844233769350952,0.03984159366374639,-0.00180007200286526,-0.005280211208440291,-0.009600384015361048,1.5032010312165225,-1.8451031128548536,-0.5048196504231524,-4.8564403433098535,-5.28374709736143,-6.896750433103649,-3.6142813613449127,2.735814541133503,-1.9008622171239968,-0.027780000000000138,-0.1540539999999999,-0.8754069999999999,-0.08469700000000002,0.11942300000000006,-0.892378,0.056916999999999884,0.27347699999999997,0.01697100000000007,0.33029,0.9814941253423828,single,-0.8754069999999999
31,0.258333,jog,0.4101764070562738,-0.1371654866194524,-0.06432257290291399,-0.09822230915515053,0.17026091874305052,-0.42963597095351064,0.8949957998319913,0.07272290891635629,0.047761910476418645,-0.0008400336013548883,-0.012360494419772529,-0.008040321612864249,2.0449635938137747,0.014401152071081658,-0.7200576034561315,19.3551483809028,1.7137370962254654,0.9504760365621352,0.11520921654990687,-0.8496679720787538,0.1872149768986923,-0.023740000000000094,-0.15230500000000002,-0.8744730000000001,-0.08812200000000003,0.12046299999999999,-0.891909,0.06438199999999994,0.272768,0.017435999999999896,0.32564000000000004,0.9753843855793092,single,-0.8744730000000001
32,0.266667,jog,0.4406047516198577,-0.13978881689465822,-0.06443484521238411,-0.03621634743971418,0.09223588915844232,-0.5005812851389421,0.9326853851691892,0.04043676505879906,0.03803695704343623,0.003719702423819803,-0.01475881929446786,-0.00995920326373886,3.651109258889353,-0.31477445106861135,-0.013471599408462511,4.522388449387793,-3.8740273407196053,-1.166901059873099,0.5471245530567179,-0.28777596288640844,-0.23024737831468803,-0.019638999999999962,-0.1508029999999999,-0.873619,-0.09176299999999982,0.12150499999999997,-0.891455,0.07212399999999985,0.2723079999999999,0.017835999999999963,0.32164000000000004,0.9696847735939973,single,-0.873619
33,0.275,jog,0.4476179047161881,-0.1556462258490191,-0.07632305292211296,-0.22776855873555893,-0.03141018702366236,-0.4439582903133027,1.0666026641065607,0.14280571222849148,-0.006480259210368207,0.031081243249730967,-0.041761670466793646,0.017040681627265408,0.8416120360410907,-1.9029651931310236,-1.426641990847089,16.070716301136557,12.284765050965078,-5.342279641642175,3.283516239758916,-3.2404717595494628,3.240115791552161,-0.014480999999999966,-0.148316,-0.8730370000000001,-0.09523399999999982,0.12245400000000006,-0.890677,0.08075299999999985,0.27077000000000007,0.01763999999999999,0.32360000000000005,0.9087058229852554,single,-0.8730370000000001
34,0.283333,jog,0.47209888395537186,-0.18360734429377595,-0.09360374414976658,-0.20035607216460477,0.10292472266890461,-0.5262574080482288,1.0741629665186818,0.03840153606144099,0.013680547221889269,0.012480499219954665,-0.026161046441863917,0.004920196807872252,2.9378350221029406,-3.3554684321081147,-2.0737658979543574,0.9072725803577526,-12.529002300138094,2.4193935476128074,-2.2321785707159902,1.8721497689823314,-1.4545163589815417,-0.009463999999999917,-0.14646599999999999,-0.872143,-0.09906400000000004,0.12376600000000004,-0.889856,0.08960000000000012,0.270232,0.01771299999999998,0.32287,0.9509996726671691,single,-0.872143
35,0.291667,jog,0.4724022078233832,-0.14962802975761902,-0.09395248380129319,-0.04061880310066855,0.24510897452983488,-0.4514913815365256,1.070314374849989,0.03839692824573874,-0.03383729301655918,0.016438684905214017,-0.019558435325190197,-0.0010799136069116935,0.03639595248516333,4.077191569013308,-0.041845410550349266,-0.4617940567185957,-0.0005528936527780764,-5.701684693838301,0.4749442866881868,0.7922499540045254,-0.719955653321807,-0.004481000000000179,-0.144899,-0.871642,-0.10286400000000007,0.1248499999999999,-0.889082,0.09838299999999989,0.2697489999999999,0.01744000000000001,0.3256,0.9573799418902271,single,-0.871642
36,0.3,jog,0.5036601464058582,-0.16152646105845106,-0.08184327373095801,0.011288710832320751,0.06425654169285021,-0.42002162127185905,1.1450858034321596,-0.01368054722189593,-0.02952118084723351,-0.002520100804038019,0.022440897635924602,-0.026761070442817895,3.751102674003969,-1.4278688708546827,1.453163334973624,8.972930347074373,-6.249547037997695,0.5179541784862214,-2.2751452909218868,5.040121560196196,-3.0818620947925437,0.0008639999999999759,-0.143667,-0.8712059999999999,-0.10708200000000012,0.12638300000000013,-0.8886229999999999,0.1079460000000001,0.2700500000000001,0.017417000000000016,0.32582999999999995,0.9416404895398354,single,-0.8712059999999999
37,0.308333,jog,0.4980199207968149,-0.16596663866553538,-0.12888515540621803,-0.22750667078232076,0.24159926865577247,-0.4805680357569681,1.2401296051841835,-0.006840273610941258,-0.06576263050522076,-0.0015600624025009842,-0.010200408016334142,-0.008760350414016125,-0.676854147251085,-0.532842626555178,-5.645251611095623,11.405712438740366,0.8208656679412749,-4.349147924875446,0.1152092165531058,-3.917113362805545,2.160172810368618,0.007047999999999943,-0.14234100000000005,-0.8706799999999999,-0.11124500000000004,0.12768099999999993,-0.8876219999999999,0.11829299999999998,0.270022,0.016942000000000013,0.3305800000000001,0.977439842286816,single,-0.8706799999999999
38,0.316667,jog,0.5301175905927595,-0.1661867050635922,-0.1022318214542799,-0.07369473632271539,0.08500356522658153,-0.4998606075596066,1.3030957523398312,-0.024478041756657444,-0.029277657787376482,0.003119750419976201,-0.012239020878335383,-0.021118310535157614,3.851412262532376,-0.026405855298395696,3.198144222694778,7.555333232019211,-2.116362868456478,4.377846498421464,0.5615326160879784,-0.2446139743222046,-1.4828365876099783,0.013490000000000002,-0.14116000000000006,-0.870072,-0.11563699999999999,0.12896399999999986,-0.886946,0.129127,0.2701239999999999,0.016874000000000056,0.33126,0.9589881617835025,single,-0.870072
39,0.325,jog,0.5363014520580869,-0.16656666266652598,-0.0787231489259555,0.1910254685981464,-0.01703446647802233,-0.5175858042698724,1.2601704068162787,-0.017040681627262078,-0.05100204008160243,0.015480619224774415,0.03264130565223195,-0.038041521660866016,0.7420930595616607,-0.04559673622150138,2.821153549540899,-5.151247512726792,0.8925189162840916,-2.6070301565133636,1.4833635911194243,5.385854617852772,-2.03086656974779,0.01952200000000004,-0.13991399999999987,-0.869841,-0.119977,0.13062400000000007,-0.886607,0.13949900000000004,0.27053799999999995,0.01676600000000006,0.33233999999999997,0.912563328051113,single,-0.869841
40,0.333333,jog,0.5364214568582726,-0.16980679227168458,-0.10260410416415952,0.08072943558023565,0.049250328993643865,-0.38463714842343466,1.332413296531848,-0.054602184087361616,-0.08100324012960645,0.0007200288011461063,0.015600624024956655,-0.021960878435137773,0.014401152068367054,-0.3888311058632673,-2.8658292617549597,8.66949354561017,-4.5075605976358615,-3.600288017281183,-1.7713417045035815,-2.044963593816793,1.9297543772624846,0.02615499999999993,-0.1389539999999999,-0.869661,-0.12444100000000002,0.13216899999999998,-0.885935,0.15059599999999995,0.2711229999999999,0.01627400000000001,0.33726,0.9550871803414464,single,-0.869661
41,0.341667,jog,0.5695944324454106,-0.1827453803695632,-0.15070794336453489,-0.051146560601700426,0.1941202950568998,-0.48142787686812794,1.4067674586033185,-0.09575233981282405,-0.03671706263498925,-0.0015598752099880903,0.04187664986802909,-0.05099592032637405,3.9804386353657333,-1.5525063712357343,-5.771998944129508,8.921785705719994,-4.937623677161314,5.313916186059175,-0.27356659600842265,3.152870871498969,-3.4839263128433227,0.03313199999999994,-0.13822900000000005,-0.868711,-0.12920100000000012,0.13404100000000008,-0.885104,0.16233300000000006,0.2722700000000001,0.01639299999999999,0.33607000000000004,0.889991529306273,single,-0.868711
42,0.35,jog,0.5748229929197002,-0.16536661466459915,-0.1413656546261869,0.022168368239770933,-0.08582732474292672,-0.47422702126483324,1.4218168726748937,-0.10884435377415018,-0.02160086403456139,0.00960038401537024,0.013200528021100772,-0.030361214448577572,0.6274523550089474,2.0855353060079316,1.1211194933814979,1.8060019286661653,-1.571104519539921,1.814016392707056,1.3392846784301402,-3.4412722725223075,2.476263755885819,0.04018999999999995,-0.13775799999999994,-0.867713,-0.1339109999999999,0.135529,-0.884179,0.17410099999999984,0.27328699999999995,0.01646600000000009,0.3353400000000001,0.9425489421799602,single,-0.867713
43,0.358333,jog,0.5817832713308464,-0.1719668786751484,-0.15612624504980094,0.1156893471842318,0.22689219352461873,-0.3602637268902526,1.4683787351494162,-0.1509660386415428,-0.03120124804992143,0.0073202928116964435,0.0031201248050019685,-0.01212048481939319,0.8352668200103427,-0.7920633638004587,-1.7713417045018587,5.587647002822795,-5.054804376262142,-1.152092165529821,-0.27362188931642706,-1.2096967738028035,2.188975114506697,0.04757800000000012,-0.1375829999999999,-0.866672,-0.138698,0.1369880000000001,-0.882979,0.1862760000000001,0.274571,0.01630699999999996,0.33692999999999995,0.9758345967051549,single,-0.866672
44,0.366667,jog,0.5997120230381633,-0.18442524598030935,-0.15802735781137645,0.1485454256188562,0.00781421199584632,-0.3905785848269736,1.483801295896312,-0.2137029037677023,-0.0404367650587949,-0.019438444924405485,-0.09935205183585914,0.0350371970242381,2.1512781026298144,-1.4948844858604438,-0.22811528216648735,1.8505592448879096,-7.52782158941198,-1.1081733871938397,-3.2107916649990282,-12.295677542699906,5.658469143704252,0.05494599999999994,-0.13782700000000003,-0.865692,-0.14385800000000004,0.13769699999999996,-0.88137,0.19880399999999998,0.275524,0.01567799999999997,0.34321999999999997,0.8214542657375858,single,-0.865692
45,0.375,jog,0.62894515780632,-0.15540621624865586,-0.22608904356174264,-0.10381697235049048,-0.5446582031041993,-0.6932347584627793,1.498859954398193,-0.22344893795750917,-0.0061202448097926986,0.02964118564743896,0.005280211208466955,0.0007200288011519352,3.508116496838686,3.482422864713016,-8.167728999203932,1.8071113046779164,-1.1695708856122529,4.118147155766504,5.889791260271759,12.556373820271974,-4.11822491576698,0.062195,-0.1383939999999999,-0.863859,-0.14885199999999998,0.13903600000000016,-0.87948,0.21104699999999998,0.27743000000000007,0.015620999999999996,0.34379,0.9498059609983845,single,-0.863859
46,0.383333,jog,0.6164646585863387,-0.18480739229567728,-0.16740669626785534,0.40397273402029116,-0.5681078916973168,-0.2327805048608088,1.5220208808352371,-0.27085083403336974,-0.0022800912036479337,-0.03408136325452438,0.033961358454315596,-0.021000840033600747,-1.4977198151903661,-3.528282256932856,7.042163361800966,2.779422349339265,-5.688455067305974,0.4608368662120214,-7.647011748705568,3.4418753445156263,-2.6066085245113086,0.06974100000000005,-0.1391110000000001,-0.862483,-0.15427299999999988,0.14085899999999985,-0.8782599999999999,0.22401399999999994,0.27996999999999994,0.01577699999999993,0.34223000000000003,0.912504786298109,single,-0.862483
47,0.391667,jog,0.6357091432685409,-0.1795056395488556,-0.19594432445404295,0.2824821264062445,-0.2657198593206063,-0.29524435095568824,1.5523158147348168,-0.3971682265418805,0.06035517158627262,-0.013558915286780614,-0.00443964482839485,-0.006959443244540729,2.3091534295898932,0.636159436863652,-3.424241443027067,3.635101259848774,-15.156874551057193,7.5156302843677105,2.462496756388738,-4.607751773783347,1.6848328280609557,0.07738,-0.14092499999999997,-0.860347,-0.15968399999999994,0.14231800000000017,-0.8766849999999999,0.23706399999999994,0.28324300000000013,0.016337999999999964,0.33662000000000003,0.9735430916273289,single,-0.860347
48,0.4,jog,0.6531861274451055,-0.2089283571342836,-0.18828753150125105,0.22762356039403045,0.0034923402420548775,-0.20677686136422285,1.7448697947917842,-0.34297371894874645,0.025801032041282364,-0.008520340813651023,-0.007680307212296141,-0.005640225609024149,2.0973219940675087,-3.530867344945143,0.9188519084113602,23.1074019029121,6.503601055218267,-4.14666261190329,0.6046531229004645,-0.3888950418698281,0.1583124487599393,0.08647699999999992,-0.1420419999999999,-0.8585630000000001,-0.16519800000000018,0.1439950000000001,-0.875163,0.2516750000000001,0.286037,0.016599999999999948,0.33399999999999996,0.9786956269892836,single,-0.8585630000000001
49,0.408333,jog,0.6587063482539144,-0.2066482659306379,-0.16560662426497674,0.15302717912443164,-0.05824849995922485,-0.16678716911671454,1.5630625225009116,-0.34885395415816634,0.030961238449537378,-0.005400216008622444,0.003360134405366261,-0.014400576023041203,0.6624529951768735,0.27362188931305664,2.721817741062566,-21.81774538472015,-0.7056564513884431,0.6192495389721621,0.37442995380158245,1.3249059903591058,-1.051284101046091,0.09401300000000012,-0.14322699999999988,-0.8569249999999999,-0.17073199999999988,0.145745,-0.873903,0.264745,0.2889719999999999,0.01697800000000005,0.33022,0.9737623348580022,single,-0.8569249999999999
50,0.416667,jog,0.6823854091672656,-0.203503719702414,-0.19894408447323442,0.17102281876164518,0.011375676273449892,0.02132697406577767,1.5501559875209852,-0.3878089752819786,0.04115670746340242,-0.0027597792176753356,0.007559395248397674,-0.006359491240700437,2.841260008801444,0.3773153621578962,-4.000175210974039,-1.5486603047667904,-4.674228596569742,1.2233584129907646,0.31682706874815286,0.5038709914844504,0.9648529856420396,0.10124500000000003,-0.14476299999999998,-0.854924,-0.176442,0.14750400000000008,-0.872298,0.277687,0.29226700000000005,0.017374,0.3262600000000001,0.9829051691786055,single,-0.854924
51,0.425,jog,0.6848673946958049,-0.21672866914676334,-0.18060722428898277,0.07840759294907143,0.0009923583009873594,-0.028825645737236054,1.580103204128187,-0.4376575063002611,0.05640225609024353,0.001440057602318859,-0.005040201608076038,-0.005160206408256507,0.2978501774318125,-1.5870574156185506,2.200511242559906,3.5938097452540467,-5.982063004714106,1.8295390167816092,0.5040005784224415,-1.5120121032609797,0.14391993669073957,0.10870500000000005,-0.14660400000000007,-0.852949,-0.182137,0.14926799999999996,-0.8708359999999999,0.29084200000000004,0.295872,0.017886999999999986,0.3211300000000001,0.9877406352888156,single,-0.852949
52,0.433333,jog,0.6620664826593029,-0.2281291251649973,-0.14964598583943273,-0.018847971363650903,-0.15139118548422492,0.15104881010208288,1.576623064922575,-0.4478579143165657,0.040801632065283276,0.017400696027821804,0.051122044881799555,0.007680307212288646,-2.7362188931359577,-1.3681094465659338,3.7154972338353423,-0.41763341000984777,-1.2240979258735774,-1.8721497689859823,1.915353225189353,6.739739168351777,1.5409232713962677,0.11632599999999993,-0.1484350000000001,-0.851362,-0.18750900000000015,0.15159499999999992,-0.869525,0.3038350000000001,0.30003,0.01816300000000004,0.31837000000000004,0.9090904782211011,single,-0.851362
53,0.441667,jog,0.6940244780417619,-0.2513798896088543,-0.10319174466042438,-0.37041280182496733,0.6652356020322834,0.1927610965303159,1.5802735781137751,-0.4416846652267898,0.0295176385889126,0.05471562275018173,0.013078953683695145,0.036837053035756726,3.8346526736812105,-2.789868543779355,5.574063016439718,0.4380265408207528,0.7407306323225264,-1.3539708994925292,4.477433012042253,-4.5648057593118105,3.4985296164468735,0.12371200000000004,-0.15002099999999996,-0.850256,-0.19283700000000015,0.15379900000000002,-0.868358,0.3165490000000002,0.30382,0.01810199999999995,0.31898000000000004,0.887925782542207,single,-0.850256
54,0.45,jog,0.7167886715468597,-0.23016920676825348,-0.14724588983559017,-0.3694383686382955,0.39695048415116446,0.2890098767268986,1.6197047881915052,-0.490579623184923,0.04824192967718684,-0.0036001440057571543,0.007080283211332174,0.0357614304572181,2.7318124931114407,2.54538375622234,-5.286708889375447,4.731934486707059,-5.867629660162366,2.2470048107853304,-6.99817193759014,-0.7198692514536117,-0.12907987261953924,0.1312359999999999,-0.15219100000000008,-0.848627,-0.19884000000000013,0.15577599999999991,-0.866833,0.33007600000000004,0.307967,0.018205999999999944,0.31794,0.9389451213260356,single,-0.848627
55,0.458333,jog,0.8358334333373221,-0.22200888035523028,-0.29197167886715764,0.5605660810445975,-1.239418135243349,0.822877789819335,1.6104644185767456,-0.5256210248409877,0.051122044881796565,0.013680547221909253,0.01728069122766643,0.02460098403936209,14.285942852569628,0.9792783406964136,-17.367789395363953,-1.1088887093195279,-4.205136404183945,0.34562764965915455,2.073765897955892,1.2240979258771492,-1.3393071424284217,0.137691,-0.1547209999999999,-0.845768,-0.20569099999999985,0.1577700000000002,-0.864195,0.34338199999999985,0.3124910000000001,0.018427000000000082,0.31572999999999996,0.9449498189199217,single,-0.845768
56,0.466667,jog,0.7200623950084161,-0.2996160307175389,-0.13294936405087554,-0.47995896606432825,0.4513937131801639,0.5191040212994086,1.5999520038396862,-0.6275497960163262,0.10811135109191243,-0.0005999520038436226,0.01511879049674206,0.038276937844972346,-13.891413286405795,-9.31211307443107,19.081151285850964,-1.2613888573385443,-12.230474103112359,6.838169691638567,-1.7135228252643222,-0.25940733512411435,1.6409831780189876,0.14502399999999982,-0.15745399999999998,-0.843759,-0.21169700000000002,0.160393,-0.862768,0.35672099999999984,0.317847,0.019008999999999943,0.30990999999999996,0.9314016978814107,single,-0.843759
57,0.475,jog,0.7355094203767963,-0.2858514340573491,-0.17196687867514954,-1.1383127946312934,0.8313485289563232,0.4248775733123935,1.6123844953798196,-0.5119404776191051,0.03600144005760176,0.017040681627248866,0.04164166566663843,0.044761790471618775,1.8537171928933531,1.6518176719296584,-4.68228904647475,1.4919586631625483,13.873673154592751,-8.653535465535922,2.1169607141596702,3.182872335280984,0.7782134437353228,0.152331,-0.1593380000000001,-0.8420259999999999,-0.217684,0.163122,-0.860962,0.370015,0.3224600000000001,0.018936000000000064,0.31064,0.8942220481380604,single,-0.8420259999999999
58,0.483333,jog,0.8701548061922583,-0.30157206288251254,-0.20004800192007285,0.47264325045658223,-0.25570687407328707,0.8895468082684675,1.6128645145805907,-0.5382215288611475,0.04452178087123422,-0.003480139205548373,0.03264130565223195,0.06636265450618055,16.158092621560225,-1.8865509210564486,-3.369869584174151,0.057604608276851925,-3.1538523031371986,1.0224817969077673,-2.462597003815811,-1.0800864051849808,2.5922073724423,0.15852,-0.16131000000000006,-0.839988,-0.22496399999999994,0.16590700000000003,-0.858742,0.38348399999999994,0.3272170000000001,0.01875400000000005,0.31246000000000007,0.8766039785816154,single,-0.839988
59,0.491667,jog,0.8621310295176374,-0.3216942644588616,-0.1138708903287709,-0.081687161293355,-0.37308547538843495,0.48715283652906866,1.6159107271418145,-0.5344372450203928,0.02987760979121658,-0.005399568034565961,0.07223422126229792,0.11063114950803915,-0.9627761788601913,-2.4144710314793696,10.340426156863675,0.3655162660455765,0.4540777346717883,-1.7571599568055705,-0.23031303443935514,4.750769811622982,5.311794456666494,0.1648019999999999,-0.16308299999999987,-0.83879,-0.232194,0.16919000000000017,-0.856871,0.3969959999999999,0.33227300000000004,0.018081000000000014,0.3191900000000001,0.7796077404956195,single,-0.83879
60,0.5,jog,0.9140765630625229,-0.4003360134405393,-0.07056282251290465,0.17855048206255247,-0.2250475384741313,0.43515994351901455,1.6081843273730985,-0.5419416776671171,0.016800672026881264,0.0069602784111234385,0.05952238089521555,0.11160446417856745,6.233713373921234,-9.437387373296279,5.1971760249449614,-0.9272050604483438,-0.9005679403245301,-1.5692953035323833,1.4832409031188563,-1.5254818633244216,0.11680243256069901,0.1705859999999999,-0.16426299999999994,-0.838062,-0.2397530000000001,0.173022,-0.855353,0.410339,0.33728499999999995,0.017291000000000056,0.3270900000000001,0.7888726310732165,single,-0.838062
61,0.508333,jog,0.9831993279731022,-0.39553582143285154,-0.12048481939277579,0.16851356770559942,-0.32691678247968486,0.046272366458074254,1.590543621744875,-0.5283811352453998,0.005880235209409237,0.01920076803074035,0.036361454458197884,0.05220208808352287,8.295063591813145,0.5760460827658413,-5.990879260754943,-2.1169693541609784,1.6273301838134262,-1.3105048382901692,1.4689175110544657,-2.7794223493360812,-7.128570274216289,0.1756470000000001,-0.1653699999999999,-0.837009,-0.24778599999999984,0.17662100000000014,-0.853914,0.42343299999999995,0.34199100000000004,0.016904999999999948,0.33094999999999997,0.8892464840843293,single,-0.837009
62,0.516667,jog,0.9614830813535029,-0.3887688984881123,-0.20134389248859694,-0.32646641506938595,0.09983526824408556,0.409158426480467,1.569834413246944,-0.5235181185505197,-0.014038876889849611,0.034677225821932486,0.04115670746340103,0.14242860571154395,-2.6057411350611206,0.811965796105025,-9.702312586491674,-2.4849062272535547,0.583515322159842,-2.390102243731577,1.8570263728332401,0.5753843298779902,10.826316010081785,0.18071700000000002,-0.166493,-0.8354480000000001,-0.2555099999999999,0.18020400000000003,-0.851049,0.4362269999999999,0.34669700000000003,0.015600999999999976,0.34399,0.7462377956691446,single,-0.8354480000000001
63,0.525,jog,0.8120724828993087,-0.4221768870754971,-0.13788551542062424,0.7986945023331589,1.4509622218008045,0.6292140513685311,1.5630625225009012,-0.522260890435618,-0.02232089283571234,0.04476179047161348,0.037681507260281306,0.11820472818912704,-17.929989014063796,-4.00911899524597,7.615309860551114,-0.8126593959009669,0.15087340872455215,-0.9938816687702743,1.2101961658083464,-0.4170407060026048,-2.906981581953295,0.1869750000000001,-0.1673269999999999,-0.8344849999999999,-0.2619039999999999,0.1840360000000001,-0.848915,0.44887900000000003,0.351363,0.014430000000000054,0.35569999999999996,0.7801776497443101,single,-0.8344849999999999
64,0.533333,jog,1.0170406816272757,-0.44293771750869104,-0.011280451218040121,-0.5221866499672789,-0.5506912463037296,1.115990902495207,1.5744629785191577,-0.5075003000120097,-0.04020160806432318,0.04536181447257805,0.04836193447737128,0.18840753630145401,24.59716773406563,-2.491399307955613,15.193215432927552,1.3681094465686632,1.7713417045011828,-2.145771658299652,0.0720057603461633,1.2817025341521742,8.424673960437731,0.19162000000000012,-0.16786500000000004,-0.8347260000000001,-0.27000099999999994,0.1881299999999999,-0.8472510000000001,0.46162100000000006,0.35599499999999995,0.012525000000000008,0.37475,0.6671087487639467,single,-0.8347260000000001
65,0.541667,jog,0.8698104151667874,-0.41576673866091013,-0.00155987520998808,0.5764247573032705,0.9972732298404229,0.9969838569823163,1.5247180225581733,-0.41564674826013875,-0.053635709143268484,0.07703383729301974,0.0417566594672441,0.11423086153107598,-17.666218677764242,3.2602566412023886,1.166375810901364,-5.968917201941925,11.021544486665501,-1.6119631724196308,3.800338711356065,-0.7925695956476034,-8.90048893333063,0.19707799999999998,-0.167864,-0.83516,-0.27660799999999997,0.19194299999999997,-0.846286,0.47368599999999994,0.359807,0.01112599999999997,0.38874,0.7600548649280963,single,-0.83516
66,0.55,jog,0.8861154446177879,-0.4275771030841195,-0.22128885155405606,-0.745187143963426,2.714386392401277,0.7064431557150329,1.4516980679227138,-0.4105364214568574,-0.06444257770310735,0.10764430577222152,0.028201128045119914,0.13536541461658458,1.9566818013921123,-1.417300422802031,-26.36853190256415,-8.762745066057748,0.6132637469436346,-1.2968761022247477,3.673403153630343,-1.6267288398084878,2.5362478201738283,0.20179099999999994,-0.16772200000000004,-0.8338530000000001,-0.2830950000000001,0.19574099999999994,-0.843314,0.48488600000000004,0.363463,0.009460999999999942,0.40539,0.7079459921401493,single,-0.8338530000000001
67,0.558333,jog,0.8819152766110518,-0.4428177127085089,-0.19920796831873394,-0.4150255660346811,2.254175104106362,0.7516635629038638,1.3781351254050214,-0.3667346693867725,-0.0798031921276857,0.05004200168008107,0.07776311052441952,0.3490939637585538,-0.5040403224212286,-1.8289463127792547,2.649811980717907,-8.827906218371911,5.256420505230446,-1.8433474648480133,-6.912552993176644,5.947675804548189,25.64845183510994,0.20592600000000005,-0.16708800000000001,-0.8328580000000001,-0.2900269999999998,0.2000789999999999,-0.8387450000000001,0.49595299999999987,0.3671669999999999,0.005886999999999976,0.44112999999999997,0.5,flight,-0.8328580000000001
68,0.566667,jog,0.883129349652025,-0.4816414686824972,-0.09947204223662987,0.8859355496262086,3.3988040236950754,0.8329052466173821,1.2859371250299982,-0.31665466762658107,-0.08459323254139739,0.11003119750417897,0.05891528677705969,0.24034077273817886,0.1456771107479239,-4.658478038635469,11.967353741553074,-11.06287501500149,6.009119481664395,-0.574758868935883,7.198127648679799,-2.261557925049158,-13.049338975326865,0.2092830000000001,-0.165713,-0.832734,-0.29647,0.20458399999999988,-0.835913,0.5057530000000001,0.3702969999999999,0.003179000000000043,0.46821000000000007,0.5486392103359621,single,-0.832734
69,0.575,jog,1.6498259930397479,-0.0626425057002446,0.04356174246969945,3.880888065365598,-3.6612378794855847,3.0290227630210294,1.2188887555502297,-0.2738509540381648,-0.08268330733229347,0.11472458898358186,0.06060242409696175,0.36661466458658626,92.00727749762748,50.2818868333441,17.16474075438985,-8.046126182619606,5.136651096653867,0.22920019310019668,0.5632295067086195,0.20246457697132808,15.153473160735455,0.20569199999999999,-0.16747299999999987,-0.8337859999999999,-0.3092619999999999,0.205611,-0.833221,0.5149539999999999,0.37308399999999986,0.0005649999999999267,0.5,0.49435000000000007,flight,-0.833221
70,0.583333,jog,1.0208808352334102,-0.6416656666266612,0.14736589463578564,-0.24741445968051226,0.46563938388662723,0.6293008393618439,1.0121204848193814,-0.19908796351854915,-0.12840513620544786,0.11940477619103,0.06972278891157593,0.22104884195367847,-75.47643799427998,-69.48555873351906,12.456996539791882,-24.81318501510229,8.9719177390634,-5.486838938336037,0.5616449306910026,1.0944875572559873,-17.468597459847256,0.20561899999999989,-0.16378499999999996,-0.8360839999999999,-0.3167740000000001,0.21153900000000014,-0.832607,0.522393,0.3753240000000001,0.0034769999999999524,0.5,0.5306760831307693,single,-0.832607
71,0.591667,jog,0.7907367410606939,-0.6360691144708375,0.3495320374370089,-0.8043268173342554,0.18706868696271567,-0.28163655925511805,0.822054235661147,-0.1270698344132365,-0.1642668586513069,0.09599232061436619,0.05639548836092715,0.20770338372929964,-27.615082094158215,0.6715325360959602,24.25799649642689,-22.806125408955243,8.64148417390354,-4.303062448507173,-2.8092699276054276,-1.5991481342271037,-1.6013268807749848,0.20588000000000006,-0.15954299999999988,-0.8403660000000001,-0.32256399999999985,0.21731000000000011,-0.833789,0.5284439999999999,0.376853,0.006577000000000055,0.5,0.5414632034251556,single,-0.833789
72,0.6,jog,1.4813392535701724,-0.5978639145565661,-0.09036361454458305,1.002115189042327,-0.8638528555129001,0.9143963007882222,0.5774630985239508,-0.07128285131406455,-0.21108844353774303,0.12432497299889887,0.08484339373575178,0.2804512180487235,82.8756165257992,4.584807382007891,-52.789589821384375,-29.35211054088544,6.6947057601311,-5.618814938969944,3.4000542883154856,3.4138852003870026,8.730089321903822,0.19834799999999997,-0.15515500000000015,-0.841372,-0.33387200000000017,0.22299899999999995,-0.8306990000000001,0.5322200000000001,0.3781540000000001,0.010672999999999933,0.5,0.39327000000000006,flight,-0.8306990000000001
73,0.608333,jog,1.1794071762870404,-0.7773910956438472,-0.29173166926677807,-1.2010668544130094,2.4318187017114714,0.16338994788824107,0.3156126245049681,0.06456258250330447,-0.20844833793351675,0.13188527541103787,0.08940357614304482,0.3108124324972997,-36.23329860591992,-21.544123495413466,-24.16513317199018,-31.423313814830394,16.302104142249906,0.3168253455209736,0.9072725803598899,0.5472437786263079,3.6434914734880617,0.19114999999999993,-0.1481389999999999,-0.8406779999999999,-0.34260099999999993,0.23022200000000015,-0.8256779999999999,0.5337509999999999,0.37836100000000006,0.015000000000000013,0.5,0.35,flight,-0.8256779999999999
74,0.616667,jog,1.3180945524358154,-0.6771058315334623,0.557355411567079,-3.244002364623394,-4.830522783555279,1.1156317157621605,0.06287497000240976,0.0933525317974635,-0.20770338372930242,0.28473722102231486,-0.04763618910486957,0.553995680345575,16.641153845545453,12.033269031723727,101.88229911613413,-30.326092452910938,3.454517553894791,0.08938735351743896,18.34076621205638,-16.44345635324156,29.17965536936366,0.180689,-0.141718,-0.847054,-0.351213,0.235468,-0.8257059999999999,0.531902,0.377186,0.021348000000000034,0.6062690827960948,0.28652,single,-0.8257059999999999
75,0.625,jog,1.2174486979478947,-0.6765870634825403,0.10056402256090266,2.0322382754260935,0.02046367968452376,0.3024563169470115,-0.1449657986319431,0.15012600504020124,-0.23712948517940602,0.18780751230049586,-0.008640345613833159,0.3349333973358923,-12.077985657976757,0.06225465629689061,-54.817159367115615,-24.941889911718707,6.813089312701008,-3.5312734249494158,-11.632030327831345,4.679688406460608,-26.288525502181905,0.16933600000000015,-0.13482899999999998,-0.849868,-0.3597929999999998,0.24103399999999997,-0.823753,0.529129,0.37586299999999995,0.026115,0.5,0.23885,flight,-0.823753
76,0.633333,jog,1.2126485059402363,-0.7361094443777688,0.04344173766950341,0.600111751232814,0.376406112815308,0.4905423549949672,-0.29953198127925634,0.15780631225248404,-0.280811232449297,0.2096483859354297,0.032401296051841035,0.4328573142925698,-0.5760460827623106,-7.142971426284447,-6.8549483849032775,-18.548683865032114,0.921673732423229,-5.242019353161023,2.6210096765791127,4.925194007641188,11.751340088404788,0.15673500000000007,-0.12738000000000005,-0.8525699999999999,-0.3681509999999999,0.24743799999999994,-0.8205079999999999,0.524886,0.374818,0.032062000000000035,0.5,0.17938000000000004,flight,-0.8205079999999999
77,0.641667,jog,1.1442284617230674,-0.7854571634269365,-0.13582913366929653,0.6898434980641812,2.7437345908307016,0.22458089370014406,-0.3483321334293263,0.13270938324933365,-0.2984161267098653,0.3755699544036591,0.0045596352291795905,0.6003119750419993,-8.209748526178227,-5.9212525856933,-21.510783697960278,-5.855549814023305,-3.011390569132533,-2.1124183178027804,19.908995496547917,-3.3407320401561797,20.09295185378335,0.1442960000000001,-0.11972800000000006,-0.853925,-0.3745569999999998,0.25402199999999997,-0.814373,0.5188529999999999,0.37375,0.03955200000000003,0.5,0.10448000000000007,flight,-0.814373
78,0.65,jog,1.2469698787951513,-0.7921516860674356,-0.07932317292691947,-0.09225540814377504,2.5076541646660697,0.5179711279990822,-0.32401296051842365,0.10932437297493128,-0.21348853954158029,0.2856114244569563,-0.10980439217568647,0.14844593783751311,12.32946322717911,-0.8033748518539603,6.78098652854636,2.9184174860077436,-2.8063134854676917,10.191718128919314,-10.795455411820761,-13.724232257874183,-54.226093508278446,0.13120500000000002,-0.11221599999999998,-0.855043,-0.382568,0.25970799999999994,-0.8124750000000001,0.513773,0.3719239999999999,0.04256799999999994,0.5,0.07432000000000005,flight,-0.8124750000000001
79,0.658333,jog,1.3556942277691366,-0.7365894635785604,0.05616224648986298,1.2262436009703745,-2.0807637649966804,0.07859928552437583,-0.13284531381255002,0.09840393615743903,-0.07644305772230943,0.3873754950198054,-0.06324252970118192,0.5759030361214499,13.047443774629341,6.667733408001406,16.258900686041482,22.94103524611489,-1.3105048382926132,16.446115662939167,12.212176954620187,5.587647002820709,51.296903670219685,0.11880099999999993,-0.10525799999999996,-0.856148,-0.3906370000000001,0.2653190000000001,-0.8081440000000001,0.5094380000000001,0.37057700000000005,0.048003999999999936,0.6964343695015645,0.01996000000000009,single,-0.8081440000000001
80,0.666667,jog,1.2712982961362886,-0.7751379889608665,-0.008279337652985986,0.25765316190862697,-0.9738608024942119,0.09147408444539144,0.022318214542838742,0.07259419246459828,-0.08723302135829132,0.4595632349412012,0.033117350611943944,0.5555555555555524,-10.126701659808894,-4.62545300963593,-7.732371507421223,18.618133951930357,-3.096921489421713,-1.2946920609529409,8.661835843699937,11.562260656722477,-2.4415023477198665,0.10839200000000004,-0.09819300000000009,-0.8568060000000001,-0.39740200000000003,0.27205499999999994,-0.8034450000000001,0.5057940000000001,0.370248,0.05336099999999999,0.8072305673777361,0.0,single,-0.8034450000000001
81,0.675,jog,1.2338893555742327,-0.7472698907956266,0.004080163206525663,0.6803394261493652,-0.5279643444220808,-0.07808205824716684,0.16476659066362076,0.0620424816992798,-0.036961478459137706,0.49081963278532725,-0.002880115204611053,0.577343093723746,-4.489252437544192,3.344305552050861,1.4831994311186363,17.09448891405033,-1.2662559420758954,6.032826460956847,3.750917778006229,-4.319868692734291,2.614609164549812,0.09948299999999988,-0.091449,-0.857148,-0.403594,0.2782579999999999,-0.798668,0.5030769999999999,0.3697069999999999,0.058479999999999976,0.7001692615259405,0.0,single,-0.798668
82,0.683333,jog,1.2715708628345044,-0.7721108844353906,-0.07380295211808927,0.2368790869850402,-1.386497771337652,-0.4459371092875351,0.16056642265691512,0.07608304332172305,-0.0234009360374418,0.6552262090483704,0.01680067202688471,0.7962318492739785,4.521961749702626,-2.9810384783108392,-9.346347692861592,-0.5040403224175781,1.6849347920848896,1.627330183810876,19.729578334698743,2.3617889393370866,26.2677013740831,0.09022500000000011,-0.08438100000000004,-0.856728,-0.4087299999999998,0.284832,-0.791418,0.4989549999999999,0.369213,0.06531000000000009,0.701309295176047,0.0,single,-0.791418
83,0.691667,jog,1.177225821934238,-0.7377009839212858,-0.06443484521238368,0.6360238309506704,0.17654438751521656,-0.23200743245010683,0.07775377969762143,0.02171826253899512,-0.030237580993520554,0.708303335733135,-0.08147348212141456,0.9517638588912808,-11.320499268090435,4.1288577530722925,1.124082902052497,-9.93672221733778,-6.523251833780599,-0.8203317681879891,6.368745702515503,-11.791955141384511,18.662348166222834,0.08106200000000008,-0.07805200000000001,-0.856443,-0.41263799999999984,0.29030100000000014,-0.782949,0.4936999999999999,0.36835300000000015,0.07349399999999995,0.8563216894768939,0.0,single,-0.782949
84,0.7,jog,1.158646345853841,-0.7406696267850729,-0.08064322572903061,-0.08176902668894027,-0.5854655504144722,-0.5573386184702291,0.010920436817467067,-0.023520940837630597,-0.032041281651265914,0.8239529581183103,-0.14868594743792435,1.1754470178807275,-2.229626314700249,-0.35625139371019926,-1.9450834653362625,-8.020321958496936,-5.428921562057619,-0.21645273703892673,13.878509826614225,-8.065818470720078,26.843052800845882,0.07149800000000006,-0.07207600000000003,-0.856038,-0.415427,0.2952339999999999,-0.772482,0.48692500000000005,0.3673099999999999,0.08355599999999996,0.9312990714920549,0.0,single,-0.772482
85,0.708333,jog,1.1368054722188918,-0.716908676347055,-0.04884195367813914,0.09188868556422658,0.2201590566272808,-0.1579602398100148,-0.017640705628226044,-0.028201128045119914,-0.018960758430337777,0.9480379215168588,-0.183847353894139,1.0897635905436178,-2.621009676580948,2.851428109686517,3.8163052983188934,-3.427474192450857,-0.5616449306959435,1.5697255755343913,14.890791239475346,-4.219537556247991,-10.28242257735621,0.06187799999999999,-0.06633699999999998,-0.855789,-0.41700000000000004,0.29967600000000005,-0.7629940000000001,0.478878,0.36601300000000003,0.09279499999999996,0.9361858497420352,0.0,single,-0.7629940000000001
86,0.716667,jog,1.157187425005989,-0.6897048236141027,-0.09119270458364388,-0.16165435979833115,-0.31926923508618543,-0.4236607714942046,-0.028677705783535803,-0.020998320134393438,-0.03611711063114872,1.239020878329731,-0.29937604991602074,1.3292536597072104,2.445638683356977,3.264201191858907,-5.081683573974612,-1.324334071911408,0.8642678078625414,-2.0585975762911937,34.91516160461602,-13.862334535862834,28.736509378880584,0.05199500000000001,-0.06076400000000004,-0.8553299999999999,-0.41631799999999997,0.3029289999999999,-0.7511559999999999,0.468313,0.36369299999999993,0.10417399999999999,0.9155444571614393,0.0,single,-0.7511559999999999
87,0.725,jog,1.213728549141985,-0.6823472938917582,-0.13824552982118582,-0.21855220913955006,-0.49717517999925837,-0.6344060950743704,0.005040201608062748,0.0030001200048065508,-0.025081003240129938,1.225129005160207,-0.30229209168366267,1.0781231249250092,6.785206304571751,0.8829388842367165,-5.646564891100728,4.04631073942144,2.879928013824578,1.32438586235676,-1.6670914640014425,-0.3499390096774219,-30.136869648650375,0.04192299999999993,-0.05505300000000002,-0.854387,-0.4162230000000001,0.3060959999999999,-0.74102,0.45814600000000005,0.36114899999999994,0.113367,0.9570704363771769,0.0,single,-0.74102
88,0.733333,jog,1.153366134645372,-0.7333493339733532,-0.32881315252610877,-0.9056715926043457,1.2035663494924496,-0.8330187511549437,0.050522020880835586,0.01476059042361499,-0.0031201248049919765,1.619704788191532,-0.5364214568582689,0.94659786391455,-7.243779490773141,-6.120489629376554,-22.86902948577009,5.458036634198086,1.4113129027731177,2.63541082864969,47.350988003278935,-28.096647686860106,-15.78366266776174,0.03273300000000001,-0.04881900000000006,-0.8516729999999999,-0.41233699999999995,0.3077369999999999,-0.7303919999999999,0.44506999999999997,0.356556,0.12128099999999997,0.9121224841938125,0.0,single,-0.7303919999999999
89,0.741667,jog,1.1893448524118178,-0.6588672906167572,-0.26649868010558314,-0.7492473598552221,-0.02345062796792863,-0.573225470983044,0.049316054715629054,0.012958963282937077,-0.004799616030718207,2.6639068874490093,-0.9415646748260118,1.1075113990880812,4.317100763912393,8.937130232372985,7.477138519381567,-0.1447043634757066,-0.21617796264433933,-0.20152282526112794,125.29422837262817,-48.61329709236203,19.30807957445789,0.02323200000000003,-0.043220000000000036,-0.849492,-0.40004800000000007,0.305381,-0.718941,0.4232800000000001,0.34860100000000005,0.13055099999999997,0.914640559069867,0.0,single,-0.718941
90,0.75,jog,1.1762870514820516,-0.6359054362174524,-0.2467298691947737,-0.5689908460449338,-0.09307848428745301,-0.663613157743925,0.03264130565221863,0.004560182407294172,-0.009360374414975928,2.725789031561266,-0.9776791071642976,0.8679947197887866,-1.5669987915235937,2.755532749226529,2.37235220338526,-2.001049929606427,-1.0078940208379779,-0.5473128986268693,7.426154339644342,-4.333905236803752,-28.743151241964902,0.013701999999999992,-0.037883,-0.847514,-0.3871359999999999,0.30253299999999994,-0.709652,0.4008379999999999,0.34041599999999994,0.13786200000000004,0.9428971029276999,0.0,single,-0.709652
91,0.758333,jog,1.211328453138126,-0.6638665546621815,-0.27805112204488225,-0.8477211238098312,-0.05092594373459837,-0.7419706328382171,0.01320052802112733,0.029281171246852387,0.03072122884915375,2.4226569062762255,-0.9686787471498648,0.6668666746669847,4.20513640418509,-3.3554684321047548,-3.7587006900406132,-2.3329866351963537,2.966637326240023,4.809984791087184,-36.37731012660975,1.0800864051881425,-24.136330867850845,0.003717999999999999,-0.032107,-0.8449409999999999,-0.3770420000000001,0.29999300000000007,-0.701778,0.3807600000000001,0.33210000000000006,0.14316299999999993,0.9259235599077597,0.0,single,-0.701778
92,0.766667,jog,1.239260859131277,-0.7345812335013193,-0.2008639308855247,-0.5923253050716913,-0.6485170275205027,-1.244666512624867,0.014758819294454635,0.009719222462202809,-0.002039836813055342,2.748260139188885,-1.0985121190304867,0.46076313894888793,3.35162058953097,-8.485082654084263,9.261722001362848,0.1869799943997257,-2.3472460744720047,-3.931013398393242,39.069262408526676,-15.578758325008721,-24.73044585050371,-0.0064870000000000205,-0.025904000000000038,-0.843284,-0.36446600000000007,0.29696,-0.696264,0.35797900000000005,0.32286400000000004,0.14702000000000004,0.9703517394898467,0.0,single,-0.696264
93,0.775,jog,1.217448697947908,-0.6602664106564243,-0.25357014280571494,-0.5571702821926452,0.02335788164759566,-0.7044112397573721,0.0152406096243835,0.01008040321612536,0.0016800672026881154,3.0994839793591566,-1.2602904116164608,0.3852154086163419,-2.6175640445660564,8.918135466806033,-6.324998430360016,0.057817152277554636,0.04334342420767437,0.4464063381427387,42.148546762302914,-19.414171677183898,-9.066090283516825,-0.016504999999999992,-0.020318000000000058,-0.8411569999999999,-0.34878300000000007,0.29196,-0.690941,0.3322780000000001,0.31227800000000006,0.1502159999999999,0.9694170828126374,0.0,single,-0.690941
94,0.783333,jog,1.1960878435137585,-0.6510260410416492,-0.23052922116884292,-0.4407206793662015,0.19305061980539037,-1.028655574222065,0.0447617904716274,0.009240369614783925,-0.03012120484819435,2.96843873754954,-1.1868474738989614,0.17268690747630014,-2.563405068300693,1.1088887093214004,2.7650211972725587,3.5426834090056607,-0.10080806448355252,-3.816305298317863,-15.726058059476518,8.813505066302666,-25.50444031441782,-0.026098999999999983,-0.014816000000000051,-0.839487,-0.33401400000000003,0.28749500000000006,-0.687581,0.30791500000000005,0.3023110000000001,0.15190599999999999,0.9087693810787649,0.0,single,-0.687581
95,0.791667,jog,1.2386609071274168,-0.6457883369330402,-0.18334533237340558,-0.2716318089530872,-0.28209166676491837,-1.1021119696525234,0.005639548836082057,0.005519558435323991,-0.001679865610751142,3.4528437724981633,-1.438324934005265,0.1972642188624903,5.108358964921765,0.62847421509587,5.661613726354329,-4.694293452789182,-0.44646162460522026,3.4126876934776806,58.12395427749215,-30.17488122225843,2.9490414430273537,-0.036375000000000046,-0.009388000000000063,-0.8379730000000001,-0.3155610000000001,0.2808900000000001,-0.684409,0.27918600000000005,0.29027800000000015,0.15356400000000003,0.9865533993488549,0.0,single,-0.684409
96,0.8,jog,1.202688107524293,-0.6278651146045833,-0.22284891395655704,0.0027269156133373903,-0.29071820054432534,-1.4738267047422262,0.00732029281172309,0.013440537621504923,-0.005520220808832022,3.2234489379575075,-1.3274930997239986,-0.12120484819392856,-4.3169086287199905,2.1508727143233908,-4.740619414754745,0.2016973449707219,0.9505555245626903,-0.4608610582120322,-27.528481284129946,13.300352127837028,-38.21781675944048,-0.04633599999999993,-0.0040440000000000476,-0.8361620000000001,-0.29872200000000004,0.27505999999999997,-0.683562,0.2523860000000001,0.279104,0.15260000000000007,0.9728836060153684,0.0,single,-0.683562
97,0.808333,jog,1.2078483139325673,-0.6846273850954053,-0.12084483379336378,0.283798832538272,-0.11454589299940947,-1.5383477203235163,-0.027241089643596582,-0.0055202208088312625,0.016080643225729437,3.2655706228249444,-1.4755790231609234,-0.1123244929797193,0.6192495389744811,-6.811744928695856,12.240979258753654,-4.147531795910235,-2.2753820269214398,2.5922073724422963,5.054804376267517,-17.77102165329726,1.0656852531152448,-0.05662800000000001,0.001614999999999922,-0.835021,-0.281575,0.26846900000000007,-0.683491,0.224947,0.26685400000000015,0.15153000000000005,0.94648113288802,0.0,single,-0.683491
98,0.816667,jog,1.293736501079912,-0.7048236141108712,-0.07355411567074274,0.10804669542550727,-0.26333662166702476,-1.2022010738531008,-0.023158147348211814,0.06023518118550499,-0.05759539236861022,3.197384209263245,-1.4604031677465876,-0.28761699064074775,10.305757997041521,-2.4233536135668063,5.67443222013687,0.4899138823355816,7.8900170379572545,-8.840417037957655,-8.18171509019665,1.8209569731624229,-21.033417045959578,-0.06760300000000008,0.00799099999999997,-0.834888,-0.26571,0.26217199999999996,-0.685275,0.19810699999999992,0.254181,0.149613,0.8558376102450755,0.0,single,-0.685275
99,0.825,jog,1.2860914436577553,-0.7095883835353415,0.12456498259930311,1.412852549336893,-1.2969790278315096,-1.8079137418006872,-0.017040681627262303,0.015480619224774622,-0.014160566422657042,3.024120964838608,-1.4884195367814779,-0.3958958358334365,-0.9174435884023496,-0.5717952027445437,23.775242802117805,0.734125251524009,-5.370762265778325,5.21238760901879,-20.792421027797733,-3.3620987681375856,-12.993981182370065,-0.07846200000000003,0.014032999999999962,-0.836044,-0.2512270000000001,0.25568199999999996,-0.689612,0.17276500000000006,0.241649,0.146432,0.9549519995722261,0.0,single,-0.689612
100,0.833333,jog,1.2916116644665694,-0.7152286091443719,0.024000960038398793,0.3509268101102441,-0.09588770173771466,-1.6869265506659847,0.004200168006721121,0.028201128045119914,-0.029881195247809696,4.002280091203647,-1.9081963278530993,-0.3661346453858137,0.6624529951774953,-0.6768541472495394,-12.068165433925826,2.5490039162346494,1.5265221193262017,-1.886550921055153,117.38379051542482,-50.37522993779188,3.5714857131432494,-0.08918999999999999,0.020228000000000024,-0.8364929999999999,-0.22863899999999993,0.2457410000000001,-0.692863,0.13944899999999993,0.22551300000000007,0.14362999999999992,0.9311638244384285,0.0,single,-0.692863
101,0.841667,jog,1.3254139668826392,-0.7047036237100999,0.10319174466043633,0.67756578163567,-0.9255187684803795,-1.9672359849776266,0.01667866570674336,0.03503719702423287,-0.01103911687065048,3.3207343412526615,-1.5850731941444762,-0.7017038636908984,4.055951813783248,1.2628972203350095,9.502133983925718,1.4972999400074567,0.8202626564810303,2.2608685357762264,-81.77894767830338,38.77167431108959,-40.265084989810674,-0.10009699999999999,0.026393,-0.837445,-0.21201000000000003,0.23840399999999995,-0.699571,0.11191300000000004,0.21201099999999995,0.13787399999999994,0.9327598589144002,0.0,single,-0.699571
102,0.85,jog,1.274810992439715,-0.7459498379935264,-0.00108004320173249,0.8053522698405738,1.3758802446107308,-1.9119031153130082,-0.03624144965798959,-0.04080163206528382,0.022800912036481987,3.0548421936877928,-1.5165006600264161,-0.8807152286091539,-6.072599837144441,-4.949743703759383,-12.513115068063096,-6.350667870482831,-9.101023531683355,4.060965907492233,-31.90833404114619,8.229033255497505,-21.48222307911401,-0.11102200000000007,0.03226899999999999,-0.8372459999999999,-0.19717699999999994,0.23198299999999994,-0.706901,0.08615499999999987,0.19971399999999995,0.13034499999999993,0.9014254731716096,0.0,single,-0.706901
103,0.858333,jog,1.3234129365174463,-0.7377895115804519,0.22632905316213206,0.5530032363722318,-0.5230757636556684,-1.56034072624587,-0.010320412816502953,0.0037201488059526123,-0.0038401536061447392,4.576983079323148,-2.3517340693627484,-0.48241929677186834,5.832466587991242,0.9792783407025658,27.29018317099047,3.1106488469322606,5.342827417645054,-3.197055759345568,182.6642128447557,-100.2320184010955,47.79742371742276,-0.12213599999999991,0.03844799999999993,-0.839164,-0.1700649999999999,0.218534,-0.7128070000000001,0.047929,0.18008600000000008,0.12635699999999994,0.9806281126112939,0.0,single,-0.7128070000000001
104,0.866667,jog,1.4484041276698012,-0.7942164626829948,0.25341972642188804,-0.7209996613883944,0.10965127833692805,-1.1035775476690262,0.005279577633781285,-0.013078953683695145,0.033837293016559404,3.8944084473242278,-1.999880009599242,-0.677345812335015,14.997743118833167,-6.770692476907037,3.2506207415114146,1.8718491061056308,-2.0157310402745203,4.520931920170909,-81.90240364757912,42.21910964284959,-23.389310722719916,-0.13416300000000003,0.044958000000000053,-0.840994,-0.14968000000000004,0.20848600000000006,-0.720564,0.015517000000000003,0.163528,0.12043000000000004,0.93890136917019,0.0,single,-0.720564
105,0.875,jog,1.5067802712108436,-0.7841113644545663,0.4995799831993159,-0.7693541348400375,-1.1016083148346216,-0.9276734461472648,0.06816272650906163,-0.05760230409216776,0.036961478459137706,3.9858394335773357,-2.1797671906876266,-0.6955478219128765,7.00541744162272,1.2126602938231719,29.54041242978841,7.5462797162222595,-5.343015769647477,0.3749172497993866,10.972157236662378,-21.58732522361501,-2.1843285224842637,-0.14615100000000003,0.051011999999999946,-0.844849,-0.12902199999999997,0.19685599999999992,-0.730523,0.01712900000000006,0.14584399999999997,0.11432599999999993,0.8390105799563127,0.0,single,-0.730523
106,0.883333,jog,1.4674186967478657,-0.8610344413776566,0.32881315252610877,-0.8712694056798954,1.4087221418264684,-1.041686029346244,0.032881315252609546,-0.008640345613819834,0.06456258250330031,4.048001920076784,-1.998079923196926,-0.7777511100443969,-4.723577878672467,-9.23113847630985,-20.492839394360544,-4.233938708322566,5.875670044203495,3.3122649758985347,7.459796771804614,21.80334423265329,-9.864789167349107,-0.15810500000000005,0.05811500000000003,-0.847051,-0.107518,0.1873809999999999,-0.7397440000000001,0.05058700000000005,0.12926599999999988,0.10730699999999993,0.878388556772865,0.0,single,-0.7397440000000001
107,0.891667,jog,1.4989200863930907,-0.8207343412526993,0.25689944804415177,0.859043324602374,2.1098993584652024,-1.0906469474389262,0.023998080153585205,0.005759539236853522,0.0749940004799621,4.207703383729321,-1.9125269978401747,-0.8330933525318027,3.7798643682775563,4.835625164981709,-8.62895422149717,-1.065902939647755,1.7278479542444731,1.2516700235975342,19.162642626894385,10.26552980042618,-6.6405378554603,-0.17039700000000002,0.06500299999999992,-0.848567,-0.08494299999999999,0.17828199999999994,-0.748828,0.08545400000000003,0.11327900000000002,0.09973899999999991,0.8684158459887603,0.0,single,-0.748828
108,0.9,jog,1.6341053642145607,-0.8856354254170193,0.5160206408256274,0.2131035130877294,-1.4346320251931504,-1.3929579244486479,0.008760350414015293,-0.006600264010563665,0.12564502580103143,5.187687507500274,-2.391815672626899,-0.5935437417496682,16.22288225386648,-7.78844163738387,31.095786965255552,-1.8286007127768928,-1.483235719118821,6.078366173175221,117.6027989644725,-57.516941652072745,28.747103177983146,-0.18394100000000002,0.07232799999999995,-0.8518199999999999,-0.05533100000000002,0.16573099999999996,-0.7580739999999999,0.12861,0.09340300000000001,0.093746,0.7897952074435812,0.0,single,-0.7580739999999999
109,0.908333,jog,1.6063842553702306,-0.8935557422296917,0.4654986199448113,0.6078562335350985,-0.17434732151391577,-1.1051865419210214,0.0072002880115277276,-0.005280211208440344,0.18228729149166129,5.294011760470469,-3.38425537021483,0.5091803672146928,-3.326666127964761,-0.950476036562154,-6.06288502109883,-0.18721497689758543,0.15841267276171048,6.79734377662671,12.759420733252831,-119.09752761165728,132.33218636317903,-0.19726699999999997,0.07972999999999997,-0.85418,-0.024602000000000013,0.144976,-0.7577100000000001,0.17266499999999996,0.06524600000000003,0.09646999999999994,0.6958236009903109,0.0,single,-0.7577100000000001
110,0.916667,jog,1.6435085193184504,-0.8838492920566401,0.6051115910726986,0.06608477914173945,0.29955786172412613,-0.9099242794962159,0.025077993760500735,-0.033117350611957266,0.2534197264218838,4.403287736981006,-2.378569714422832,-0.6209503239740756,4.454555309361603,1.16468084629848,16.75221635803771,2.145153077630534,-3.340189513260944,8.535209374876649,-106.87833255213062,120.67262488504801,-135.6048345558867,-0.21075500000000003,0.08682000000000001,-0.857111,-0.0016020000000001033,0.13251900000000005,-0.7679279999999999,0.20915299999999992,0.045699000000000045,0.08918300000000001,0.5719968119850383,0.0,single,-0.7679279999999999
111,0.925,jog,1.6733469338773428,-0.9047161886475376,0.4417376695067839,1.524631340508372,0.09118640601559218,-1.3565066604580012,0.04716188647545602,-0.0429617184687349,0.32245289811592354,3.2424096963878437,-1.809912396495857,-1.4008160326412984,3.5807529771861555,-2.504127756017926,-19.60565481410225,2.650173132719932,-1.181371397669218,8.284311975763762,-139.3109373086712,68.24160781554936,-93.58762854520816,-0.224306,0.094001,-0.858105,0.011472999999999955,0.12497599999999998,-0.783282,0.23577899999999996,0.030974999999999975,0.07482299999999997,0.5,0.0,flight,-0.783282
112,0.933333,jog,1.6877475099004073,-0.9231969278771175,0.5724228969158881,1.076500246040124,-0.15127496683042713,-1.4719527145188145,0.06756270250809857,-0.04008160326412438,0.39925597023881365,4.962198487939562,-2.6398655946238043,-0.4779791191647727,1.7281382482976935,-2.2177774186463584,15.68285460327678,2.4481958517511977,0.34562764965925175,9.216737324239867,206.38291030262025,-99.59836771006299,110.74485941156057,-0.237807,0.10136,-0.8595480000000001,0.03875899999999999,0.11067099999999996,-0.792035,0.276566,0.009310999999999958,0.06751300000000005,0.5,0.0,flight,-0.792035
113,0.941667,jog,1.827693784497229,-0.9596832253419726,0.4104871610271156,-0.29406861322968003,0.1615577301211785,-0.9732792130775313,0.08015358771298257,0.015958723302128355,0.5094792416606633,4.304415646748232,-2.616030717542575,-0.7560595152387752,16.79220957485248,-4.378005455346151,-19.43073384794472,1.510785361757129,6.724301243850769,13.225734511860905,-78.92762673282037,2.8599564532312396,-33.366978170626396,-0.252371,0.109491,-0.858723,0.05940000000000001,0.09686700000000004,-0.801757,0.311771,0.012623999999999969,0.05696599999999996,0.5,0.0,flight,-0.801757
114,0.95,jog,1.8411136445457947,-0.8706348253930251,0.4322572902916149,-0.5874251833262664,2.578328663878714,-0.6558911107715188,0.07896315852634747,-0.01836073442937239,0.504500180007204,4.2307692307692735,-2.387735509420405,-0.786511460458426,1.6104476237328562,10.686235443291533,2.612520012540446,-0.14285721668488105,-4.118499667766838,-0.5975112988670753,-8.837923434412529,27.39652083549405,-3.6543796015421885,-0.26705499999999993,0.11659300000000006,-0.858121,0.07931300000000008,0.084225,-0.8119130000000001,0.346368,0.03236800000000006,0.046207999999999916,0.5,0.03792000000000001,flight,-0.8119130000000001
115,0.958333,jog,1.7799111964478587,-0.7799111964478452,0.8741149645985752,0.9788695609516553,1.5147764020304357,-0.1732723399418681,0.14904596183846877,-0.10836433457338095,0.6168246729869176,4.283931357254273,-2.29221168846752,-0.698667946717865,-7.344587555254508,10.887270964260104,53.025041918511754,8.410272808366855,-10.800864051843055,13.479478336699042,6.379710366614606,11.463317047028063,10.541643314599858,-0.28064500000000003,0.12218899999999999,-0.8602650000000001,0.10017900000000002,0.07162299999999999,-0.825019,0.38082400000000005,0.050566,0.03524600000000011,0.5,0.14754,flight,-0.825019
116,0.966667,jog,2.0394768418526277,-0.8018958483321267,0.6653467722582169,-1.3079011081604817,1.142822569858624,-0.38603222201490145,0.12886969042476737,-0.08315334773218735,0.6865850731941399,4.366090712742941,-2.180345572354201,-0.6099112071034276,31.145385817706625,-2.6379471903385263,-25.05017906651748,-2.420958892932715,3.0250764148300213,8.370578378596324,9.858333991920697,13.422860104789793,10.649956757191834,-0.29656799999999994,0.12817899999999993,-0.860088,0.11956900000000004,0.06013499999999994,-0.835647,0.416137,0.068044,0.024440999999999935,0.5,0.2555900000000001,flight,-0.835647
117,0.975,jog,1.917436697467922,-0.8826353054122246,0.5941437657506268,0.7061190621194868,0.7651298100622991,-0.5739140908976831,0.18396735869435024,-0.07668306732268702,0.6823472938917615,4.298091923676989,-2.3238929557182457,-0.4825393015720669,-14.645403142290506,-9.689122414508416,-8.544702569013657,6.611984671736875,0.776464707728356,-0.5085538584397432,-8.160181095158164,-17.226375058687882,15.285240073366356,-0.311013,0.134895,-0.8593529999999999,0.139407,0.04812499999999997,-0.844619,0.45042,0.08677000000000001,0.014733999999999914,0.5,0.35266000000000003,flight,-0.844619
118,0.983333,jog,1.8622344893795713,-0.8174726989079577,0.6450258010320409,-0.153944553113543,-0.8247351976656181,0.1304350416403203,0.16008640345613115,-0.09336373454938836,0.6845073802952091,4.226089043561721,-2.1190447617904704,-0.39913596543861535,-6.624529951800134,7.819825573534932,6.106088477308759,-2.8658292617567493,-2.001760137609656,0.25922073724319566,-8.64069124148169,24.582766581996214,10.008800688041669,-0.32519700000000007,0.14092899999999997,-0.859024,0.15910499999999994,0.03727899999999995,-0.85332,0.484302,0.10365000000000002,0.005704000000000042,0.5,0.44296,flight,-0.85332
119,0.991667,jog,2.0497960163187012,-0.9404847612191092,0.47312215022798804,-0.48751662089917525,-1.2120536084469826,-0.8006562277741479,0.18346532277417943,-0.2325413966882657,0.8053755699544077,4.179145668346556,-1.9769618430525593,-0.2914566834653245,22.50558278607284,-14.760266656005781,-20.626787953450183,2.80524589849393,-16.699983457988736,14.503022517302536,-5.632754405467435,17.0485863616405,12.920480198379105,-0.340751,0.146829,-0.856255,0.17685099999999998,0.028641000000000028,-0.859692,0.517602,0.11818799999999996,0.0034370000000000234,0.46563000000000004,0.5,flight,-0.856255
120,1.0,jog,1.9764790591623564,-0.7605904236169361,0.5430217208688326,-0.21876077403906188,0.9080952859856712,0.24006846443795007,0.1057242289691608,-0.17916716668666272,0.7818312732509276,4.042841713668532,-1.9391575663026481,-0.11496459858394294,-8.798386794233107,21.588184039622266,8.388284008261643,-9.329304428779349,6.405163806744602,-2.825428621562466,-16.357128846516623,4.536694677776431,21.179897381660968,-0.35634,0.15167399999999998,-0.854265,0.19407000000000002,0.018819999999999948,-0.865175,0.5504100000000001,0.13285400000000003,0.010909999999999975,0.39089999999999997,0.5,flight,-0.854265
121,1.008333,jog,2.0451218048722137,-0.7305892235689606,0.26677067082683253,-2.881173117233264,3.392506819288721,0.9168440569416592,0.16092643705748816,-0.09432377295092663,0.8855154206168324,3.8580343213728883,-1.8129125165006743,-0.060482419296772956,8.237458983542291,3.6002880172777796,-33.15145206312284,6.624529951797416,10.181614512868938,12.4425953877242,-22.177774186444957,15.150011976716065,6.538123039382032,-0.37204099999999996,0.156976,-0.849109,0.209177,0.00980100000000006,-0.867902,0.581218,0.14717499999999994,0.01879299999999995,0.31206999999999996,0.5,flight,-0.849109
122,1.016667,jog,1.9416846652267705,-0.7132229421646153,0.27729781617471144,-0.7696510618683415,3.458991734123799,0.7596385071900814,0.21010319174465247,-0.16222702183824075,0.9298056155507479,3.537556995440339,-1.7630189584833027,0.01595872330213668,-12.411463840345863,2.083787065556171,1.2631563892343205,5.900738503379403,-8.147738047433839,5.314398240210603,-38.45420277568357,5.986748022242768,9.172203335602237,-0.38647200000000004,0.16156800000000004,-0.8436710000000001,0.22247699999999998,0.001052000000000053,-0.8700800000000001,0.608949,0.160516,0.026409000000000016,0.23591000000000012,0.5,flight,-0.8436710000000001
123,1.025,jog,2.105844233769371,-0.9687987519500865,0.5384615384615323,1.0436531154517568,-2.098318118956447,-1.1646027142475843,0.23532941317652808,-0.11904476179047185,0.9318372734909491,3.244689787591534,-1.5951038041521906,0.06552262090483571,19.699936222561117,-30.670323987216303,31.34090031043121,3.027267662531602,5.18207848887187,0.2438087051723549,-35.14547076068735,20.15062454471543,5.947905628549079,-0.40205900000000006,0.16864900000000005,-0.840393,0.23196699999999998,-0.004167000000000032,-0.8740209999999999,0.634026,0.17281600000000008,0.03362799999999999,0.16371999999999998,0.5,flight,-0.840393
124,1.033333,jog,2.002040081603223,-0.8689547581903188,0.5252610104404175,0.2653806968666256,-1.9153070718767378,-0.221968500186902,0.4174966998679886,-0.1872074882995294,0.8635545421816732,2.9465978639145076,-1.4034561382455066,0.08964358574342789,-12.456996539799123,11.981758521512777,-1.584126727602855,21.860948840928515,-8.179854375261774,-8.194255527334068,-35.77246173971212,22.998639854395844,2.894631565893646,-0.415263,0.1743300000000001,-0.837574,0.23983800000000005,-0.00862099999999999,-0.8776510000000001,0.655101,0.18295100000000009,0.04007700000000003,0.09922999999999987,0.5,flight,-0.837574
125,1.041667,jog,1.9152867770578756,-0.7700983921286352,0.3255339572834194,2.4059811121476775,0.007553088633733534,0.2649449901059475,0.47132229421647676,-0.4097672186225248,0.9196064314854958,2.581953443724549,-1.3268538516918913,0.030957523398129724,-10.40956378033944,11.86181498220368,-23.96532915250803,6.4585546374477065,-26.705031236261053,6.725688661365937,-43.75383011638655,9.191539063308952,-7.041764140304689,-0.427297,0.17733299999999996,-0.832623,0.245394,-0.013261000000000078,-0.8801059999999999,0.6726909999999999,0.19059400000000004,0.04748299999999994,0.025170000000000192,0.5,flight,-0.832623
126,1.05,jog,1.9747989919596403,-0.8432737309492239,0.18204728189127134,-0.9197856373169386,-0.8232043634469887,0.21661978291574224,0.6767070682827134,-0.569662786511444,1.01656066242648,2.24744989799588,-1.2433697347893642,-0.053162126485058345,7.14175145826996,-8.781391914147054,-17.21908981064989,24.64715877429894,-19.18823567609701,11.634973111842376,-40.142031168686344,10.0184947680938,-10.09476177645345,-0.438114,0.17961300000000002,-0.825669,0.24766600000000003,-0.016595000000000026,-0.882066,0.6857800000000001,0.19620800000000005,0.05639700000000003,0.0,0.5,flight,-0.825669
127,1.058333,jog,1.9301572062882744,-0.8467538701548214,0.11964478579143582,0.09865703980021522,0.2517886701265126,0.46441293745305595,0.780871234849406,-0.5952238089523726,0.8751950078003193,1.9258370334813577,-1.1555262210488524,-0.14988599543981898,-5.357228569706745,-0.417633410008108,-7.488599075943368,12.500199996003065,-3.067445390727091,-16.964557137424933,-38.59508754524483,10.541643314594097,-11.607328567714092,-0.447691,0.181709,-0.819373,0.24763,-0.019167999999999963,-0.884312,0.695321,0.20087699999999997,0.06493899999999997,0.0,0.5,flight,-0.819373
128,1.066667,jog,1.9694024478041552,-0.8134149268058468,0.06875449964003376,-0.10141861772298534,0.8797556347551272,0.18834317831003575,0.9984401247900119,-0.7534197264218713,0.8377729781617426,1.624190064794803,-1.060715142788564,-0.24802015838732705,4.709052257725045,4.000353173623029,-6.106345830501761,26.106178298608615,-18.981991537016736,-4.490284333882467,-36.194740663133224,11.376419277692312,-11.77515754109759,-0.45578299999999994,0.18220900000000007,-0.812964,0.24475300000000003,-0.021228999999999942,-0.8869520000000001,0.7005359999999999,0.203438,0.07398800000000005,0.0,0.5,flight,-0.812964
129,1.075,jog,1.9461178447138108,-0.8001920076803154,-0.24936997479899714,-1.6609298571730073,0.04431731649791926,0.607966991520899,1.2559702388095608,-1.0652826113044647,0.9509180367214759,1.3421336853474262,-0.9887195487819599,-0.37945517820713154,-2.7942641414070115,1.5868137676144893,-38.17646399124371,30.90484987634121,-37.425043187639055,13.577950145173931,-33.84811945846388,8.639816873467502,-15.772833291708352,-0.461534,0.18000000000000005,-0.8029620000000001,0.23972,-0.02279999999999993,-0.888036,0.701254,0.20279999999999998,0.08507399999999998,0.0,0.5,flight,-0.8029620000000001
130,1.083333,jog,1.9037561502459752,-0.8100324012960284,-0.20376815072602275,-1.1082980678363978,-0.13379074679780284,0.371984703769836,1.4170166806672069,-1.1425657026280853,0.9324372974918832,1.0997239889595398,-0.8907956318252657,-0.47881915276610315,-5.083606680407394,-1.180894469664324,5.472437786268282,19.32634607676026,-9.274341932511616,-2.2177774186478314,-29.090327179633036,11.751340088406637,-11.924153913232914,-0.46558999999999995,0.17722899999999997,-0.793494,0.23302,-0.023473000000000077,-0.890328,0.69861,0.20070200000000005,0.09683399999999998,0.0,0.5,flight,-0.793494
131,1.091667,jog,1.8426925845932687,-0.8599712023038362,-0.11087113030958165,-0.5061277391587945,-1.9620396772255706,-0.0843450123681892,1.5718742500600251,-1.175185985121209,0.8616510679145857,0.8731701463883063,-0.8148548116150852,-0.5863930885529273,-7.327041714987725,-5.992176746797305,11.14675070991635,18.581421813393472,-3.9141207695133517,-8.493668055831398,-27.184286365639295,9.112169451665693,-12.90783966724576,-0.46784699999999996,0.17460200000000003,-0.785389,0.22494,-0.023097000000000034,-0.8942910000000001,0.6927869999999999,0.19769900000000007,0.10890200000000005,0.0,0.5,flight,-0.785389
132,1.1,jog,1.8838353534141024,-0.7922716908676205,-0.3679347173886907,-1.030821224175691,-0.7136555670846483,0.13254293600292538,1.7427097083882959,-1.2148085923436849,0.7857914316572523,0.5166206648265811,-0.6339853594143566,-0.6889475579023036,4.937329751690022,8.124266342999457,-30.848864404068706,20.501075042393825,-4.754903062819538,-9.103520491699514,-42.78764929337801,21.70520247218594,-12.307028603069062,-0.469023,0.17108099999999993,-0.775775,0.213547,-0.021777999999999964,-0.896966,0.68257,0.1928589999999999,0.12119100000000005,0.0,0.5,flight,-0.775775
133,1.108333,jog,1.8055922236889645,-0.7635905436217527,-0.49105964238569805,-1.4389304573969512,-0.6949755893309881,0.41882042270089076,1.9757590303612367,-1.27133085323414,0.7163086523461006,0.2582503300132047,-0.5483019320772935,-0.8180727229089243,-9.389551149062585,3.4418753445179466,-14.775582022921933,27.967037318245882,-6.782942624559668,-8.338267048020196,-31.005680404821643,10.282422577350765,-15.495639626379687,-0.467605,0.16684999999999994,-0.765714,0.200653,-0.019984000000000002,-0.899691,0.668258,0.18683399999999994,0.133977,0.0,0.5,flight,-0.765714
134,1.116667,jog,1.7942164626829709,-0.7529397648188124,-0.6131509479241685,-0.7590411243437538,-1.6669421316117243,0.12292774552921602,2.05315574754018,-1.2762179025677822,0.6597072234221215,-0.014158867290617482,-0.3446124310055152,-0.7829373650107927,-1.3649821221494605,1.2779912170554615,-14.64978468184179,9.286863112424113,-0.5863990081164038,-6.791628140626193,-32.68648875735782,24.440784865823943,4.215905675321735,-0.465447,0.162489,-0.7551059999999999,0.185582,-0.016580999999999957,-0.901106,0.651029,0.17906999999999995,0.14600000000000002,0.0,0.5,flight,-0.7551059999999999
135,1.125,jog,1.8066722668906903,-0.6819872794911851,-0.6974678987159464,-0.5896168077495224,-1.0128389961526956,0.2500026940106444,2.206168246729884,-1.3200528021120976,0.5879035161406494,-0.15516620664826597,-0.1106444257770295,-0.5502220088803601,1.4947562951781503,8.514638824868351,-10.118438832566746,18.362234392140355,-5.2603983612523475,-8.616789545358547,-16.921557585221382,28.077283718767294,27.92695981404473,-0.46211800000000003,0.15717199999999998,-0.744395,0.16923400000000002,-0.011819999999999942,-0.899879,0.631352,0.16899199999999992,0.15548399999999996,0.0,0.5,flight,-0.744395
136,1.133333,jog,1.7178687147486082,-0.6581063242529681,-0.6345853834153509,-1.0119359487163375,-1.7102808203636384,0.18938313310911772,2.3728549141965942,-1.415336613464548,0.5647425897035918,-0.0944437777511121,-0.06252250090003582,-0.31573262930517526,-10.656852531151186,2.8658292617565344,7.5462036842189,20.00320022401437,-11.434514742883861,-2.779422349340909,7.28698294697641,5.774861979718484,28.13985114306816,-0.45666,0.15086199999999994,-0.734401,0.154132,-0.006857000000000002,-0.897222,0.610792,0.15771899999999994,0.162821,0.0,0.5,flight,-0.734401
137,1.141667,jog,1.657787377009826,-0.624070074394045,-0.7630189584833159,0.020280149550484922,-1.293004009262304,0.42274656760288154,2.564074874010056,-1.5273578113750772,0.5227981761459043,0.16474682025437998,-0.05015598752100147,-0.16918646508279228,-7.209183793950308,4.08402326120984,-15.41079614446413,22.94455961284622,-13.441468431788861,-5.032926992763043,31.100383729960413,1.4838628964523943,17.58413297604774,-0.44910700000000003,0.14333399999999996,-0.7236849999999999,0.141689,-0.0020740000000000203,-0.892273,0.5907960000000001,0.14540799999999998,0.16858800000000007,0.0,0.5976416818191819,single,-0.7236849999999999
138,1.15,jog,1.5876635065402784,-0.635905436217461,-0.733349333973363,0.44524574399461325,-2.16733508576445,0.35869993658753313,2.7125885035401747,-1.5869434777391258,0.4221768870754894,0.24684987399496244,-0.14472578903156744,-0.17064682587303645,-8.41520106438835,-1.420300230819158,3.560497361088826,17.822348437551895,-7.1505659863253515,-12.075037689957497,9.852760559292358,-11.348830134473397,-0.17525030484149562,-0.439733,0.135409,-0.714056,0.130516,0.002018999999999993,-0.8875839999999999,0.570249,0.13339,0.1735279999999999,0.0,0.5,flight,-0.714056
139,1.158333,jog,1.5917436697467617,-0.681987279491167,-0.7094683787351403,0.6802780494865585,-2.094877026852929,0.5976724090138348,2.8984759390375086,-1.668306732269258,0.3102124084963349,0.16992679707187996,-0.17928717148685577,-0.18816752670106474,0.48963917034480126,-5.5300423945404065,2.8658292617571375,22.30738455506188,-9.763981102859802,-13.436274880493523,-9.231138476308788,-4.147531795906364,-2.102568202091441,-0.428844,0.12719000000000003,-0.7055589999999999,0.118668,0.006207999999999991,-0.8832399999999999,0.547512,0.12098200000000003,0.17768099999999998,0.0,0.5,flight,-0.7055589999999999
140,1.166667,jog,1.64314854811618,-0.7086633069354547,-0.5172786177105875,1.7882673715405173,-5.276811524619234,-0.19268439728747314,3.0603551715863313,-1.760019198464158,0.24046076313895082,0.16318694504439957,-0.24886009119271174,-0.11375089992800762,6.168091956973758,-3.2008672239366645,23.060926448830877,19.423953989539935,-11.004615574142282,-8.369527880655799,-0.8087175458939916,-8.348082518101426,8.9292808702974,-0.417033,0.11842799999999998,-0.699244,0.10633400000000001,0.010039999999999938,-0.879877,0.523367,0.10838800000000004,0.18063300000000004,0.0,0.5,flight,-0.699244
141,1.175,jog,1.6019440777630825,-0.6587063482539279,-0.7601104044161574,1.53058425407163,-2.218815617827552,0.693339366861758,3.199447977919053,-1.854674186967446,0.1748469938797538,0.11880475219008443,-0.2324492979719108,-0.06960278411136372,-4.944734231740895,5.995074844776893,-29.140980043869636,16.691804432103595,-11.359052982513651,-7.873967269794296,-5.326076185565145,1.9693739614545365,5.297985817429872,-0.40372100000000005,0.10846200000000006,-0.6914530000000001,0.093975,0.013592000000000048,-0.8741230000000001,0.497696,0.09487000000000001,0.18267,0.0,0.5497167779341705,single,-0.6914530000000001
142,1.183333,jog,1.5126605064202712,-0.5491419656786218,-0.7255490219608846,1.2090288613519224,-1.6908163441096997,1.3133523548653323,3.4190567622705275,-2.0009600384015505,0.13332533301332186,-0.04512180487219713,-0.068282731309258,-0.01632065282611286,-10.714457139423029,13.148251839110417,4.147531795904616,26.354108286508637,-17.555004372267597,-4.982798615916515,-19.671973726423026,19.70077603055974,6.394111518690909,-0.38783500000000004,0.096364,-0.684296,0.08099399999999998,0.01759899999999992,-0.868213,0.468829,0.07876500000000008,0.183917,0.0,0.8609069817767075,single,-0.684296
143,1.191667,jog,1.566474682025424,-0.6364290856731517,-0.6256299496040332,0.25681022640915163,-1.8882008441045781,0.7908962962083728,3.4118070554355344,-1.9073674106071394,0.017878569714420606,-0.08183345332373206,-0.03299736021117256,-0.01715862730981476,6.457184497858469,-10.473616510022703,11.989329536459158,-0.8698952285808719,11.230216917975799,-13.852503395596397,-4.405045410551313,4.233905819304675,-0.10054889413269659,-0.372456,0.08577200000000007,-0.678933,0.06725700000000001,0.022628000000000092,-0.863142,0.439713,0.06314399999999998,0.18420899999999996,0.0,0.8501856857181157,single,-0.678933
144,1.2,jog,1.5671426857074444,-0.6404656186247418,-0.7580703228129215,1.1245881250464473,-0.993305658481465,0.5990709065363976,3.771750870034844,-2.137045481819298,-0.1006840273610928,-0.08760350414016742,-0.04488179527182286,-0.025321012840514193,0.08016364838837914,-0.484403330324032,-15.89348052428772,43.19498555133961,-27.562471044301038,-14.22808077229263,-0.6924337953240628,-1.4261892548482424,-0.9795254447017291,-0.354085,0.07330099999999995,-0.6734549999999999,0.05346799999999999,0.02759099999999992,-0.857036,0.40755299999999994,0.04571000000000003,0.1835810000000001,0.0,0.8306064479145315,single,-0.6734549999999999
145,1.208333,jog,1.5789031561262177,-0.7317892715708557,-0.7711508460338197,2.0887291847601173,0.8449991138118854,0.43577663705827807,3.7111484459377704,-2.063122524900958,-0.19428777151085816,0.017160686427457307,-0.08508340333612711,-0.02556102244089694,1.4113129027688773,-10.959276724602459,-1.569725575530771,-7.272581794920517,8.871109674587595,-11.232898613916202,12.572205756345001,-4.8243859431541525,-0.02880230413809458,-0.336317,0.06220700000000001,-0.668648,0.04045399999999999,0.03298000000000001,-0.850823,0.37677099999999997,0.029227000000000003,0.18217499999999998,0.0,0.8491962225076753,single,-0.668648
146,1.216667,jog,1.6605471562275322,-0.623830093592519,-0.6270698344132666,0.4541230472059346,1.061979038784217,0.4317802136275307,3.6718262538997566,-2.0572354211663417,-0.34593232541397306,-0.0017998560115175823,-0.01571874250059932,-0.023278137748980493,9.796496292454538,12.954065032198082,17.288338327400506,-4.718285581715207,0.7063959364790664,-18.195890797110366,-2.2750830860301474,8.32309345278727,0.2739242490900516,-0.31955500000000003,0.050261,-0.6663049999999999,0.026600000000000013,0.03804799999999997,-0.845791,0.346155,0.01221300000000003,0.17948600000000003,0.0,0.9530902152909185,single,-0.6663049999999999
147,1.225,jog,1.5911436457458012,-0.6361454458178216,-0.330373214928592,1.3359736450142548,-0.6380473078403816,0.38156784387855003,3.69794791791665,-2.102964118564704,-0.43849753990158724,-0.033241329653185485,0.004800192007685024,-0.013080523220929199,-8.328754407983892,-1.477901383091618,35.60501853890188,3.134725071029983,-5.4876631943311365,-11.10827006931628,-3.7731277621105668,2.462370635819511,1.2237626938738888,-0.301999,0.038038000000000016,-0.667206,0.01306400000000002,0.04338900000000001,-0.843147,0.31506300000000004,0.005350999999999995,0.17594100000000001,0.0,0.9399276378912792,single,-0.667206
148,1.233333,jog,1.6515060602424243,-0.6396255850234136,-0.4741389655586179,-0.20013777276522313,0.6475744796036945,-0.1033075683060798,3.8291131645266216,-2.222608904356196,-0.5855034201368134,-0.004200168006721177,-0.029401176047048238,-0.008400336013440689,7.243779490774464,-0.41763341000744186,-17.252580178810415,15.740459211565216,-14.357948612923684,-17.641411284678693,3.485078800727778,-4.104328339701617,0.5616449306958541,-0.28385299999999997,0.024847000000000063,-0.668134,-0.0007329999999999837,0.04847400000000002,-0.8392660000000001,0.28312,0.023626999999999954,0.17113200000000006,0.0,0.9485586577478529,single,-0.668134
149,1.241667,jog,1.6456683465322655,-0.6628269738420843,-0.3563714902807782,-0.19818497512104627,0.23088232333169598,0.15621507862632605,3.8651307895368032,-2.2090232781377366,-0.6696664266858603,0.014038876889849424,-0.02939764818813749,-0.017398608111350876,-0.7004696076504437,-2.7839439427250485,14.130966556016176,4.321769259680981,1.630144734636329,-10.098752885654692,2.1885103067639142,0.0004233092045533658,-1.0797062752471944,-0.26535600000000004,0.011961,-0.670745,-0.014330999999999983,0.05375300000000005,-0.836441,0.25102500000000005,0.04179200000000005,0.16569599999999995,0.0,0.9384455221519132,single,-0.670745
150,1.25,jog,1.6314652586103606,-0.6404656186247552,-0.28021120844833763,-0.6204655577045061,0.1033712733158453,0.10653845064973198,4.0004800192008085,-2.2872914916596834,-0.7758310332413366,0.029401176047041577,0.0045601824072942325,-0.015240609624384536,-1.7044387281777227,2.6834699648781215,9.139599403869106,16.242557261971264,-9.392561325086705,-12.740262397153161,1.843549640848709,4.075102675558867,0.2589701772430529,-0.24561499999999997,-0.0017619999999999303,-0.6748750000000001,-0.027680999999999997,0.05912800000000007,-0.834233,0.217934,0.06089,0.1593579999999999,0.0,0.9442849362514996,single,-0.6748750000000001
151,1.258333,jog,1.6117844713788698,-0.6572662906516266,-0.17256690267611466,-0.5379881214315441,-0.32576262557309993,0.28221118261928846,4.047641905676265,-2.24672986919479,-0.8385935437417567,0.008280331213246894,-0.008160326413064758,0.0010800432017274938,-2.3617889393364915,-2.016161289676175,12.917833406003115,5.659652763165371,4.86758939936321,-7.531802532151759,-2.534602764165952,-1.526522119327866,1.9585566814007176,-0.225317,-0.015006999999999993,-0.6804250000000001,-0.04104300000000001,0.06453699999999996,-0.832786,0.18427399999999997,0.07954399999999995,0.15236099999999997,0.0,0.9805405474635625,single,-0.6804250000000001
152,1.266667,jog,1.5968322534197144,-0.6577873770098326,-0.08831293496519718,-0.6067754633838749,-0.18324177423847993,0.46649649939289295,4.100431965442728,-2.341492680585539,-0.8717302615790663,-0.01979841612670953,-0.036237101031906783,0.024958003359731012,-1.7941226252886193,-0.06252536095584597,10.109667351921866,6.33430042794125,-11.370627716672464,-3.9760880534328527,-3.3691801463830346,-3.3689434387859145,2.86512600887969,-0.20445200000000002,-0.029039000000000037,-0.6869540000000001,-0.05451600000000001,0.06971700000000003,-0.8318420000000001,0.149936,0.09875600000000007,0.14488800000000002,0.0,0.9195842970001209,single,-0.6869540000000001
153,1.275,jog,1.6510260410416575,-0.6456258250330134,0.017760710428408415,-0.787123497542366,-0.3424015781658949,0.4395906936236889,4.1980079203168525,-2.2958118324733143,-0.9966398655946337,0.001200048001921288,-0.036481459258380505,0.018360734429377384,6.503514655219447,1.459444615002921,12.729346621097632,11.709582968213791,5.481921050309043,-14.989752071951102,2.519916492095405,-0.029324160143252613,-0.7917039398000345,-0.183228,-0.04278999999999994,-0.695407,-0.068264,0.074793,-0.8318369999999999,0.11496400000000001,0.11758299999999994,0.13642999999999994,0.0,0.9319017549252488,single,-0.695407
154,1.283333,jog,1.7001080043201429,-0.6458658346333738,0.10704428177126944,-0.9069804719621792,-0.13551101381991068,0.4645751665171223,4.265570622824841,-2.210368414736553,-1.0946837873514739,0.00948037921516793,-0.04164166566662428,0.02676107044281736,5.89007119626599,-0.028802304135414535,10.714457139428712,8.107848614903055,10.25362027322211,-11.765741240470234,0.9936794927692904,-0.6192495389708007,1.008080644838573,-0.16185,-0.05582699999999996,-0.705421,-0.08235200000000001,0.07982800000000001,-0.832506,0.07949799999999999,0.13565499999999997,0.127085,0.0,0.9160016402144308,single,-0.705421
155,1.291667,jog,1.6876649868010873,-0.7003839692824685,0.17206623470123272,-0.7706251760599194,0.15738360037166121,0.4475451885732715,4.353611711063196,-2.23494120470367,-1.0482361411087304,0.006359491240700564,-0.049676025917930564,0.0643148548116165,-1.4930426588739811,-6.541652825665437,7.8020101907804795,10.564085461765846,-2.948498916140816,5.573271687394328,-0.37447659880818635,-0.9640461064682552,4.506093636765041,-0.139632,-0.06861600000000001,-0.715591,-0.096364,0.08525099999999997,-0.833404,0.043268,0.15386699999999998,0.11781300000000006,0.0,0.8641431387525953,single,-0.715591
156,1.3,jog,1.7380295211808172,-0.7121084843393605,0.25189007560301513,-0.923480523300813,0.2799434596747644,0.6707588370874599,4.324012960518346,-2.161286451458017,-1.1060842433697158,-0.0009600384015370048,-0.07068282731308537,0.10320412816512475,6.043985885002879,-1.4069980867504832,9.57924407797684,-3.551992145067668,8.838923946436099,-6.942049953316254,-0.8783786922161815,-2.5209170040986963,4.666899478400045,-0.118083,-0.08069199999999999,-0.726907,-0.11085500000000001,0.09059600000000001,-0.834643,0.0072279999999999844,0.171288,0.10773600000000005,0.0,0.7915128846172225,single,-0.726907
157,1.308333,jog,1.7722308892355851,-0.7551902076083103,0.30205208208328505,-0.7989028608405392,0.51201450872716,0.5006611820799243,4.324852994119804,-2.1165246609864603,-1.0895235809432482,0.002880115204611091,-0.0703228129125142,0.08760350414016659,4.104328339705776,-5.170013592817745,6.01968156489504,0.10080806449751566,5.371629721775698,1.98735898553555,0.4608368662124242,0.043203456206788504,-1.8721497689857567,-0.096812,-0.092036,-0.7385029999999999,-0.125599,0.09630300000000003,-0.83643,0.028786999999999993,0.18833900000000003,0.0979270000000001,0.0,0.8127096207522446,single,-0.7385029999999999
158,1.316667,jog,1.8086153107751244,-0.8206143508519237,0.3686105111591134,-0.621754758282009,0.4303018858157356,0.3835688449396638,4.767098632109395,-2.174346052315798,-0.9509239260859077,-0.0045596352291828604,-0.0820734341252715,0.11027117830573424,4.365781322238897,-7.850269167700125,7.9863725792930005,53.06523134024326,-6.9380119185669615,16.63062813263012,-0.8926986361643742,-1.4099617485909781,2.7199033076034898,-0.072156,-0.10331800000000002,-0.7495,-0.14071,0.102458,-0.8385830000000001,0.068554,0.20577600000000001,0.08908300000000002,0.0,0.7707707865508029,single,-0.7495
159,1.325,jog,1.8498739949598153,-0.8287531501260154,0.4483379335173402,-0.9635491173485533,0.5187302982757974,0.06598156128133507,4.665306612264533,-2.147965918636765,-0.8942757710308478,-0.020760830433218296,-0.06252250090003582,0.1849273970958856,4.951240151769026,-0.9766949806902367,9.567673389922897,-12.215531002623694,3.165742671190813,6.7980505286284,-1.9442211933320033,2.346205835261714,8.959104619003005,-0.048695,-0.114311,-0.760688,-0.156298,0.10884300000000002,-0.840778,0.107603,0.22315400000000002,0.08009,0.0,0.6728141141842591,single,-0.760688
160,1.333333,jog,1.9123964958598008,-0.8509540381615133,0.4858994359774269,-0.6079215774635695,0.22193420957968235,-0.047575289459064585,4.658106324252889,-1.9858394335773093,-0.9745589823592777,0.016320652826112426,-0.016080643225724844,0.2523700948037878,7.503000228007243,-2.6642131327850143,4.507560597634233,-0.8640691241622269,19.45595644539216,-9.634370734240797,4.449955989359183,5.573245850751249,8.093447462846637,-0.025814999999999998,-0.12376799999999999,-0.7728579999999999,-0.172098,0.11580000000000007,-0.842724,0.146283,0.23956800000000006,0.0698660000000001,0.0,0.5776533297735391,single,-0.7728579999999999
161,1.341667,jog,1.940244780417604,-0.887808975281993,0.4932805375570019,-0.849812639312238,0.4956260100299111,-0.08136408789801433,4.7735781137509905,-1.9425245980321955,-0.8388528917686742,0.0286777057835399,-0.01427885769139591,0.343172546196311,3.3415268247904635,-4.42223867536362,0.8856613366420855,13.855506299268548,5.197364476255659,16.28342819661701,1.4827277366723914,0.2161969683620072,10.895422533300325,-0.0022020000000000026,-0.132558,-0.78396,-0.188029,0.12307999999999997,-0.8439749999999999,0.185827,0.255638,0.06001499999999993,0.0,0.5,flight,-0.78396
162,1.35,jog,1.9347173886955136,-0.9200768030721043,0.5700228009120304,-0.3887714160304171,0.591564781010074,-0.13548952145654067,4.7274690987638674,-1.8599543981758926,-0.7455898235929302,0.10080403216128224,0.004800192007685024,0.3936157446297781,-0.6633135391924017,-3.872294226582349,9.209439980202465,-5.533303130579893,9.908820335569594,11.192015861723544,8.655505385544352,2.2895775469915516,6.05342594905391,0.02107,-0.14039000000000001,-0.7949229999999999,-0.20331100000000002,0.130787,-0.845445,0.224381,0.271177,0.05052200000000007,0.0,0.5,flight,-0.7949229999999999
163,1.358333,jog,2.002040081603282,-0.9815192607704388,0.3924156966278681,-0.8240821982960963,1.9239486443134426,-0.17585797965068353,4.8205928237129925,-1.7850714028561272,-0.778711148445946,0.16740669626785312,0.013800552022078158,0.43573742949718414,8.07904631078471,-7.373389859394591,-21.31370506230216,11.175294005655331,8.986318891127574,-3.9747179710807727,7.992639398364513,1.0800864051833934,5.05480437626382,0.044557,-0.147086,-0.804682,-0.218599,0.13908099999999995,-0.845084,0.263156,0.28616699999999995,0.04040199999999994,0.09598000000000007,0.5,flight,-0.804682
164,1.366667,jog,2.0309575233981123,-1.0188384929205618,0.5676745860331179,-1.2090890565231893,0.5381997249041307,-0.3396429737907398,4.901487880969484,-1.7054235661147015,-0.7441804655627492,0.24106071514278804,0.006239500839938998,0.463642908567311,3.469815430145205,-4.477949622044963,21.029384377879587,9.70663034035173,9.556975850902942,4.1433504779453525,8.837775242972684,-0.9072535615717665,3.348389617245818,0.06848,-0.152808,-0.815615,-0.233516,0.14762400000000003,-0.845951,0.301996,0.30043200000000003,0.03033600000000003,0.1966400000000001,0.5,flight,-0.815615
165,1.375,jog,1.973238929557202,-0.9901596063842655,0.6825873034921491,0.3336790339756897,0.6465920760055089,0.07544818578313356,4.840153606144291,-1.6763470538821716,-0.632545301812078,0.30925237009480616,0.03168126725068203,0.5623424936997534,-6.926508321242159,3.4416040485175348,13.790077698191798,-7.360407395319072,3.489321040745241,13.396755520301475,8.183325927279341,3.053134094652978,11.844423992852914,0.09237,-0.158526,-0.826574,-0.247382,0.15613899999999997,-0.8469530000000001,0.339752,0.314665,0.020379000000000036,0.2962100000000001,0.5,flight,-0.826574
166,1.383333,jog,2.0015600624025143,-1.089643585743437,0.633145325813032,-0.3000218381880047,0.9261956979154645,-0.41443363464311617,4.833433337333538,-1.6314652586103555,-0.5222608904356215,0.39721588863554996,-0.009840393615734576,0.5790231609264419,3.398671888313045,-11.938555065303305,-5.933274652480215,-0.8064645158709816,5.386030873852938,13.234658751524963,10.55604446666802,-4.982798615914675,2.001760137608141,0.115968,-0.163041,-0.836202,-0.260751,0.16513700000000003,-0.847404,0.376719,0.328178,0.011202000000000045,0.38798,0.5,flight,-0.836202
167,1.391667,jog,2.0903527717782424,-1.080153587712976,0.6682265418766503,0.15772757216888592,0.3311543012977448,0.23097676780858867,5.048356131509437,-1.5345572354211574,-0.2894168466522653,0.43724502039836244,-0.05987520998320415,0.5711543076553832,10.654272783264634,1.138708666961957,4.209409174900179,25.788672207331082,11.628032540100477,27.939050129992133,4.803111562612451,-6.0036976682828405,-0.9441868575784287,0.14061999999999997,-0.166828,-0.844183,-0.274528,0.17364000000000002,-0.848213,0.41514799999999996,0.340468,0.004029999999999978,0.45969999999999994,0.5,flight,-0.844183
168,1.4,jog,2.0385215408616535,-1.1245649825993165,0.6234249369974796,-0.2703629184184476,0.7601196862372205,-0.14389501176967393,4.807392295691876,-1.5037801512060605,-0.22776911076443396,0.547101884075369,-0.07416296651866232,0.6026641065642679,-6.219996509851121,-5.329580569583691,-5.3764076418062094,-28.916816970786385,3.693397841725337,7.398024227508929,13.183350975279916,-1.7145993682297251,3.7813271221510876,0.163693,-0.16998799999999997,-0.851276,-0.286956,0.18239300000000003,-0.848386,0.450649,0.352381,0.002890000000000059,0.5,0.47109999999999996,flight,-0.848386
169,1.408333,jog,2.059522380895198,-1.1203648145925587,0.6500660026400948,0.027330823007720696,0.3925650101257602,-0.20283284939688517,4.715708628345051,-1.402976119044738,-0.12468498739949359,0.5870634825392922,-0.10980439217568501,0.6309852394095652,2.520201612089769,0.5040403224238266,3.1970557593441487,-11.002480180826105,12.096967738067997,12.370589627377722,4.795583639016263,-4.277142164529229,3.3986718883111426,0.18582700000000002,-0.17234300000000002,-0.8577319999999999,-0.299226,0.19081399999999998,-0.848545,0.485053,0.363157,0.009186999999999945,0.5,0.40813,flight,-0.848545
170,1.416667,jog,2.043316534677267,-1.097792176625893,0.6061915046796439,0.6231190454495484,0.5691880662460266,-0.1652609476581998,4.535637149028164,-1.3345332373410372,0.014878809695224558,0.6177105831533595,-0.09119270458363299,0.6904247660187327,-1.9445459824731695,2.7084998760098613,-5.264518593766713,-21.60684897010918,8.212488805339829,16.746315946090807,3.6773578850573387,2.2332238531380337,7.132172619290694,0.206598,-0.174316,-0.8626600000000001,-0.311107,0.19920300000000002,-0.847843,0.517705,0.37351900000000005,0.01481700000000008,0.5,0.35182999999999987,flight,-0.847843
171,1.425,jog,2.0644425777030717,-1.1034441377654924,0.5862234489379373,0.4733477607034523,0.6867618491839804,-0.26918255536636454,4.333973358934283,-1.2608904356174047,0.2059282371294827,0.6483859354374051,-0.11400456018240607,0.7190687627504971,2.53522657215943,-0.6782624672506227,-2.396262539506327,-24.20062283617884,8.837489706424012,22.926848366045217,3.6811895216662753,-2.737532173139647,3.4374171044958515,0.22551000000000002,-0.175628,-0.865829,-0.322907,0.20744800000000002,-0.8467359999999999,0.548417,0.383076,0.019093000000000027,0.5,0.30907,flight,-0.8467359999999999
172,1.433333,jog,2.0734429377175263,-1.1087243489739687,0.5220208808352473,0.047809986129834885,0.5263378726367343,-0.32717166864294983,4.130445217808748,-1.1963278531141328,0.2830913236529487,0.7161886475459085,-0.1194047761910449,0.7595103804152237,1.0800864051907682,-0.6336506910447934,-7.704616356977147,-24.424353909220763,7.74781981318522,9.259940780447224,8.136650919057246,-0.648051843110391,4.853188247297121,0.242651,-0.176358,-0.86782,-0.334217,0.21569200000000005,-0.844757,0.576868,0.39205,0.023063000000000056,0.5,0.26937,flight,-0.844757
173,1.441667,jog,2.07475401967841,-1.080153587712976,0.42020638348931827,0.6272057191730438,0.3763670644100256,-0.39945801291440397,3.8488120950323674,-1.143028557715375,0.3162946964242836,0.7966162706983387,-0.13162946964242936,0.8686105111591002,0.15731724992604842,3.428217093951578,-12.216762340524152,-33.793271271463674,6.395403815545654,3.9840860056797025,9.650542734872765,-1.4668458664968034,13.090968411792135,0.257436,-0.17688199999999998,-0.8686860000000001,-0.344869,0.22359700000000005,-0.8410200000000001,0.602305,0.40047900000000003,0.02766599999999997,0.5,0.22334000000000004,flight,-0.8410200000000001
174,1.45,jog,2.073322932917334,-1.0740429617184801,0.43729749189967765,0.6813619980536293,0.8035036704121535,-0.5468267839192771,3.5492619704788573,-1.0949237969518872,0.36229449177967377,0.8813152526101129,-0.17856714268571444,0.9745589823593037,-0.1717372808203351,0.7333044515175701,2.0510150498451383,-35.94745284453533,5.772802203706723,5.520196250496891,10.164284400789024,-5.632746075037263,12.714325117029226,0.26973500000000006,-0.17705599999999996,-0.8693110000000001,-0.35480199999999995,0.23105900000000001,-0.836543,0.624537,0.408115,0.03276800000000002,0.5,0.17231999999999997,flight,-0.836543
175,1.458333,jog,2.069962798511906,-1.0553222128884934,0.3664946597863852,0.34553186554407644,0.4818074511164074,-0.5247062003781053,3.2521300852033392,-1.0382815312612348,0.2756510260410377,0.8721948877954961,-0.23112924516980074,1.0255610224408778,-0.40323225794171524,2.246579722787283,-8.49667972078378,-35.65725252316247,6.79734377662924,-10.397631793907903,-1.0944875572562818,-6.307704606274497,6.120489629373954,0.27958599999999995,-0.17691400000000002,-0.8700680000000001,-0.36478299999999997,0.237927,-0.831051,0.644369,0.414841,0.03901700000000008,0.5,0.1098300000000002,flight,-0.831051
176,1.466667,jog,2.076673866090754,-1.0541156707463588,0.20602351811855066,0.21629920185607862,-0.057861563147779155,-0.505785561246009,2.9480441564675464,-0.9860811135109383,0.20830333573314383,1.145188384929227,-0.20110391168707015,1.198824094072497,0.8052636883667574,0.14477347517813557,-19.254996600412476,-36.487392456899286,6.263549046112009,-8.08107635083935,32.75659912811808,3.6027517977839167,20.789905403362436,0.286848,-0.17634700000000003,-0.870049,-0.37254600000000004,0.24503599999999998,-0.822777,0.659394,0.421383,0.04727199999999998,0.5,0.027280000000000082,flight,-0.822777
177,1.475,jog,2.0339613584543015,-1.0170406816272486,0.10428417136685389,0.26624806446634885,0.2356802618663524,-0.6809496572864575,2.6595463818552294,-0.9149165966638496,0.1303252130085185,1.017280691227631,-0.30925237009479123,1.0283211328452984,-5.125705944612023,4.449176661359603,-12.209209978602543,-34.62111779818936,8.540083624995493,-9.357749036916355,-15.34953722568027,-12.978334142291994,-20.46117379421525,0.292061,-0.175496,-0.869832,-0.381018,0.25093400000000005,-0.815077,0.673079,0.4264300000000001,0.054755,0.5,0.0,flight,-0.815077
178,1.483333,jog,2.036481459258387,-1.0109204368174805,0.025921036841473174,0.33161298677999757,-0.18196736775136632,-0.6767162909238126,2.4386175447018013,-0.841953678147133,-0.011760470418816964,1.1989679587183597,-0.30205208208329837,1.070202808112332,0.3024241934580132,0.7344587555224042,-9.403952301137817,-26.51252095924999,8.7559004580244,-17.050964049842406,21.80334423265694,0.8640691241441171,5.026002072126973,0.29541199999999995,-0.17408800000000002,-0.870146,-0.387997,0.25684099999999993,-0.8063750000000001,0.6834089999999999,0.43092899999999995,0.06377099999999991,0.5,0.0,flight,-0.8063750000000001
179,1.491667,jog,2.0319174466042567,-0.9814014878809677,-0.0772738180945492,0.3517180419145139,-0.31209697877510467,-0.842033605886665,2.230381569474431,-0.75761939044876,-0.17938564914806635,1.3959683225341872,-0.33885289176864847,1.1007919366450618,-0.5476377074790482,3.541990513140451,-12.382392000962513,-24.98631812183448,10.119304979406321,-20.113412374519807,23.638152605690667,-4.41574390272976,3.670401791784202,0.297066,-0.172223,-0.870997,-0.393297,0.26219600000000004,-0.796557,0.690363,0.434419,0.07444000000000006,0.5,0.0,flight,-0.796557
180,1.5,jog,2.0252010080403404,-0.9743189727589178,-0.1504860194407763,0.035981558737956054,-0.7032157384749527,-0.8614953264137626,2.0098403936157614,-0.6837873514940637,-0.2546501860074425,1.5895835833433476,-0.29485179407177065,1.129245169806803,-0.8060048678646705,0.8499358120784833,-8.7858155941711,-26.46599974303033,8.860199082526947,-9.032105707353514,23.234760687526958,5.280342937342881,3.4145245603913774,0.296938,-0.16980199999999998,-0.871865,-0.39692700000000003,0.267858,-0.7858930000000001,0.693865,0.43765999999999994,0.08597199999999994,0.5,0.0,flight,-0.7858930000000001
181,1.508333,jog,2.0129605184207566,-0.9575183007320397,-0.28657146285852375,-0.16789115336625476,-1.0290180412464773,-0.8724043787699729,1.8531141245650076,-0.6180247209888454,-0.3676947077883146,1.7121084843393894,-0.2810512420496792,1.1563662546501972,-1.4689175110505108,2.0161612896769743,-16.330906446387697,-18.80790460227472,7.891831333879617,-13.565885249114741,14.703576262575659,1.6561324879505086,3.254660367622046,0.29560600000000004,-0.16697299999999998,-0.872541,-0.399434,0.27349500000000004,-0.7738689999999999,0.6950400000000001,0.440468,0.09867200000000009,0.5,0.0,flight,-0.7738689999999999
182,1.516667,jog,2.0025197984161127,-0.9452843772498123,-0.3299736021118322,-0.15750768682044855,-0.8512177709596827,-0.866997259599624,1.739620830333548,-0.5477561795056354,-0.5044396448284099,1.8099352051835715,-0.33333333333333776,1.1437485001199799,-1.2527861776630467,1.4679533815967496,-5.207840083190318,-13.61810585930629,8.431550453948825,-16.408079798427433,11.738267439906569,-6.273349086112092,-1.514009422872234,0.2934149999999999,-0.16365999999999997,-0.873995,-0.40103900000000003,0.278595,-0.761587,0.6944539999999999,0.44225499999999995,0.11240799999999995,0.5,0.0,flight,-0.761587
183,1.525,jog,1.9933997359894562,-0.9156366254650233,-0.4622584903396138,-0.33807967643816633,-1.2920276249941463,-0.8853338385228418,1.6050642025681205,-0.4737789511580515,-0.5888635545421881,2.0271210848434125,-0.354134165366609,1.1177247089883684,-1.0944512692495634,3.5578725290758704,-15.874821580197146,-16.147441229500632,8.877622506610408,-10.131274416630145,26.063348093104874,-2.496199691980254,-3.1229798549876033,0.29017899999999996,-0.159978,-0.87505,-0.400758,0.283274,-0.748421,0.690937,0.44325200000000003,0.126629,0.5,0.0,flight,-0.748421
184,1.533333,jog,2.0225609024360596,-0.9541581663266346,-0.5891035641425484,-0.5668597156827226,-1.6407878511324117,-0.915567081090451,1.264130565222592,-0.4056162246489782,-0.7183487339493444,2.1622464898595566,-0.44689787591503605,1.056522260890418,3.4994799527904563,-4.622769814185843,-15.222017737061366,-40.91367302838384,8.17985437526367,-15.538843082581788,16.215697229826205,-11.132090549433025,-7.344587555256142,0.28385900000000003,-0.15540700000000002,-0.8761270000000001,-0.399594,0.28750099999999995,-0.734708,0.683453,0.44290799999999997,0.14141900000000007,0.5,0.0,flight,-0.734708
185,1.541667,jog,2.0073194144468816,-0.8988480921526479,-0.6587473002159946,-0.41148191524808087,-1.774738852355099,-0.95255275839984,1.1316294696424463,-0.20938324934005803,-0.970122390208802,2.241540676745903,-0.4245260379169663,0.9842812574994206,-1.828832252121227,6.636677966641199,-8.35657980242951,-15.898859560852927,23.546073351202768,-30.210421917382092,9.514541263060702,2.684405807303836,-8.668226948763936,0.276561,-0.149661,-0.878722,-0.397642,0.29145400000000005,-0.7210150000000001,0.674203,0.44111500000000003,0.15770699999999993,0.5,0.0,flight,-0.7210150000000001
186,1.55,jog,1.9541581663266214,-0.9000360014400427,-0.7280691227649032,-0.2296460339200041,-1.1944505903675666,-0.9968402045766784,0.6213848553942068,0.045241809672386384,-1.1851674066962474,2.3530541221648456,-0.4730589223568861,0.8942757710308239,-6.379604958629449,-0.1425548166800361,-8.318951463927446,-61.23180298190693,30.55622933066602,-25.806434235862437,13.382148736222325,-5.824179099954275,-10.801090419848213,0.265455,-0.141784,-0.882531,-0.394318,0.29501200000000005,-0.707496,0.6597729999999999,0.4367960000000001,0.17503499999999994,0.5,0.0,flight,-0.707496
187,1.558333,jog,1.8948757950318218,-0.9198367934717445,-0.7916716668666776,-0.2879376149325389,-1.7534170917342262,-0.9408794249116925,0.08064322572903061,0.2485299411976506,-0.9535581423257019,2.5197407896316086,-0.5958238329533232,0.8156726269050834,-7.114169122140906,-2.376190091407896,-7.632610596636857,-64.89159122347068,24.39555160509613,27.794223493405454,20.003200224020713,-14.732378566715251,-9.432754605273162,0.250337,-0.132048,-0.88388,-0.38911100000000004,0.29771200000000003,-0.694102,0.639448,0.42976000000000003,0.189778,0.5,0.0,flight,-0.694102
188,1.566667,jog,1.854451643868476,-0.823374130069589,-0.8730501559875216,-0.2899063824382676,-2.0507064888878133,-1.1177618768707278,0.036837053035750404,0.0677945764338843,-0.46400287976961435,2.705663546916226,-0.6730261579073726,0.7464602831773406,-4.8505100987935625,11.574593640767308,-9.764637523499326,-5.256320217576179,-21.686508850943714,58.74193215215789,22.30894615846124,-9.263537911452946,-8.30481686198011,0.23518899999999993,-0.12462100000000001,-0.880471,-0.38201700000000005,0.2989649999999999,-0.680605,0.6172059999999999,0.42358599999999996,0.199866,0.5,0.0,flight,-0.680605
189,1.575,jog,1.8101524060962522,-0.9132365294611875,-0.9057962318492822,-1.136274842874628,-2.7306300044474217,-1.3142030279096324,0.38257530301213355,0.02952118084723537,-0.1808472338893574,2.901356054242197,-0.7676707068282784,0.6321852874115016,-5.3161211775140025,-10.783919283763264,-3.9296862908629415,41.490249607150645,-4.592991190045515,33.98003670709944,23.484040240726337,-11.3578001825161,-13.713548033822157,0.22329300000000007,-0.116765,-0.87443,-0.3729239999999999,0.30017799999999994,-0.667789,0.596217,0.41694299999999995,0.20664100000000007,0.5,0.0,flight,-0.667789
190,1.583333,jog,1.673346933877334,-0.8438737549501845,-0.9057962318492581,-0.8981863828076225,-1.947530398230176,-1.1388726191437821,0.34237369494779124,-0.00828033121324834,-0.0596423856954273,3.0769230769230225,-0.8124324972998709,0.5209408376334976,-16.417313358804254,8.323865895956057,2.8911364015799203e-12,-4.824385943158719,-4.536362901774037,14.54516358981495,21.0688854771178,-5.371629721779872,-13.349867968078964,0.212202,-0.10980199999999998,-0.867379,-0.361228,0.30044000000000004,-0.6558999999999999,0.57343,0.410242,0.21147900000000008,0.5,0.0,flight,-0.6558999999999999
191,1.591667,jog,1.6427885769138793,-0.7950563954883753,-0.9354451643868699,-1.2550844416056541,-1.6761759348455538,-1.2543963049469171,0.18466522678185582,-0.0023998080153595515,-0.05591552675785974,3.1805855531558085,-0.8790496760259412,0.39848812095033376,-3.66670949885472,5.857614526255116,-3.557587297529682,-18.923502299728632,0.7056063352398487,0.4471872975243135,12.438502067769138,-7.99342197337072,-14.69315054993595,0.20004999999999995,-0.103196,-0.860049,-0.34841200000000005,0.29974,-0.6447829999999999,0.548462,0.40293599999999996,0.21526600000000007,0.6784000449423324,0.0,single,-0.6447829999999999
192,1.6,jog,1.64094563782548,-0.6996279851193927,-0.904836193447721,-1.222640508248747,-1.03128556152949,-1.1613397961826057,0.09072362894515369,-0.036361454458177414,-0.05736229449177858,3.445577823112863,-1.1404056162246203,0.34717388695546963,-0.2211615370693787,11.451867318970463,3.6732234416354603,-11.273442678111183,-4.075560595561895,-0.17361907283317074,31.800344408622315,-31.36396738253625,-6.1579543975594895,0.18713199999999997,-0.09766899999999999,-0.8529869999999999,-0.333374,0.2960670000000001,-0.63435,0.5205059999999999,0.39373600000000003,0.21863699999999997,0.8111190480116174,0.0,single,-0.63435
