frame_id,timestamp,gait_type,root_linear_velocity_x,root_linear_velocity_y,root_linear_velocity_z,root_angular_velocity_x,root_angular_velocity_y,root_angular_velocity_z,left_linear_velocity_x,left_linear_velocity_y,left_linear_velocity_z,right_linear_velocity_x,right_linear_velocity_y,right_linear_velocity_z,root_acceleration_x,root_acceleration_y,root_acceleration_z,left_acceleration_x,left_acceleration_y,left_acceleration_z,right_acceleration_x,right_acceleration_y,right_acceleration_z,left_pos_rel_x,left_pos_rel_y,left_pos_rel_z,right_pos_rel_x,right_pos_rel_y,right_pos_rel_z,step_length,step_width,step_height,left_contact_prob,right_contact_prob,support_type,max_foot_height
1,0.008333,jog,0.0,0.0,0.0,0.0,0.0,0.0,-0.007560302412087391,-0.007080283211332203,-0.0009600384015361888,0.01032041281651632,-0.0031201248049886584,0.010200408016320446,0.0,0.0,0.0,0.0,0.0,0.0,0.0,0.0,0.0,0.3179850000000002,-0.054311000000000054,-0.021700999999999998,0.21573600000000015,0.19487100000000002,-0.016068,0.10224900000000003,0.24918200000000007,0.005632999999999999,0.9826626401593976,0.9189328022335326,double,-0.016068
2,0.016667,jog,0.0,0.0,0.0,0.0,0.0,0.0,-0.008759299256058282,-0.009959203263732208,-0.0025197984161267318,0.016198704103671253,-0.0019198464122889367,0.01511879049676039,0.0,0.0,0.0,-0.14386811182756074,-0.3454427708663312,-0.18715622925252495,0.7053385273764017,0.14402188537313673,0.5901586849579965,0.3179120000000002,-0.054394,-0.021721999999999998,0.21587100000000015,0.194855,-0.015941999999999998,0.10204100000000005,0.249249,0.00578,0.9774993557398761,0.9051316827791798,double,-0.015941999999999998
3,0.025,jog,0.0,0.0,0.0,0.0,0.0,0.0,-0.00888035521422411,-0.010200408016320862,-0.003720148805952211,0.02364094563782584,-0.005640225609026671,0.0208808352334094,0.0,0.0,0.0,-0.014527296071742236,-0.02894572813976415,-0.14404780869140518,0.8931047082868819,-0.4464633621430138,0.691473027318974,0.31783800000000006,-0.054479,-0.021752999999999998,0.21606800000000015,0.19480799999999998,-0.015767999999999997,0.10176999999999992,0.24928699999999998,0.005985000000000001,0.9766221531995776,0.8867459912133059,double,-0.015767999999999997
4,0.033333,jog,0.0,0.0,0.0,0.0,0.0,0.0,-0.013200528021127384,-0.006840273610941286,-0.005280211208448206,0.038761550462000624,-0.003240129605184117,0.022680907236289235,0.0,0.0,0.0,-0.5184414744873723,0.4032322579358666,-0.1872149768985953,1.8145451607074023,0.28802304138276175,0.21601728103682166,0.317728,-0.05453599999999997,-0.021796999999999997,0.216391,0.19478099999999998,-0.015578999999999999,0.10133700000000001,0.24931699999999996,0.006217999999999998,0.9737044620644633,0.8627759428080601,double,-0.015578999999999999
5,0.041667,jog,0.0,0.0,0.0,0.0,0.0,0.0,-0.014878809695225939,-0.006839452843782668,-0.008399328053755772,0.0521958243340755,-0.005279577633787915,0.025797936165106776,0.0,0.0,0.0,-0.20137769067657244,9.84841802997619e-05,-0.374264080310483,1.6119839059365098,-0.24471418629755196,0.37401355037407497,0.317604,-0.05459300000000006,-0.021866999999999998,0.21682600000000019,0.194737,-0.015364,0.10077799999999981,0.24933000000000005,0.006502999999999998,0.9693267305611908,0.8375332466063272,double,-0.015364
6,0.05,jog,0.0,0.0,0.0,0.0,0.0,0.0,-0.01392055682227349,-0.002760110404415606,-0.009120364814592545,0.07380295211806194,-0.015000600023999307,0.04260170406816286,0.0,0.0,0.0,0.11499494455207604,0.48954067435102144,-0.08652787241530942,2.5929590524404706,-1.166569349599351,2.0165328096791173,0.317488,-0.05461600000000005,-0.021942999999999997,0.217441,0.194612,-0.015008999999999998,0.100047,0.24922800000000006,0.006933999999999999,0.9718841105601415,0.7864495159850995,double,-0.015008999999999998
7,0.058333,jog,0.0,0.0,0.0,0.0,0.0,0.0,-0.01776071042839493,-0.0009600384015370216,-0.010320412816512988,0.09864394575784237,-0.02424096963878981,0.04968198727949132,0.0,0.0,0.0,-0.4608368662092212,0.21601728103667162,-0.14401152069128087,2.981038478312784,-1.1088887093232334,0.8496679720782985,0.3173400000000002,-0.05462400000000006,-0.022029,0.2182630000000001,0.19440999999999997,-0.014594999999999997,0.09907700000000008,0.24903400000000003,0.007434000000000003,0.9657267747295937,0.7371972678769353,double,-0.014594999999999997
8,0.066667,jog,0.0,0.0,0.0,0.0,0.0,0.0,-0.02039836813054997,-0.0027597792176620164,-0.011039116870650147,0.1579073674106185,-0.012119030477557262,0.06947444204463638,0.0,0.0,0.0,-0.3164936047702232,-0.21595162180525493,-0.0862375874894599,7.1110417149959355,1.4545163380408623,2.3749045794510497,0.3171700000000002,-0.05464700000000006,-0.022121,0.2195790000000002,0.194309,-0.014015999999999997,0.09759099999999998,0.24895600000000007,0.008105000000000001,0.9610708654874174,0.6307163675279993,double,-0.014015999999999997
9,0.075,jog,0.0,0.0,0.0,0.0,0.0,0.0,-0.015240609624383577,0.0022800912036604203,-0.009360374414976808,0.12180487219488648,-0.05436217448698393,0.21156846273850938,0.0,0.0,0.0,0.6189557789711266,0.6048086429044092,0.2014571529669196,-4.332472724796839,-5.069380056333458,17.05196456184725,0.3170430000000002,-0.054627999999999954,-0.022199,0.22059400000000018,0.19385599999999997,-0.012253,0.09644900000000001,0.24848399999999993,0.009946,0.9699495051432678,0.4836970795088196,single,-0.012253
10,0.083333,jog,0.0,0.0,0.0,0.0,0.0,0.0,-0.014040561622482258,0.013440537621504968,-0.019320772830912974,0.15996639865594953,-0.06348253930157222,0.17856714268570767,0.0,0.0,0.0,0.1440115206889856,1.3393071424270417,-1.1952956217372084,4.579566357981881,-1.0944875572528834,-3.960316819008962,0.31692600000000004,-0.05451599999999995,-0.022359999999999998,0.2219270000000002,0.19332699999999997,-0.010764999999999997,0.09499899999999983,0.24784299999999992,0.011595000000000001,0.9543236724022669,0.4707116064084359,single,-0.010764999999999997
11,0.091667,jog,0.0,0.0,0.0,0.0,0.0,0.0,-0.010319174466046382,0.008039356851443278,-0.014158867290616767,0.17422606191502132,-0.09647228221741924,0.1946244300455963,0.0,0.0,0.0,0.44653073631340034,-0.6480898452197856,0.6193791145063847,1.711022709271875,-3.9584524737037494,1.9267203455589914,0.31684,-0.054449000000000025,-0.022477999999999998,0.223379,0.192523,-0.009142999999999998,0.09346100000000002,0.24697200000000002,0.013335,0.9678722107480295,0.4025490451743541,single,-0.009142999999999998
12,0.1,jog,0.0,0.0,0.0,0.0,0.0,0.0,-0.009600384015343561,0.005040201608062698,-0.009600384015360631,0.18228729149166528,-0.13980559222369207,0.22956918276731025,0.0,0.0,0.0,0.08625830441651511,-0.3599130257266984,0.5470398746257209,0.96738624464706,-5.200205208961093,4.193538068128397,0.31676000000000015,-0.05440700000000004,-0.022557999999999998,0.22489800000000004,0.19135799999999997,-0.00723,0.09186200000000011,0.245765,0.015327999999999998,0.9758627547637373,0.34672000000000003,single,-0.00723
13,0.108333,jog,0.0,0.0,0.0,0.0,0.0,0.0,-0.007080283211332209,0.005280211208453623,-0.011400456018240898,0.21264850594025062,-0.14748589943597518,0.29701188047521987,0.0,0.0,0.0,0.3024241934491005,0.028802304139076654,-0.2160172810368737,3.6434914734891826,-0.9216737324232703,8.093447462847674,0.3167010000000001,-0.054362999999999995,-0.022653,0.22667000000000015,0.190129,-0.004754999999999995,0.09003099999999997,0.244492,0.017898000000000004,0.9759640640462385,0.32101999999999997,single,-0.004754999999999995
14,0.116667,jog,0.0,0.0,0.0,0.0,0.0,0.0,-0.006359491240710428,0.0037197024238064817,-0.008879289656827166,0.24298056155506859,-0.3592512598992073,0.19726421886249076,0.0,0.0,0.0,0.08648811742521961,-0.18724607447169905,0.30251576210867887,3.639555509337406,-25.40981047075017,-11.968761892576074,0.31664800000000004,-0.05433199999999999,-0.022726999999999997,0.2286950000000001,0.187135,-0.0031109999999999957,0.08795299999999995,0.241467,0.019616,0.9807703137648971,0.30384,single,-0.0031109999999999957
15,0.125,jog,0.0,0.0,0.0,0.0,0.0,0.0,-0.004560182407294194,0.0016800672026831276,-0.008520340813632746,0.301212048481941,-0.22908916356654213,0.31897275891035676,0.0,0.0,0.0,0.21592569703782977,-0.2447660171754897,0.043075584206698714,6.988057953542837,15.620076362974354,14.605609030105136,0.31661000000000006,-0.05431800000000003,-0.022798,0.2312050000000001,0.185226,-0.0004529999999999951,0.08540499999999995,0.23954400000000003,0.022345000000000004,0.9836518692052354,0.27654999999999996,single,-0.0004529999999999951
16,0.133333,jog,0.0,0.0,0.0,0.0,0.0,0.0,-0.0024000960038292286,0.0001200048001954584,-0.006480259210368228,0.3672146885875507,-0.22524900996040034,0.31117244689787543,0.0,0.0,0.0,0.2592207372452855,-0.18721497689759603,0.24481958517514887,7.920633638018677,0.4608368662116627,-0.9360748844931379,0.31659000000000015,-0.054317000000000004,-0.022851999999999997,0.23426500000000017,0.18334899999999998,0.002140000000000003,0.08232499999999998,0.237666,0.024992,0.9884808587543712,0.25007999999999997,single,0.002140000000000003
17,0.141667,jog,0.0,0.0,0.0,0.0,0.0,0.0,0.0035997120230351048,-0.0032397408207342584,-0.005039596832253476,0.41420686345092617,-0.26661867050636034,0.28797696184305316,0.0,0.0,0.0,0.7199193696741478,-0.40313722353368425,0.17286565612128102,5.638609894813486,-4.963962148543328,-2.7832355477348605,0.3166200000000001,-0.054344,-0.022893999999999998,0.23771700000000018,0.18112699999999998,0.004540000000000002,0.07890299999999995,0.23547099999999999,0.027434,0.988351039213497,0.22566000000000003,single,0.004540000000000002
18,0.15,jog,0.0,0.0,0.0,0.0,0.0,0.0,0.00012000480018213519,-0.005520220808831208,-0.003840153606144336,0.546381855274214,-0.22488899555982061,0.3045721828873151,0.0,0.0,0.0,-0.41758157000515617,-0.27366854531344625,0.14393894469088428,15.861633484133893,5.007761304036925,1.9915061855588512,0.31662100000000004,-0.054389999999999994,-0.022926,0.2422700000000002,0.179253,0.007078000000000001,0.07435099999999983,0.233643,0.030004,0.9887906266097045,0.19996000000000003,single,0.007078000000000001
19,0.158333,jog,0.0,0.0,0.0,0.0,0.0,0.0,0.017040681627275456,0.0033601344053795727,0.001440057602304282,0.5490219608784341,-0.25621024840993595,0.32689307572302834,0.0,0.0,0.0,2.0305624417488666,1.0656852531154173,0.6336506910414752,0.31682534552023517,-3.7587006900414384,2.678614284856983,0.31676300000000013,-0.054361999999999966,-0.022913999999999997,0.2468450000000002,0.177118,0.009801999999999998,0.06991799999999992,0.23147999999999996,0.032715999999999995,0.9709526679632892,0.17284000000000005,single,0.009801999999999998
20,0.166667,jog,0.0,0.0,0.0,0.0,0.0,0.0,-0.009959203263745522,-0.017278617710587096,-0.015238780897528436,0.6847852171826135,-0.29253659707223345,0.2693784497240223,0.0,0.0,0.0,-3.2397270087618133,-2.4764521377449786,-2.001300515938649,16.290287533498834,-4.358813134424942,-6.901203023638826,0.3166800000000001,-0.054506,-0.023041,0.2525520000000001,0.17468,0.012047000000000002,0.06412799999999996,0.229186,0.035088,0.9581684328765913,0.14912000000000003,single,0.012047000000000002
21,0.175,jog,0.0,0.0,0.0,0.0,0.0,0.0,-0.00036001440057305316,-0.0152406096243836,0.0010800432017283193,0.811352454098168,-0.2866914676587107,0.284051362054483,0.0,0.0,0.0,1.1519487415303604,0.24457075317454696,1.9583372253998315,15.188675976905653,0.7014435873662295,1.760819912451786,0.3166770000000001,-0.05463299999999999,-0.023031999999999997,0.2593130000000001,0.17229099999999997,0.014414000000000003,0.05736399999999997,0.22692399999999996,0.037446,0.9745282135704209,0.12554000000000004,single,0.014414000000000003
22,0.183333,jog,0.0,0.0,0.0,0.0,0.0,0.0,0.005280211208440291,-0.01044041761671177,0.0036001440057600808,0.9705988239529421,-0.2740909636385463,0.26569062762510487,0.0,0.0,0.0,0.6768541472474907,0.5760460827639297,0.30242419345154914,19.110328795724698,1.512120967258415,-2.2033762665760372,0.31672100000000003,-0.054720000000000046,-0.023001999999999998,0.267401,0.17000699999999996,0.016628000000000004,0.04932000000000003,0.224727,0.03963,0.9795982035595382,0.10370000000000001,single,0.016628000000000004
23,0.191667,jog,0.0,0.0,0.0,0.0,0.0,0.0,0.0035997120230350926,-0.004319654427636783,-0.0028797696184304886,1.0207583393328574,-0.2657787377009797,0.22138228941684637,0.0,0.0,0.0,-0.20164377074696385,0.7344328280627528,-0.7775274327082509,6.018660352761617,0.9973873215222676,-5.316575258970297,0.316751,-0.05475599999999997,-0.023025999999999998,0.27590800000000004,0.167792,0.018473000000000003,0.04084299999999996,0.22254799999999997,0.041499,0.9894708850643374,0.08501000000000003,single,0.018473000000000003
24,0.2,jog,0.0,0.0,0.0,0.0,0.0,0.0,0.007320292811723114,-0.006000240009599718,0.0026401056042238925,1.0374414976599071,-0.2712108484339352,0.12204488179527219,0.0,0.0,0.0,0.44648755414472796,-0.20167833696903084,0.6624115231794524,2.002059081609226,-0.6518793631291869,-11.92096575321902,0.3168120000000001,-0.054805999999999966,-0.023004,0.28455300000000006,0.165532,0.019490000000000007,0.03225900000000004,0.22033799999999998,0.042494000000000004,0.9836225320245211,0.07505999999999996,single,0.019490000000000007
25,0.208333,jog,0.0,0.0,0.0,0.0,0.0,0.0,0.003600144005757178,-0.0061202448097951966,0.000240009600384256,1.0896435857434297,-0.2628105124205005,0.08808352334093368,0.0,0.0,0.0,-0.4464357141444792,-0.014401152069540225,-0.2880230413824124,6.2645011500687255,1.0080806448379607,-4.075526035562054,0.31684200000000007,-0.05485699999999999,-0.023001999999999998,0.29363300000000003,0.163342,0.020224000000000006,0.023209000000000035,0.21819899999999998,0.043226,0.9881589182642365,0.06774000000000002,single,0.020224000000000006
26,0.216667,jog,0.0,0.0,0.0,0.0,0.0,0.0,0.006479481641468495,-0.007679385649155741,0.0005999520038394596,1.4506839452843945,-0.0469162467002609,0.07055435565154676,0.0,0.0,0.0,0.3454928768552093,-0.18708193416853164,0.043189633243964874,43.32137743472096,25.905239467271347,-2.103331856177934,0.31689600000000007,-0.05492100000000005,-0.022997,0.3057230000000002,0.162951,0.020811999999999997,0.011172999999999877,0.21787200000000007,0.043809,0.9832239763768598,0.06191000000000002,single,0.020811999999999997
27,0.225,jog,0.0,0.0,0.0,0.0,0.0,0.0,0.012240489619590353,-0.011400456018235467,0.010320412816512982,1.368414736589442,-0.13908556342253933,0.07128285131405385,0.0,0.0,0.0,0.6913486113190751,-0.4465463061418124,1.1665019575991256,-9.872699951392356,-11.060760437090886,0.08742297641990711,0.3169980000000001,-0.05501600000000001,-0.022910999999999997,0.317126,0.161792,0.02140600000000001,0.00012799999999990597,0.216808,0.04431700000000001,0.9672420109721196,0.056829999999999936,single,0.02140600000000001
28,0.233333,jog,0.0,0.0,0.0,0.0,0.0,0.0,0.0037201488059393014,-0.011760470418821842,-0.002040081603264087,1.4266170646826006,-0.15384615384615435,0.022080883235328162,0.0,0.0,0.0,-1.0224817969100017,-0.04320345620861335,-1.4833186631197717,6.984558753529183,-1.7713417045019813,-5.90447234834101,0.317029,-0.05511400000000005,-0.022927999999999997,0.32901400000000014,0.16050999999999999,0.021589999999999998,0.011985000000000134,0.21562400000000004,0.044517999999999995,0.9791626600813793,0.05482000000000009,single,0.021589999999999998
29,0.241667,jog,0.0,0.0,0.0,0.0,0.0,0.0,-0.0008399328053597599,-0.01631869450442936,-0.00011999040076805884,1.405687544996394,-0.10355171586273154,-0.011519078473721992,0.0,0.0,0.0,-0.5471660200742827,-0.5469431348221178,0.23039251289849205,-2.511341455028409,6.034849770029149,-4.031672871256328,0.31702200000000014,-0.055249999999999966,-0.022928999999999998,0.34072900000000006,0.15964699999999998,0.021494,0.023706999999999923,0.21489699999999995,0.044423,0.9727654388718892,0.05577000000000004,single,0.021494
30,0.25,jog,0.0,0.0,0.0,0.0,0.0,0.0,0.006120244809795177,-0.013560542421700426,-0.003840153606144336,1.5775831033241439,-0.05160206408256157,0.001680067202688121,0.0,0.0,0.0,0.835254724007552,0.3309914895870554,-0.4464374421428386,20.628292131015215,6.234207581923668,1.5839608396027964,0.31707300000000016,-0.055362999999999996,-0.022961,0.35387500000000016,0.159217,0.021508,0.036802,0.21458,0.044468999999999995,0.9743911643382956,0.05531000000000008,single,0.021508
31,0.258333,jog,0.0,0.0,0.0,0.0,0.0,0.0,0.006240249609977332,-0.012120484819394935,-0.00396015840633606,1.6203048121924801,-0.13020520820832898,-0.0236409456378259,0.0,0.0,0.0,0.01440115206794144,0.17281382482965263,-0.014401152069089734,5.126810136605829,-9.432754605276324,-3.0386430865851533,0.3171250000000001,-0.05546400000000001,-0.022993999999999997,0.36737700000000006,0.158132,0.021310999999999997,0.05025199999999996,0.213596,0.044305,0.9763398059287991,0.056950000000000056,single,0.021310999999999997
32,0.266667,jog,0.0,0.0,0.0,0.0,0.0,0.0,0.015118790496768704,-0.0014398848092167015,0.00035997120230375903,1.7007439404847753,0.026517878569710943,0.09923206143508609,0.0,0.0,0.0,1.0653396792406244,1.2815694756633338,0.5183740831101291,9.651923241216112,18.805265992085406,14.743581362240445,0.31725100000000017,-0.055476000000000025,-0.022990999999999998,0.3815510000000002,0.15835299999999997,0.022138000000000005,0.06430000000000002,0.213829,0.045129,0.9746808881137257,0.048709999999999976,single,0.022138000000000005
33,0.275,jog,0.0,0.0,0.0,0.0,0.0,0.0,0.010320412816516277,-0.002160086403451628,0.007080283211328427,1.60962438497538,0.08508340333613491,-0.19104764190567664,0.0,0.0,0.0,-0.5758283547644794,-0.08642764841412737,0.8064696998709515,-10.934784052489492,7.0281440977347565,-34.834957799203345,0.3173370000000002,-0.05549399999999999,-0.022931999999999998,0.3949640000000001,0.15906199999999998,0.020545999999999995,0.07762699999999989,0.21455599999999997,0.04347799999999999,0.9788321979093044,0.06522000000000011,single,0.020545999999999995
34,0.283333,jog,0.0,0.0,0.0,0.0,0.0,0.0,-0.011160446417871233,-0.0061202448097951966,0.0028801152046081576,1.753630145205811,0.11496459858394537,-0.047281891275650134,0.0,0.0,0.0,-2.5778062203753227,-0.47523801828196066,-0.5040403224193303,17.28138248295108,3.585886865211872,17.252580178810376,0.3172440000000001,-0.05554500000000001,-0.022907999999999998,0.4095770000000001,0.16002,0.020152000000000003,0.092333,0.215565,0.04306,0.9782496472333962,0.06940000000000002,single,0.020152000000000003
35,0.291667,jog,0.0,0.0,0.0,0.0,0.0,0.0,-0.00599952003838294,0.0015598752099880903,0.0007199424046075181,1.6508279337652896,0.19618430525557906,-0.04511639068874502,0.0,0.0,0.0,0.6192616246086259,0.9215406791196639,-0.2592000000000765,-12.335278550578506,9.74558515378373,0.25983928328595074,0.3171940000000002,-0.05553199999999997,-0.022902,0.423335,0.161655,0.019776000000000002,0.10614099999999982,0.21718699999999996,0.042678,0.9895989091881287,0.07322000000000001,single,0.019776000000000002
36,0.3,jog,0.0,0.0,0.0,0.0,0.0,0.0,0.01092043681745367,0.006360254410172792,0.005760230409216315,1.5789031561262592,0.10728429137165583,-0.15492619704788235,0.0,0.0,0.0,2.0304760417420677,0.5760685467640361,0.6048587549032532,-8.631318569426444,-10.668428403206942,-13.177703871251364,0.31728500000000004,-0.055479,-0.022854,0.4364920000000001,0.162549,0.018485,0.11920700000000006,0.218028,0.041339,0.9768525840887043,0.08661000000000002,single,0.018485
37,0.308333,jog,0.0,0.0,0.0,0.0,0.0,0.0,0.022320892835715672,0.041521660866429375,0.016200648025920934,1.713068522740907,0.21276851074042502,0.016680667226689025,0.0,0.0,0.0,1.3681094465692973,4.219537556253022,1.2529002300137495,16.100488013278206,12.658612668759,20.593647458846835,0.31747100000000006,-0.05513300000000004,-0.022719,0.45076700000000014,0.16432199999999997,0.018624,0.13329600000000008,0.219455,0.041343000000000005,0.9169215301565566,0.08656999999999998,single,0.018624
38,0.316667,jog,0.0,0.0,0.0,0.0,0.0,0.0,0.012479001679878162,0.023998080153598528,0.006719462443004657,1.6875449964002802,0.2555795536357131,-0.07151427885769171,0.0,0.0,0.0,-1.1809324641033796,-2.1026614726219037,-1.1376512578493319,-3.0625781546228663,5.136914194299056,-10.582546926371638,0.31757500000000016,-0.054932999999999954,-0.022663,0.464831,0.166452,0.018028000000000002,0.14725599999999983,0.22138499999999994,0.040691000000000005,0.9535485764627925,0.09308999999999995,single,0.018028000000000002
39,0.325,jog,0.0,0.0,0.0,0.0,0.0,0.0,0.005160206408258139,0.02412096483858093,-0.004920196807872219,1.6954278171126942,0.23388935557421942,-0.12192487699507966,0.0,0.0,0.0,-0.8782905642169678,0.01474675206797076,-1.3968149827045273,0.9459763245426546,-2.602927884494612,-6.04951375703681,0.3176180000000002,-0.05473200000000006,-0.022704,0.47895900000000013,0.16840099999999997,0.017012,0.16134099999999996,0.22313300000000003,0.039716,0.9580788765938512,0.10283999999999999,single,0.017012
40,0.333333,jog,0.0,0.0,0.0,0.0,0.0,0.0,0.018480739229567725,0.008160326413064703,-0.0021600864034562223,1.6559462378495053,0.2368894755790275,-0.11520460818432712,0.0,0.0,0.0,1.5985278796723412,-1.9153532251909595,0.331226497589824,-4.737979030743904,0.3600288017290413,0.8064645158709411,0.31777200000000017,-0.05466399999999999,-0.022722,0.49275800000000003,0.170375,0.016052000000000004,0.17498599999999986,0.225039,0.038774,0.966137753614032,0.11225999999999997,single,0.016052000000000004
41,0.341667,jog,0.0,0.0,0.0,0.0,0.0,0.0,0.00839932805375743,0.014758819294454537,-0.0011999040076793356,1.6627069834413242,0.3170146388288907,-0.07319414446844238,0.0,0.0,0.0,-1.209672567291851,0.7917558053023551,0.11521267047958793,0.8112245730524145,9.614250449947576,5.040852377715947,0.3178420000000002,-0.054541000000000006,-0.022732,0.506615,0.17301699999999998,0.015442000000000004,0.18877299999999986,0.22755799999999998,0.038174,0.9716269284380885,0.11826000000000003,single,0.015442000000000004
42,0.35,jog,0.0,0.0,0.0,0.0,0.0,0.0,-0.00480019200768512,0.025921036841473,0.0252010080403219,1.6558262330493234,0.31033241329653655,-0.10320412816512682,0.0,0.0,0.0,-1.5840057676038142,1.3395196864296761,3.168236175207164,-0.8257230759631313,-0.8018991398480936,-3.601342097286033,0.31780200000000014,-0.05432500000000001,-0.022521999999999997,0.520413,0.175603,0.014582000000000005,0.20261099999999987,0.22992800000000002,0.037104,0.9392173087389726,0.12896000000000002,single,0.014582000000000005
43,0.358333,jog,0.0,0.0,0.0,0.0,0.0,0.0,-0.008400336013442242,0.006000240009599698,0.009840393615744437,1.6702268090723675,0.3097323892955705,-0.05028201128045133,0.0,0.0,0.0,-0.43203456207333574,-2.3905912434745256,-1.8433474648478816,1.728138248295219,-0.07200576034633803,6.350908062483532,0.3177320000000001,-0.05427500000000002,-0.022439999999999998,0.5343310000000001,0.178184,0.014163000000000002,0.21659899999999999,0.23245900000000003,0.036603,0.9762301619796853,0.13397000000000003,single,0.014163000000000002
44,0.366667,jog,0.0,0.0,0.0,0.0,0.0,0.0,0.0021598272138317128,0.009359251259901898,0.01787856971442281,1.6592272618190471,0.33201343892488133,-0.01547876169906372,0.0,0.0,0.0,1.267118217815448,0.4030491061077749,0.9645039715236818,-1.3198400831917936,2.673512074551332,4.176055865297286,0.3177500000000002,-0.054196999999999995,-0.022291,0.5481590000000001,0.18095099999999997,0.014034000000000005,0.23040899999999986,0.23514799999999997,0.036325,0.9661743156112163,0.13674999999999998,single,0.014034000000000005
45,0.375,jog,0.0,0.0,0.0,0.0,0.0,0.0,0.008640345613806569,0.007320292811709816,0.009240369614784695,1.670466818672743,0.33577343093724105,-0.033721348853954655,0.0,0.0,0.0,0.7776933157296139,-0.24468480117509744,-1.0366254769756553,1.3488007744744808,0.45121709016677347,-2.189198026507978,0.31782200000000005,-0.05413600000000002,-0.022213999999999998,0.562079,0.183749,0.013753000000000001,0.24425699999999995,0.237885,0.035967,0.9756400436854391,0.14033,single,0.013753000000000001
46,0.383333,jog,0.0,0.0,0.0,0.0,0.0,0.0,0.0106804272170894,0.0061202448097951966,0.018600744029761102,1.6481459258370539,0.3301332053282144,0.00900036001440044,0.0,0.0,0.0,0.2448195851773474,-0.14401152069058226,1.1232898613916273,-2.6786142848540875,-0.676854147249091,5.126810136608088,0.31791100000000005,-0.054084999999999994,-0.022059,0.5758130000000001,0.1865,0.013828,0.2579020000000001,0.240585,0.035887,0.9628248664153912,0.14112999999999998,single,0.013828
47,0.391667,jog,0.0,0.0,0.0,0.0,0.0,0.0,0.002639788816890625,0.008039356851456585,0.021958243340532632,1.642548596112317,0.35661147108231,-0.002039836813054496,0.0,0.0,0.0,-0.9647994240699264,0.23027502299752658,0.402867687877553,-0.6716258369014778,3.1771377194739134,-1.3247176418832405,0.317933,-0.054017999999999955,-0.021876,0.5895020000000002,0.18947199999999997,0.013811000000000004,0.27156900000000017,0.24348999999999993,0.035687,0.9607796752596846,0.14312999999999998,single,0.013811000000000004
48,0.4,jog,0.0,0.0,0.0,0.0,0.0,0.0,0.0015600624025009842,0.0009600384015236944,0.03588143525741023,1.539781591263622,0.33445337813512876,-0.057722308892355724,0.0,0.0,0.0,-0.1295723526208612,-0.8495521960797865,1.6708498640198652,-12.332533883198684,-2.6590775167624083,-6.682163936073563,0.31794600000000006,-0.05401000000000006,-0.021577,0.602333,0.192259,0.013330000000000002,0.28438699999999995,0.24626900000000007,0.034907,0.9401197290753406,0.15093,single,0.013330000000000002
49,0.408333,jog,0.0,0.0,0.0,0.0,0.0,0.0,0.005280211208440308,0.0010800432017324826,0.04020160806432291,1.6669866794671946,0.3585743429737187,0.09156366254650206,0.0,0.0,0.0,0.4464357141412857,0.014401152071137475,0.5184414744885024,15.26522119327649,2.894631565893436,17.915033173989936,0.31799,-0.05400100000000002,-0.021241999999999997,0.6162240000000001,0.195247,0.014093000000000001,0.2982340000000001,0.24924800000000003,0.035335,0.9323978876340724,0.14665000000000006,single,0.014093000000000001
50,0.416667,jog,0.0,0.0,0.0,0.0,0.0,0.0,0.006599472042253206,0.01067914566834721,0.024718022558195062,1.5071994240460802,0.3822894168466479,-0.04199664026877883,0.0,0.0,0.0,0.15829863616665418,1.1518001519816077,-1.8578816302049233,-19.17293681558846,2.8455812182540416,-16.02595426149277,0.31804500000000013,-0.053912000000000015,-0.021036,0.6287850000000001,0.19843299999999997,0.013742999999999998,0.31074,0.252345,0.034779,0.9537946064166356,0.15221000000000007,single,0.013742999999999998
51,0.425,jog,0.0,0.0,0.0,0.0,0.0,0.0,0.004440177607112066,0.001440057602305536,0.04236169446777872,1.5451818072722812,0.3885755430217241,0.021600864034562222,0.0,0.0,0.0,-0.25912569724482715,-1.1087349173216967,2.1173253221629302,4.558068309876521,0.7543653156217682,7.63200579663281,0.3180820000000002,-0.0539,-0.020683,0.641661,0.201671,0.013923000000000005,0.32357899999999984,0.255571,0.034606000000000005,0.9289698401056501,0.15393999999999997,single,0.013923000000000005
52,0.433333,jog,0.0,0.0,0.0,0.0,0.0,0.0,0.0075603024120873595,0.0034801392055616963,0.04416176647065868,1.5389415576623202,0.3729749189967583,0.032881315252609546,0.0,0.0,0.0,0.3744299537951854,0.24481958517414518,0.21601728103683576,-0.748859907591614,-1.8721497689866493,1.353708294497453,0.3181450000000001,-0.05387100000000006,-0.020315,0.6544850000000002,0.204779,0.014197000000000001,0.3363400000000001,0.25865000000000005,0.034512,0.9251013432982552,0.15488000000000002,single,0.014197000000000001
53,0.441667,jog,0.0,0.0,0.0,0.0,0.0,0.0,0.010439164866804502,0.008879289656829723,0.05435565154787672,1.4946004319654274,0.40220782337413163,0.041996640268779105,0.0,0.0,0.0,0.3454358596972833,0.6478462264540505,1.2231683557977084,-5.320509442871743,3.507667911851875,1.0937515018202077,0.31823200000000007,-0.05379700000000004,-0.019861999999999998,0.666941,0.20813099999999998,0.014547000000000004,0.34870899999999994,0.26192800000000005,0.034409,0.9065721490025532,0.15591,single,0.014547000000000004
54,0.45,jog,0.0,0.0,0.0,0.0,0.0,0.0,0.01944077763110462,0.009240369614783802,0.04632185287411488,1.4650186007440231,0.37741509660386363,0.041041641665665866,0.0,0.0,0.0,1.080236741185657,0.04333132820761763,-0.9640944046276019,-3.5499617450382943,-2.975246222281039,-0.11460441655025015,0.31839400000000007,-0.053720000000000045,-0.019475999999999997,0.679149,0.211276,0.014889,0.36075499999999994,0.264996,0.03436499999999999,0.9148686909792515,0.1563500000000001,single,0.014889
55,0.458333,jog,0.0,0.0,0.0,0.0,0.0,0.0,0.015840633625347572,0.007800312012478328,0.03636145445817814,1.446657866314674,0.3964958598343945,0.0808832353294135,0.0,0.0,0.0,-0.4320345620733297,-0.17281382482965055,-1.1952956217372812,-2.203376266572554,2.28978317899087,4.781182486949205,0.3185260000000001,-0.053655000000000064,-0.019173,0.6912040000000002,0.21458,0.015563,0.37267800000000006,0.26823500000000006,0.034736,0.9326302509475863,0.15264,single,0.015563
56,0.466667,jog,0.0,0.0,0.0,0.0,0.0,0.0,0.01619870410367124,0.006479481641481817,0.05099592032637405,1.4125269978401587,0.39488840892728405,0.06995440364770814,0.0,0.0,0.0,0.04296502019722427,-0.15848696556233613,1.7559954245495435,-4.0953765868149,-0.1928786785589694,-1.3113548934131687,0.3186610000000001,-0.053600999999999954,-0.018747999999999997,0.702976,0.21787099999999998,0.016146,0.38431499999999996,0.27147199999999994,0.034893999999999994,0.9101704455508086,0.15106000000000008,single,0.016146
57,0.475,jog,0.0,0.0,0.0,0.0,0.0,0.0,0.023040921636861927,-0.010920436817480316,0.08184327373094927,1.42049681987281,0.47965918636745597,0.04260170406816297,0.0,0.0,0.0,0.8210989479408022,-2.088073738024982,3.701830481768306,0.9564169005941938,10.17290020882901,-3.2824552477553377,0.31885300000000005,-0.05369200000000002,-0.018066,0.7148130000000001,0.22186799999999998,0.016501000000000002,0.3959600000000001,0.27556,0.034567,0.8571280539826769,0.15433000000000002,single,0.016501000000000002
58,0.483333,jog,0.0,0.0,0.0,0.0,0.0,0.0,0.030481219248767,-0.009000360014392885,0.08640345613824539,1.3685347413896463,0.39841593663746594,0.04392175687027442,0.0,0.0,0.0,0.8928714282857365,0.23041843310781512,0.5472437786266776,-6.235698845933468,-9.749579950796795,0.15841267276028362,0.31910700000000003,-0.053766999999999954,-0.017345999999999997,0.7262170000000001,0.225188,0.016867,0.4071100000000001,0.27895499999999995,0.03421299999999999,0.8465610106778432,0.15787000000000007,single,0.016867
59,0.491667,jog,0.0,0.0,0.0,0.0,0.0,0.0,0.06371490280778241,-0.030477561795066863,0.1120710343172542,1.3450923926085832,0.3844492440604729,0.029517638588913236,0.0,0.0,0.0,3.987723009241107,-2.577058049036952,3.079862992441658,-2.812856825181555,-1.6758690397159826,-1.7283559252893173,0.3196380000000001,-0.05402100000000004,-0.016412,0.737427,0.22839199999999998,0.017113000000000003,0.41778899999999997,0.282413,0.033525,0.779216122860459,0.16475,single,0.017113000000000003
60,0.5,jog,0.0,0.0,0.0,0.0,0.0,0.0,0.048121924877006686,-0.013680547221882607,0.11580463218528776,1.3208928357134304,0.3759750390015606,0.03096123844953821,0.0,0.0,0.0,-1.8712322009811313,2.0157223776772226,0.44804966615067515,-2.9040629899379335,-1.0169452848808775,0.1732389128315106,0.3200390000000002,-0.05413499999999999,-0.015446999999999999,0.748434,0.23152499999999998,0.017371000000000004,0.42839499999999986,0.28565999999999997,0.032818,0.789751536789021,0.17182000000000003,single,0.017371000000000004
61,0.508333,jog,0.0,0.0,0.0,0.0,0.0,0.0,0.05496219848792098,-0.022320892835715672,0.13704548181927229,1.2979719188767687,0.36133445337813525,0.015360614424576459,0.0,0.0,0.0,0.8208656679364291,-1.0368829489779225,2.5490039162347817,-2.750620045201207,-1.756940552433132,-1.872149768986162,0.32049700000000003,-0.05432100000000001,-0.014304999999999998,0.7592500000000002,0.234536,0.017499,0.43875300000000017,0.28885700000000003,0.031804,0.7511106358758439,0.18196,single,0.017499
62,0.516667,jog,0.0,0.0,0.0,0.0,0.0,0.0,0.06383489320854091,-0.02663786897048917,0.15214782817374675,1.2735781137508952,0.34089272858171665,0.0073194144468441205,0.0,0.0,0.0,1.0646381954187645,-0.5179956965171013,1.8121365916096175,-2.927022453308562,-2.452810750710188,-0.9648668079832474,0.321029,-0.054543000000000064,-0.013037,0.7698640000000001,0.237377,0.01756,0.4488350000000001,0.29192000000000007,0.030597,0.7214450419664673,0.19403000000000004,single,0.01756
63,0.525,jog,0.0,0.0,0.0,0.0,0.0,0.0,0.0690027601104032,-0.03216128645145012,0.17376695067802697,1.2502100084003354,0.30781231249249646,0.0435617424696997,0.0,0.0,0.0,0.6201688349768708,-0.6628366111797581,2.5943984764526737,-2.804284813459713,-3.969808723055328,4.349253332875967,0.321604,-0.054811,-0.011588999999999995,0.7802820000000001,0.239942,0.01792300000000001,0.45867800000000014,0.294753,0.029512000000000004,0.6838131600311914,0.20488,single,0.01792300000000001
64,0.533333,jog,0.0,0.0,0.0,0.0,0.0,0.0,0.09216368654747498,-0.03384135365414701,0.17268690747630014,1.2154086163446547,0.30157206288251986,-0.018240729629186922,0.0,0.0,0.0,2.779422349342613,-0.20161612896878792,-0.12961036862196595,-4.17633410004572,-0.7488599075935026,-7.416593315599087,0.3223720000000001,-0.055093,-0.01015,0.7904100000000001,0.242455,0.017770999999999995,0.46803799999999995,0.29754800000000003,0.027920999999999994,0.6689236813861053,0.2207900000000001,single,0.017770999999999995
65,0.541667,jog,0.0,0.0,0.0,0.0,0.0,0.0,0.10307175425965162,-0.03335733141348672,0.17950563954883525,1.1855051595872372,0.2864170866330672,-0.007919366450683479,0.0,0.0,0.0,1.3088634163878763,0.058078022637423475,0.818182394112678,-3.588127760669214,-1.8184516738004022,1.2384645042600628,0.32323100000000005,-0.055371000000000004,-0.008653999999999995,0.8002900000000002,0.244842,0.017705,0.4770590000000001,0.300213,0.026358999999999994,0.6505608751353282,0.23641000000000006,single,0.017705
66,0.55,jog,0.0,0.0,0.0,0.0,0.0,0.0,0.12708508340335278,-0.0457218288731505,0.2018480739229556,1.1926077043081675,0.2664106564262559,-0.010200408016320819,0.0,0.0,0.0,2.8817147658347606,-1.4837990471215323,2.681199372869344,0.8523394600900365,-2.400867659523728,-0.2737359373139722,0.3242900000000002,-0.05575199999999997,-0.006971999999999999,0.8102280000000002,0.247062,0.017619999999999997,0.485938,0.30281399999999997,0.024591999999999996,0.5952238306944958,0.2540800000000001,single,0.017619999999999997
67,0.558333,jog,0.0,0.0,0.0,0.0,0.0,0.0,0.1044041761670388,-0.046681867274701465,0.18828753150126187,1.130685227409085,0.3013320532821323,-0.04092163686547429,0.0,0.0,0.0,-2.7218177410673454,-0.11520921655477874,-1.6273301838106133,-7.430994467668672,4.190735252115293,-3.6866949296956375,0.3251600000000001,-0.05614100000000005,-0.005402999999999998,0.81965,0.249573,0.017279000000000003,0.4944899999999999,0.30571400000000004,0.022682,0.6328350989140287,0.27318,single,0.017279000000000003
68,0.566667,jog,0.0,0.0,0.0,0.0,0.0,0.0,0.1353491720662358,-0.028557715382764418,0.19102471802255627,1.089752819774414,0.20734341252699715,-0.0296376289896811,0.0,0.0,0.0,3.7131024597068363,2.1747242490925016,0.32843610766671205,-4.911495996480776,-11.277734671842387,1.3539726272849892,0.32628800000000013,-0.05637900000000001,-0.003811000000000002,0.828732,0.251301,0.017032,0.5024439999999999,0.30768,0.020843,0.6069160946845529,0.29157,single,0.017032
69,0.575,jog,0.0,0.0,0.0,0.0,0.0,0.0,0.14676587063482363,-0.05436217448698438,0.21492859714388785,1.0337213488539783,0.24396975879035468,0.042001680067203444,0.0,0.0,0.0,1.3700586305757738,-3.096658958864779,2.8685802377693257,-6.724045472271237,4.395337365097548,8.597060969264994,0.3275110000000001,-0.05683200000000005,-0.002020000000000001,0.8373460000000001,0.253334,0.017382,0.509835,0.31016600000000005,0.019402000000000003,0.556874206885553,0.30598,single,0.017382
70,0.583333,jog,0.0,0.0,0.0,0.0,0.0,0.0,0.16860674426978217,-0.0489619584783346,0.2492499699987992,0.9803192127684911,0.11580463218528617,-0.15552622104884112,0.0,0.0,0.0,2.6210096765820774,0.6480518431116955,4.118729491769016,-6.408512670765263,-15.38043040982455,-23.70429630577748,0.3289160000000002,-0.05724000000000001,5.7000000000001494e-05,0.845515,0.254299,0.016086000000000003,0.5165989999999998,0.311539,0.016029,0.5,0.33970999999999996,flight,0.016086000000000003
71,0.591667,jog,0.0,0.0,0.0,0.0,0.0,0.0,0.1797456203503705,-0.042716582673388556,0.230261579073672,0.950803935685143,0.13906887449003894,-0.07055435565154712,0.0,0.0,0.0,1.3365582050141886,0.7493851457818571,-2.278424637044282,-3.541549926007666,2.7914857577096943,10.19580818302056,0.3304140000000002,-0.057596000000000036,0.0019759999999999986,0.8534390000000001,0.25545799999999996,0.015498000000000005,0.5230249999999999,0.31305400000000005,0.013522000000000006,0.5079702208991455,0.36477999999999994,single,0.015498000000000005
72,0.6,jog,0.0,0.0,0.0,0.0,0.0,0.0,0.18228729149164047,-0.05448217928716652,0.273130925237012,0.957758310332424,0.057842313692549455,-0.11424456978279253,0.0,0.0,0.0,0.3050127374618969,-1.4119280707761994,5.144527320693673,0.834558340007327,-9.747577198786779,-5.243035417166183,0.33193300000000003,-0.05804999999999999,0.004251999999999999,0.8614200000000001,0.25594,0.014546000000000003,0.529487,0.31399,0.010294000000000005,0.5,0.39705999999999997,flight,0.014546000000000003
73,0.608333,jog,0.0,0.0,0.0,0.0,0.0,0.0,0.21408856354254174,-0.05016200648026253,0.2914916596663855,0.8417136685467475,0.0993639745589814,-0.12012480499219941,0.0,0.0,0.0,3.81630529832007,0.5184414744874556,2.203376266575477,-13.92591405084316,4.982798615916449,-0.7056564513868779,0.33371700000000004,-0.05846800000000002,0.0066809999999999994,0.8684340000000002,0.256768,0.013545000000000001,0.5347170000000001,0.315236,0.006864000000000002,0.5,0.43135999999999997,flight,0.013545000000000001
74,0.616667,jog,0.0,0.0,0.0,0.0,0.0,0.0,0.24802015838733535,-0.05903527717781854,0.3064554835613169,0.7919366450683918,0.1287497000239977,-0.11867050635949153,0.0,0.0,0.0,4.071465664122126,-1.0647073071221573,1.7955152261736835,-5.972764996203018,3.526004975403943,0.17450187577488446,0.3357840000000001,-0.05895999999999996,0.009235,0.8750340000000001,0.257841,0.012556000000000005,0.53925,0.31680099999999994,0.0033210000000000045,0.5,0.4667899999999999,flight,0.012556000000000005
75,0.625,jog,0.0,0.0,0.0,0.0,0.0,0.0,0.23424936997479245,-0.06312252490099896,0.29533181327252944,0.6807872314892615,0.08172326893075868,-0.1574462978519135,0.0,0.0,0.0,-1.6525607119336179,-0.4904893463555018,-1.334893830407707,-13.338463168022304,-5.643397467087341,-4.65328111033503,0.33773600000000004,-0.05948599999999998,0.011695999999999998,0.8807070000000001,0.25852200000000003,0.011244000000000004,0.5429710000000001,0.31800799999999996,0.0004519999999999941,0.49548000000000003,0.5,flight,0.011695999999999998
76,0.633333,jog,0.0,0.0,0.0,0.0,0.0,0.0,0.24732989319573767,-0.04956198247929857,0.28777151086043373,0.6277451098043878,-0.0514820592823726,-0.19860794431777232,0.0,0.0,0.0,1.569725575536441,1.6273301838113918,-0.9072725803546956,-6.3653092145533945,-15.985278796727556,-4.939595159709426,0.3397970000000001,-0.05989899999999998,0.014094000000000002,0.8859380000000001,0.258093,0.009589,0.546141,0.31799199999999994,0.004505000000000002,0.45494999999999997,0.5,flight,0.014094000000000002
77,0.641667,jog,0.0,0.0,0.0,0.0,0.0,0.0,0.27429805615551034,-0.0639548836093123,0.2700983921286308,0.52555795536358,-0.04691624670026454,-0.24874010079193787,0.0,0.0,0.0,3.235920681518217,-1.727009974803673,-2.120604599448409,-12.261477614687836,0.5478536815584455,-6.015377546696165,0.34208300000000014,-0.060431999999999986,0.016345,0.8903180000000002,0.257702,0.007516000000000002,0.548235,0.318134,0.008828999999999997,0.41171,0.5,flight,0.016345
78,0.65,jog,0.0,0.0,0.0,0.0,0.0,0.0,0.3153726149045772,-0.056522260890435286,0.2790111604464176,0.39541581663264275,-0.019320772830912495,-0.28585143405736135,0.0,0.0,0.0,4.929144215656628,0.8919504042814091,1.0695749811336583,-15.6176813549666,3.311589327895348,-4.453538133376135,0.344711,-0.060902999999999985,0.018670000000000006,0.893613,0.257541,0.005134,0.548902,0.31844399999999995,0.013536000000000006,0.36463999999999996,0.5,flight,0.018670000000000006
79,0.658333,jog,0.0,0.0,0.0,0.0,0.0,0.0,0.3542541701668178,-0.05532221288852141,0.28249129965198805,0.34969398775952354,-0.1576863074523007,-0.29077163086523744,0.0,0.0,0.0,4.665973270399734,0.1440115206904938,0.41763341000485715,-5.486838938331888,-16.604528335700163,-0.5904472348345292,0.34766300000000006,-0.06136400000000003,0.021024,0.8965270000000001,0.256227,0.002710999999999998,0.548864,0.317591,0.018313000000000003,0.31687,0.5,flight,0.021024
80,0.666667,jog,0.0,0.0,0.0,0.0,0.0,0.0,0.39680825533956365,-0.042716582673388556,0.30513558915286587,0.21022318214542385,-0.24502039836812728,-0.3702903767698554,0.0,0.0,0.0,5.1060817341907265,1.5125546214462153,2.717097372315533,-16.73515786106295,-10.479252569693534,-9.541486189658906,0.35097,-0.06172000000000005,0.023567000000000005,0.898279,0.254185,-0.00037500000000000033,0.547309,0.31590500000000005,0.023942000000000005,0.2605799999999999,0.5,flight,0.023567000000000005
81,0.675,jog,0.0,0.0,0.0,0.0,0.0,0.0,0.4149765990639828,-0.011880475219003938,0.2979719188767537,0.04740189607586026,-0.1003240129605184,-0.390135605424215,0.0,0.0,0.0,2.1802884584686297,3.7004809137626893,-0.8596748201262587,-19.53933590178362,17.364260819345766,-2.381522699431121,0.3544280000000002,-0.06181900000000001,0.026050000000000004,0.8986740000000002,0.253349,-0.0036259999999999973,0.544246,0.315168,0.029676,0.20324000000000003,0.5,flight,0.026050000000000004
82,0.683333,jog,0.0,0.0,0.0,0.0,0.0,0.0,0.43309732389295647,0.009240369614783925,0.26521060842433986,-0.033361334453378494,-0.23460938437537862,-0.31597263890555954,0.0,0.0,0.0,2.1745739624353546,2.5346027641651334,-3.9315145148702952,-9.69197534252244,-16.114889165349986,8.899911978717883,0.35803700000000016,-0.06174200000000002,0.028260000000000007,0.8983960000000002,0.251394,-0.006259000000000001,0.540359,0.31313599999999997,0.03451900000000001,0.15480999999999995,0.5,flight,0.028260000000000007
83,0.691667,jog,0.0,0.0,0.0,0.0,0.0,0.0,0.46952243820492,0.015358771298298058,0.27789776817854345,-0.03251739860812697,-0.10499160067194387,-0.3651307895368339,0.0,0.0,0.0,4.370664064310447,0.7341494700640853,1.5223373835137384,0.10126420029415877,15.552889813226992,-5.8985061952572595,0.36195,-0.061614,0.030576000000000006,0.8981250000000001,0.250519,-0.009301999999999998,0.5361750000000001,0.312133,0.039878000000000004,0.10121999999999998,0.5,flight,0.030576000000000006
84,0.7,jog,0.0,0.0,0.0,0.0,0.0,0.0,0.4964598583943472,0.02628105124204623,0.16260650426017131,-0.015360614424565839,-0.12036481459258527,-0.17472698907956466,0.0,0.0,0.0,3.2326197275203925,1.3107260222906842,-13.835505090408398,2.0588964578856697,-1.8448594648555798,22.849370029673707,0.36608700000000005,-0.06139500000000003,0.031931,0.8979970000000002,0.249516,-0.010757999999999997,0.5319100000000001,0.31091100000000005,0.042689,0.07311000000000006,0.6454535064957476,single,0.031931
85,0.708333,jog,0.0,0.0,0.0,0.0,0.0,0.0,0.6143045721828962,0.03468138725548812,0.42085683427336873,0.08436337453496882,0.05736229449178017,-0.05064202568102688,0.0,0.0,0.0,14.141931331879102,1.0080806448388158,30.99127925275367,11.967357369438886,21.32810621437234,14.89079123947405,0.37120600000000015,-0.06110600000000005,0.035438,0.8987,0.249994,-0.011179999999999995,0.5274939999999999,0.31110000000000004,0.04661799999999999,0.03382000000000007,0.8101738620227641,single,0.035438
86,0.716667,jog,0.0,0.0,0.0,0.0,0.0,0.0,0.6504679625629778,0.07247420206384021,0.28593712502999663,0.11243100551955346,0.013078953683704962,-0.11747060235181105,0.0,0.0,0.0,4.339259704833365,4.534774995002617,-16.18906998360584,3.367846290446894,-5.313575810904112,-8.01878769747824,0.37662700000000005,-0.060502,0.03782100000000001,0.899637,0.25010299999999996,-0.012158999999999996,0.52301,0.310605,0.049980000000000004,0.00019999999999997797,0.7281180175941546,single,0.03782100000000001
87,0.725,jog,0.0,0.0,0.0,0.0,0.0,0.0,0.6835473418936995,0.10116404656186798,0.27409096363854735,0.13140525621025778,0.023640945637826056,-0.1285251410056417,0.0,0.0,0.0,3.969684307058922,3.442919056525624,-1.42159623082316,2.277001162931057,1.2674897340839062,-1.3265977023677842,0.3823230000000002,-0.05965899999999996,0.040105,0.9007320000000001,0.25029999999999997,-0.013229999999999999,0.5184089999999999,0.309959,0.053335,0.0,0.6911268349986869,single,0.040105
88,0.733333,jog,0.0,0.0,0.0,0.0,0.0,0.0,0.7963518540741433,0.11760470418816474,0.4308172326893053,0.1334453378135122,-0.08784351374055051,-0.14712588503540097,0.0,0.0,0.0,13.537082944971004,1.972957833468942,18.807904602274963,0.24481958517393607,-13.37867027221602,-2.2321785707139328,0.38895900000000005,-0.05867899999999998,0.043695,0.9018440000000001,0.24956799999999998,-0.014456,0.512885,0.30824699999999994,0.058150999999999994,0.0,0.6380217657790477,single,0.043695
89,0.741667,jog,96.84593232541454,15.948644108471411,102.21430285577212,-362.52902805770975,-24.056672195115635,55.70012446498007,0.7841372690184779,0.1600671946244245,0.47780177585793404,0.08507319414447741,-0.0251979841612658,-0.16030717542596645,11620.582232471214,1913.6841982807177,12264.735163879614,-1.465632956043375,5.095091245051597,5.6376941647023076,-5.80419290485182,7.5168622005381645,-1.5816283166025384,-0.4116200000000001,-0.190261,-0.804177,0.09543900000000005,0.11644200000000002,-0.867646,0.5070590000000001,0.30670300000000006,0.063469,0.0,0.6946278351621722,single,-0.804177
90,0.75,jog,1.0207608304332014,0.8174726989079577,-0.026761070442814387,0.8869531727792669,0.105908937687689,1.899385486109699,0.7939517580703408,0.2176887075482989,0.5940237609504367,0.06696267850712037,-0.06060242409696428,-0.04416176647065868,-11499.480558620056,-1815.8132016756738,-12269.418447883656,1.1777857976554476,6.9148581451907045,13.947196098944223,-2.1733488104352525,-4.248702740393416,13.938006594900672,-0.4135099999999998,-0.19525900000000007,-0.799004,0.08749099999999999,0.10912499999999997,-0.8677910000000001,0.5010009999999998,0.30438400000000004,0.06878700000000004,0.0,0.8324447376644112,single,-0.799004
91,0.758333,jog,1.2268090723629006,0.36169446777870495,-0.22080883235330087,0.25531073215210676,-0.042708268686129564,-0.09598579164857644,0.9294371774870825,0.22608904356174114,0.7039481579263137,0.027001080043218627,-0.06516260650425845,0.002760110404416011,24.726778102687906,-54.69557555853244,-23.28666289577411,16.258900686036384,1.00808064483886,13.191455295316993,-4.79558363901375,-0.5472437786264436,5.6308504590273,-0.415988,-0.19638900000000004,-0.791298,0.07749300000000003,0.10556800000000002,-0.865928,0.49348100000000006,0.30195700000000003,0.07463000000000009,0.0,0.8823512546771619,single,-0.791298
92,0.766667,jog,1.055315574754012,0.5455963522918226,-0.2518598512118999,0.32967013731789974,0.5650365544803829,0.8478685322757151,0.9215262778977625,0.28065754739622084,0.7313414926805901,0.0173986081113586,0.0016798656107494992,-0.07271418286537105,-20.57757350718618,22.066460824708262,-3.7258241970961383,-0.9492320121574338,6.547696644406049,3.286937215535945,-1.1522044554667725,8.020455017399607,-9.05619069711873,-0.417103,-0.19859699999999997,-0.783104,0.06884300000000021,0.10103499999999999,-0.8644350000000001,0.4859460000000002,0.29963199999999995,0.08133100000000004,0.0,0.8753573340564957,single,-0.783104
93,0.775,jog,1.1204848193927892,0.4756990279611126,-0.23088923556942623,0.9043615146219854,-0.17526258711256007,0.5189410887203009,1.1963278531141335,0.3294131765270594,0.8157926317052646,0.00552022080883119,-0.02664106564262559,-0.018840753630145233,7.820622181540501,-8.388014440262776,2.5165745400784347,32.97750812628943,5.850909532081889,10.134542064643483,-1.4254634948430769,-3.398647696312849,6.465070111031514,-0.41647100000000004,-0.19981599999999994,-0.774382,0.05955200000000005,0.09684900000000002,-0.862668,0.4760230000000001,0.29666499999999996,0.08828599999999998,0.0,0.9448438274406016,single,-0.774382
94,0.783333,jog,1.156126245049803,0.46405856234249904,-0.11928477139084945,2.57758976096666,-0.5314660824877094,-0.08750148279138628,1.5264610584423595,0.3595343813752581,0.8771150846033917,0.014040561622455754,-0.07704308172327008,0.036121444857794546,4.277142164528287,-1.3969117507036655,13.393071424286308,39.61756934216117,3.6146891693506498,7.358988707323612,1.0224817969068334,-6.048483869032156,6.59572764765874,-0.4133849999999999,-0.20068699999999995,-0.7660790000000001,0.05003500000000005,0.09234,-0.861373,0.46341999999999994,0.2930269999999999,0.09529399999999999,0.0,0.8562647824923749,single,-0.7660790000000001
95,0.791667,jog,1.1249100071994313,0.4223662107031433,-0.4199664026877888,0.17326773956565886,0.6876386033809302,-0.0018850583623987343,1.7885769138468623,0.3423326133909188,0.8900887928965607,0.034797216222690094,-0.031077513798893626,-0.008759299256059467,-3.745648890133371,-5.002681982164079,-36.07890944287702,31.451386537617097,-2.064047034357953,1.5567204575436666,2.490599304083775,5.515426916771791,-5.385258472984601,-0.40785400000000016,-0.20135400000000003,-0.755161,0.04094999999999982,0.088561,-0.857946,0.448804,0.28991500000000003,0.10278500000000002,0.0,0.9208836397691091,single,-0.755161
96,0.8,jog,1.363014520580815,0.45733829353174044,-0.1306852274090966,2.136403038718095,-1.5796243583072795,-0.05461172761129023,2.008040321612869,0.43813752550102003,0.741029641185646,0.05316212648508237,0.009960398415936565,-0.03828153126125027,28.573684553148052,4.196817812144126,34.71512963862846,26.33666239841663,11.497049335185507,-17.887813717858414,2.2038773865825267,4.924746455637828,-3.542809553005002,-0.40247900000000003,-0.20151400000000003,-0.747897,0.030035000000000034,0.08483299999999999,-0.8571759999999999,0.43251400000000007,0.286347,0.1092789999999999,0.0,0.889560261973552,single,-0.747897
97,0.808333,jog,1.1068042721708946,0.48361934477379276,-0.3202928117124753,0.956918783926056,-0.028092683604392724,0.4057776510547497,2.204728189127592,0.5263410536421507,0.5312612504500213,0.022320892835689325,-0.013440537621505102,-0.0018000720028798502,-30.74645966757744,3.153852303138433,-22.753820269216423,23.603488241296628,10.584846770806605,-25.173213816827868,-3.7010960817704697,-2.8082246534791646,4.377950229013651,-0.39332999999999996,-0.201158,-0.7408009999999999,0.02099799999999985,0.08069100000000001,-0.854522,0.4143279999999998,0.281849,0.11372100000000007,0.0,0.9564712557372534,single,-0.7408009999999999
98,0.816667,jog,1.1727861771058166,0.46964242860571137,-0.2762179025677823,1.7470267719516461,-0.21364699747691412,-0.13266863165489076,2.398248140148767,0.5733141348692066,0.3812095032397395,0.004679625629964239,-0.02183825293976651,0.004319654427645496,7.917195216573248,-1.6770957725079532,5.288566012082157,23.220536479622442,5.636318841739326,-18.004769283690976,-2.1167827220692286,-1.0076452265732354,0.7343084269888769,-0.38311699999999993,-0.20029400000000003,-0.735322,0.011263000000000023,0.07659499999999997,-0.852184,0.39437999999999995,0.276889,0.11686200000000002,0.0,0.9620868096145903,single,-0.735322
99,0.825,jog,1.184087363494559,0.47341893675747176,-0.07548301932077241,3.355851732350203,-0.702380082249955,0.04589246523795302,2.450378015120623,0.5768630745229869,0.26317052682107533,0.022440897635898106,-0.0014400576023022146,0.007680307212288748,1.3561966145136863,0.4531991061754984,24.08914955562363,6.255835230031999,0.42588979404540606,-14.16524377999103,2.1314378982280124,2.447881355749968,0.40329446593583135,-0.37256500000000004,-0.199432,-0.7325,0.00158299999999989,0.07263800000000001,-0.851491,0.3741479999999999,0.27207000000000003,0.11899099999999996,0.0,0.9603958906636242,single,-0.7325
100,0.833333,jog,1.1496459858394195,0.4081363254530149,-0.02004080163206859,3.9005722064743473,-0.17552022832388636,-0.42036892953026805,2.504740189607574,0.6759870394815763,0.13188527541101455,0.02256090243610659,-0.014160566422657686,0.007800312012480357,-4.133130643842482,-7.834226725603812,6.653332255934668,6.523721887309574,11.895351609095046,-15.754860363621773,0.014401152071100714,-1.5265221193274232,0.014401152069075794,-0.36127299999999996,-0.1972,-0.731234,-0.007808999999999955,0.06911900000000001,-0.851259,0.353464,0.266319,0.12002499999999994,0.0,0.9537410420796966,single,-0.731234
101,0.841667,jog,1.1012718982481207,0.5610751139908781,-0.4347252219822432,0.44464620329868737,-0.6103717643290646,0.7563854363108242,2.5757139428845477,0.6982241420686314,-0.08459323254139406,0.01319894408447968,-0.023638108951284046,0.0011999040076793276,-5.804426156863262,18.351186529621067,-49.75814979003737,8.516169099708796,2.6682388513384754,-25.975342926854687,-1.1233451345844536,-1.1372141263050501,-0.7919856017279793,-0.3489849999999999,-0.19605699999999998,-0.728316,-0.01687699999999981,0.064246,-0.847626,0.33210800000000007,0.26030299999999995,0.11931000000000003,0.0,0.9548332690847431,single,-0.728316
102,0.85,jog,1.1306852274091117,0.4364574582983361,-0.1780871234849326,1.9845203086079577,-0.9432023098634595,0.20395802363336915,2.6186247449898077,0.7099483979359211,-0.1507260290411639,0.0009600384015370304,-0.02520100804032373,-0.0024000960038400776,3.5297406889465153,-14.954716871780043,30.79780373182683,5.149502232720555,1.4069669827540938,-7.936253030093656,-1.4687274310503735,-0.18755539290047993,-0.4320172820736155,-0.33658600000000005,-0.193778,-0.7280880000000001,-0.026290999999999842,0.06039899999999998,-0.8461620000000001,0.3102950000000002,0.254177,0.11807400000000001,0.0,0.9577779368889079,single,-0.7280880000000001
103,0.858333,jog,1.3492139685587503,0.42973718948757783,0.21684867394695734,3.8408749768138573,-3.680199543667611,-1.0078953437152824,2.762390495619828,0.7695907836313423,-0.22236889475578853,0.004200168006694475,-0.020640825633022563,0.0034801392055679413,26.224497917873236,-0.8064645158716236,47.39419145948497,17.25258017880954,7.15737257835364,-8.597487785266331,0.3888311058631262,0.5472437786272829,0.7056564513870148,-0.32481000000000004,-0.190946,-0.7317480000000001,-0.03749900000000017,0.056646,-0.84794,0.28731099999999987,0.247592,0.11619199999999996,0.0,0.9644176829580169,single,-0.7317480000000001
104,0.866667,jog,1.0615550755939511,0.5143988480921537,-0.2844972402207854,0.13600326818899866,-0.3604082732016571,1.3505472340331186,2.953563714902831,0.839572834173268,-0.2741780657547423,0.014758819294467956,-0.02363810895128436,-0.004439644828413613,-34.516305851308,10.158586345641517,-60.15669716435632,22.93895119786465,8.39717429108785,-6.216603191619158,1.2669367995888579,-0.3596452265732916,-0.9502980602329734,-0.30904199999999993,-0.18823600000000001,-0.731662,-0.046223000000000014,0.052162000000000014,-0.8456060000000001,0.2628189999999999,0.24039800000000003,0.11394400000000005,0.0,0.9529688818156292,single,-0.731662
105,0.875,jog,1.177007080283211,0.4008160326413051,-0.2586103444137776,0.3929220294406649,0.3685650831740423,0.26005895315865674,3.0795631825272705,0.8820352814112555,-0.37333493339733465,0.008520340813624377,-0.020520820832833766,-0.01236049441977661,13.85479475450132,-13.630483073424717,3.1065517589112748,15.120540936570123,5.095697496458341,-11.899300089114597,-0.7486473635957702,0.37408953779558135,-0.9505399725624583,-0.2931880000000001,-0.184226,-0.732618,-0.05596000000000012,0.048651,-0.843554,0.237228,0.232877,0.11093600000000003,0.0,0.9576233123071283,single,-0.732618
106,0.883333,jog,1.1791671666866628,0.4732989319572767,-0.23124924996999927,-0.5426226842045657,-0.19728204115654868,0.9733290378297118,3.2329293171726956,0.917316692667701,-0.41377655106204153,0.010200408016334142,-0.011400456018242092,-0.009840393615744854,0.25922073724368866,8.698295849750542,3.2834626717602586,18.404672344344714,4.23393870832177,-4.853188247294698,0.20161612897032968,1.0944875572532864,0.30242419345154764,-0.27607399999999993,-0.18052600000000002,-0.734139,-0.06570100000000001,0.044611999999999985,-0.841709,0.21037299999999992,0.225138,0.10757000000000005,0.0,0.969684434341215,single,-0.734139
107,0.891667,jog,1.1473482121430303,0.42536597072234705,-0.24394048476122798,-0.34863111165935373,0.19322577577747932,0.7850368231200895,3.3516918646508453,0.9781617470602398,-0.3833693304535663,0.01403887688983962,0.011519078473723696,0.02411807055435618,-3.8179691077073032,-5.751495228573302,-1.5228263488395475,14.2503656681246,7.300822461307798,3.648574587050084,0.46057941846718253,2.7501241291055813,4.074689725234129,-0.2577029999999999,-0.17591900000000005,-0.735301,-0.07514600000000005,0.04116299999999998,-0.839475,0.18255699999999986,0.21708200000000002,0.10417399999999999,0.0,0.9496826581563247,single,-0.735301
108,0.9,jog,1.1423256930277097,0.39469578783151,-0.21000840033600277,-0.43420931173059824,0.18251677064011435,0.748129033360142,4.530061202448056,1.0631225249009923,0.2503300132005275,-0.0159606384255296,-0.035401416056640884,-0.029521180847234145,-0.602726402894584,-3.6805691696672187,4.072013011547471,141.40997693474213,10.195701168937017,76.04696311701562,-3.6000858412779424,-5.630684571026567,-6.436967646896688,-0.22947300000000004,-0.17034900000000003,-0.731465,-0.08479799999999993,0.037579,-0.837971,0.1446750000000001,0.20792800000000003,0.10650599999999999,0.0,0.9186997615764568,single,-0.731465
109,0.908333,jog,1.245049801992094,0.4640585623424957,-0.03216128645146387,-0.36498531101479104,-0.7493122649881047,0.9484160376733592,2.8822752910116782,0.8599543981759356,-0.9138365534621448,0.053762150486020406,-0.04368174726989158,-0.012600504020160616,12.327386171173066,8.3238658959542,21.34250736643952,-197.74221906112965,-24.38115045302516,-139.70557622257084,8.367069352160165,-0.9936794927698035,2.030562441746512,-0.21582999999999997,-0.16705,-0.738812,-0.09472499999999995,0.033348000000000017,-0.837808,0.12110500000000002,0.20039800000000002,0.09899599999999997,0.0,0.8826539238572708,single,-0.738812
110,0.916667,jog,1.1309095272378145,0.46472282217422434,0.08867290616751135,-0.12446409422393027,-0.575952348563132,0.9755916208771963,4.260019198464098,1.2235421166306617,-0.22858171346292336,-0.02843772498200635,-0.023158147348211814,0.022438204943604302,-13.695737311528509,0.07970480342316123,14.498943198821008,165.31604361080028,43.62703605168267,82.22400287967557,-9.863196000483098,2.462634979803169,4.204308730953282,-0.18975199999999992,-0.160726,-0.741456,-0.10438700000000001,0.029282000000000002,-0.83836,0.08536499999999991,0.190008,0.09690399999999999,0.0,0.9283434690918447,single,-0.741456
111,0.925,jog,1.2367694707788304,0.4489379575182982,0.027121084843387436,-0.19070266456933713,-0.476177166950535,0.9758487895769289,2.7611904476178735,1.1736469458778316,-1.026161046441852,-0.04200168006721121,0.0002400096003842544,0.051362054482178815,12.703701372976775,-1.8942595290922946,-7.386514019455617,-179.8666447673369,-5.987659996739459,-95.7133484914107,-1.627739719813369,2.807891149477496,3.4710007846603133,-0.17704900000000012,-0.154687,-0.7502329999999999,-0.11504300000000012,0.02554300000000001,-0.838158,0.062006000000000006,0.18023,0.08792500000000003,0.0,0.8894174595141843,single,-0.7502329999999999
112,0.933333,jog,1.29557182287293,0.42805712228489373,0.04020160806431985,-0.48160497335507185,-0.16385782214081313,0.9501196634068311,3.1598463938557955,1.202328093123736,-0.6723868954758264,0.008280331213260217,-0.021600864034563197,0.019680787231489555,7.056564513872581,-2.5058004600269577,1.569725575534925,47.840627173638026,3.4418753445223302,42.45459629977545,6.034082716965305,-2.6210096765807815,-3.801904146248596,-0.16151400000000005,-0.14823499999999998,-0.7561709999999999,-0.12577000000000005,0.02179600000000001,-0.838329,0.035744,0.170031,0.08215800000000006,0.0,0.9493790063837109,single,-0.7561709999999999
113,0.941667,jog,1.2649388048955916,0.4590832733381323,0.06935445164387738,-0.8858320229734066,0.0534961969394979,1.020676033782719,3.7870170386368742,1.019918406527471,-0.9817614590832652,0.027237820974319114,-0.002279817614589765,0.027837772978161483,-3.6756681038322756,3.7228402991646683,3.4980613846361064,75.2544570171675,-21.887411398639742,-37.12197787466239,2.2747167939835315,2.318340103188539,0.9787599888015197,-0.14049500000000004,-0.143561,-0.764931,-0.136085,0.017950999999999995,-0.8386750000000001,0.004410000000000025,0.161512,0.07374400000000003,0.0,0.9349778229249497,single,-0.764931
114,0.95,jog,1.3106924276971184,0.4291371654866229,0.05496219848793503,-1.2021872781046834,0.3332636655859407,1.1727643571677286,3.7601104044162175,1.195727829113172,-0.7177487099484046,0.015000600023992783,-0.006000240009599778,0.03396135845433872,5.490654362357752,-3.593676689248733,-1.7271394642916695,-3.22892526348938,21.09797462926951,31.682797208071886,-1.4685252550493753,-0.44646854614305137,0.7348596515273367,-0.12008399999999997,-0.13717300000000002,-0.77137,-0.14688200000000007,0.014325000000000004,-0.83885,0.0267980000000001,0.15149800000000002,0.06747999999999998,0.0,0.9373192668864068,single,-0.77137
115,0.958333,jog,1.428777151086034,0.6335053402136033,0.34369374774990585,-0.5636385867010371,-1.422027882087902,1.667873775449058,5.7956318252729835,1.1831273250929997,0.126005040201607,0.029521180847256627,-0.008880355214210751,0.05748229929197147,14.17073363601527,24.525161973716493,34.649171878311485,244.27234139646677,-1.5121209672593758,101.25450019800888,1.7425394003676686,-0.3456276496593017,2.8226258055481397,-0.08369499999999996,-0.132593,-0.773184,-0.15854199999999985,0.008972000000000008,-0.841235,0.07484699999999989,0.141565,0.06805099999999997,0.0,0.8912881540846171,single,-0.773184
116,0.966667,jog,1.3959683225341906,0.40592752579793606,0.19870410367170366,-0.7157544436425478,0.42594563549384995,0.752156654405694,6.706263498920035,0.6423086153107699,0.5916726661867011,0.011159107271406048,-0.054235661147108774,0.08459323254139572,-3.9367444866622603,-27.307153157627248,-17.39736550014412,109.26705947288751,-64.89305372956872,55.87564506660554,-2.203272567296669,-5.442201335840854,3.2530517457912227,-0.039439,-0.13062300000000002,-0.769909,-0.17008299999999998,0.005136999999999975,-0.842186,0.13064399999999998,0.13576,0.07227700000000004,0.0,0.8314930960286674,single,-0.769909
117,0.975,jog,1.5801032041281844,0.4532581303252141,0.4798991959678534,-1.4066300971977648,-1.1965523841084367,1.2581047865408077,4.094203768150771,1.184927397095894,-0.5300612024481033,0.02916116644665732,-0.05580223208928327,0.10872434897396002,22.097069674066425,5.679899739262988,33.744760865972914,-313.4597060805578,65.11685848855504,-134.61344877412873,2.1603335143707474,-0.18799603290225714,2.8958498058999784,-0.018488999999999978,-0.124526,-0.778325,-0.18300700000000003,0.0008950000000000069,-0.845279,0.16451800000000005,0.125421,0.06695399999999996,0.0,0.7906010798440813,single,-0.778325
118,0.983333,jog,1.4672986919476703,0.5024600984039369,0.21204848193927225,-1.4696687116371698,0.8048126589915513,0.8434192102932779,4.057602304092141,1.2786511460458396,-0.5935437417496665,0.02532101284050886,-0.04776191047641666,0.12552502100083973,-13.537082944979439,5.904472348340644,-32.14337141828634,-4.3923513810908075,11.247299765984067,-7.618209444565338,-0.4608368662124618,0.9648771886315342,2.016161289677144,0.0030959999999999877,-0.118058,-0.785038,-0.19502300000000006,-0.003689999999999999,-0.846,0.19811900000000005,0.114368,0.06096199999999996,0.0,0.7722154729130101,single,-0.785038
119,0.991667,jog,1.5352771778257828,0.46904247660187404,0.4086873050156035,-0.7662207055495295,-0.21373656372289374,0.6555039268487448,4.330333573314164,1.354451643868494,-0.5532757379409684,0.035637149028076964,-0.0158387329013705,0.15886729061675142,8.156765764112418,-4.0097938327409475,23.59477118746489,32.725134295899245,9.095332112149595,4.83177391513059,1.2378373155229376,3.8304748710158796,4.0007522937259274,0.026390000000000025,-0.11067900000000003,-0.7930550000000001,-0.20752100000000007,-0.007731000000000016,-0.848082,0.2339110000000001,0.10294800000000001,0.05502699999999994,0.0,0.7273601893896267,single,-0.7930550000000001
120,1.0,jog,1.5810632425296869,0.5035401416056627,0.4531381255250193,-0.983002517098962,-0.21562506232221687,0.5950480000063463,4.274810992439671,1.5009000360014393,-0.4442577703108102,0.07632305292212628,0.02160086403456291,0.16236649465978573,5.494547546370326,4.139885395870462,5.334311833603216,-6.662976223988014,17.574510036354823,13.082679422795842,4.882503767436595,4.492931349565972,0.41992128201539536,0.04883700000000002,-0.10236799999999999,-0.800533,-0.22005999999999992,-0.011747000000000007,-0.8505050000000001,0.26889699999999994,0.09062099999999998,0.049972000000000016,0.00028000000000000247,0.6988232139566734,single,-0.800533
121,1.008333,jog,1.5948637945517996,0.3961358454338208,0.3848553942157673,-1.5294846664910768,0.3136897283388825,0.21924946753055694,3.9945997839914043,1.354494179767202,-0.6607464298572,0.0710428417136603,-0.06120244809792573,0.2716908676347081,1.65613248795306,-12.889031101865225,-8.194255527331409,-33.626690081395616,-17.569405524329596,-25.97967833270032,-0.6336506910435644,-9.936794927695836,13.119449534972206,0.06883400000000006,-0.094382,-0.809246,-0.23275800000000002,-0.015558000000000016,-0.851448,0.3015920000000001,0.07882399999999998,0.04220199999999996,0.07798,0.5209710268330086,single,-0.809246
122,1.016667,jog,1.61615070794336,0.5226781857451362,0.4484041276697818,-0.5005483796661351,-0.17472285655842298,0.2940721195021013,4.404367650587921,1.4232061435085097,-0.46580273578113524,0.08399328053757375,0.06995440364770768,0.3053755699544012,2.5542252689656997,15.183866128067493,7.625237995442048,49.168210534738854,8.2447760668715,23.391371979369243,1.5539283446020336,15.737563204419535,4.041840931088649,0.09207100000000001,-0.08687699999999998,-0.816865,-0.24552699999999994,-0.019331000000000015,-0.85264,0.33759799999999995,0.06754599999999997,0.035775,0.1422500000000001,0.5,flight,-0.816865
123,1.025,jog,1.5610224408976392,0.44509780391215936,0.41869674786992767,-0.4725476744700268,1.1163264914175923,0.07119673820964678,4.240369614784617,1.4833793351734152,-0.4326173046921913,0.13764550582023516,0.05256210248409912,0.33781351254050446,-6.615656671753416,-9.310018220686139,-3.565028177109616,-19.680551518457367,7.221071842662437,3.982411027114395,6.438524574902424,-2.0871596260180865,3.892708818685176,0.114398,-0.07822500000000002,-0.8239590000000001,-0.25738799999999984,-0.02260200000000001,-0.853314,0.37178599999999984,0.055623000000000006,0.02935499999999991,0.20645000000000002,0.5,flight,-0.8239590000000001
124,1.033333,jog,1.6494659786391175,0.5606624264970512,0.4440177607104117,-0.4679282541453924,0.2051814139495369,0.2643035983323048,4.238689547581835,1.4040561622464705,-0.43705748229928343,0.15516620664826183,0.08364334573382827,0.39265570622824275,10.613649074940206,13.868309442564483,3.0386430865814957,-0.20161612897903808,-9.519161517693917,-0.5328426265561101,2.102568202091248,3.7298983859028687,6.5813264955883035,0.13597400000000004,-0.07119699999999998,-0.831301,-0.26983999999999986,-0.026577000000000017,-0.853742,0.4058139999999999,0.044619999999999965,0.022441000000000044,0.27559,0.5,flight,-0.831301
125,1.041667,jog,1.6693064554835972,0.5322774178065851,0.5316774658027548,-0.31822836835764134,0.357114032802413,0.19229494173800016,4.209863210943208,1.5118790496760512,-0.4325653947684281,0.19066474682023887,0.05531557475402277,0.3627309815214849,2.3806667679961766,-3.405928568570513,10.518323145229749,-3.458883685940403,12.937711474631971,0.5390073831120018,4.259484061912373,-3.3990605927293065,-3.5906797104341734,0.15714700000000004,-0.063033,-0.839337,-0.28216300000000005,-0.030551999999999996,-0.8551500000000001,0.4393100000000001,0.03248100000000001,0.015813000000000077,0.34187000000000006,0.5,flight,-0.839337
126,1.05,jog,1.7460698427936887,0.516140645625816,0.48169926797070584,-0.48950537456058585,0.06305881988192269,0.25546058092583396,4.03912156486252,1.4393375735029155,-0.4039361574462901,0.22092883715348005,0.09108364334573006,0.4149765990639556,9.211974956209064,-1.9364901212971153,-5.997623644791559,-20.489817122367107,-8.705325353790293,3.4356459044926813,3.631836113433415,4.292339924601785,6.269724894092138,0.17625499999999994,-0.05534,-0.846717,-0.29487200000000013,-0.03409400000000001,-0.855706,0.4711270000000001,0.021245999999999987,0.008988999999999914,0.41011000000000003,0.5,flight,-0.846717
127,1.058333,jog,1.871834873394953,0.49201968078723507,0.6078243129725228,-0.7109074717872289,-0.688885746887157,0.23942279798454372,4.152646105844268,1.4472578903156244,-0.2466098643945782,0.23652946117846935,0.100564022560904,0.4496579863194561,15.092407368446594,-2.8946315658923694,15.135610824651163,13.623489857404211,0.9504760365665373,18.879910362620105,1.8721497689894921,1.1376910134614222,4.161932947978013,0.1952609999999999,-0.047380000000000005,-0.853837,-0.30849899999999997,-0.037356,-0.857024,0.5037599999999999,0.010024000000000005,0.003187000000000051,0.46813,0.5,flight,-0.853837
128,1.066667,jog,1.8402927765778518,0.5188384929205617,0.5861531077513789,-0.8757019215060242,0.11108208407257647,0.24376261650214875,4.038396928245712,1.4230861531077417,-0.1460283177345796,0.265178785697121,0.047036237101031976,0.5083993280537524,-3.784748838145062,3.218000015997894,-2.600336599609287,-13.708804607458061,-2.9003764348311134,12.06882009359225,3.437643930723714,-6.422820429550231,7.0483971363446,0.21358,-0.03984399999999999,-0.859939,-0.3216260000000001,-0.04128799999999999,-0.857672,0.5352060000000001,0.0014440000000000008,0.002267000000000019,0.5,0.47733000000000003,flight,-0.857672
129,1.075,jog,1.7794311772471139,0.4784591383655412,0.4544581783271354,-0.40017779243129026,-0.04706631280062939,-0.5149009750331174,3.9249969998800363,1.4136565462618649,-0.07308292331693399,0.31345253810153395,0.22260890435617575,0.4344173766950724,-7.303684067051306,-4.845716375257515,-15.804023691857031,-13.60853574531102,-1.1315980854286425,8.753797482016836,5.793082011810079,21.069562853131572,-8.878189290613308,0.23145899999999997,-0.032050999999999996,-0.864335,-0.3338420000000001,-0.043420000000000014,-0.857839,0.565301,0.011369000000000018,0.006495999999999946,0.5,0.4350399999999999,flight,-0.857839
130,1.083333,jog,1.8904356174246526,0.577703108124313,0.39217568702746675,0.042171153562194086,0.22749510672382742,0.0770992542065923,3.8082323292931033,1.391455658226304,0.09492379695187642,0.3258130325212979,0.1503660146405835,0.5096603864154461,13.321065663930973,11.909752761162855,-7.474197923877065,-14.012320963270241,-2.6642131327925687,20.16161289677277,1.4833186631181723,-8.669493545612744,9.029522347338578,0.24744000000000005,-0.025269999999999987,-0.8668119999999999,-0.34687999999999997,-0.046980999999999995,-0.85686,0.59432,0.021711000000000008,0.009951999999999961,0.5,0.40048000000000006,flight,-0.85686
131,1.091667,jog,1.9085673146148776,0.5705543556515599,0.3959683225342145,0.2034656107262634,0.17384414591455946,-0.13210085737077215,3.6532277417807237,1.366210703143772,0.018478521718263054,0.3537317014638837,0.1618670506359509,0.5201583873290242,2.1756296124580454,-0.8577816741964587,0.45507985442138416,-18.59906257647978,-3.0291522777216793,-9.17269921209681,3.3499722753283363,1.3800139183306468,1.2596593368824465,0.26197999999999994,-0.018639000000000017,-0.869958,-0.3598380000000001,-0.050387000000000015,-0.8558250000000001,0.621818,0.031748,0.014132999999999951,0.5,0.35867000000000004,flight,-0.8558250000000001
132,1.1,jog,1.8733949357973907,0.5592223688947457,0.35149405976237946,0.03388523558517109,-0.1849502198107712,-0.22406632374521404,3.3687747509899855,1.2574102964118363,0.1384855394215747,0.36973478939158255,0.15360614424576755,0.44665786631464516,-4.2208542922700465,-1.3598928065299327,-5.3371250176208145,-34.13572432386095,-13.056571070674881,14.401418181124392,1.9204473692185953,-0.9913484207588141,-8.820415338338863,0.27444100000000005,-0.012820999999999999,-0.871733,-0.3723679999999999,-0.05376700000000001,-0.855032,0.646809,0.04094600000000001,0.016700999999999966,0.5,0.33299,flight,-0.855032
133,1.108333,jog,1.8863554542181906,0.562702508100329,0.2761310452418119,0.06360882746011656,-0.22828042166715087,-0.5134146580932918,3.1237249489979884,1.1548061922476995,0.15348613944557868,0.47713908556342444,0.26569062762511003,0.6111844473779008,1.5553244234729444,0.4176334100063893,-9.043923499408164,-29.407152525140926,-12.312985019097292,1.8001440086408382,12.889031101865218,13.450676032562525,19.74397948677033,0.284752,-0.007887000000000005,-0.872755,-0.384111,-0.056241999999999986,-0.85224,0.668863,0.04835499999999998,0.02051499999999995,0.5,0.29484999999999995,flight,-0.85224
134,1.116667,jog,1.899808015358755,0.5967122630189545,0.19810415166787335,-0.20310535708546812,0.28218855422480577,-0.19311580619628682,2.88180945524356,1.0701943844492372,0.14302855771538234,0.4485241180705532,0.18790496760258846,0.45500359971202003,1.6141782026115161,4.08084412270522,-9.362478230614109,-29.0275370475674,-10.152604727437208,-1.2548094228697217,-3.4335214174311277,-9.33353252010091,-18.74020250370525,0.29293600000000003,-0.003941,-0.873214,-0.39620599999999995,-0.05964900000000001,-0.850099,0.6891419999999999,0.05570800000000001,0.023114999999999997,0.5,0.26885,flight,-0.850099
135,1.125,jog,1.9036361454458306,0.5874234969398809,0.30541221648865136,0.2580465971697772,-3.04228214789887,-0.2452313548103506,2.655106204248188,0.967358694347781,0.13716548661946582,0.4797791911676446,0.23856954278171222,0.5730229209168404,0.45939398620851235,-1.1146965173495345,12.87748287780859,-27.205478338578395,-12.340776443232588,-0.7035966753770042,3.7507588020030838,6.079992221183754,14.162885059980969,0.299198,-0.0007749999999999979,-0.874616,-0.40807099999999996,-0.062556,-0.847869,0.7072689999999999,0.061781,0.026746999999999965,0.5,0.23253000000000007,flight,-0.847869
136,1.133333,jog,1.917436697467922,0.5832233289331631,0.18984759390376788,-0.19767345261286873,-0.1363030912467753,-0.1198889526650483,2.411856474258993,0.8691947677907195,0.0656426257050295,0.5429017160686445,0.23772950918037064,0.6710668426737131,1.656132487950502,-0.5040403224190437,-13.868309442563847,-29.191135244113422,-11.780142392543192,-8.583086633197764,7.575005988359585,-0.10080806448356959,11.765741240474451,0.303318,0.0016079999999999983,-0.8756510000000001,-0.41952500000000004,-0.065435,-0.843859,0.722843,0.06704299999999999,0.03179200000000004,0.5,0.18208000000000013,flight,-0.843859
137,1.141667,jog,1.8720902327813638,0.5627549796016292,0.0292776577873661,0.16177856777313046,-0.09567104848961588,-0.5822097833642007,2.081953443724487,0.7570194384449197,-0.06743460523158179,0.5661147108231298,0.23314134869210287,0.776097912167021,-5.441140471149254,-2.4560054393488957,-19.266850985889196,-39.585196848392584,-13.459962724477911,-15.967990273171377,2.7853365436147315,-0.5505352157748659,12.602720121587122,0.305067,0.0032269999999999938,-0.8764569999999999,-0.43040900000000004,-0.068182,-0.8376349999999999,0.735476,0.071409,0.03882200000000002,0.5,0.11178000000000005,flight,-0.8376349999999999
138,1.15,jog,1.9239169566782903,0.5796231849274025,-0.027721108844351774,0.4008472519678747,-0.5993368561338742,-0.2156733998628469,1.8214328573143121,0.6501860074403043,-0.17424696987879698,0.6162246489859652,0.2140885635425446,0.8423136925477109,6.219455645857077,2.024265609717199,-6.840125600830241,-31.263720918057974,-12.820524541535626,-12.81799647752504,6.013433116864975,-2.2864256749740126,7.946211494142636,0.30421299999999996,0.003814999999999999,-0.877678,-0.4413060000000001,-0.071228,-0.8303849999999999,0.745519,0.075043,0.04729300000000003,0.5,0.027069999999999927,flight,-0.8303849999999999
139,1.158333,jog,1.865114604584144,0.5520220808832248,-0.09504380175207021,0.42377840641830317,0.10694124480535631,-0.5944011159323233,1.5588623544941527,0.5324612984519284,-0.270850834033356,0.6438257530301177,0.17532701308051896,0.8901956078242966,-7.056564513877988,-3.3122649759003027,-8.079046310778502,-31.509720727247675,-14.127530179812059,-11.592927415643508,3.3122649758972784,-4.651572118327729,5.746059675577206,0.301661,0.0036520000000000025,-0.879143,-0.45148299999999997,-0.074367,-0.822175,0.753144,0.078019,0.05696800000000002,0.5,0.0,flight,-0.822175
140,1.166667,jog,1.8744900407967748,0.563714902807787,-0.2098632109431286,0.36576672598714927,-0.14318546153927472,-0.5885212948163764,1.2128629709623435,0.3663306935445234,-0.42356611471083183,0.7464602831773506,0.2020638348932113,0.9422846172306393,1.124962348527837,1.4030263888363868,-13.777226924773286,-41.516604695442254,-19.934077862659958,-18.324367731878894,12.315158404995781,3.208161964565978,6.250181114272094,0.29614699999999994,0.002006999999999995,-0.8809239999999999,-0.46088400000000007,-0.07738100000000002,-0.812573,0.757031,0.07938800000000001,0.06835099999999994,0.5,0.0,flight,-0.812573
141,1.175,jog,1.8516740669626393,0.5585023400935929,-0.2820112804512087,0.2626689369460714,-0.21907183282190013,-0.4315795120367932,0.8784351374054834,0.3088923556942215,-0.5389415576622965,0.8531141245649715,0.4322572902916067,1.0793231729268984,-2.7380263811514682,-0.6255325470051641,-8.658114665556084,-40.1329453446363,-6.89287625708639,-13.84560697845465,12.798972925431302,27.624319620591788,16.445284494930604,0.28803700000000004,-7.300000000000362e-05,-0.883065,-0.469205,-0.07843299999999999,-0.801229,0.757242,0.07835999999999999,0.08183600000000002,0.5,0.0,flight,-0.801229
142,1.183333,jog,1.8354734189367812,0.5511820472818963,-0.3627745109804423,0.49150447805401,-0.5508957330179207,-0.37309094015003963,0.3973358934357387,0.1792871714868622,-0.6821072842913781,0.9393975759030516,0.38017520700828433,0.9823592943717837,-1.9441555293241601,-0.8784702762146426,-9.691975342521816,-57.734218645115696,-15.553244234652645,-17.180574418466698,10.354428337703219,-6.250099997998661,-11.636130871848742,0.276053,-0.0031719999999999943,-0.885726,-0.476672,-0.07985799999999998,-0.79002,0.752725,0.07668599999999999,0.09570600000000007,0.5,0.0,flight,-0.79002
143,1.191667,jog,1.798056155507542,0.5628749700023956,-0.3894888408927221,0.25091257481280144,-0.1351805427818063,-0.450409795914295,-0.11435085193184237,-0.01775857931365588,-0.6149508039356801,1.1514278857691223,0.4464842812574929,1.0106791456683404,-4.4897124345138995,1.4030384833812306,-3.205463152421363,-61.397497644297715,-23.643598608173335,8.058132992044333,25.44160185577982,7.95645239371347,3.3981103067622342,0.260115,-0.008011000000000004,-0.887605,-0.482061,-0.08082800000000001,-0.778351,0.7421760000000001,0.072817,0.10925399999999996,0.5,0.0,flight,-0.778351
144,1.2,jog,1.7669506780271391,0.5361814472578952,-0.48229929197168264,0.24251985984407845,-0.6044918403464018,-0.3664779480138511,-0.3373334933397376,-0.07308292331693315,-0.44257770310812883,1.3333733349334074,0.590303612144492,1.0789631585263508,-3.7328066099127826,-3.203350863374616,-11.137699637460862,-26.758987328440814,-6.639186847867249,20.685599523287276,21.834327272805325,17.259010066842723,8.194409319334103,0.24258,-0.013088000000000002,-0.887274,-0.48567400000000005,-0.080377,-0.765341,0.7282540000000001,0.067289,0.12193299999999996,0.5,0.0,flight,-0.765341
145,1.208333,jog,1.7377895115804287,0.5393015720628729,-0.5585023400935996,0.3579986172912175,-1.128054352952879,-0.35288460522013576,-0.12876515060602087,-0.03156126245049739,-0.28909156366254163,1.573622944917774,0.7040681627264981,1.1014040561622263,-3.4994799528033,0.37442995379546895,-9.144731563892426,25.029202296137417,4.982798615916841,18.419073496409997,28.8311064423812,13.652292161526951,2.6930154369224804,0.22702600000000003,-0.017845,-0.885029,-0.487042,-0.07900399999999999,-0.751509,0.714068,0.06115899999999999,0.13351999999999997,0.5,0.0,flight,-0.751509
146,1.216667,jog,1.6947444204463995,0.5124790016798767,-0.5977921766258864,0.04767687204758101,-0.6731714720315062,-0.38313855440663985,0.13786897048236205,0.020518358531318424,-0.18070554355651897,1.716342692584624,0.7876169906407621,1.0687544996400489,-5.164997736264702,-3.2184509698820123,-4.714403231615975,31.993535047802734,6.24905459345054,13.005281990163754,17.1249997200447,10.02505734512426,-3.917633371991601,0.214051,-0.021945000000000006,-0.8815529999999999,-0.486862,-0.07671100000000002,-0.7376199999999999,0.700913,0.05476600000000001,0.14393299999999998,0.6196370536990612,0.0,single,-0.7376199999999999
147,1.225,jog,1.6546261850473756,0.5504620184807288,-0.7191887675506793,0.5550792554071216,-1.8537190452397656,-0.2940213096185822,0.3834153366134582,0.07620304812192315,-0.07680307212288294,1.9251170046801536,0.8059522380895094,1.0357614304572,-4.8143808231157115,4.5581443418758525,-14.568173637920415,29.466742605435243,6.682430048074373,12.46879532384906,25.05391960824745,2.2003177065579083,-3.959326675008791,0.20345799999999997,-0.025897000000000003,-0.8762,-0.48460800000000004,-0.07458200000000001,-0.722996,0.6880660000000001,0.048685000000000006,0.153204,0.5,0.0,flight,-0.722996
148,1.233333,jog,1.6511460458418445,0.5337813512540542,-0.7158286331453322,0.6880443368830933,-2.083839599871097,-0.3598410932187604,0.25981039241569903,0.07356294251770168,-0.07404296171846936,2.1335653426137227,0.8689547581903353,0.961118444737797,-0.4176334100001274,-2.001760137606475,0.4032322579319734,-14.833186631196487,-0.3168253455203999,0.3312264975895365,25.014801144074283,7.560604836292623,-8.957516586991932,0.191864,-0.029731999999999995,-0.8708520000000001,-0.480588,-0.071789,-0.709022,0.672452,0.04205700000000001,0.16183000000000003,0.5333473016998111,0.0,single,-0.709022
149,1.241667,jog,1.6136309095272274,0.5364770818334496,-0.740220782337405,0.4941822309333544,-1.7599154573643914,-0.4061144112403082,0.09383249340052784,0.12586993040556593,-0.08231341492680554,2.289776817854563,0.9100071994240401,0.8956083513318864,-4.501456241254719,0.32346179258402885,-2.926823757148139,-19.915754621450674,6.276336439628492,-0.9923749950007338,18.7438775186992,4.925898876134444,-7.860582362120232,0.179198,-0.033154,-0.865369,-0.47495299999999996,-0.068676,-0.695389,0.6541509999999999,0.035522,0.16998000000000002,0.7045564799465116,0.0,single,-0.695389
150,1.25,jog,1.5675027001080208,0.5461418456738318,-0.7541101644065913,0.660820078559236,-2.50976334745879,-0.3244422516066464,-0.01656066242649712,0.0610824432977336,-0.050162006480259876,2.4466578663146703,0.9699987999520078,0.8079923196927971,-5.535606554567024,1.1598180535680274,-1.6667925200031748,-13.24770860758742,-7.774809445317763,3.8583233465193754,18.826478874368025,7.199280034557573,-10.51434437046564,0.16599799999999998,-0.03719599999999999,-0.859503,-0.467627,-0.065144,-0.682372,0.633625,0.027948,0.17713100000000004,0.865406503857904,0.0,single,-0.682372
151,1.258333,jog,1.5594623784951516,0.5389415576623117,-0.7149885995439905,0.343748366644615,-2.5892079923925455,-0.3748123789107896,-0.020880835233410427,0.0043201728069116405,-0.020400816032641492,2.592103684147384,1.002160086403465,0.724948997959924,-0.9648771886318668,-0.8640691241473946,4.694775574535116,-0.5184414744885812,-6.811744928695846,3.5714857131427644,17.4541963077781,3.8595087545250824,-9.965597231834137,0.152829,-0.041651,-0.853715,-0.45902200000000004,-0.061284,-0.670373,0.611851,0.019632999999999998,0.183342,0.9508159220680983,0.0,single,-0.670373
152,1.266667,jog,1.5209983201343802,0.44204463642908226,-0.7073434125269905,-0.09618792252615756,-2.599633380941026,-0.27927008759687827,0.006359491240700395,0.012958963282936905,-0.010439164866810608,2.8027357811374864,1.0056395488360854,0.6169906407487363,-4.615317777870301,-11.626700411954484,0.917349054115665,3.2685776906780193,1.0365719313685144,1.1953025156984411,25.27382973243352,0.41750209174710845,-12.953966548018576,0.14020599999999997,-0.045227,-0.847907,-0.44834000000000007,-0.056587,-0.6593359999999999,0.588546,0.011359999999999995,0.18857100000000004,0.9703092784168791,0.0,single,-0.6593359999999999
153,1.275,jog,1.483139325573031,0.4792991719668836,-0.6485059402376112,-0.1514365734132008,-1.676322703534728,-0.383232475273522,0.029761190447617963,0.04296171846874047,-0.01764070562822503,2.8919956798272306,1.0819632785311506,0.4953798151926114,-4.54326107780506,4.47072309345994,7.060779105889816,2.808316237479633,3.600474641282112,-0.8642194601481444,10.711616307421693,9.159213931965184,-14.59388282204801,0.12809500000000001,-0.048863,-0.84265,-0.43659999999999993,-0.05156500000000001,-0.649804,0.564695,0.00270200000000001,0.19284599999999996,0.9080665668705461,0.0,single,-0.649804
154,1.283333,jog,1.4870994839793348,0.5211808472338801,-0.5941437657506242,-0.6968084375039996,-1.017134834307401,-0.35539097891407545,0.025201008040323058,0.02952118084723292,-0.019320772830913067,3.1465258610343754,1.0217208688347363,0.4068162726508994,0.4752380182771806,5.026002072122382,6.523721887313817,-0.5472437786265242,-1.6129290317421479,-0.2016161289677196,30.544843538598382,-7.229378338703133,-10.628050227014329,0.11591300000000002,-0.05296,-0.8378599999999999,-0.42277200000000004,-0.047394,-0.641463,0.5386850000000001,0.0055660000000000015,0.19639699999999993,0.9277373004692984,0.0,single,-0.641463
155,1.291667,jog,1.498200143988509,0.5327573794096573,-0.5171586273098161,-0.8279910346156186,-0.4380816458026675,-0.43500709232780765,0.0032397408207343126,0.0019198464122873083,-0.011039116870650357,3.2139428845693025,1.0880729541636867,0.27417806575474596,1.3319726432894796,1.3890727352744616,9.237477614687975,-2.6351412550502955,-3.31189518057909,0.9937192176941286,8.089395672537613,7.961613310409357,-15.91531160261051,0.10345400000000002,-0.057384,-0.8336420000000001,-0.408473,-0.042766000000000005,-0.634868,0.511927,0.014617999999999992,0.19877400000000012,0.9805603617920482,0.0,single,-0.634868
156,1.3,jog,1.4992199687987295,0.459258370334805,-0.471378855154203,-0.958013120758098,0.21531623444525938,-0.618576329984105,-0.004920196807873819,0.010800432017279645,-0.019680787231489028,3.355214208568279,1.1076443057722118,0.12744509780390748,0.12238387258135497,-8.820233898338055,5.493792410369887,-0.9792316847003467,1.0657129011151065,-1.0370419249776215,16.953237009357228,2.3486561392685523,-17.60866050052033,0.09091999999999997,-0.061121,-0.829878,-0.39300700000000005,-0.037363,-0.629878,0.483927,0.023758,0.19999999999999996,0.9616959875020604,0.0,single,-0.629878
157,1.308333,jog,1.4696987879515258,0.6065042601704127,-0.32317292691708643,-0.6681763102109783,-0.38584365316348257,-0.056506694913243276,-0.007080283211328938,0.011880475219009094,-0.012480499219968903,3.4976599063962883,1.0931237249490087,-0.029521180847233704,-3.5426834090008468,17.67021358881664,17.78542280536637,-0.2592207372441064,0.1296103686222799,0.8640691241473887,17.09416750606154,-1.7425394003604116,-18.836706906413372,0.07861400000000002,-0.066076,-0.8272889999999999,-0.376108,-0.033308,-0.627431,0.454722,0.032768000000000005,0.19985799999999998,0.9689516970153422,0.0,single,-0.627431
158,1.316667,jog,1.5431965442764475,0.5335973122150187,-0.277657787376999,-0.4371919631320477,0.06444697658394055,-0.30111368099182223,-0.00863930885529016,0.019438444924405357,-0.002999760019198527,3.581233501319872,1.1929445644348353,-0.1366690664746811,8.819025236971582,-8.748133903934896,5.461379834423699,-0.18706811182639915,0.9068838139424293,1.1375976962767342,10.02802914849808,11.977542534896315,-12.85671773787456,0.06568100000000002,-0.070361,-0.8250000000000001,-0.35912299999999997,-0.027813000000000004,-0.626256,0.42480399999999996,0.042548,0.19874400000000003,0.9641961610240755,0.0,single,-0.626256
159,1.325,jog,1.4812192487699636,0.4680187207488339,-0.24360974438977498,-0.7249075968273513,0.5084387181786801,-0.5817673887633088,0.00480019200767849,0.013920556822273616,0.008520340813632817,3.679227169086796,1.103564142565713,-0.26341053642145956,-7.437572963696684,-7.869745765772882,4.085928595610741,1.6128046157408824,-0.662173059178182,1.3824673986357194,11.75971052045183,-10.726079667481475,-15.209584777004634,0.05337800000000001,-0.074145,-0.822899,-0.34080699999999997,-0.022517,-0.6264210000000001,0.394185,0.051628,0.19647799999999993,0.9716460882018221,0.0,single,-0.6264210000000001
160,1.333333,jog,1.487339493579719,0.38629545181806635,-0.2530901236049431,0.2747574758205739,0.7466650304936662,-0.7168520379745369,-0.007080283211325418,0.02124084963398458,0.003720148805952146,3.6507860314411875,1.2551302052081867,-0.4784591383655251,0.7344587555208658,-9.807184559074296,-1.1376910134606926,-1.4257140548426375,0.8784702762163489,-0.5760460827649809,-3.4130730403945915,18.188655063299063,-25.80686450786773,0.04092500000000002,-0.077187,-0.820759,-0.32277900000000004,-0.015276999999999999,-0.628299,0.363704,0.06191000000000001,0.19245999999999996,0.9621720411062376,0.0,single,-0.628299
161,1.341667,jog,1.4529637628989966,0.5621550275978027,0.01703863690904466,0.19197570210180817,-0.2522017744924656,-0.09274067144650146,-0.005279577633791347,0.024118070554356916,0.010679145668346591,3.7413006959444073,1.1851451883849513,-0.5818334533237443,-4.124757701070683,21.101460976690625,32.41285823302051,0.2160673839133795,0.34523889133338037,0.8350128224615523,10.86089086911705,-8.397530216371102,-12.403925480948056,0.028771999999999992,-0.081671,-0.820812,-0.303708,-0.010085,-0.63329,0.33247999999999994,0.071586,0.18752199999999997,0.9551669944416588,0.0,single,-0.63329
162,1.35,jog,1.5097803912156234,0.5179407176286961,0.10404416176646297,0.4560157628363053,-0.49639318117706027,-0.4886276952987303,-0.008760350414015176,0.014040561622463706,-0.0007200288011519209,3.8583943357733586,1.328573142925694,-0.6828273130925119,6.818268128720234,-5.305929433470036,10.44108062611506,-0.41770944200453236,-1.2093494458049963,-1.3679556545659801,14.051798851427963,17.21204302660988,-12.11974796217039,0.016117999999999993,-0.08587,-0.821685,-0.284137,-0.0033299999999999996,-0.6398469999999999,0.300255,0.08254,0.18183800000000006,0.972391650240219,0.0,single,-0.6398469999999999
163,1.358333,jog,1.476659066362666,0.5180607224289019,0.042601704068162424,0.2091623818259184,0.061614939004105924,-0.3688809699521967,-0.0019200768030740608,0.02460098403936309,0.0025201008040322066,3.9505580223209296,1.2907716308652464,-0.7861514460578497,-3.9747179710737646,0.01440115207077865,-7.3733898593905085,0.820865667939659,1.2673013820832209,0.3888311058663335,11.060084789100186,-4.536362901769821,-12.399391931517913,0.003796999999999995,-0.08998199999999999,-0.8220189999999999,-0.263522,0.0031090000000000007,-0.6467529999999999,0.267319,0.093091,0.17526600000000003,0.9586597445750116,0.0,single,-0.6467529999999999
164,1.366667,jog,1.497240220782328,0.5277177825773898,0.0979121670266418,0.15274146394147006,0.4137414882201875,-0.5253004694361516,-0.01835853131749284,0.01919846412286924,0.017278617710582818,3.9984401247899855,1.301055915526748,-0.8970482361411031,2.46954096708207,1.1587545174571405,6.63672461704811,-1.972456745190623,-0.6482505299368618,1.7708803583573913,5.7453926648734726,1.2340154381451387,-13.306550285967425,-0.008834000000000009,-0.09422,-0.822691,-0.242677,0.009554,-0.655045,0.233843,0.103774,0.16764599999999996,0.9471856678016456,0.0,single,-0.655045
165,1.375,jog,1.5389415576623209,0.5258610344413825,0.19584783391335434,0.7199690786455305,0.39288619997649743,-0.6241847838283504,-0.005640225609023392,0.02568102724109058,0.015240609624385369,4.052682107284328,1.352934117364707,-0.9853594143765836,5.00436060002318,-0.22281868906843175,11.752750136411068,1.5262577353257605,0.7779386917342371,-0.24457075317382312,6.509298271252014,6.225633245884958,-10.597765298869714,-0.021705000000000002,-0.09838799999999999,-0.8241959999999999,-0.22173,0.016446,-0.6648879999999999,0.200025,0.11483399999999999,0.159308,0.949348590926663,0.0,single,-0.6648879999999999
166,1.383333,jog,1.5245409816392788,0.5421816872674956,0.2973718948758087,1.075484762894242,0.33461137587290546,-0.5558804711586683,0.006240249609984035,0.025321012840512528,0.026281051242049977,4.14052562102488,1.3429737189487703,-1.0326413056522357,-1.7281382482950023,1.9585566814008408,12.183374650480651,1.4257140548430982,-0.043203456207614954,1.3249059903593796,10.541643314598893,-1.195295621737279,-5.674053915234911,-0.034357,-0.10269500000000001,-0.826455,-0.199931,0.023119,-0.6759710000000001,0.165574,0.125814,0.15048399999999995,0.9382930748337226,0.0,single,-0.6759710000000001
167,1.391667,jog,1.6885049196064188,0.5916726661867006,0.5880729541636543,1.787240603302258,-1.77536296846217,-0.3734872127631974,0.026637868970482155,0.05075593952483843,0.024238060955123084,4.248500119990364,1.4566834653227632,-1.0539956803455626,19.6740986281664,5.938442394912956,34.8813366076126,2.4475185217780133,3.0519470463553766,-0.24513922329336188,12.955903403585754,13.644078038635952,-2.562319977601001,-0.048207,-0.10720299999999999,-0.831154,-0.17859600000000003,0.030328,-0.6896559999999999,0.13038900000000003,0.13753100000000001,0.141498,0.8962746005176021,0.0,single,-0.6896559999999999
168,1.4,jog,1.570142805712241,0.6822272890915698,0.17316692667706532,-0.838692017224247,1.822094597315612,0.058096504013643656,0.03972158886355466,0.0628825153006122,0.005760230409216353,4.299771990879678,1.4117364694587908,-1.082323292931727,-14.204021828174584,10.866989428161537,-49.790714926988215,1.5701091915363765,1.4552473029849853,-2.2174283626433335,6.152870621542526,-5.3938552578870445,-3.399449488319298,-0.060959999999999986,-0.112364,-0.832549,-0.15585,0.036406999999999995,-0.7001179999999999,0.09489,0.148771,0.13243100000000008,0.875666268915468,0.0,single,-0.7001179999999999
169,1.408333,jog,1.6021840873634667,0.6287051482059173,0.20016800672026563,-1.7373917197052227,1.7353440367032862,-0.027155684931615933,0.024480979239166974,0.04968198727949003,0.024480979239169472,4.301332053282057,1.4500180007200039,-1.1086043441737505,3.84510760245111,-6.422913822831107,3.2402592155526033,-1.8289463127790015,-1.5841267276037367,2.2465797227832462,0.18721497688463776,4.593967510045885,-3.1538523031348915,-0.074107,-0.117189,-0.8340129999999999,-0.13335799999999998,0.043251,-0.711024,0.05925099999999997,0.16044,0.1229889999999999,0.8990746074642734,0.0,single,-0.711024
170,1.416667,jog,1.6107511399088386,0.6375089992800699,0.43196544276459276,0.5210974756307978,2.451226329927834,0.1906205114891627,0.019558435325177266,0.06587473002160046,0.07259419246460437,4.371730261579156,1.5033597312215314,-1.0785937125030198,1.0279640683191726,1.0563776186888372,27.813467247939947,-0.5906580170374133,1.942973691157996,5.773123737153325,8.447109226913845,6.400495620533788,3.600987721470035,-0.08736799999999999,-0.121953,-0.837008,-0.11034799999999999,0.050467000000000005,-0.7236130000000001,0.02298,0.17242000000000002,0.11339499999999991,0.8334006033476319,0.0,single,-0.7236130000000001
171,1.425,jog,1.6555862234489094,0.668186727469087,0.6542661706468159,0.3636787229081806,0.5366370072942761,0.2508115382118105,0.023400936037441176,0.07944317772710721,0.10860434417376458,4.419656786271373,1.600504020160777,-1.1816872674906782,5.3804252418180765,3.6814746416676605,26.677154432043594,0.46111853021286964,1.6282788558150139,4.321391060741579,5.75141301958674,11.65778098394862,-12.371721467377483,-0.10096899999999999,-0.126859,-0.841555,-0.08731499999999999,0.058235999999999996,-0.738912,0.013654,0.185095,0.10264300000000004,0.7723689274516605,0.0,single,-0.738912
172,1.433333,jog,1.6848673946958028,0.6947077883115387,0.5084603384135334,0.038108507493861285,0.8453446818687118,0.268507010147146,0.03480139205568071,0.035281411256450894,0.2108484339373596,4.573502940117644,1.5165006600264161,-1.038041521660875,3.5138811048714405,3.182654607278518,-17.497399763984617,1.3681094465666193,-5.299623961437264,12.269781562894032,18.462276952630738,-10.080806448381328,17.23817902673762,-0.114719,-0.132354,-0.844035,-0.06324400000000001,0.065084,-0.7517989999999999,0.05147499999999999,0.197438,0.0922360000000001,0.6390099379518988,0.0,single,-0.7517989999999999
173,1.441667,jog,1.70530357571393,0.6825053995680291,0.5247180225581999,0.444637408541349,1.4341175985539911,0.0048763068919497835,0.043916486681065806,0.06947444204463545,0.1978641708663289,4.621550275977888,1.4768418526517766,-1.0279577633789225,2.452145550531212,-1.4641695156598808,1.9507660360770718,1.093723857137632,4.102835467744695,-1.5579869295693072,5.765219085702381,-4.758676190861442,1.2099541974984793,-0.12856499999999998,-0.137463,-0.846759,-0.03894,0.071704,-0.7647390000000001,0.089625,0.209167,0.08201999999999998,0.6429068515061844,0.0,single,-0.7647390000000001
174,1.45,jog,1.769710788431553,0.7508700348013988,0.5552622104884171,-0.5746267571384739,1.1767011130465037,0.02119131424338558,0.05040201608064413,0.09204368174727119,0.17640705628225278,4.6267850714028995,1.6108244329773342,-0.9246369854794281,7.729174693102549,8.20408439138009,3.665449169592879,0.7782946597357956,2.708417101000354,-2.5749567483590923,0.6282005790245848,16.078552781178313,12.398989307511748,-0.142892,-0.142953,-0.849916,-0.015131999999999993,0.07887000000000001,-0.777071,0.12775999999999998,0.221823,0.07284500000000005,0.6578992510289616,0.0,single,-0.777071
175,1.458333,jog,1.7413896555861934,0.8603144125764882,0.7742709708388216,2.0497509874652406,-0.1052567382590965,-0.01224830785283866,-0.04908196327852941,0.04536181447257851,0.4321372854914121,4.62054482179279,1.7476299051961763,-0.8658346333853202,-3.3986718883186304,13.133850687037983,26.282102526149128,-11.938555065303229,-5.60204815488922,30.688855059300955,-0.7488599076094306,16.417313358795116,7.056564513873378,-0.15781199999999998,-0.149744,-0.8527669999999999,0.00886,0.08626400000000001,-0.7907379999999999,0.166672,0.236008,0.062029,0.5,0.0,flight,-0.7907379999999999
176,1.466667,jog,1.7824574034077614,0.787976961843068,0.3568514518838599,-1.8361791527893456,-0.8232171023167365,0.1632126132452708,0.07727381809455125,-0.025677945764340043,0.3705303575714014,4.698704103671796,1.7520998320134726,-0.8087353011759209,4.92773551974667,-8.679799704034272,-50.08633536776693,15.161480846302263,-8.524089301286285,-7.39223997120373,9.37836355639636,0.5363483102107492,6.8513717553876194,-0.172023,-0.156525,-0.852653,0.033164,0.094299,-0.8004519999999999,0.205187,0.250824,0.05220100000000005,0.5,0.0,flight,-0.8004519999999999
177,1.475,jog,1.7247089883595041,0.9373574942997546,1.0331213248529734,3.006483614806427,0.4444168051778425,0.012409090888468298,0.22644905796231452,-0.0277211088443527,0.3621744869794728,4.672746909876313,1.8937957518300388,-0.6811472458898238,-6.930087009271117,17.926380950040077,81.15563098153146,17.901744853925436,-0.24518937717660158,-1.0027445808146476,-3.114987854972078,17.004190545609465,15.31117908149464,-0.184508,-0.164567,-0.858244,0.057730000000000004,0.102269,-0.8147369999999999,0.242238,0.26683599999999996,0.04350700000000007,0.5,0.06492999999999999,flight,-0.8147369999999999
178,1.483333,jog,1.7571102844113926,0.8735149405976328,0.6801872074883065,0.40340317604878845,-0.11714991953547033,0.04640574996883907,0.19608784351374192,0.0020400816032645243,0.42793711748470326,4.6913476539062,1.8642745709828556,-0.6015840633625404,3.888311058668998,-7.6614129007707135,-42.35378823528982,-3.643491473487684,3.5714857131426254,7.891831333881083,2.232178570729261,-3.5426834089983688,9.547963821826961,-0.19751600000000002,-0.171829,-0.8603459999999999,0.082181,0.11052499999999998,-0.825418,0.27969700000000003,0.282354,0.03492799999999996,0.5,0.15072000000000002,flight,-0.825418
179,1.491667,jog,1.7916966642668448,0.953443724502032,0.7212622990160719,-0.3128726648562742,1.0994324000109363,-0.060894940956451336,0.24310055195584168,-0.006839452843772625,0.4804415646748224,4.618070554355615,1.93760499160066,-0.4800815934725191,4.150033579967836,9.59068681358274,4.928616693996283,5.641073727153755,-1.065458896932695,6.300029660441415,-8.792548542186722,8.798946558411771,14.579130056397938,-0.210422,-0.179832,-0.8623529999999999,0.105736,0.11872700000000001,-0.83543,0.316158,0.298559,0.02692299999999992,0.5,0.2307700000000001,flight,-0.83543
180,1.5,jog,1.7989919596784036,0.9726389055562312,0.7182287291491747,-0.35198757114120327,0.8040127767509511,0.19796568172070259,0.3337333493339771,0.054122164886595124,0.5397815912636558,4.538221528861197,1.965558622344909,-0.3400936037441516,0.8754704682057949,2.303513867058615,-0.3640429457454946,10.876370740205955,7.315686755114402,7.121088034181436,-9.582266349984296,3.354569872104815,16.79923073663372,-0.222632,-0.18748599999999999,-0.8638399999999999,0.128562,0.12700099999999998,-0.844249,0.351194,0.31448699999999996,0.019590999999999914,0.5,0.30408999999999997,flight,-0.844249
181,1.508333,jog,1.7976719068762912,0.98571942877716,0.7107884315372693,-0.8010314467685276,1.427517089299741,-0.04158043062761797,0.3406936277451139,0.060602424096965084,0.5215408616344697,4.523340933637387,2.0160806432257488,-0.17052682107284514,-0.15841267276040563,1.56972557553449,-0.8928714282857809,0.835266820009228,0.7776622117328715,-2.1889751145069325,-1.7857428565714286,6.062885021101661,20.348827873671908,-0.234773,-0.195195,-0.865417,0.151275,0.135587,-0.851593,0.386048,0.330782,0.013823999999999947,0.5,0.36175999999999997,flight,-0.851593
182,1.516667,jog,1.7150227981761328,0.8894888408927222,0.5292776577873795,0.6157110564750392,-0.9923610973753052,0.6297263662896857,0.4521238300935883,0.09179265658747252,0.5436765058795263,4.356131509479209,1.9190064794816244,-0.007799376049915421,-9.917099676044849,-11.546746806387942,-21.779550485947745,13.37055463744583,3.7425284965811367,2.6560648242208402,-20.063525816915917,-11.647967811869885,19.525731344243876,-0.24529800000000002,-0.201843,-0.8652970000000001,0.173286,0.144167,-0.8560690000000001,0.418584,0.34601,0.009228000000000014,0.5,0.40771999999999997,flight,-0.8560690000000001
183,1.525,jog,2.0010800432017475,1.1054842193687846,0.7296291851674103,-1.4370959102264413,1.0842452627166006,-0.14983473345098802,0.4651386055442282,0.044641785671426945,0.5421816872674949,4.166686667466734,1.870514820592843,0.15588623544941876,34.32824253277539,25.920482236417186,24.043145011404373,1.5618355274979012,-5.658330843159247,-0.17938540886012153,-22.73429041311371,-5.819231835927256,19.643059102284376,-0.258097,-0.210683,-0.866859,0.19133199999999997,0.150542,-0.86085,0.44942899999999997,0.361225,0.006009000000000042,0.5,0.43991,flight,-0.86085
184,1.533333,jog,1.8801152046081497,0.9858394335773258,0.5646225849033814,0.21081433655637755,0.12390086831342306,0.22789501364550205,0.5478219128765037,0.06360254410176328,0.5990639625584915,3.9563182527300396,1.7801512060482125,0.28741149645985437,-14.516361285682903,-14.357948612919317,-19.801584095046923,9.922393775623915,2.2753820269213967,6.826146080762696,-25.24521957718595,-10.84406750805579,15.783662667758707,-0.26919899999999997,-0.218368,-0.866572,0.20863299999999999,0.157161,-0.8631599999999999,0.477832,0.375529,0.0034120000000000816,0.5,0.46587999999999985,flight,-0.8631599999999999
185,1.541667,jog,1.7942164626830204,0.9868010559155449,0.4563234941204791,-0.6308219694987889,-0.05528066680830882,0.7581075284575968,0.5495560355171691,0.07223422126229936,0.5289176865850843,3.6965442764579572,1.6498680105591848,0.3717302615790795,-10.307024469058195,0.11538544975030927,-12.994851305844048,0.20807807063420292,1.035718401792207,-8.416879766427707,-31.170383521968713,-15.632732840056427,10.117442418913697,-0.279572,-0.22599,-0.8659669999999999,0.224487,0.162687,-0.863865,0.504059,0.388677,0.0021019999999999373,0.5,0.4789800000000001,flight,-0.863865
186,1.55,jog,1.8898355934237037,0.9936397455898074,0.5418216728669109,0.732503923226222,0.907566249093557,0.6580992363121073,0.6563062522500787,0.1504860194407756,0.5576623064922497,3.367454698187869,1.5516620664826317,0.4045361814472507,11.474754679068957,0.8206755879350016,10.260191857245918,12.810538429486098,9.390591405073188,3.4494923685545262,-39.492329085573346,-11.78518469657402,3.9368678588948263,-0.28985099999999997,-0.233016,-0.865835,0.2368,0.16733699999999999,-0.865009,0.526651,0.40035299999999996,0.0008259999999999934,0.5,0.49174000000000007,flight,-0.865009
187,1.558333,jog,1.8720748829953373,1.0388815552622197,0.4126965078603146,-1.1399297764741996,0.6600326694048344,0.7698388191965175,0.7463098523941029,0.15816632665306754,0.6153846153846203,3.0826833073323203,1.3582143285731547,0.3847353894155802,-2.131370506224231,5.42923433006273,-15.495639626376748,10.800864051845076,0.9216737324243371,6.926954145250348,-34.17393386002053,-23.21465713542287,-2.3761900914041325,-0.299232,-0.24035499999999999,-0.864146,0.246888,0.16999799999999998,-0.8652420000000001,0.5461199999999999,0.41035299999999997,0.001096000000000097,0.48904000000000003,0.5,flight,-0.864146
188,1.566667,jog,1.8792896568274406,1.01811855051595,0.33213342932565054,-1.0168059977583708,0.641204498791094,0.81457438927175,0.7844972402207749,0.18754499640028593,0.6807055435565117,2.7784977201823655,1.1730261579073593,0.31785457163426667,0.8657036035641089,-2.4913612606514914,-9.666796080473175,4.582119969603046,3.5251583569976206,7.837884349878917,-36.4993505099535,-22.220802815670027,-8.025056129267224,-0.308356,-0.247277,-0.861241,0.254382,0.171289,-0.865361,0.562738,0.418566,0.0041200000000000125,0.4587999999999999,0.5,flight,-0.861241
189,1.575,jog,1.863674546981895,0.9863194527781206,0.24468978759150747,-0.532982924476025,0.15662736542634975,0.9574912556361608,0.8261130445217886,0.21588863554542487,0.6735869434777444,2.464058562342512,1.0302412096483964,0.2086883475339038,-1.8738881369909814,-3.8160443703143763,-10.49365675436744,4.994096279972881,3.4013727523267963,-0.8542661800992879,-37.73420830911511,-17.134879186243158,-13.100470910880098,-0.317002,-0.253697,-0.857667,0.259385,0.171655,-0.865661,0.576387,0.425352,0.007994000000000057,0.42006,0.5,flight,-0.857667
190,1.583333,jog,1.874954998199895,0.9449177967118509,0.27613104524180454,1.0228589948010645,-0.7566057839504491,0.8018409125683037,0.8510740429617054,0.24372974918996226,0.8592343693747599,2.1737669506779915,0.8766350654026015,0.07560302412096419,1.3537082944917598,-4.968397463850827,3.7731018421092664,2.995439630375183,3.3410672800356305,22.278582250931514,-34.83638685521608,-18.433474648481003,-15.970877644658259,-0.325534,-0.25954,-0.852808,0.26187499999999997,0.17108600000000002,-0.867332,0.587409,0.430626,0.014523999999999981,0.3547600000000001,0.5,flight,-0.852808
191,1.591667,jog,1.8582913366931,0.9636429085673341,0.060235181185506595,-0.4206131100389156,0.1581879134574381,0.9857810887141587,0.8843292536597226,0.242740580753544,0.9071274298056324,1.8820494360451527,0.7384209263259071,-0.053875689944806036,-1.9994794224616401,2.24683367596395,-25.90543125225607,3.9903060592773953,-0.11869071711282625,5.7467075151036,-35.00330149182197,-16.58436993960848,-15.536202791669387,-0.33365100000000003,-0.265548,-0.84575,0.262073,0.169209,-0.868283,0.595724,0.434757,0.022533000000000025,0.27467,0.5,flight,-0.84575
192,1.6,jog,1.771390855634194,0.9722788911556289,-0.033241329653182154,-0.8849196122395057,0.012080244392891867,1.205373912221945,0.9443177727108937,0.24432977319092455,0.9851194047761748,1.6426257050281696,0.5886235449417865,-0.23148925957037877,-10.428474866063182,1.0363593649699552,-11.217630005842686,7.198910242550106,0.1907107209145011,9.359411372919833,-28.73199700191755,-17.976404822287044,-21.314480934305728,-0.340543,-0.271614,-0.837264,0.261,0.166012,-0.869935,0.6015429999999999,0.43762599999999996,0.032671000000000006,0.17328999999999994,0.5,flight,-0.837264
193,1.608333,jog,1.7971918876755255,0.9582383295331891,-0.06420256810273228,-0.5045731650859383,-1.0633199446022161,1.135833264479485,1.1110044401776158,0.25141005640225833,0.9075963038521607,1.4333373334933541,0.4450978039121627,-0.3838953558142353,3.096247694867609,-1.6849347920844782,-3.7154972338354026,20.003200224015796,0.8496679720789441,-9.303144236651237,-25.11560920854643,-17.22377787467,-18.28946312778806,-0.34626100000000004,-0.277504,-0.829166,0.257968,0.16173600000000002,-0.872599,0.604229,0.43924,0.043433000000000055,0.06567000000000017,0.5,flight,-0.829166
194,1.616667,jog,1.7834173266138558,0.9224862011039047,-0.2276217902567689,0.025526938048820006,-0.41378809383464327,1.1530725819101486,1.24454043676505,0.24466042716582476,0.930765538756894,1.2339812814974727,0.3278137748980071,-0.5355171586273068,-1.6528151021921813,-4.2899122185366165,-19.608737959447488,16.0230377474722,-0.8098907171146535,2.7800857817054414,-23.920812574499635,-14.072957645086955,-18.19316088469766,-0.350752,-0.283153,-0.819512,0.253389,0.15678000000000003,-0.8751650000000001,0.604141,0.439933,0.055653000000000064,0.0,0.5,flight,-0.819512
195,1.625,jog,1.742229689187584,0.9301572062882609,-0.303852154086177,-0.3528139620809677,-1.211724120041015,1.2377594683864304,1.352934117364706,0.3577343093723779,0.8966758670346904,1.0660026401056109,0.23028921156846532,-0.6584663386535512,-4.942714199720656,0.9205574444205366,-9.148009579912252,13.007761982438128,13.569408641132144,-4.090924243634223,-20.158243296755472,-11.703415736174568,-14.75449178282078,-0.353996,-0.287923,-0.8095079999999999,0.24775399999999997,0.15094800000000003,-0.87812,0.60175,0.438871,0.06861200000000012,0.0,0.5,flight,-0.8095079999999999
196,1.633333,jog,1.7641905676227234,0.9103564142565798,-0.3904956198247941,0.303198590290704,-0.8723671511332844,1.080041268289567,1.5370214808592484,0.4555382215288646,0.8660746429857274,0.9197167886715625,0.15888635545421864,-0.7829113164526655,2.63541082864991,-2.376190091405418,-10.397631793905902,22.091367274036244,11.736938936335966,-3.67229377762669,-17.555004372260857,-8.568685481128925,-14.933994695681685,-0.355889,-0.291713,-0.799037,0.24071700000000001,0.144686,-0.88139,0.5966060000000001,0.43639900000000004,0.08235300000000001,0.0,0.5,flight,-0.799037
197,1.641667,jog,1.7712982961362953,0.9350851931845374,-0.4179265658747285,0.11108695369727518,-0.5110564889783635,0.8074996706602159,1.6869450443964356,0.5190784737220995,0.8324934005279514,0.6924646028317647,0.00455963522917953,-0.8801295896328236,0.8528591928931885,2.9672160940673713,-3.291450209975305,17.98938847338445,7.624220325562084,-4.029426740793832,-27.268080854307183,-18.51772500900383,-11.665259560854011,-0.356592,-0.29518,-0.788616,0.231726,0.136931,-0.885242,0.588318,0.432111,0.09662599999999999,0.0,0.5,flight,-0.788616
198,1.65,jog,1.755790231609281,0.9122764910596505,-0.5958238329533232,0.4660961070317631,-1.0873998676356886,0.8980839750392918,1.8677547101884249,0.5469818792751752,0.7849513980559284,0.6447857914316585,-0.02424096963878337,-0.9512780511220532,-1.8610421849291245,-2.737153741136104,-21.34852599047118,21.698027816151562,3.348542608073436,-5.705268507383108,-5.721686235462216,-3.456210832588883,-8.538156904983829,-0.355659,-0.298224,-0.77711,0.22246799999999994,0.12912700000000002,-0.888204,0.578127,0.42735100000000004,0.11109400000000003,0.0,0.5,flight,-0.77711
199,1.658333,jog,1.7139085563422192,0.9054362174486816,-0.7153486139445445,0.9461715973177307,-1.5879093351524083,0.9738034567965314,1.9715588623544595,0.6098643945757727,0.6644665786631333,0.385095403816148,-0.023280931237252382,-0.8904356174246809,-5.026002072130223,-0.820865667942964,-14.343547460844741,12.456996539785534,7.546203684218939,-14.458756677402254,-31.164093077583818,0.11520921655237874,7.30138409904851,-0.353512,-0.300687,-0.765612,0.211395,0.121388,-0.889663,0.5649069999999999,0.422075,0.12405100000000002,0.0,0.5,flight,-0.765612
200,1.666667,jog,1.636669066474718,0.9361651067914782,-0.782817374610043,0.2653713981756711,-1.8371767649666773,1.0906193790531051,2.208783297336255,0.7185025197984298,0.6136309095272504,0.2810175185985254,-0.08555315574754413,-0.5645548356131618,-9.267997344312759,3.687171747395871,-8.095603631569443,28.464655025413975,13.035532184144374,-6.0997923129210285,-12.488347158342279,-7.472069175701096,39.10256561213407,-0.34874400000000005,-0.302501,-0.753974,0.20009700000000002,0.11287299999999995,-0.887844,0.548841,0.41537399999999997,0.13386999999999993,0.0,0.5,flight,-0.753974
201,1.675,jog,1.5691827673106622,0.9074762990519412,-0.8393135725428937,1.0481517552620274,-2.419671735305137,0.872561004729233,2.3583343333732936,0.7917916716668528,0.5545421816872594,0.319812792511685,-0.058802352094081585,-0.1808472338893526,-8.098679846880442,-3.4427946405300105,-6.779814944539755,17.946842198132227,8.795050026211655,-7.090930978037914,4.65561909434284,3.2102248474093455,46.04675407701938,-0.342168,-0.303465,-0.742359,0.18968599999999997,0.104821,-0.882357,0.5318539999999999,0.408286,0.13999799999999996,0.0,0.5,flight,-0.742359
202,1.683333,jog,1.4616584663386631,0.8694347773911038,-0.8053522140885603,2.012497073683224,-3.170043443583145,1.1789458477521182,2.535221408856377,0.877475099003968,0.5215408616344688,0.3408136325453127,-0.13416536661466677,-0.09744389775591115,-12.903432253930161,-4.565165205908767,4.075526035561475,21.22729814989622,10.282422577357012,-3.960316819007676,2.520201612099835,-9.043923499410282,10.008800688040585,-0.33322199999999996,-0.303398,-0.731302,0.18034600000000006,0.09645799999999999,-0.8764580000000001,0.513568,0.399856,0.14515600000000006,0.0,0.5,flight,-0.731302
203,1.691667,jog,1.4559635229181596,0.856731461483079,-0.8200143988480867,0.9634467190794286,-0.44237605887521925,1.1151886351671094,2.8921286297096014,1.1030717542596509,0.3927285817134597,0.29889608831292186,-0.12802975761938762,-0.0974322054235654,-0.6833385433769548,-1.5242759668856087,-1.7593214254291214,42.82544046714921,27.06943307603565,-15.456237091553646,-5.0297029316523325,0.7362141822989087,0.0014029676440791504,-0.321253,-0.30134500000000003,-0.721195,0.17070299999999994,0.08825099999999997,-0.870436,0.49195599999999995,0.389596,0.14924099999999996,0.0,0.5,flight,-0.721195
204,1.7,jog,1.483619344773806,0.8724348973959036,-0.7340693627745224,1.5045867565241446,-0.5654121128743304,1.2535655412519129,2.951878075123031,1.1036841473659047,0.2596903876155069,0.1858874354974243,0.008760350414015409,-0.042361694467778994,3.318831375932637,1.8844876890465356,10.31381688150307,7.170220258421972,0.07349011235495422,-15.965221900630509,-13.561580801091873,16.415469582791825,6.6087256637209775,-0.309018,-0.299418,-0.712914,0.15988899999999995,0.08105399999999996,-0.864672,0.46890699999999996,0.380472,0.15175799999999995,0.0,0.6819093613913425,single,-0.712914
205,1.708333,jog,1.402976119044738,0.7763110524420844,-0.8277931117244497,2.1639384421808163,-0.37797736440649127,1.305668433509247,3.1081243249729447,1.1933277331093037,0.11148445937837476,0.022320892835715377,0.011760470418821646,-0.06708268330733076,-9.677574190455598,-11.535322807370397,-11.247299765981719,18.750299993989056,10.75766059563152,-17.78542280536776,-19.62877027021554,0.3600288017288113,-2.96663732623921,-0.29480900000000004,-0.295943,-0.705087,0.14838399999999996,0.074683,-0.858333,0.443193,0.370626,0.153246,0.0,0.8805496695371402,single,-0.705087
206,1.716667,jog,1.4674826013919122,0.7804175665946818,-0.6247900167986767,2.567973882508734,-0.2526797076092047,1.2946167032577243,3.3088552915767373,1.2348212143028792,0.17830573554115858,0.07631389488840677,-0.07355411567075136,-0.025797936165107272,7.740158668967529,0.4927422789293745,24.358422717275836,24.085789129325228,4.978819437674133,8.017911706597683,6.478641954966693,-10.236931376238857,4.953773355198497,-0.279463,-0.29215599999999997,-0.698394,0.13678999999999997,0.06756600000000001,-0.8533409999999999,0.416253,0.359722,0.15494699999999995,0.0,0.8181915538301978,single,-0.698394
207,1.725,jog,1.4698187927516888,0.7884315372614791,-0.5595823832953187,2.1632778688295593,0.7843111138815078,1.4576144690808037,3.3520940837632933,1.3532941317652467,-0.031081243249730554,0.04908196327852941,-0.05376215048601898,-0.03252130085203356,0.2803541773402789,0.9617149486136062,7.825229029564007,5.188862616891307,14.217318788235385,-25.12744255260836,-3.267962511685694,2.3751308274009406,-0.806836035872575,-0.263778,-0.287449,-0.69399,0.12495099999999992,0.06054799999999999,-0.848949,0.38872899999999994,0.347997,0.15495899999999996,0.0,0.8671148892916982,single,-0.69399
208,1.733333,jog,1.3786151446057966,0.7755910236409523,-0.6896675867034681,-0.48039744314815697,2.100254302678476,1.6969320640557746,3.423376935077434,1.3853354134165494,-0.09816392655706142,0.020040801632068856,-0.0008400336013415707,-0.006120244809792739,-10.944875572530067,-1.5409232713940786,-15.61084884293178,8.55428432907011,3.845107602460459,-8.050244006640044,-3.4850788007273272,6.350908062483846,3.1682534552071355,-0.246739,-0.282368,-0.689061,0.11362999999999995,0.054078000000000015,-0.843253,0.36036899999999994,0.336446,0.154192,0.0,0.9650477793171278,single,-0.689061
209,1.741667,jog,1.4990400767938423,0.8543316534677179,0.009479241660659903,4.049236134868909,0.7327307878441309,1.0631313827749187,3.5665946724261786,1.4838012958963172,-0.19978401727861617,0.05351571874250709,0.012479001679864673,-0.023518118550515988,14.449835875695321,9.448119729633424,83.89090813104424,17.184753701553102,11.81496070071598,-12.193435411753535,4.0166687197549775,1.5981563812342383,-2.087577842659361,-0.229508,-0.277122,-0.690805,0.10158300000000003,0.04706199999999999,-0.843528,0.331091,0.324184,0.15272299999999994,0.0,0.9003790582088325,single,-0.690805
210,1.75,jog,1.466218648745964,0.8666746669866882,-0.5792631705268294,-1.0228380011079412,2.452105512467412,0.9798801460315765,3.6795871834873726,1.5534621384855534,-0.2918516740669641,0.045841833673346565,-0.0367214688587581,-0.019200768030721453,-3.938728914902021,1.4812208711112904,-70.65191553912094,13.55964371309193,8.359635496128268,-11.048560757032135,-0.920903044421048,-5.904292636340241,0.5181027864868084,-0.211064,-0.271399,-0.68841,0.08974700000000002,0.03953399999999996,-0.838861,0.30081100000000005,0.31093299999999996,0.150451,0.0,0.8970085024727084,single,-0.68841
211,1.758333,jog,1.3654146165846759,0.8334333373334984,-0.2696507860314436,-0.6145357317008724,-0.8128554795007875,0.9185734893049842,3.7107884315372925,1.5993039721589017,-0.37033481339253976,-0.0009600384015370304,-0.013200528021120844,-0.028681147245889636,-12.096967738064217,-3.9891191231477277,37.15497233834017,3.74429953797195,5.501240090405472,-9.418353453207294,-5.616449306958361,2.8226258055487183,-1.1376910134607308,-0.19152000000000002,-0.265017,-0.689249,0.07836100000000001,0.03247899999999998,-0.836853,0.26988100000000004,0.297496,0.14760399999999996,0.0,0.9473538061650854,single,-0.689249
212,1.766667,jog,1.3316534677225715,0.8048956083513248,-0.2948164146868146,-0.9268009229633885,0.30842543921252435,0.5406909040030177,3.83093352531795,1.7011039116870514,-0.4944804415646727,0.027477801775861888,-0.007679385649142368,-0.015718742500599733,-4.051013782349903,-3.424253537577807,-3.019633867935059,14.416257953042535,12.2150155421345,-14.8962836779616,3.412267839860655,0.6624840859105393,1.5553641403035523,-0.17069099999999998,-0.257548,-0.690913,0.06749200000000005,0.025707000000000035,-0.834527,0.23818300000000003,0.28325500000000003,0.14361400000000002,0.0,0.9457095921051023,single,-0.690913
213,1.775,jog,1.3369734789391712,0.8063122524901106,-0.28117124684987466,-1.2554855509935967,0.1211509403451362,0.5383863148168391,3.8186727469099098,1.6114244569782934,-0.5227409096363901,0.021720868834751998,-0.023880955238210315,-0.0014400576023047128,0.6384268830672853,0.1700040968181749,1.6374856398583997,-1.471352263055358,-10.76196504365281,-3.3913918242790895,-0.6908595873166858,-1.9442661213330246,1.713510728224547,-0.150011,-0.25083900000000003,-0.692926,0.05653200000000003,0.018789,-0.832196,0.20654300000000003,0.26962800000000003,0.13927,0.0,0.9461439693894746,single,-0.692926
214,1.783333,jog,1.2757710308412116,0.7847113884555199,-0.11184447377895447,0.353890096857056,-0.8634031371183101,0.5368561545505967,3.9877595103803434,1.9075963038521215,-0.7069482779311057,0.0,-0.005520220808831116,0.0,-7.344587555257235,-2.5922073724457384,20.32002556953285,20.291223265382293,35.54204330659102,-22.105768426102532,-2.6066085245111745,2.2033762665761283,0.1728138248295557,-0.12741200000000003,-0.24148199999999997,-0.697885,0.045901000000000025,0.012204000000000048,-0.831264,0.17331300000000005,0.253686,0.13337900000000003,0.0,0.9907996319852814,single,-0.697885
