frame_id,timestamp,gait_type,root_linear_velocity_x,root_linear_velocity_y,root_linear_velocity_z,root_angular_velocity_x,root_angular_velocity_y,root_angular_velocity_z,left_linear_velocity_x,left_linear_velocity_y,left_linear_velocity_z,right_linear_velocity_x,right_linear_velocity_y,right_linear_velocity_z,root_acceleration_x,root_acceleration_y,root_acceleration_z,left_acceleration_x,left_acceleration_y,left_acceleration_z,right_acceleration_x,right_acceleration_y,right_acceleration_z,left_pos_rel_x,left_pos_rel_y,left_pos_rel_z,right_pos_rel_x,right_pos_rel_y,right_pos_rel_z,step_length,step_width,step_height,left_contact_prob,right_contact_prob,support_type,max_foot_height
1,0.008333,jog,0.06240249609985311,0.07596303852155355,-0.004440177607098732,-0.10239281027740879,-0.1562193602354974,0.1652508101239938,-0.0013200528021100738,0.0007200288011461046,0.004320172806912433,0.0020400816032561785,0.00024000960039091698,-0.001200048001920028,0.0,0.0,0.0,0.0,0.0,0.0,0.0,0.0,0.0,0.05452400000000002,0.06902599999999992,-0.908601,-0.06923600000000008,-0.11183900000000002,-0.910416,0.12376000000000009,0.18086499999999994,0.001815000000000011,0.9742260476208888,0.9960349958795256,double,-0.908601
2,0.016667,jog,0.030717542596596346,0.07427405807534498,0.0004799616030722342,0.006645561352260532,-0.1701062874847727,0.05656832082535823,0.0031197504199495397,0.002039836813060326,-0.0005999520038398765,0.0032397408207342506,-0.0016798656107594805,0.00035997120230375936,-3.801890269169277,-0.20266144062977712,0.5903694756624629,0.5327337679457179,0.15836429228632362,-0.5903677478704474,0.14394759029014542,-0.23036659601036683,0.18718732952049283,0.05429399999999984,0.06842400000000004,-0.90861,-0.06946500000000011,-0.11247200000000002,-0.910417,0.12375899999999995,0.18089600000000006,0.001807000000000003,0.9756376502989735,0.9938882062275212,double,-0.90861
3,0.025,jog,0.02148085923436088,0.08796351854073967,-0.008040321612869225,-0.06968983376534729,-0.1904752400103114,-0.11383835867171338,0.002400096003855877,0.0002400096003775938,0.003000120004800278,0.002400096003855877,-0.0002400096003775938,-0.0007200288011519335,-1.1084463413219088,1.6428009678860773,-1.0224748849083714,-0.08636198441061595,-0.21598790503812937,0.4320259220737015,-0.1007614084817441,0.17278963283113966,-0.12960518462206802,0.054135000000000044,0.067693,-0.908518,-0.06962399999999991,-0.11320699999999995,-0.9103559999999999,0.12375899999999995,0.18089999999999995,0.0018379999999998953,0.9752041373925417,0.9958045967911671,double,-0.908518
4,0.033333,jog,0.09600384015359557,0.04692187687507863,-0.03708148325933082,-0.7102163941701201,0.002528804881105288,0.3338183936184856,-0.0006000240009639692,0.0009600384015370216,0.0025201008040321837,0.0013200528021100738,-0.000840033601341563,-0.0004800192007680944,8.94311543492556,-4.92519400763963,-3.4850788007274205,-0.36002880173045076,0.08640691241562796,-0.057604608276502385,-0.12961036862424136,-0.07200576034609016,0.028802304138226216,0.0533300000000001,0.06730999999999998,-0.908188,-0.07041299999999984,-0.11360499999999996,-0.9100509999999999,0.12374299999999994,0.18091499999999994,0.001862999999999948,0.9767654700455113,0.9972722545507897,double,-0.908188
5,0.041667,jog,0.03107751379889719,0.06959443244540735,0.036357091432691765,0.29605505177052294,-0.32191926793837283,0.07559438247504469,0.0026397888168906273,0.0007199424046150121,0.0002399808015357008,-0.007799376049913815,-0.0026397888169039487,0.0050395968322534635,-7.79053591969023,2.7204890293171005,8.811924009121979,0.3887464384274773,-0.028809214893449665,-0.273592512898546,-1.0942439227290481,-0.2159533495995183,0.6623009398873959,0.05309300000000006,0.06673600000000002,-0.9084890000000001,-0.07073699999999983,-0.11420700000000006,-0.910312,0.12382999999999988,0.18094300000000008,0.001822999999999908,0.9771921569705417,0.9839102959079176,double,-0.9084890000000001
6,0.05,jog,0.07236289451579637,0.09516380655225401,-0.04368174726989451,-0.2360658041915617,0.006021949379699252,-0.11798805578960124,0.00048001920078183396,0.0,0.0028801152046081502,0.0026401056042201477,-0.0013200528021100738,0.0018000720028798337,4.954443863782454,3.0684476307268285,-9.605044846104196,-0.2591827212419049,-0.08639654441557806,0.3168288015207547,1.252787910012476,0.15837465676153545,-0.3887585298660302,0.05249400000000004,0.06594300000000008,-0.908101,-0.07131799999999999,-0.11501099999999997,-0.909933,0.12381200000000003,0.18095400000000006,0.0018319999999999448,0.9768135953195705,0.9942378253966673,double,-0.908101
7,0.058333,jog,0.07680307212288179,0.07896315852634675,0.01848073922956768,-0.17642821256470853,-0.2809171371828844,0.22624798475283062,0.001200048001901292,-0.00024000960039091698,-0.00012000480019171134,0.0018000720028652614,-0.0018000720028785845,0.002400096003840472,0.5328426265553118,-1.9441555293300445,7.459796771806335,0.0864069124108314,-0.0288023041390756,-0.3600288017280525,-0.10080806448516576,-0.057604608276552345,0.07200576034569044,0.05186399999999991,0.06528299999999998,-0.908256,-0.07194300000000009,-0.11568400000000001,-0.910067,0.123807,0.180967,0.001811000000000007,0.9798405278679512,0.9941688148577628,double,-0.908256
8,0.066667,jog,0.04271658267338888,0.08519318454523497,-0.008279337652986048,-0.16611720732170254,-0.21903445508840896,-0.06827416660517974,0.003719702423819806,0.0009599232061444684,0.0050395968322534635,0.0021598272138317145,-0.0011999040076739248,0.0011999040076793367,-4.090051529816763,0.7475433188010827,-3.2109523497184695,0.302334343882711,0.14398041835077816,0.6191026676800065,0.04316717194221899,0.07201439827269734,-0.1440115186178468,0.051539,0.064581,-0.908145,-0.07228100000000004,-0.11640399999999995,-0.909988,0.12382000000000004,0.18098499999999995,0.001843000000000039,0.9710086481669242,0.995422156970531,double,-0.908145
9,0.075,jog,-0.03276131045241425,0.11148445937838347,0.024720988839545016,-0.1677428899661738,-0.15152682896123143,0.3703214625895875,0.003120124804975338,-0.0016800672026831276,0.008040321612864235,0.001560062402500992,-0.0001200048001954586,0.0018000720028798353,-9.057709483475723,3.155079183145148,3.9601975870072117,-0.07195219234903022,-0.31681152152017256,0.36010137772840195,-0.0719746563459406,0.1295930886209609,0.07202304034567372,0.05183799999999983,0.06363799999999997,-0.908284,-0.07199500000000003,-0.11733400000000005,-0.910179,0.12383299999999986,0.18097200000000002,0.00189499999999998,0.9664056442193923,0.9960249196139089,double,-0.908284
10,0.083333,jog,0.04752190087601591,0.08556342253689704,-0.01224048961957703,-0.05130131084870831,-0.10481705333293524,0.1606599400584296,0.00504020160807602,0.0,0.004920196807872235,0.0021600864034383117,0.0001200048001954584,0.0018000720028802486,9.634370734240981,-3.1106488469322464,-4.435554837288133,0.23041843310940607,0.20161612896713382,-0.3744299537971915,0.07200576034289201,0.028802304139075578,4.959772808730036e-14,0.051484000000000085,0.06292500000000001,-0.908141,-0.07237300000000002,-0.11804599999999998,-0.910062,0.1238570000000001,0.180971,0.0019210000000000615,0.9690507059555611,0.9953093966160635,double,-0.908141
11,0.091667,jog,0.013798896088323414,0.10055195584353324,0.00023998080152945648,-0.1754619902237962,-0.1035185803287928,0.17515111535018163,0.004199664026878722,-0.001559875209988093,0.004439644828414007,0.0011999040076872472,0.0007199424046016911,0.002519798416126734,-4.046436859574336,1.7984801183868744,1.4975366476009715,-0.1008564412283776,-0.18717005159444372,-0.057661624605019016,-0.1152126704764897,0.0719867535884609,0.0863602607687168,0.051404000000000005,0.06207399999999996,-0.908106,-0.07247800000000004,-0.11887800000000004,-0.9100429999999999,0.12388200000000005,0.180952,0.0019369999999999665,0.9701179916799012,0.9951962194426558,double,-0.908106
12,0.1,jog,0.02556102244089986,0.11928477139084825,-0.006000240009599718,-0.11090355951040004,-0.10818072155615367,0.17263033249137993,0.006120244809795177,-0.0001200048001954584,0.004680187207488396,0.0018000720028919063,-0.00024000960037759357,0.001680067202688121,1.4115116227740834,2.248027786789271,-0.7488564515935641,0.23047891310649862,0.17279136082954918,0.028866240138532187,0.07202304034617288,-0.11519884855145612,-0.10077177648369282,0.05124200000000001,0.061078999999999994,-0.908017,-0.07267599999999996,-0.11987399999999993,-0.909979,0.12391799999999997,0.18095299999999992,0.0019620000000000193,0.9675373680893767,0.9958767294435469,double,-0.908017
13,0.108333,jog,0.04824192967718874,0.09456378255130343,-0.009120364814588389,-0.24476081764125646,-0.1277811172821609,-0.00991859956533267,0.0068402736109412915,0.0,0.006720268810752079,0.001560062402500992,0.003720148805952631,0.0012000480019200288,2.72181774106431,-2.9666373262384305,-0.3744299537967926,0.08640691241403042,0.014401152069537801,0.24481958517504915,-0.0288023041390753,0.47523801828035855,-0.05760460827650217,0.05089699999999997,0.060290999999999983,-0.907885,-0.07306499999999994,-0.12063099999999993,-0.909893,0.1239619999999999,0.18092199999999992,0.0020079999999998988,0.9639381217240948,0.9929854482512264,double,-0.907885
14,0.116667,jog,0.029637628989667143,0.16786657067435057,-0.017998560115188786,-0.17195100051845255,-0.37774135621114074,0.025160655573103267,0.00863930885530021,-0.0013198944084453126,0.00719942404607643,0.0025197984161059147,0.0009599232061444676,0.003959683225342182,-2.232337495502949,8.795630924291704,-1.0652982122150694,0.21586695996627261,-0.1583746590407141,0.057494028716624776,0.11515910890387829,-0.33120057593090485,0.3311297364317435,0.050722000000000156,0.05888099999999996,-0.907675,-0.073291,-0.12202199999999996,-0.90971,0.12401300000000015,0.18090299999999992,0.002035000000000009,0.9607782482307892,0.9920156528367199,double,-0.907675
15,0.125,jog,0.04236169446778447,0.10752430097203992,-0.012120484819394916,-0.22417324872917135,-0.0032581817577589716,-0.024513480109306842,0.0105604224168806,-0.0021600864034516387,0.007320292811712718,0.0020400816032828265,0.0016800672026831276,0.003000120004799864,1.5269489353314938,-7.241362018758034,0.7053972513853204,0.23054284910361114,-0.10082707248365856,0.014504832069637303,-0.05756832027158149,0.08642073641409584,-0.11515219255278036,0.050456999999999974,0.05796699999999999,-0.907513,-0.07362699999999989,-0.12290400000000001,-0.909584,0.12408399999999986,0.180871,0.002070999999999934,0.9575736990474293,0.9933364009564432,double,-0.907513
16,0.133333,jog,-0.007320292811696468,0.10956438257529591,0.0,-0.23949091196556374,0.05366936941153996,0.2621943502220412,0.020640825633032624,-0.009840393615747801,0.003000120004799859,0.0,0.0024000960038425517,0.004800192007680524,-5.962076956615972,0.24481958517412508,1.4545163589817478,1.2096967738091944,-0.9216737324248357,-0.5184414744885221,-0.24481958517734606,0.08640691241562745,0.21601728103692047,0.0506899999999999,0.05697200000000002,-0.907488,-0.07356600000000002,-0.12379699999999993,-0.909544,0.12425599999999992,0.18076899999999996,0.0020560000000000578,0.9410025418023965,0.991055370304811,double,-0.907488
17,0.141667,jog,0.03083753299735449,0.17086633069355595,-0.01751859851211661,-0.005576245723558862,-0.28568220002901246,0.006620983450622006,0.013798896088323437,-0.003359731221505648,0.01067914566834683,0.0017998560115042308,0.002639788816890634,0.006239500839932815,4.578572811261225,7.355645322565416,-2.102063656361489,-0.8209658680956567,0.777617277926826,0.9214093668762887,0.21596544414497662,0.028760836698834013,0.17270324361078654,0.05054800000000004,0.0555199999999999,-0.907253,-0.0738080000000001,-0.12519900000000006,-0.909346,0.12435600000000013,0.18071899999999996,0.0020930000000000115,0.9494548068579431,0.9883167573242401,double,-0.907253
18,0.15,jog,0.03708148325931746,0.10104404176165818,-0.0026401056042201455,-0.17904093329943763,-0.09657822404260262,-0.2259449075031723,0.013080523220918593,-0.0008400336013415624,0.004560182407296269,0.003120124805001979,0.00036001440057305197,0.009120364814592538,0.7493040035956996,-8.379009832221014,1.7854905685703168,-0.08620819241627789,0.3023758094520681,-0.7343049635246077,0.15843859276344016,-0.2735838733130421,0.3457175056593928,0.05034800000000006,0.054671000000000025,-0.907193,-0.0740909999999999,-0.12603799999999998,-0.9092480000000001,0.12443899999999997,0.180709,0.002055000000000029,0.9563198724740396,0.9839232877602185,double,-0.907193
19,0.158333,jog,-0.02796111844472909,0.13992559702388088,-0.006120244809795177,-0.32945500899296193,0.046423084735375764,0.29297453253598355,0.01332053282130951,-0.0016800672026831248,0.004800192007680107,0.0030001200047931973,0.0019200768030740415,0.006840273610944611,-7.805424421462438,4.665973270397536,-0.4176334100054036,0.028802304139075568,-0.10080806448356674,0.02880230413822611,-0.01440115207113662,0.18721497689919453,-0.27362188931332354,0.05069199999999996,0.053491000000000066,-0.9071020000000001,-0.07383300000000004,-0.12718799999999997,-0.9091400000000001,0.124525,0.18067900000000003,0.0020379999999999843,0.9558560529980749,0.9871464706483817,double,-0.9071020000000001
20,0.166667,jog,-0.023278137748983355,0.16246700263979794,-0.007679385649155741,-0.024197490239553383,-0.041981578764931395,0.24689354819680354,0.00683945284376934,0.0037197024238064817,0.01187904967602613,0.0027597792176753356,0.0039596832253492595,0.007199424046076014,0.56191273047105,2.704752293726546,-0.18708193416853405,-0.7776673839141064,0.6479205215370292,0.8493949686040336,-0.028838587367154,0.24473319201766452,0.043094604647396534,0.05094299999999996,0.05216799999999999,-0.9069389999999999,-0.0736159999999999,-0.12850899999999998,-0.9090159999999999,0.12455899999999986,0.18067699999999998,0.0020769999999999955,0.9555582797338427,0.985554010632451,double,-0.9069389999999999
21,0.175,jog,0.00648025921036825,0.1537261490459594,-0.011880475219004018,-0.20474986884853508,-0.11674144667751737,0.2107984432348402,0.012840513620554364,0.00036001440057305316,0.007200288011520185,0.003720148805939314,0.003120124804988666,0.006600264010560378,3.571150481141447,-1.0489443890361874,-0.5041509144183712,0.720156099458183,-0.40317868993560985,-0.5614738586950626,0.11524896055009969,-0.10075104048489085,-0.07190208034509031,0.05099600000000004,0.05088999999999999,-0.90678,-0.07363900000000001,-0.129764,-0.9088620000000001,0.12463500000000005,0.18065399999999998,0.0020820000000000283,0.9546368097328005,0.9863436857353522,double,-0.90678
22,0.183333,jog,0.0186007440297498,0.12420496819872882,0.008640345613819864,0.00512277967403782,-0.12914498727578083,-0.17179832691566557,0.015120604824201415,0.010200408016320854,-0.012720508820352618,0.0063602544101860935,0.003240129605184114,0.0078003120124808,1.454516358980144,-3.5426834090040273,2.4625970038190164,0.27362188931321835,1.180894469668522,-2.3905912434744736,0.3168253455234342,0.014401152069536535,0.14401152069127812,0.05096700000000021,0.049939999999999984,-0.9069579999999999,-0.07374099999999983,-0.130772,-0.9088689999999999,0.12470800000000004,0.18071199999999998,0.001910999999999996,0.9438280264287806,0.9823777174267654,double,-0.9069579999999999
23,0.191667,jog,0.028317734581248474,0.17638588912886607,-0.0074394048476129635,-0.09326978718833884,-0.14981954979715745,-0.10990018270439013,0.019198464122862708,-0.005039596832251794,0.006719462443004612,0.0051595872330231825,0.0037197024238064817,0.00527957763378916,1.1659455905325973,6.261209614847276,-1.929415702115768,0.48930397152163296,-1.828654289485557,2.3326099428074407,-0.14406853577668705,0.057544134703907734,-0.3024639283287302,0.05089100000000002,0.04842800000000003,-0.90684,-0.07393399999999994,-0.13221099999999997,-0.908763,0.12482499999999996,0.180639,0.001923000000000008,0.9458442956632129,0.986222858451602,double,-0.90684
24,0.2,jog,-0.01920076803071377,0.15384615384615435,-0.022560902436093343,-0.22385061607708714,0.23768189961043626,0.23086339140377773,0.02208088323532483,-0.0031201248049886558,0.005880235209408423,0.007320292811696468,0.005520220808831208,0.005520220808832457,-5.702448411371919,-2.7048764289825633,-1.8146522967095124,0.345904129660641,0.2303458571058606,-0.10071129648340192,0.2592950412424437,0.21607084903692844,0.02887833613864118,0.05123499999999992,0.04712000000000005,-0.9066029999999999,-0.07371300000000014,-0.13344699999999998,-0.908529,0.12494800000000006,0.18056700000000003,0.0019260000000000943,0.9423025418024176,0.9821633677190347,double,-0.9066029999999999
25,0.208333,jog,-0.024840993639753842,0.17940717628705483,0.01944077763110475,-0.10954964343878659,-0.254193554103508,0.2858156268384521,0.017280691227639786,-0.00480019200768512,0.004920196807872252,0.007560302412114056,0.005280211208453632,0.005760230409216315,-0.6768541472507006,3.067445390723693,5.040403224192752,-0.5760460827655175,-0.20161612896873496,-0.11520921655300297,0.028802304142276355,-0.028802304137474692,0.0288023041382286,0.05158599999999991,0.04558499999999999,-0.906724,-0.07344299999999993,-0.13489799999999996,-0.908643,0.12502899999999983,0.18048299999999995,0.001919000000000004,0.9498139218769416,0.9818785687547285,double,-0.906724
26,0.216667,jog,-0.020398368130549953,0.15382769378449773,-0.02471802255820006,-0.06462346546344686,0.14427689129508325,0.027812001467376488,0.021238300935936354,-0.011759059275263068,0.011159107271418195,0.00839932805375743,0.006599472042226563,0.004079673626109824,0.5330724153112413,-3.069292356918295,-5.2986321321459995,0.47487517498158915,-0.8349972723275668,0.7486093668761624,0.10067502299536515,0.1582986361618586,-0.20165068191822524,0.05193300000000001,0.04420499999999994,-0.9064249999999999,-0.07320299999999991,-0.13612500000000005,-0.908403,0.12513599999999991,0.18033,0.0019780000000000353,0.9356895305068926,0.9809426683774152,double,-0.9064249999999999
27,0.225,jog,-0.007080283211332197,0.17556702268090613,0.0009600384015370207,-0.13411903712691323,-0.3518102693362089,0.03381458332864539,0.008160326413051353,-0.006000240009599718,0.005880235209408423,0.018360734429358882,0.0009600384015370207,0.01140045601824088,1.598234119670916,2.608823820521826,3.0814905747914385,-1.5694197195349804,0.6910859553178141,-0.6334899870406537,1.1954165817354425,-0.6767591072470344,0.8785290282168547,0.052059999999999995,0.04269199999999995,-0.906384,-0.07299100000000003,-0.13758000000000004,-0.9083159999999999,0.12505100000000002,0.180272,0.0019319999999999338,0.9611599979039795,0.9639441544290236,double,-0.906384
28,0.233333,jog,-0.03156126245048626,0.14136565462618642,0.013080523220931915,-0.10284296154508675,0.22299594366849207,0.22862129022193148,0.008040321612869218,-0.0030001200047931973,-0.0007200288011519328,0.008760350414015322,0.006600264010563687,0.0043201728069120135,-2.9378350220993688,-4.10432833969995,1.4545163589817454,-0.01440115206793879,0.3600288017288514,-0.7920633638017941,-1.1520921655278473,0.6768541472490893,-0.8496679720783465,0.05238999999999994,0.041489,-0.9064989999999999,-0.07265500000000014,-0.13870300000000002,-0.908389,0.12504500000000007,0.18019200000000002,0.0018900000000000583,0.9667467257746204,0.9803523313888657,double,-0.9064989999999999
29,0.241667,jog,-0.029637628989693885,0.1791456683465287,-0.013678905687538727,-0.19525842026747428,0.05992912127926498,0.15705147171827377,0.006239500839925739,-0.0043196544276501185,0.0003599712023037602,0.003839692824577883,0.00827933765298607,0.008039356851452033,0.23081754989109413,4.5332389873220995,-3.2108745990485605,-0.21608120625671756,-0.15833146422569286,0.12958963324402395,-0.5904316761983982,0.2014727192731445,0.4462663840340807,0.052688999999999986,0.039959999999999996,-0.906382,-0.072376,-0.140127,-0.908208,0.12506499999999998,0.180087,0.0018259999999999943,0.9690776800909768,0.9797294732606772,double,-0.906382
30,0.25,jog,-0.06684267370693846,0.18708748349933707,-0.011280451218053333,-0.06897048938011983,0.13736173242277394,0.24512192873427496,0.0046801872075029685,-0.010080403216125395,0.0012000480019200269,0.0046801872075029685,0.010200408016320854,0.00900036001440041,-4.464783957427643,0.9530559405746264,0.2878260493802223,-0.18712512089556807,-0.6913175073173253,0.10081324848389125,0.1008633604854296,0.23053766510677823,0.11532499255350731,0.05328500000000003,0.038317000000000045,-0.906278,-0.07177999999999995,-0.14160099999999998,-0.908039,0.12506499999999998,0.17991800000000002,0.0017610000000000126,0.9637591715679019,0.9760232197749622,double,-0.906278
31,0.258333,jog,-0.029161166446657127,0.19248769950798678,-0.03384135365414678,-0.21113905862798552,0.08009578345561078,0.13592765132244744,0.0069602784111234385,-0.009720388815552376,0.007200288011520601,0.0038401536061214493,0.0129605184207365,0.0087603504140166,4.521961749703759,0.6480518431116907,-2.7074165889947803,0.2736218893100295,0.04320345620701075,0.720057603456209,-0.10080806448836209,0.331226497589782,-0.028802304138222767,0.05358599999999991,0.036632,-0.905936,-0.07150500000000015,-0.14309700000000003,-0.9076839999999999,0.12509100000000006,0.17972900000000003,0.0017479999999999718,0.9592596628873005,0.9731534423461975,double,-0.905936
32,0.266667,jog,-0.01931845452364742,0.22246220302376055,-0.041876649868015765,-0.13353154453603266,-0.002788835617978617,0.155739377076679,0.005039596832265116,-0.008759299256058275,-0.0017998560115192117,0.0008399328053864003,0.013438924886009224,0.010679145668346794,1.181030948285301,3.5966526896776747,-0.9641584129912376,-0.23046335239480695,0.11532152141757852,-1.079930888293713,-0.3599976962725037,0.057404183498046955,0.23023701155869827,0.05378900000000009,0.034704999999999986,-0.9056019999999999,-0.07133699999999998,-0.14483900000000005,-0.907246,0.12512600000000007,0.17954400000000004,0.0016440000000000898,0.9664523066890977,0.9713568729683167,double,-0.9056019999999999
33,0.275,jog,-0.10464418576742833,0.17376695067802697,-0.009000360014392885,0.026844973777130084,0.4767330627193019,0.7681600542747793,0.013320532821309464,-0.016320652826115976,-0.012480499219968738,-0.0012000480019279335,0.017160686427457536,0.012120484819392773,-10.239497329146833,-5.843664028049127,3.9453125949385273,0.9937520687680685,-0.9073987243558945,-1.281728454152104,-0.24480748917728612,0.44662925014380134,0.17296761683019002,0.05477200000000004,0.033120999999999956,-0.905631,-0.07047500000000007,-0.14614400000000005,-0.90707,0.1252470000000001,0.179265,0.001439000000000079,0.9448000351189323,0.9649272412561485,double,-0.905631
34,0.283333,jog,-0.06012240489620616,0.19788791551660923,-0.017400696027848567,-0.06056917462684067,0.11526447418189845,0.12263365187222552,0.006240249609977332,-0.020640825633019368,-0.003960158406336477,-0.0030001200047932073,0.021720868834751852,0.01524060962438485,5.342827417643379,2.8946315658925132,-1.008080644840478,-0.8496679720787411,-0.5184414744873879,1.0224817969077502,-0.21601728103507478,0.5472437786264643,0.374429953797202,0.05532500000000007,0.031300000000000106,-0.905519,-0.06999899999999992,-0.14761199999999997,-0.906798,0.125324,0.17891200000000007,0.0012790000000000301,0.9506697918340932,0.9554942873609794,double,-0.905519
35,0.291667,jog,-0.07235421166305599,0.21562275017999122,-0.03815694744419596,-0.20962084625735108,-0.10418122261850181,0.27630983419314087,-0.005879529637624873,-0.018598512119032407,0.003959683225342182,-0.009359251259901898,0.024958003359729513,0.018718502519798386,-1.467699396070292,2.128009918812332,-2.490550925887614,-1.454257169138732,0.24505801703707214,0.9503049714037257,-0.7630347078364151,0.3884250689917996,0.4173137623486361,0.05587900000000001,0.02934800000000004,-0.905168,-0.06947400000000004,-0.14920100000000003,-0.906324,0.12535300000000005,0.17854900000000007,0.0011560000000000459,0.9552673618002828,0.9457147489737482,double,-0.905168
36,0.3,jog,-0.07308292331694266,0.1812072482899334,-0.044401776071040726,-0.13416005409436296,0.2506726604697992,0.35143500307311526,0.002640105604220154,-0.007680307212296192,-0.0031201248049924136,-0.010440417616698481,0.03876155046202737,0.023520940837633772,-0.08744889642225798,-4.130025427824061,-0.7494094115978375,1.022397124906402,1.3102369982882804,-0.8496109480780767,-0.1297451526216952,1.6564919119522246,0.5763156507662783,0.05651000000000006,0.027773999999999965,-0.9048240000000001,-0.0689519999999999,-0.15038799999999997,-0.9057580000000001,0.12546199999999996,0.17816199999999993,0.0009339999999999904,0.97615976482227,0.922456199257043,double,-0.9048240000000001
37,0.308333,jog,-0.08676347053879804,0.22104884195367847,-0.03864154566183165,-0.060859793787369845,0.007191649475032049,0.4702245843890713,0.002640105604220137,-0.009960398415929904,-0.004800192007680092,-0.008640345613833159,0.04404176167046738,0.022440897635905302,-1.6417313358760741,4.781182486948866,0.6912552993170588,-2.081751441229809e-15,-0.27362188931161674,-0.20161612896767925,0.2160172810350792,0.6336506910404408,-0.12961036862216074,0.057254999999999834,0.02584900000000001,-0.904542,-0.06830100000000017,-0.15186299999999997,-0.905249,0.125556,0.17771199999999998,0.0007070000000000132,0.9739840580777184,0.9163684298367417,double,-0.904542
38,0.316667,jog,-0.09227261819054765,0.20890328773698133,-0.038036957043438145,0.003187024354850296,-0.07262731311810303,0.19610841920166458,0.00035997120230084735,-0.009959203263745588,-0.004559635229181672,-0.019798416126706464,0.0563954883609279,0.03911687065034818,-0.6610448346231864,-1.4573499180102236,0.0725448306207715,-0.27359424069106103,0.00014340678957477956,0.028864504259469764,-1.3388613526365933,1.4823286165659453,2.000956685198341,0.05802699999999983,0.024024999999999963,-0.9042629999999999,-0.06769700000000012,-0.153134,-0.904606,0.12572399999999995,0.17715899999999996,0.00034300000000009323,0.9783045512618405,0.8809463477849184,double,-0.9042629999999999
39,0.325,jog,-0.07692307692309025,0.2031681267250615,-0.0390015600624047,0.025518843345605977,0.013264683814548001,0.49794149538200355,0.002640105604246783,-0.011280451218039972,-0.005160206408256473,-0.030721228849157914,0.07368294731789282,0.0496819872794907,1.8420186328401937,-0.6882468513044304,-0.11575699255568797,0.2736270733164438,-0.1585560967591958,-0.0720714243459497,-1.3107899582925002,2.0745780579581004,1.2678647100855,0.05869000000000013,0.02223800000000009,-0.9039809999999999,-0.06731200000000004,-0.15421299999999993,-0.903867,0.12600200000000017,0.17645100000000002,0.00011399999999994748,0.978862456553697,0.8421466161188489,double,-0.903867
40,0.333333,jog,-0.05580223208927623,0.20196807872314823,-0.06444257770310945,0.25606500673597377,0.2864356227195336,0.661190175612223,0.0038401536061214493,-0.010440417616711805,-0.0036001440057600925,-0.035521420856816595,0.10044401776070788,0.08364334573382952,2.534602764168255,-0.14401152069041875,-3.053044238654124,0.14401152068578774,0.10080806448195952,0.1872149768986421,-0.5760460827623537,3.2114569114142717,4.075526035562091,0.05918699999999988,0.02046800000000004,-0.903474,-0.06714299999999995,-0.15505899999999995,-0.9026329999999999,0.12632999999999983,0.175527,0.0008410000000000917,0.980512814994908,0.7658382845570935,double,-0.9026329999999999
41,0.341667,jog,-0.08255339572834429,0.27789776817855694,-0.033237341012715554,-0.10406442868855986,-0.15631681693481458,0.15768166450556956,0.005999520038409583,-0.003479721622263704,-0.014038876889848685,-0.03371730261578779,0.12239020878329973,0.11435085193184522,-3.209882846060479,9.1108338679396,3.7443288565387403,0.25910324361508663,0.8352167019976116,-1.2525477422712483,0.21647687077379407,2.633332256130529,3.684605975283857,0.059925000000000006,0.018123,-0.903314,-0.0667359999999999,-0.15635500000000002,-0.901403,0.1266609999999999,0.17447800000000002,0.001910999999999996,0.9739022793892277,0.696127247679742,double,-0.901403
42,0.35,jog,-0.10788431537261314,0.2116884675387006,-0.05400216008639764,0.028542025188248877,0.16409049493545017,0.46611030497183414,0.0031201248050019893,-0.010560422416907264,0.0037201488059522207,-0.030601224048975983,0.13200528021120755,0.11832473298931996,-3.0398319505902935,-7.945433894138545,-2.4918779639604147,-0.3455412496588985,-0.8497180840805925,2.131168330229323,0.3739443857928499,1.1538547255379632,0.4768848022890622,0.06085000000000007,0.016270999999999924,-0.902833,-0.06609200000000004,-0.15701900000000002,-0.8999670000000001,0.1269420000000001,0.17328999999999994,0.002865999999999924,0.9806281126112596,0.671513330841482,double,-0.8999670000000001
43,0.358333,jog,-0.13164526581064695,0.23604944197767105,-0.07296291851674672,0.1420019261499762,-0.22303986575715962,0.669611965539812,0.00828033121323346,-0.007680307212282817,-0.0027601104044164275,-0.0134405376214916,0.1521660866434574,0.14076563062522449,-2.8514281096884324,2.923433870031243,-2.2753820269229568,0.6192495389693328,0.3456276496609186,-0.7776622117327039,2.0593647458879527,2.419393547611876,2.6930154369260086,0.06201600000000007,0.01424000000000003,-0.9022479999999999,-0.0651069999999998,-0.15771800000000002,-0.8981859999999999,0.12712299999999987,0.17195800000000006,0.00406200000000001,0.9806229507664022,0.6131698488985176,double,-0.8981859999999999
44,0.366667,jog,-0.11711063114949183,0.2258219342452662,-0.07487401007918855,0.08199100172366815,-0.04585784803882637,0.4089916257472206,0.009239260859143832,-0.005639548836095417,-0.003599712023038007,0.003119750419949537,0.17686585073195163,0.1769858411327097,1.7440166380075723,-1.227202751668448,-0.2293126424816212,0.11506235252104273,0.24487141542925342,-0.10074413470381313,1.9870755989250206,2.963734591851956,4.346077574692247,0.06306900000000004,0.01231099999999996,-0.9016540000000001,-0.06410500000000008,-0.158126,-0.896087,0.12717400000000012,0.17043699999999995,0.0055670000000001,0.9809878416864061,0.5272793437400342,double,-0.896087
45,0.375,jog,-0.14232569302773723,0.25309012360494815,-0.054122164886593105,0.0792839879691835,0.08028581576068258,0.6855244066190816,0.007800312012478328,-0.011040441617662452,0.007320292811712314,0.057482299291986005,0.2284891395655852,0.198007920316813,-3.025928462527957,3.2723136157064703,2.4903210359528978,-0.17268076883061415,-0.6481330591104102,1.3104529982899735,6.523766815317005,6.195042461734513,2.522750412108885,0.06432000000000015,0.010109999999999952,-0.901142,-0.06243999999999983,-0.158331,-0.8939860000000001,0.12675999999999998,0.16844099999999995,0.00715599999999994,0.9743786706989928,0.42844,single,-0.8939860000000001
46,0.383333,jog,-0.12216488659545972,0.22728909156365726,-0.07872314892595603,-0.044816191060409676,-0.12733324236749885,0.27920802741497464,0.008640345613806569,-0.005280211208453632,-0.0016800672026881264,0.048001920076797905,0.22584903396135173,0.23412936517460772,2.4193935476152117,-3.0962476948627087,-2.9522361741705248,0.10080806448196847,0.6912552993170329,-1.080086405184263,-1.1376910134631135,-0.3168253455218384,4.33474677280629,0.06540999999999997,0.008171999999999957,-0.9005000000000001,-0.06102199999999991,-0.158343,-0.891379,0.12643199999999988,0.16651499999999997,0.009121000000000046,0.9828925918794214,0.40879,single,-0.891379
47,0.391667,jog,-0.15670746340293112,0.26781857451404,-0.026877849772018448,0.1162422874602395,0.1590585642899835,0.5886043188132587,0.007559395248397674,-0.004319654427636783,-0.0013198944084469777,0.034917206623475035,0.19654427645788658,0.24010079193664433,-4.14477763468579,4.863148902133755,6.220938223414631,-0.1297036675556628,0.11525759309057454,0.04321727792670367,-1.570040011197847,-3.516289597248034,0.7165138903331649,0.06677900000000014,0.00590400000000002,-0.9002870000000001,-0.05942499999999984,-0.158937,-0.889154,0.12620399999999998,0.16484100000000002,0.01113300000000006,0.9853232996304848,0.38867,single,-0.889154
48,0.4,jog,-0.16572662906514446,0.23724948997959897,-0.04440177607105376,0.13188442983948137,0.5643891721147931,0.5221227259866983,0.009120364814588344,-0.004920196807880545,-0.0014400576023042772,0.0003600144005730508,0.2761310452418082,0.3627745109804383,-1.0823431731925235,-3.6684368816081743,-2.102955274095192,0.18732384089651544,-0.07206796834798514,-0.014420160069278654,-4.147028947906136,9.550794285841988,14.72143514266092,0.06823599999999996,0.003885999999999945,-0.899929,-0.05804100000000001,-0.158613,-0.8857609999999999,0.12627699999999997,0.16249899999999995,0.01416800000000007,0.9825625596872855,0.35831999999999997,single,-0.8857609999999999
49,0.408333,jog,-0.17988719548783666,0.27709108364334706,-0.03192127685107274,0.18056579851971102,0.2708380715848632,0.45617074903053484,0.010080403216125428,-0.0008400336013415652,-0.003120124804991997,0.014400576023028713,0.32017280691227773,0.3156126245049802,-1.6993359441608347,4.781182486949261,1.4977198151903335,0.11520921655311257,0.48963917035149285,-0.20161612896768558,1.684934792086367,5.285222809368731,-5.659652763165513,0.06981900000000008,0.0015699999999999603,-0.899689,-0.05642199999999997,-0.158254,-0.882865,0.12624100000000005,0.15982399999999997,0.01682399999999995,0.9823572989399628,0.33176000000000005,single,-0.882865
50,0.416667,jog,-0.1469882409407284,0.27117830573553237,-0.0015598752099747685,-0.32199217636372746,0.4741029825390187,0.17572056313191833,0.010199184065288299,-0.002879769618433403,-0.0027597792176628465,0.0015598752099880903,0.3675305975522,0.31629469642428654,3.9475587409537107,-0.7094765908104975,3.6430767507916895,0.01425256169460892,-0.24474874215164816,0.04323801143858291,-1.5407608366979375,5.6824802783684,0.08184208295012706,0.07112900000000022,-0.0007139999999999924,-0.899699,-0.0551839999999999,-0.1574509999999999,-0.880216,0.12631300000000012,0.1567369999999999,0.019483000000000028,0.9817476934499343,0.30516999999999994,single,-0.880216
51,0.425,jog,-0.1982479299171956,0.25585023400936374,-0.06696267850714746,0.35031561193192706,0.11017183716505502,0.6029065330299291,0.0069602784111234385,-0.005520220808831226,-0.009240369614784695,-0.028441137645511018,0.4228969158766327,0.3536541461658473,-6.151408733525418,-1.8394421848276326,-7.848650341674411,-0.388684225868819,-0.3168668175204404,-0.7777019557328532,-3.6002655532820333,6.644223967890653,4.483313301519361,0.0728390000000001,-0.0028920000000000057,-0.899218,-0.053768999999999956,-0.15605899999999995,-0.876711,0.12660800000000005,0.15316699999999994,0.022506999999999944,0.9786365613491154,0.27493,single,-0.876711
52,0.433333,jog,-0.21048841953675795,0.270610824432977,-0.11280451218047965,0.3693750243980704,-1.2592171856242205,0.16653397677830398,0.004320172806903256,0.01440057602304194,-0.027241089643585393,-0.051002040081590774,0.5834633385335295,0.42301692067682534,-1.4689175110479198,1.7713417045017654,-5.501240090403456,-0.31682534552024144,2.3905912434745087,-2.1601728103684894,-2.707416588993119,19.268741468486276,8.323865895953169,0.07462899999999983,-0.005027000000000004,-0.898505,-0.05244000000000004,-0.15345200000000003,-0.8722460000000001,0.12706899999999988,0.14842500000000003,0.02625899999999992,0.948142357044427,0.23741,single,-0.8722460000000001
53,0.441667,jog,-0.23830093592513255,0.26313894888409084,-0.032037437005041844,0.20785151426212828,0.5564910167236247,0.3186344652678161,0.008519318454542199,0.0023998080153611848,0.001559875209983105,-0.08039356851451311,0.5481161507079485,0.3456923446124323,-3.3372349878059455,-0.8965533415990182,9.69127371915506,0.5038571691431446,-1.4399769627646777,3.4558393152830167,-3.5267012758486325,-4.241323233211086,-9.278206871177522,0.07668600000000003,-0.007199999999999984,-0.898225,-0.05112399999999995,-0.15107700000000002,-0.869098,0.12780999999999998,0.14387700000000003,0.029127000000000014,0.9850212116541781,0.20873000000000003,single,-0.869098
54,0.45,jog,-0.2679707188287702,0.3024120964838541,-0.03876155046202711,0.16482495040394957,-0.04761831285222879,0.29863171531207366,0.008760350414015293,0.005400216008635731,-0.0004800192007680924,-0.12816512660507193,0.6908676347053868,0.26305052202088053,-3.5605163690912693,4.712966230620795,-0.8069258918739035,0.028924992136456606,0.36006336172741316,-0.24479712117498967,-5.732816283518375,17.130863314225095,-9.917415407602476,0.07899200000000017,-0.00967499999999999,-0.897906,-0.049958999999999865,-0.14783999999999997,-0.866583,0.12895100000000004,0.13816499999999998,0.03132299999999999,0.9828295723578323,0.18677,single,-0.866583
55,0.458333,jog,-0.17652706108244376,0.27541101644066396,0.0002400096003909176,-0.32519245924242346,0.4845489630168533,0.09126164394757612,0.010080403216125428,0.006960278411136762,-0.0034801392055679647,-0.19464778591143841,0.76203048121926,0.3410536421456855,10.97367787667427,-3.2402592155514456,4.680374422467073,0.15841267276012708,0.18721497689920014,-0.36002880172805474,-7.97823824629385,8.53988317699188,9.360748844930418,0.08054700000000015,-0.011912000000000034,-0.897937,-0.05010999999999988,-0.14378499999999994,-0.863743,0.13065700000000002,0.1318729999999999,0.03419399999999995,0.9787755792219892,0.15806000000000014,single,-0.863743
56,0.466667,jog,-0.26757859371249726,0.3380129589632776,-0.041156707463400756,-0.17529923084030416,0.053810890529101055,-0.07322432363938916,0.01067914566834721,0.006119510439167651,-0.004799616030717759,-0.25281977441805603,0.8233741300695845,0.29697624190064825,-10.925309890815145,7.5116321721398585,-4.967208670961319,0.07184334679886985,-0.1008840859094205,-0.15832455305373083,-6.980080214376957,7.360649010118125,-5.288864920210849,0.0828660000000001,-0.014677999999999969,-0.897634,-0.049987000000000004,-0.13973999999999998,-0.860925,0.1328530000000001,0.125062,0.03670899999999999,0.9779817705410075,0.13291000000000003,single,-0.860925
57,0.475,jog,-0.2652106084243431,0.2974918996759889,-0.029281171246852585,0.10910057496483,-0.009595555657828724,-0.05688374088856716,0.009000360014406268,0.005520220808831226,-0.0004800192007680956,-0.3415336613464432,1.0418816752670095,0.2712108484339378,0.2841696013625573,-4.862721623339592,1.4251213508398177,-0.20146233696639215,-0.07191763234566498,0.5183723544881403,-10.646092275097491,26.22195430186314,-3.091970894841058,0.0851510000000002,-0.017110999999999987,-0.897394,-0.05062299999999986,-0.13353700000000002,-0.858421,0.13577400000000006,0.11642600000000003,0.038973000000000035,0.9823845288484903,0.11027000000000009,single,-0.858421
58,0.483333,jog,-0.23784951398054963,0.35233409336373905,-0.037321492859708254,-0.23668384457899505,0.0973999478277874,-0.07612085056408704,0.012000480019199396,-0.007320292811709766,-0.011760470418816808,-0.4004560182407454,1.0745229809192345,0.19944797791911556,3.2834626717620705,6.581326495589817,-0.9648771886302214,0.36002880172724294,-1.5409232713957683,-1.3537082944976198,-7.070965665942872,3.9171133628014965,-8.611888937336124,0.08723300000000012,-0.020108000000000015,-0.897181,-0.05197800000000008,-0.12751900000000005,-0.8564480000000001,0.1392110000000002,0.10741100000000003,0.04073299999999991,0.9694537294505787,0.09267000000000009,single,-0.8564480000000001
59,0.491667,jog,-0.26709863210943835,0.3605711543076593,-0.03935685145188321,0.003001408289142834,0.10939631369856573,-0.11593012623935588,0.00599952003838294,-0.005399568034552639,-0.014038876889848685,-0.47036237101030953,1.1229901607871366,0.11219102471802309,-3.509613406394132,0.9883682438109227,-0.24422349318153994,-0.7200575930905267,0.23046853577599297,-0.27338690557137924,-8.388091285044885,5.815596336441339,-10.469996784388336,0.08950900000000006,-0.023158000000000012,-0.89697,-0.05367199999999994,-0.12116500000000008,-0.8551850000000001,0.143181,0.09800700000000007,0.04178499999999996,0.9730103085533338,0.08215,single,-0.8551850000000001
60,0.5,jog,-0.2691707668306733,0.34873394935797086,-0.046441857674310236,-0.34591187264391543,0.1754803498673453,-0.6352315655585928,0.0020400816032561833,-0.003240129605184125,-0.0087603504140166,-0.5723028921156889,1.1453258130325237,0.029641185647425638,-0.248666113192724,-1.4205214148192078,-0.8502347560814885,-0.4751516182799432,0.25914297724331203,0.6334485150404533,-12.233351866720218,2.6803854848658446,-9.90637694354946,0.09176899999999999,-0.026090999999999975,-0.896656,-0.05619799999999997,-0.11452700000000005,-0.8545510000000001,0.14796699999999996,0.08843600000000007,0.04210499999999995,0.9840657503590975,0.07895000000000008,single,-0.8545510000000001
61,0.508333,jog,-0.31033241329652783,0.506900276011039,-0.16080643225729055,0.4856161740800656,-0.34475879460549164,-0.8340861283148515,0.007440297611905225,0.009480379215161394,-0.01368054722188876,-0.6548661946477886,1.3111724468978694,0.026281051242050876,-4.93959515970891,18.980718427105188,-13.724297921874456,0.6480518431116067,1.526522119326229,-0.59044723483405,-9.907992623556872,19.902392159527782,-0.4032322579352872,0.09441699999999997,-0.03023600000000004,-0.8954300000000001,-0.05906900000000004,-0.10782500000000006,-0.852992,0.153486,0.07758900000000002,0.04243800000000009,0.9696139199034914,0.07561999999999997,single,-0.852992
62,0.516667,jog,-0.28701703863690464,0.3844492440604755,-0.05327573794096502,-0.3460559532665281,-0.0022045299470353935,-0.40044296314425243,-0.002039836813047016,0.004439644828421523,-0.001319894408447403,-0.7381809455243545,1.4100071994240622,0.007799376049915525,2.7976211494628416,-14.692948398195854,12.902651105870667,-1.1375251289839567,-0.6048397392296497,1.4831596848381843,-9.996970347560163,11.859221565417968,-2.2176236131672016,0.09679199999999999,-0.03340299999999996,-0.894997,-0.06282900000000002,-0.09927799999999998,-0.852483,0.159621,0.06587500000000002,0.04251400000000005,0.9915650361135195,0.07485999999999998,single,-0.852483
63,0.525,jog,-0.28501140045601897,0.32029281171247104,-0.040801632065283276,0.04414898515262984,-0.3024286088752845,-0.26470532958112414,-0.031201248049913102,-0.027241089643596218,0.015240609624385166,-0.7545901836073498,1.408856354254161,-0.06780271210848358,0.24068620915464578,-7.6990798449543,1.4969525831851302,-3.4995093287970676,-3.8018402102505227,1.9873399775390013,-1.9691873374529156,-0.13810694466592527,-9.072613483547197,0.09890700000000008,-0.03629900000000008,-0.89453,-0.06674200000000008,-0.09020700000000004,-0.852708,0.16564900000000016,0.053907999999999956,0.041822000000000026,0.9264421802146707,0.08177999999999996,single,-0.852708
64,0.533333,jog,-0.3037321492859815,0.37417496699867786,-0.08364334573383717,0.21232059606016504,0.021818231862337015,-0.2578399261804666,-0.015240609624383703,0.0018000720028919243,0.004080163206528215,-0.8447137885515252,1.382455298211938,-0.12732509300372208,-2.246579722784438,6.466117279036039,-5.141211288678061,1.9153532251925531,3.4850788007306384,-1.3393071424285437,-10.815265203909313,-3.168253455204995,-7.142971426285736,0.10131100000000015,-0.03940199999999994,-0.893799,-0.07124999999999981,-0.08180500000000002,-0.8530719999999999,0.17256099999999996,0.04240300000000008,0.04072700000000007,0.9735338700342852,0.09273000000000003,single,-0.8530719999999999
65,0.541667,jog,-0.30609551235900534,0.37041036717063097,-0.05183585313174762,-0.01747495755629774,-0.40523302901264235,-0.20594033375589857,-0.0026397888168906074,0.02075833933285066,-0.006239500839932753,-0.9884809215262931,1.4128869690424635,-0.0686345092392607,-0.2835808822922724,-0.4517158420982553,3.8165937847479365,1.5119775386960643,2.2748100947874477,-1.2382606247253287,-17.25067590289978,3.6515083789927063,7.0423066672019345,0.10384000000000015,-0.04231600000000002,-0.893419,-0.07693700000000003,-0.0731170000000001,-0.853212,0.1807770000000002,0.03080100000000008,0.04020699999999999,0.9636067578164467,0.09793000000000007,single,-0.853212
66,0.55,jog,-0.3087723508940268,0.41845673826951785,-0.07476299051961197,0.07345423706683897,-0.14952075487786143,-0.30853815950046604,0.00408016320651234,0.03276131045241409,-0.019080763230529072,-1.068162726509035,1.4495379815192622,-0.08604344173766859,-0.32123347354151865,5.765795163672948,-2.7513665412053583,0.806426499868345,1.4404141509136417,-1.5410131273966476,-9.562199085892425,4.398297429112989,-2.0891554660275786,0.10644699999999996,-0.04552999999999996,-0.892955,-0.08326499999999992,-0.06452499999999994,-0.853306,0.18971199999999988,0.018994999999999984,0.039649000000000045,0.9364471628439344,0.10350999999999999,single,-0.853306
67,0.558333,jog,-0.31381255250210704,0.3662546501860173,-0.02640105604224169,0.03329611770763057,-0.5284492020846356,-0.2526853910019786,0.0006000240009639748,0.03444137765511099,-0.028321132845314085,-1.0774030961238732,1.4161766470658896,-0.14676587063482696,-0.604848386905108,-6.264501150066122,5.8036642838558405,-0.4176334100022077,0.20161612896878875,-1.1088887093225845,-1.108888709328968,-4.003520275215749,-7.28698294697695,0.10906700000000003,-0.04829499999999998,-0.8929710000000001,-0.08962800000000004,-0.05577600000000005,-0.854309,0.19869500000000007,0.007481000000000071,0.038662000000000085,0.925676101323224,0.11337999999999998,single,-0.854309
68,0.566667,jog,-0.3357331413486989,0.4324454043676402,-0.0848332133429335,-0.1814479790001842,-0.29968889576229213,-0.10601794754804122,-0.03971682265419711,-0.011279097672190758,-0.013438924886009136,-1.1731461483081174,1.4791216702663779,-0.10895128389728811,-2.630260240771743,7.94225512138497,-7.011297972245185,-4.837634587852266,-5.486018157823541,1.7857220973487924,-11.488247202333026,7.5527985601737155,4.537387417511226,0.11153400000000002,-0.051992999999999956,-0.8923760000000001,-0.09660699999999989,-0.0470529999999999,-0.85451,0.2081409999999999,0.0049400000000000555,0.037866000000000066,0.927634247892015,0.12134000000000006,single,-0.85451
69,0.575,jog,-0.3546141845673642,0.4058562342493732,-0.1016440657626365,0.1228267501256272,-0.3648926349878856,-0.04528824142733072,-0.013200528021100858,0.006360254410172833,-0.019680787231489555,-1.224048961958488,1.5091803672146928,-0.14400576023040967,-2.265815818872611,-3.190828047313955,-2.0173829856838053,3.18208263927715,2.116806922160537,-0.7490534435954009,-6.108581981323785,3.607187921314683,-4.2067054281917535,0.11437900000000001,-0.05532199999999998,-0.891693,-0.10385200000000006,-0.037858999999999976,-0.8548629999999999,0.21823100000000006,0.017463000000000006,0.03683000000000003,0.959105822125571,0.13169999999999998,single,-0.8548629999999999
70,0.583333,jog,-0.3418936757470406,0.397575903036121,-0.12900516020640018,0.7661362749520674,0.4082990029216219,-0.12445909002906906,0.012360494419772447,-0.012600504020163363,0.027601104044161776,-1.3010920436817441,1.472938917556697,-0.17196687867514673,1.5265221193235994,-0.9936794927699735,-3.2834626717584983,3.0674453907204127,-2.275382026921411,5.674053915234745,-9.245539628375832,-4.349147924876487,-3.3554684321057175,0.11733100000000007,-0.058740000000000014,-0.8903880000000001,-0.11184499999999997,-0.02889799999999998,-0.855221,0.22917600000000005,0.029842000000000035,0.03516700000000006,0.9453959843682612,0.14833000000000007,single,-0.855221
71,0.591667,jog,-0.3920086393088414,0.43520518358531546,-0.11171106311495177,0.11498810036095912,-0.039914434735917055,0.03773012785068159,-0.045476361891063875,-0.04151667866570132,0.035517158627309676,-1.3587712982961127,1.4428845692344578,-0.14110871130309424,-6.013314562251068,4.515152453707003,2.07512564092252,-6.939867567894874,-3.469663384393777,0.9498505619327862,-6.920956877173995,-3.6062333000046616,3.702683869936676,0.12021899999999985,-0.06271300000000002,-0.889161,-0.11990199999999995,-0.020499999999999963,-0.8554660000000001,0.2401209999999998,0.042213000000000056,0.03369499999999992,0.8815235295836297,0.16304999999999997,single,-0.8554660000000001
72,0.6,jog,-0.40633625345015506,0.4426977079083135,-0.12396495859835246,-0.11903968753944506,0.40976826867386285,-0.0032692313086705484,-0.012120484819381692,0.006960278411136808,-0.003120124804992434,-1.357134285371429,1.4759390375615098,-0.1296051842073692,-1.7193824722565465,0.899138884315143,-1.4705262790592593,4.002865363216427,5.817467547922545,-4.636659478255426,0.19644940893839807,3.9666948670409514,1.380478470625844,0.12350400000000006,-0.06634399999999996,-0.888154,-0.12782499999999986,-0.011889999999999956,-0.855513,0.2513289999999999,0.054454,0.03264100000000003,0.9761319130650634,0.17358999999999997,single,-0.855513
73,0.608333,jog,-0.43165726629063184,0.4510980439217631,-0.11976479059161636,0.3757724858613228,-0.15454529750253906,0.02007666440881511,-0.0010800432017191524,0.03144125765030402,-0.007920316812672485,-1.4711388455538184,1.5318612744509748,-0.06888275531021273,-3.0386430865806635,1.008080644839746,0.504040322421227,1.3249059903591136,2.937835022100937,-0.5760460827649143,-13.681094465665293,6.7109368642103355,7.286982946976623,0.12709199999999998,-0.06984100000000004,-0.8872220000000001,-0.13648700000000002,-0.0028839999999999977,-0.855089,0.263579,0.06695700000000004,0.03213300000000008,0.9459308417558411,0.17867000000000005,single,-0.855089
74,0.616667,jog,-0.41420686345092755,0.45392368610511186,-0.12407007439404671,-0.47302485064519234,0.5718036129670906,-0.07860701110571046,-0.014998800096010737,0.006239500839939081,-0.009359251259899046,-1.4751619870410484,1.4224862011039137,-0.09647228221742306,2.093880830298102,0.33904993800681044,-0.5165927288733352,-1.6701172179375647,-3.0239688997318313,-0.17265832100150816,-0.4827383593988559,-13.123958884936611,-3.3104783905940103,0.13041899999999984,-0.07357199999999997,-0.886266,-0.14532900000000004,0.00518799999999997,-0.854859,0.2757479999999999,0.07875999999999994,0.03140699999999996,0.9687531797529905,0.18593000000000004,single,-0.854859
75,0.625,jog,-0.4286571462858653,0.4198967958718367,-0.12660506420257095,0.6545908832089392,0.02700376277134206,0.16961504859967794,0.0006000240009639668,0.022440897635897808,-0.0014400576023042772,-1.490939637585496,1.6291851674066933,-0.25477019080763125,-1.7341033043246978,-4.083390163599545,-0.30421094546072536,1.871933768987716,1.9442453853304522,0.9503412525614707,-1.8933938010857445,24.804868151059495,-18.996508891180554,0.133996,-0.07688400000000006,-0.885223,-0.1541809999999999,0.015264999999999973,-0.855927,0.2881769999999999,0.09214900000000004,0.02929599999999999,0.9625082349262413,0.20704,single,-0.855927
76,0.633333,jog,-0.45169806792270045,0.44689787591502866,-0.13968558742350282,0.3026532234405224,0.1741798646125983,0.021426431719340885,-0.008760350414015293,0.007560302412100682,-0.007920316812672485,-1.4881795271810938,1.46201848073923,-0.02856114244569796,-2.765021197268095,3.2402592155516436,-1.569725575534839,-1.123289861391962,-1.7857428565699105,-0.7776622117326509,0.3312264975881614,-20.0608048322888,27.14617165029789,0.1376869999999999,-0.08054499999999998,-0.8841249999999999,-0.16281800000000013,0.02372400000000008,-0.855001,0.300505,0.10426900000000006,0.029123999999999928,0.9766289988356976,0.20876000000000006,single,-0.855001
77,0.641667,jog,-0.4637628989680861,0.47756179505639623,-0.17782577393808396,0.05928430910078237,0.41244075574853956,0.2150236438868528,-0.016438684905214124,0.011159107271419519,-0.0145188384929206,-1.4862011039116965,1.3926085913126902,-0.02651787856971445,-1.4476639123332982,3.679375946888378,-4.576456265248544,-0.9213264328292388,0.4318220373552744,-0.7917592608889071,0.23739180098360402,-8.32852044954886,0.24517205135391404,0.14141499999999985,-0.08443199999999995,-0.882764,-0.17133900000000013,0.03134999999999999,-0.8537399999999999,0.312754,0.11578199999999994,0.02902400000000005,0.9589866990514231,0.20976000000000006,single,-0.8537399999999999
78,0.65,jog,-0.4686187447497937,0.4531381255250193,-0.13308532341293916,0.41934917192181465,0.025347798257456037,-0.04541059805837779,-0.023760950438007876,-0.0009600384015370176,0.01560062402496113,-1.4831393255730179,1.4050162006480262,0.003960158406336867,-0.582724802797023,-2.930957582068501,5.369068825770385,-0.8787070122157351,-1.4543556549809775,3.6144800813490465,0.3674280977653411,1.4889726791474824,3.657510737555645,0.14512199999999997,-0.08821599999999996,-0.881525,-0.1797930000000001,0.03928200000000004,-0.852598,0.32491500000000006,0.127498,0.028927000000000036,0.952598525883855,0.21073000000000003,single,-0.852598
79,0.658333,jog,-0.47845913836553455,0.46321852874116415,-0.14544581783271354,0.1308164147881928,0.07977439729016075,-0.07283824551431713,-0.01044041761669855,0.012120484819395016,0.010200408016320538,-1.4722188887555572,1.3828153126125111,0.02772110884435344,-1.1808944696676995,1.2096967738083442,-1.4833186631194641,1.5985278796723206,1.5697255755348798,-0.6480518431106015,1.310504838288826,-2.6642131327871503,2.851428109686402,0.149022,-0.09197500000000003,-0.880228,-0.18807400000000007,0.046944999999999903,-0.851155,0.33709600000000006,0.13891999999999993,0.029073000000000015,0.9683791209989494,0.20927,single,-0.851155
80,0.666667,jog,-0.49352051835853156,0.4821214302855694,-0.16186705063593992,0.6595304786992121,0.16234935632685646,-0.07981487899364187,-0.006959443244554005,0.008759299256058218,0.0038396928245740983,-1.5141588672905975,1.3804895608351277,0.03983681305495518,-1.8072210214779085,2.268166731990056,-1.9703903051627378,0.4176835099765442,-0.4033100028001887,-0.7632247650283647,-5.032394832618186,-0.2790678878549735,1.4537682038158923,0.1530769999999999,-0.09592,-0.878847,-0.19657999999999998,0.05443199999999998,-0.8494740000000001,0.3496569999999999,0.15035199999999999,0.029372999999999982,0.9802866081390765,0.20627000000000006,single,-0.8494740000000001
81,0.675,jog,-0.4898595943837636,0.5112204488179556,-0.1560062402496188,0.5242427739356887,-0.7205808423992085,0.13165163826796428,-0.00828033121323346,0.00804032161286919,0.015120604824193038,-1.4713788551542093,1.3090123604944177,0.13368534741389645,0.4393284501101591,3.492021904762516,0.7033253793737083,-0.15851289675740435,-0.08628076841341945,1.3537635904978869,5.133806808638903,-8.577607145170974,11.262274614057468,0.15708999999999995,-0.10011300000000001,-0.877421,-0.20475900000000014,0.06107999999999997,-0.8470599999999999,0.3618490000000001,0.16119299999999998,0.030361000000000082,0.9682963660123327,0.19639,single,-0.8470599999999999
82,0.683333,jog,-0.5049801992079983,0.5091803672146928,-0.12312492499699756,0.2887632037693426,-0.1232638133252296,-0.2533124471976072,0.002520100804011389,0.013560542421687237,0.013800552022080656,-1.424816992679723,1.3247329893195807,0.06204248169926813,-1.8145451607146112,-0.24481958517493857,3.9459156669412607,1.2961036862168425,0.6624529951779787,-0.15841267276039772,5.587647002818525,1.8865509210564204,-8.597487785266889,0.161319,-0.10424300000000009,-0.87628,-0.21242399999999995,0.06787599999999994,-0.845517,0.37374299999999994,0.17211900000000002,0.030762999999999985,0.9674810117458315,0.19237000000000004,single,-0.845517
83,0.691667,jog,-0.5503959683225176,0.5026397888168906,-0.08999280057595664,-0.5060492029148606,-0.28970553093250345,-0.581102544053095,-0.0010799136069025276,0.01331893448525107,0.017398608111351292,-1.436765058795277,1.3963282937364914,0.006959443244540683,-5.449456337235293,-0.7848066232064014,3.9755368875738744,-0.4319671719359119,-0.028990633121690177,0.4317321921371021,-1.4336532416071393,8.590749270087604,-6.6094358596984675,0.16589699999999996,-0.108321,-0.875385,-0.21981099999999998,0.07532399999999995,-0.8447089999999999,0.38570799999999994,0.18364499999999995,0.030676000000000037,0.9634368205311696,0.19324000000000002,single,-0.8447089999999999
84,0.7,jog,-0.5312612504500179,0.5115804632185221,-0.15348613944556952,0.1905861565890724,0.21129179263782585,-0.3472944107598428,0.0116404656186265,0.002520100804024712,0.04416176647065884,-1.4294971798871994,1.341653666146661,0.06324252970118859,2.29625799501978,1.0729238451495944,-7.619505444571398,1.5265065673261904,-1.2959118782223036,3.2117074714157923,0.8721803561835628,-6.561217759490092,6.754240544419587,0.17042099999999993,-0.11256299999999997,-0.873738,-0.22729599999999994,0.08224100000000006,-0.8429030000000001,0.3977169999999999,0.19480400000000003,0.030834999999999946,0.9237672976689524,0.19165,single,-0.8429030000000001
85,0.708333,jog,-0.5617424696987778,0.5864634585383494,0.02028081123244618,-1.274018680115731,-0.48075075462259753,-0.845627726522429,0.004800192007685088,0.014520580823237398,0.0416416656666265,-1.4110164406576393,1.3297731909276325,0.08700348013920561,-3.6578926255561957,8.986318891134875,20.85286819608964,-0.8208656679396836,1.4401152069137928,-0.3024241934516182,2.217777418643944,-1.4257140548456035,2.851428109686419,0.1751419999999999,-0.11732900000000002,-0.87356,-0.23437300000000016,0.08843499999999999,-0.842347,0.4095150000000001,0.205764,0.031213000000000046,0.92606464102854,0.18786999999999998,single,-0.842347
86,0.716667,jog,-0.5458363330933648,0.546916246700254,-0.11111111111110815,-0.17416019253364495,0.14230640395482883,-0.28252186057461137,-0.0037197024238197784,0.0047996160307089844,0.05759539236861022,-1.3844492440604703,1.2315814734821116,0.16414686825053884,1.9085837059530775,-4.745285797707595,-15.765769419672823,-1.0223055473367892,-1.1664224613064962,1.914294060713175,3.1878085669748972,-11.78206352838015,9.25646605607543,0.17965999999999993,-0.12184700000000004,-0.872154,-0.24136200000000008,0.09414100000000003,-0.840053,0.421022,0.21598800000000007,0.032100999999999935,0.9034756547367716,0.17898999999999998,single,-0.840053
87,0.725,jog,-0.5403816152646064,0.5171006840273666,-0.12948517940718374,1.3352718429680346,-0.32089318959763397,-0.06568519491390708,-0.0003600144005730556,0.02748109924397418,0.06444257770310863,-1.3691347653906285,1.248049921996887,0.13464538581543362,0.6545923231439389,-3.578010641172158,-2.204976394584874,0.4031786899372079,2.721886861066291,0.8216951079441341,1.837810952819147,1.9762928734880139,-3.5403195049928593,0.18415999999999988,-0.125927,-0.8705379999999999,-0.24826800000000016,0.10023199999999999,-0.8378519999999999,0.43242800000000003,0.226159,0.03268599999999999,0.8832359186811218,0.17313999999999996,single,-0.8378519999999999
88,0.733333,jog,-0.609144365774638,0.5543021720868859,-0.18936757470298352,0.10428690450700193,0.1573854889256672,-0.6941650217081977,-0.01212048481938153,0.021600864034556248,0.09336373454938211,-1.3822152886115286,1.2912516500659963,0.04212168486739501,-8.25186013560919,4.464357141427953,-7.186174882491243,-1.411312902773122,-0.7056564513882044,3.47067764865875,-1.5697255755310318,5.1844147448828855,-11.103288245294397,0.18913500000000005,-0.1303660000000001,-0.868182,-0.25471,0.10637299999999994,-0.835923,0.44384500000000005,0.23673900000000003,0.03225900000000004,0.8390109526818695,0.17741,single,-0.835923
89,0.741667,jog,-0.5956323494120467,0.547156227501804,-0.14014878809696,-0.9622880943860088,-0.09703353040586059,-0.8580518821693589,-0.016078713702913278,0.030597552195825134,0.09983201343892538,-1.3178545716342727,1.216102711783065,0.021718262538997075,1.6213122585302902,-0.857444754629461,5.905781930168443,-0.4749494700662071,1.0795162180548281,0.7761313762350975,7.722668223812857,-9.017151221854064,-2.4482148222219884,0.19396499999999994,-0.1346710000000001,-0.8661819999999999,-0.260729,0.11194799999999994,-0.8345739999999999,0.45469399999999993,0.24661900000000003,0.03160799999999997,0.8239226326772938,0.18391999999999997,single,-0.8345739999999999
90,0.75,jog,-0.6324252970118908,0.6116644665786495,-0.05904236169445996,1.530134111534239,-1.0354463109023173,-0.3960193998926225,-0.01488059522381045,0.0510020400816041,0.09624384975398942,-1.3159726389055544,1.1849273970958782,0.02544101764070432,-4.4153303251942795,7.741298341155066,9.733160494719751,0.14377996869108645,2.4486364917531356,-0.43059686606695613,0.2258409610846364,-3.7411874099587874,0.44674848214415325,0.19911100000000004,-0.139343,-0.864888,-0.2664249999999999,0.11672500000000002,-0.83387,0.46553599999999995,0.256068,0.03101799999999999,0.8167764054027541,0.18982000000000004,single,-0.83387
91,0.758333,jog,-0.69518780751229,0.49021960878434995,0.031081243249730967,-2.7593959307416935,0.46114083958635044,-0.6535870803572453,-0.01176047041880848,0.03636145445818456,0.11196447857914309,-1.2722908916356601,1.1435257410296376,0.04356174246969887,-7.531802532149167,-14.573965893951641,10.815265203911023,0.3744299537983867,-1.7569405524324342,1.8865509210552744,5.2420193531614165,-4.968397463847416,2.1745739624378344,0.20480600000000004,-0.14312499999999995,-0.864214,-0.271234,0.12216900000000003,-0.833766,0.47604,0.265294,0.03044800000000003,0.8028219325761209,0.19552000000000008,single,-0.833766
92,0.766667,jog,-0.6444684425246034,0.68322534197265,-0.2198224142068714,3.1702648042028225,-2.3036482295252743,-0.634688222679226,-0.005879529637624912,0.057595392368615154,0.13690904727621822,-1.2504199664026965,1.0226781857451466,0.11435085193184556,6.0858369315679,23.15883527577407,-30.106030412359466,0.705656441226734,2.5478687197541054,2.9931087949454374,2.6243010838689416,-14.500546590411767,8.494013614368503,0.2101280000000001,-0.14833899999999994,-0.8612409999999999,-0.276284,0.124998,-0.830981,0.48641200000000007,0.27333699999999994,0.030259999999999954,0.7522552539130009,0.19740000000000008,single,-0.830981
93,0.775,jog,-0.7375495019800743,0.50978039121565,-0.11784471378854233,-0.6051223649845531,-2.5045333251121975,-0.4303064627523735,-0.01608064322573838,0.0630025201008035,0.14652586103444074,-1.1912876515060575,0.9839193567742682,0.1131645265810627,-11.17017394161412,-20.814226659906303,12.237813562741946,-1.2241825978775263,0.6488812831139229,1.1540638135392385,7.096161634062007,-4.651245526326435,-0.14236473668341032,0.21614,-0.15206199999999997,-0.8590380000000001,-0.280065,0.12894899999999998,-0.829056,0.496205,0.28101099999999996,0.029982000000000064,0.7328247943894729,0.20018000000000008,single,-0.829056
94,0.783333,jog,-0.7213488539541634,0.6383055322212902,-0.08232329293172708,-0.3204528423821343,0.9681079943347872,-0.4477737177975459,-0.012840513620527804,0.07092283691347817,0.14988599543981898,-1.158286331453268,0.9595583823353026,0.06288251530061387,1.944155529330502,15.423633866031603,4.262741012458368,0.38883110586950764,0.9504760365624321,0.4032322579357106,3.9603168190075295,-2.923433870030709,-6.034082716962594,0.22204400000000013,-0.15678999999999993,-0.857103,-0.283706,0.13162600000000002,-0.827846,0.5057500000000001,0.28841599999999995,0.029256999999999977,0.7228080327498637,0.20742999999999995,single,-0.827846
95,0.791667,jog,-0.7564194864410628,0.511879049676021,-0.0016798656107461464,0.6869930700739268,-1.1043221991175547,0.13495902350173436,-0.01631869450445584,0.08327333813294542,0.16342692584593133,-1.1303095752339707,0.982001439884798,0.03923686105111489,-4.20813924728812,-15.169964308287515,9.676437163544554,-0.4173483182059046,1.4819415910087779,1.624781666200173,3.3569421909403876,2.692951469821853,-2.8372515298174705,0.22821199999999986,-0.16036199999999995,-0.855727,-0.28682200000000013,0.135544,-0.827505,0.515034,0.29590599999999995,0.02822199999999997,0.6930928989381624,0.21778000000000003,single,-0.827505
96,0.8,jog,-0.769350774030978,0.6697467898715924,-0.07404296171846587,-0.7137357712131971,-0.6801542601372524,-0.8051457934121506,-0.019680787231495536,0.10080403216128025,0.16752670106804218,-1.0622824912996307,0.8997959918396704,-0.005040201608064346,-1.5518165834531472,18.944886618933243,-8.683918889681918,-0.4034672659353993,2.103767434097535,0.4919927063615553,8.163576615185372,-9.865048367349969,-5.313460057503786,0.23445899999999997,-0.165103,-0.853714,-0.2892629999999998,0.137461,-0.82693,0.5237219999999998,0.302564,0.02678399999999992,0.6724926554819937,0.2321600000000001,single,-0.82693
97,0.808333,jog,-0.7721108844353639,0.5876635065402718,0.1563662546501806,0.1493296842310083,0.177155229774214,-0.15638641824433758,-0.011880475218990773,0.09684387375495135,0.19608784351374192,-1.0243609744389988,0.7838713548542059,0.07860314412576609,-0.33122649758622064,-9.85038801527918,27.65021197271674,0.93607488449596,-0.47523801828020434,3.4274741924516983,4.550764053838028,-13.91151289877182,10.037602992179432,0.24079399999999995,-0.16919300000000004,-0.853383,-0.2913650000000001,0.139096,-0.8275779999999999,0.532159,0.30828900000000004,0.025805000000000078,0.6349645224655716,0.24195,single,-0.8275779999999999
98,0.816667,jog,-0.7738180945524478,0.5709143268538455,-0.10283177345812217,-1.75825572902241,-1.2996922305669991,-0.5456927151079849,-0.017038636909057527,0.11123110151187954,0.21190304775617833,-0.9515238780897447,0.7681785457163324,-0.02219822414206902,-0.2048488261439698,-2.009740783108493,-31.10127527097442,-0.6189298884169323,1.72632922449341,1.8976726952767318,8.739752381719883,-1.8829864576281978,-12.09519657641401,0.24710100000000002,-0.173024,-0.85076,-0.29284599999999994,0.14073999999999998,-0.8269059999999999,0.539947,0.313764,0.023854000000000042,0.6001195500193494,0.2614600000000001,single,-0.8269059999999999
99,0.825,jog,-0.8168726749070047,0.6254650186007491,-0.006360254410172833,-0.5805311318907846,-1.402980512352016,-0.5211847228810073,-0.02700108004319234,0.13332533301331853,0.2214088563542561,-0.8664346573863039,0.7175087003480219,-0.025921036841473174,-5.166756312799387,6.546344863423033,11.577045367568727,-1.1955409977360978,2.6514138367261726,1.1407426614758038,10.211114929010153,-6.080624669184075,-0.44675539414426846,0.2536830000000001,-0.17712500000000003,-0.848862,-0.29325899999999994,0.141507,-0.827069,0.546942,0.318632,0.02179299999999995,0.5669020369390663,0.28207000000000004,single,-0.827069
100,0.833333,jog,-0.920796831873276,0.760230409216363,0.0237609504380212,1.2006868240275603,-0.23540590120125054,-0.7817053793361147,-0.029401176047047846,0.14604584183367558,0.24492979719188596,-0.7812312492499687,0.673826953078118,-0.04248169926797139,-12.471397691860181,16.17249377362454,3.6146891693500427,-0.288023041384315,1.5265221193276128,2.8226258055477915,10.224817969078945,-5.242019353162576,-1.9873589855391995,0.2611110000000001,-0.182243,-0.8470190000000001,-0.2920959999999999,0.140787,-0.827621,0.553207,0.32303,0.019398000000000026,0.5222029062041467,0.30602,single,-0.827621
101,0.841667,jog,-0.8683705303575573,0.6786657067434547,0.11723062155027576,-0.3366069408498862,-0.4321779652215922,-0.6714166836143963,-0.029757619390451653,0.17434605231581793,0.23758099352051687,-0.6912646988240907,0.6139908807295416,-0.07787377009839115,6.290652929651824,-9.786981338241857,11.21546329640675,-0.042769779626086406,3.39575359756925,-0.8817858976924682,10.795122441309971,-7.179754301485002,-4.246708762949303,0.2681,-0.18644599999999995,-0.846016,-0.29062,0.14024800000000004,-0.8292470000000001,0.55872,0.326694,0.016768999999999923,0.5063548554317451,0.33231,single,-0.8292470000000001
102,0.85,jog,-0.9630385215408643,0.8222728909156471,0.2176887075483018,1.0676378099914268,-0.019820426539173302,-0.4936545086401144,-0.048481939277580065,0.16512660506419602,0.2971318852754136,-0.6098643945757923,0.5255010200408023,-0.12348493939757729,-11.360613366531611,17.23355144272096,12.055452537864749,-2.2470082667861013,-1.1063779253116517,7.146392866302327,9.768427246885768,-10.61920805097084,-5.473559258272718,0.2757209999999999,-0.19192200000000004,-0.845354,-0.28767700000000007,0.13777499999999998,-0.83209,0.563398,0.329697,0.013264000000000054,0.5,0.36736,flight,-0.83209
103,0.858333,jog,-0.9729989199567947,0.7009480379215122,0.025921036841472827,-0.5727488225489521,-0.7938373391797551,-0.6617433121351979,-0.07680307212288147,0.20436817472698943,0.2880115204608171,-0.5513020520820794,0.43897755910236164,-0.14448577943117624,-1.1952956217365038,-14.559564741885811,-23.01304100645964,-3.3986718883116867,4.7091767266042535,-1.0944875572538648,7.027762209733914,-10.383230641838516,-2.520201612096347,0.2831889999999999,-0.19606,-0.84317,-0.28416300000000005,0.135592,-0.83351,0.567352,0.331652,0.009660000000000002,0.5,0.4034,flight,-0.83351
104,0.866667,jog,-0.9234461243100515,0.6831053515718786,0.06095512359010749,-0.304080792118995,-0.8858892759650112,-0.023974413012449534,-0.0938324934005091,0.2109431245500417,0.30873530117590753,-0.3898488120950282,0.37532997360211634,-0.23314134869210598,5.945859808824512,-2.1409510858691743,4.203754109507423,-2.0433670839486116,0.7889308642971321,2.486654753430588,19.372838971328548,-7.637099292086112,-10.637817285928755,0.290103,-0.19999499999999998,-0.841105,-0.2797160000000001,0.133027,-0.835961,0.5698190000000001,0.333022,0.005144000000000037,0.5,0.44855999999999996,flight,-0.835961
105,0.875,jog,-0.9945997839913643,0.7484699387975479,0.09276371054842439,-0.699967514135936,-0.9425269250204026,-0.6181046555230059,-0.11880475219009268,0.2194887795511775,0.316452658106323,-0.25513020520821594,0.301092043681744,-0.2780511220448806,-8.538780712986021,7.844064229649468,3.8171831223229047,-2.9967909263870722,1.0255196209211284,0.926119876444911,16.166879501597467,-8.908907946762511,-5.389388377868045,0.297401,-0.204403,-0.839241,-0.2735540000000001,0.129299,-0.839051,0.5709550000000001,0.333702,0.00019000000000002348,0.5,0.4981,flight,-0.839051
106,0.883333,jog,-1.0559222368894714,0.7881915276611053,0.16116644665786362,-0.02639476101714911,-0.21107499369131716,-0.41831730301843995,-0.14952598103925058,0.23004920196808468,0.31813272530901193,-0.12420496819871508,0.23172926917076778,-0.316452658106323,-7.358988707321116,4.766781334880273,8.20865667939985,-3.6866949296961202,1.2673013820841408,0.2016161289678293,15.711656907416335,-8.323865895952954,-4.608368662119556,0.30495399999999995,-0.20905399999999996,-0.8379329999999999,-0.26578999999999997,0.124662,-0.843031,0.5707439999999999,0.33371599999999996,0.005098000000000047,0.44902,0.5,flight,-0.8379329999999999
107,0.891667,jog,-1.1267098632109507,0.8256539476841931,0.06959443244540775,-0.23357063421096622,-0.3217336267225922,-0.9810473981386302,-0.1727861771058188,0.21322294216461815,0.30585553155747663,0.034197264218860254,0.16786657067434504,-0.38636909047276446,-8.493835651725425,4.495130792307171,-10.987762684480009,-2.7910002479683667,-2.018989657243415,-1.47314539855236,19.006747350321124,-7.662910786707835,-8.38930073991383,0.31290400000000007,-0.21415800000000007,-0.835964,-0.256115,0.11917999999999995,-0.846831,0.569019,0.333338,0.01086699999999996,0.39132999999999996,0.5,flight,-0.835964
108,0.9,jog,-1.04080163206527,0.7221888875554954,0.0874834993399708,-0.6361666614992141,-0.795417063044952,-0.0677370589907938,-0.18360734429377473,0.2232089283571434,0.3357734309372355,0.1544461778471045,0.13572542901716594,-0.3978159126365036,10.309400113486179,-12.416303867598378,2.1467738983034885,-1.2985920062349545,1.1983662777541348,3.5902915372325377,14.430446853263378,-3.8570912825127763,-1.3736736065929567,0.32004699999999997,-0.21831599999999995,-0.8338949999999999,-0.24615500000000012,0.11429300000000003,-0.8508749999999999,0.5662020000000001,0.332609,0.016979999999999995,0.33020000000000005,0.5,flight,-0.8338949999999999
109,0.908333,jog,-1.1482059282371424,0.7652706108244426,0.16176647065882974,0.4015490810221632,-0.587827921965307,-0.012316214738187947,-0.1887675507020354,0.27289091563662776,0.33673346933877696,0.2239289571582925,0.1194047761910449,-0.3847353894155802,-12.889031101868882,5.170013592817425,8.914313130788386,-0.6192495389728456,5.962076956616443,0.11520921655363878,8.338267048024559,-1.9585566814017985,1.569725575533844,0.32804199999999994,-0.22241899999999998,-0.832437,-0.23472100000000007,0.10891099999999998,-0.855429,0.562763,0.33132999999999996,0.022992000000000012,0.27008,0.5,flight,-0.832437
110,0.916667,jog,-1.0475161987041108,0.7135829133669228,0.2892968562515039,-1.2021549775001157,1.285760641817455,-0.04462343394957218,-0.19594432445404164,0.32949364050874663,0.34737221022318054,0.19510439164866858,0.09839212862970736,-0.28881689464842586,12.081800999883706,-6.20202753269971,15.302422077354597,-0.8611439587240434,6.791783641962856,1.2765467823858296,-3.4586711674614476,-2.521316002080319,11.509298628168182,0.3351390000000001,-0.22562000000000004,-0.831953,-0.22436499999999993,0.10378399999999999,-0.8602470000000001,0.559504,0.32940400000000003,0.02829400000000004,0.21705999999999998,0.5,flight,-0.831953
111,0.925,jog,-1.199807992319682,0.7164286571462866,-0.11532461298453098,0.6181175219314844,-1.2317565698002906,0.1228513513933419,-0.24348973958958958,0.3928957158286314,0.3469338773550916,0.11268450738029752,0.10596423856954505,-0.1617664706588259,-18.275746263719018,0.3415029136401944,-48.55651856906675,-5.705678043387465,7.608553380521363,-0.05260204825260026,-9.890781743474225,0.9086895403621331,15.246660745181737,0.34310799999999997,-0.22831600000000007,-0.828101,-0.21342799999999995,0.09869699999999998,-0.8606339999999999,0.5565359999999999,0.32701300000000005,0.03253299999999992,0.17467000000000005,0.62696958312664,single,-0.828101
112,0.933333,jog,-1.0010800432017457,0.6375855034201374,0.1854074162966558,-1.3462360120723122,-0.24722063182114365,0.9072259182584492,-0.2784111364454457,0.4434177367094729,0.3678147125885067,-0.00108004320173249,0.14124564982599236,-0.09936397455898272,23.84830782646564,-9.46155690941436,36.089287085226154,-4.190735252112855,6.0628850211018745,2.5058004600282304,-13.652292161530188,4.233938708322048,7.488599075944289,0.34913000000000016,-0.22993400000000003,-0.826581,-0.20509499999999992,0.094561,-0.863007,0.5542250000000001,0.32449500000000003,0.03642599999999996,0.13574000000000008,0.7121695158978956,single,-0.826581
113,0.941667,jog,-1.1683465322773952,0.9614830813534901,0.13714902807775334,1.6841090118430826,0.4038091131234132,-0.5702152210134513,-0.34185265178786656,0.48212143028558274,0.4019678425725918,-0.07631389488840473,0.16150707943364573,-0.05951523878089748,-20.07037305923304,38.864600183987314,-5.790543342800827,-7.612372851262346,4.644071703396877,4.098047754269845,-9.027340015199384,2.4311770587536854,4.781465776108104,0.35601799999999995,-0.233929,-0.8243739999999999,-0.195994,0.08789399999999997,-0.864646,0.552012,0.32182299999999997,0.040272000000000086,0.09727999999999998,0.6861953416031112,single,-0.8243739999999999
114,0.95,jog,-1.0234009360374619,0.6769470778831157,0.10476419056762518,-0.94602918500332,0.26664648420333154,0.5586511886834546,-0.32485299411976953,0.41857674306971887,0.25345013800552285,-0.12996519860795225,0.16140645625825,-0.1274450978039134,17.394167315484776,-34.145686243895,-3.886335954653601,2.040040521792533,-7.625667492603438,-17.822837461546904,-6.438413982905077,-0.012075264058048815,-8.151909159128348,0.361839,-0.23608200000000001,-0.823135,-0.18854899999999997,0.083598,-0.8665809999999999,0.550388,0.31968,0.043445999999999985,0.06553999999999999,0.5945330198219319,single,-0.823135
115,0.958333,jog,-1.2131285251409913,0.7974318972758891,-0.018360734429372146,-0.6998661015394787,-0.17637266332738027,-0.822553950468945,-0.5046201848073919,0.5198607944317754,0.48589943597743673,-0.1124444977799066,0.16140645625825453,-0.19716788671546764,-22.768221421280295,14.45875667739985,-14.775582022920533,-21.572925799546574,12.154572346340581,27.895031557891866,2.1025682020935523,5.429207758727342e-13,-8.367069352160563,0.36774299999999993,-0.23839500000000002,-0.818933,-0.179377,0.07829800000000003,-0.868071,0.5471199999999999,0.31669300000000006,0.049138000000000015,0.008620000000000017,0.5358071977595387,single,-0.818933
116,0.966667,jog,-1.068154547636177,0.8197744180465506,0.5879529637628963,-1.9712223648610332,4.446460990839696,-0.48765833725326274,-0.4354451643868316,0.551235901127904,0.5447564194864372,-0.06899448044156321,0.10439164866810359,-0.1436285097192218,17.395485661724663,2.680888021437639,72.75182363718068,8.300338423393299,3.76471162660528,7.0622730392368585,5.213584993801662,-6.841229612449065,6.424211302645239,0.373016,-0.24063300000000004,-0.819293,-0.17105000000000004,0.07233600000000001,-0.8741680000000001,0.544066,0.31296900000000005,0.05487500000000001,0.0,0.682514202210859,single,-0.819293
117,0.975,jog,-1.0588023520940966,0.7163086523461006,-0.008880355214210869,0.4415494426817685,2.09186899973322,0.24138004227323512,-0.45313812552502536,0.5785431417256833,0.6662666506660329,-0.025921036841473174,0.035521420856836815,-0.14628585143405845,1.1223083573839456,-12.416388539595692,-71.62286319178118,-2.1232402661939163,3.2769999517316197,14.581811013992176,5.169019992810564,-8.264757927669196,-0.3188937615308612,0.37806300000000004,-0.24178099999999997,-0.813667,-0.162443,0.06666300000000003,-0.875313,0.540506,0.308444,0.06164599999999998,0.0,0.7454130697449246,single,-0.813667
118,0.983333,jog,-1.0999639985599388,0.7311892475699016,-0.08244329773190812,0.5258307404974194,-0.046331370062032834,0.7097022336966075,-0.44317772710907605,0.5478219128765044,0.9422776911076401,0.014520580823237398,0.02328093123724603,-0.13536541461658375,-4.939595159707431,1.7857428565703657,-8.827906218372368,1.195295621738782,-3.6866949296986453,33.122649758983094,4.85318824729514,-1.4689175110513302,1.3105048382904907,0.3835360000000001,-0.24330900000000005,-0.8051280000000001,-0.15315599999999996,0.060763999999999985,-0.875754,0.5366920000000001,0.30407300000000004,0.07062599999999997,0.0,0.769802955775823,single,-0.8051280000000001
119,0.991667,jog,-1.0071994240460835,0.6615070794336478,-0.10631149508040058,-0.3357932841745479,0.9463636947769981,0.5198049461296045,-0.6520278377730012,0.7119030477561928,1.0839932805375632,-0.009239260859143892,-0.027597792176626983,-0.07307415406767481,11.130858472984851,-8.36119128104801,-2.863954565453876,-25.060008478992845,19.68816113267211,17.0045103707612,-2.8509529256517188,-6.104958412991757,7.474353317603707,0.38649599999999995,-0.24288899999999997,-0.7952079999999999,-0.14483900000000005,0.05502099999999999,-0.875477,0.531335,0.29790999999999995,0.08026900000000003,0.0,0.8689059490824126,single,-0.7952079999999999
120,1.0,jog,-0.9552382095283732,0.6075843033721304,-0.6314652586103404,-0.0018983894391867433,-4.003748530109254,1.3887206135127692,-0.7639505580223023,0.8222728909156295,1.1843273730949175,-0.022200888035520214,0.027481099243973812,-0.07428297131885263,6.235595165931847,-6.470991967060744,-63.02097246249102,-13.431263680463289,13.244910975571367,12.040572729791666,-1.5554574794643306,6.609731359726457,-0.1450638726962451,0.38809000000000005,-0.24109999999999998,-0.780077,-0.13706400000000007,0.05018700000000004,-0.870834,0.5251540000000001,0.291287,0.09075699999999998,0.0,0.8629066612245073,single,-0.780077
121,1.008333,jog,-0.9571582863314599,0.5610224408976459,-0.4612984519380768,0.4608479198072328,-2.1621114388935676,1.6471318877906895,-0.8226329053162268,1.0201608064322643,1.3416536661466576,0.03636145445818505,0.03936157446297828,-0.11100444017760838,-0.23041843310773055,-5.587647002818312,20.420833634017185,-7.042163361805479,23.74749976198687,18.879910362623484,7.027762209733085,1.4257140548427425,-4.406752533152057,0.389211,-0.23727400000000004,-0.765053,-0.12878500000000004,0.04583999999999999,-0.867915,0.517996,0.28311400000000003,0.10286200000000001,0.0,0.7945636442589181,single,-0.765053
122,1.016667,jog,-0.9136069114470784,0.6557475401967789,-0.24130069594432083,-0.706718419981444,1.3856989019957147,0.19253328180411206,-0.9154067674586093,0.9428845692344578,1.2331413486920961,0.0002399808015294545,0.04043676505879213,-0.08483321334293184,5.225746926371635,11.366102627685668,26.397618909737734,-11.131972899253872,-9.272406671203003,-13.020436459630506,-4.334230100390607,0.12901255049362192,3.1402959964814428,0.3891959999999999,-0.234881,-0.752765,-0.12116900000000008,0.04071199999999997,-0.866611,0.510365,0.275593,0.113846,0.0,0.8433700074370915,single,-0.752765
123,1.025,jog,-1.0614424576983166,0.696507860314416,-0.289571582863317,0.8185182171219006,-0.1562688552653188,0.850645885729092,-1.0986439457578165,1.2041281651266145,1.4203768150726175,-0.013200528021114183,0.02820112804512029,-0.03276131045241869,-17.74097518915631,4.891434071479354,-5.792738139805189,-21.989340969543854,31.350485526480142,22.469154731852043,-1.612925575740281,-1.4683351750476363,6.248878301993715,0.38888600000000006,-0.230651,-0.7385160000000001,-0.11243400000000003,0.03514299999999998,-0.864471,0.5013200000000001,0.265794,0.12595499999999993,0.0,0.9246699664142064,single,-0.7385160000000001
124,1.033333,jog,-1.0074402976119052,0.6245049801991954,-0.2666506660266433,-0.26577167034478877,0.7772771685419465,0.685376589745025,-1.05928237129485,1.346573862954499,1.5217808712348224,-0.028561142445692585,0.04056162246489848,-0.009720388815552181,6.480518431106492,-8.640691241475981,2.7506200452026093,4.723577878671045,17.094167506046084,12.168973498404316,-1.84334746484797,1.4833186631198818,2.7650211972718233,0.3884540000000001,-0.22463399999999994,-0.723613,-0.10427699999999984,0.030277,-0.86233,0.4927309999999999,0.25491099999999994,0.1387170000000001,0.0,0.9157472382003347,single,-0.723613
125,1.041667,jog,-1.1427885769138526,0.6419486441084861,-0.09095272378210353,-2.0737382356447234,2.4233402118663894,-0.5755752157501896,-1.2343412526997997,1.5401967842572837,1.6169906407487693,-0.016798656107515197,0.015238780897527076,-0.0125989920806339,-16.24049427669186,2.0930722233370496,21.082066504024848,-21.005385337767333,23.232891924980606,11.424258401001763,1.4113854497453338,-3.038497908251966,-0.3454047594290585,0.387691,-0.217148,-0.709379,-0.094893,0.025053999999999965,-0.8616769999999999,0.482584,0.24220199999999997,0.15229799999999993,0.0,0.9567581127805049,single,-0.709379
126,1.05,jog,-1.0663626545061555,0.7016680667226556,-0.5094203768150569,1.2405109041754732,0.30556408442708427,0.4572458475383435,-1.491419656786258,1.53990159606381,1.694467778711118,0.001800072002878553,0.020640825633025616,-0.017880715228608395,9.17147754802541,7.166617378395352,-50.21812708903709,-30.850642516075116,-0.03542400017684179,9.297628460620103,2.2319366507132394,0.6482712991117779,-0.6338321310421698,0.38414899999999985,-0.21016300000000004,-0.691014,-0.08599200000000007,0.01937899999999998,-0.857581,0.4701409999999999,0.22954200000000002,0.16656700000000002,0.0,0.9543867733876851,single,-0.691014
127,1.058333,jog,-1.1476059042361786,0.7038281531261326,-0.2342493699747956,0.1265765324131256,2.414340884422164,-0.09780404067287535,-1.5869434777391125,1.6983079323173147,1.7148685947438085,-0.003120124804988687,0.032761310452421186,0.0019200768030715625,-9.749579950800888,0.2592207372467298,33.021841694499436,-11.463317047024512,19.00952073124998,2.448195851756953,-0.5904472348334675,1.4545163589818408,2.376190091405273,0.38048799999999994,-0.201876,-0.674772,-0.07645500000000005,0.013786999999999994,-0.8556130000000001,0.456943,0.215663,0.18084100000000003,0.0,0.9450574710293584,single,-0.674772
128,1.066667,jog,-1.0461963042956655,0.7405807535397124,-0.4098872090232853,0.08172699076902253,1.1496700024521707,-0.22979750713720207,-1.730381569474431,1.7745380369570294,1.626949844012465,-0.024358051355899052,0.04295656347492467,0.01943844492440619,12.168178538578397,4.409959252889318,-21.07485469744281,-17.211194112709062,9.146880806301189,-10.549406135270315,-2.548347318323758,1.223332496100721,2.1020360116792047,0.37478600000000006,-0.19325900000000001,-0.657797,-0.06793899999999997,0.007973000000000008,-0.852035,0.44272500000000004,0.20123200000000002,0.19423800000000002,0.0,0.9115498547122759,single,-0.657797
129,1.075,jog,-1.0154806192247747,0.6709468378735159,-0.43705748229928676,0.46999099996833665,0.5476819824212315,0.4660425765471793,-1.8139925597023936,1.8497539901596214,1.5819032761310596,-0.002400096003842576,0.01920076803072062,0.0028801152046077604,3.6860296496929092,-8.356404136109099,-3.2605632156488316,-10.033720176162662,9.026275435328536,-5.405804377943812,2.6350600446485872,-2.8508094856839397,-1.9870790495378112,0.3681320000000001,-0.183436,-0.640973,-0.05949700000000002,0.0025420000000000442,-0.848369,0.42762900000000015,0.18597800000000003,0.20739600000000002,0.0,0.9673944015803602,single,-0.640973
130,1.083333,jog,-0.9837993519740531,0.7628705148205797,-0.1338053522140968,-0.9270962159147514,3.856037662037424,-0.2003560876715792,-1.8245529821192523,1.918756750269981,1.4638185527420857,-0.006960278411136623,0.00864034561381972,-0.009840393615744306,3.801904146252378,11.03128248494685,36.3917112786733,-1.2673013820783083,8.28066243974059,-14.170733636022062,-0.5472437786264212,-1.2673013820833692,-1.5265221193269942,0.36112600000000006,-0.17380399999999996,-0.6276599999999999,-0.0513570000000001,-0.0037429999999999963,-0.847336,0.41248300000000016,0.17006099999999996,0.2196760000000001,0.0,0.9752830245917479,single,-0.6276599999999999
131,1.091667,jog,-0.9700023998080314,0.8592512598992278,0.1823854091672793,1.4505364900927291,7.84891721450876,-1.1855871108166114,-2.0455963522918763,2.0187185025198375,1.319174466042742,-0.014278857691382589,0.01715862730981605,-0.01043916486681047,1.6555018197770563,11.564764228299731,37.93985617727168,-26.523082574109456,11.994450713925906,-17.355901931767033,-0.8781592608886615,1.0221120345568147,-0.07184680238375035,0.35216199999999986,-0.16414099999999998,-0.618186,-0.0433920000000001,-0.01076100000000002,-0.848943,0.39555399999999996,0.15337999999999996,0.230757,0.0,0.9589282324851983,single,-0.618186
132,1.1,jog,-0.9992799711988273,0.7237489499579867,-0.31741269650785575,0.2970403047694494,2.6408802050171185,0.09433128129331461,-2.1393255730228877,2.202328093123684,1.1191647665906441,-0.0009600384015370048,0.027961118444741948,-0.0039601584063359814,-3.5134491048596406,-16.260927630053853,-59.97817180788747,-11.247956405977412,22.034032233750533,-24.002124019212097,1.598322247671349,1.2963507902226938,0.7775118757319542,0.3426619999999998,-0.15182,-0.606215,-0.03507300000000013,-0.01655899999999999,-0.846331,0.37773499999999993,0.13526100000000002,0.2401160000000001,0.0,0.952905866341485,single,-0.606215
133,1.108333,jog,-1.006240249610004,0.6999879995199845,-0.48949957998321036,0.006442209137529479,0.2619096206284906,0.6033010442276432,-2.2761310452418253,2.1359654386175655,0.9882395295811913,0.003360134405379606,0.017760710428415077,-0.0007200288011527728,-0.8352668200140176,-2.8514281096846767,-20.651252067125426,-16.41731335880701,-7.963837094218055,-15.711656907410775,0.5184414744889776,-1.2240979258762708,0.38883110586622327,0.33207999999999993,-0.13985399999999998,-0.593901,-0.026660000000000017,-0.022243999999999986,-0.842258,0.35873999999999995,0.11760999999999999,0.24835699999999994,0.0,0.9698498304952841,single,-0.593901
134,1.116667,jog,-1.0611951043916361,0.668946484281252,-0.44888408927285406,1.0040443759298396,-0.06852815468838845,0.7195211520756017,-2.3106551475881583,2.2224622030237393,0.7885769138468822,0.005759539236866767,0.01583873290137029,-0.004199664026877855,-6.594055049391849,-3.7246838539395495,4.873469007722102,-4.142560876689789,10.37878142622668,-23.957597280334483,0.28790554733467033,-0.23061885373707383,-0.4175228252609858,0.32166700000000004,-0.126907,-0.583588,-0.017768000000000006,-0.02768699999999996,-0.838552,0.33943500000000004,0.09922000000000003,0.25496399999999997,0.0,0.9710520135952329,single,-0.583588
135,1.125,jog,-1.0082803312132602,0.6870274810992512,-0.2940117604704158,0.5104190051217545,1.3481311904144373,0.7032016675963151,-2.3499339973599143,2.278411136445479,0.5673826953078187,0.015480619224761299,0.027001080043199,-0.00036001440057555366,6.350026782476465,2.169806410416332,18.585422873207694,-4.713650518631508,6.714140576231885,-26.54436799940784,1.1665762615978184,1.3395352384289947,0.4607763862117288,0.31048700000000007,-0.113646,-0.5764100000000001,-0.00923700000000005,-0.033186999999999994,-0.836105,0.3197240000000001,0.080459,0.2596949999999999,0.0,0.9481230755256596,single,-0.5764100000000001
136,1.133333,jog,-1.031801272050891,0.7260290411616531,-0.334573382935322,0.032104972298988774,0.4181955099937474,0.8509772557150863,-2.458778351134092,2.273130925237032,0.379575183007327,0.014160566422664536,0.02232089283571597,-0.0026401056042243353,-2.822625805547929,4.680374422465177,-4.8675893993647685,-13.061844926698534,-0.6336506910413028,-22.537802988178736,-0.1584126727585233,-0.5616449306951965,-0.27362188931342885,0.29859599999999986,-0.10075399999999998,-0.570459,-0.0005209999999999937,-0.039050999999999975,-0.833339,0.29911699999999986,0.06170300000000001,0.26288,0.0,0.9557245347600933,single,-0.570459
137,1.141667,jog,-0.9918406527477721,0.7068634509239216,-0.43064554835613594,0.014817299212293496,-0.1906010558980169,1.036149768588462,-2.60667146628266,2.407007439404825,0.09803215742739986,0.023878089752813497,0.01115910727141271,0.0040796736261097975,4.794890725116208,-2.2996868535794843,-11.527737631487064,-17.745754157495405,16.063896588407978,-33.78246047275318,1.166009518856358,-1.3393071231465294,0.8063090029198562,0.285138,-0.08658500000000002,-0.5660529999999999,0.007943999999999951,-0.04484900000000003,-0.8297159999999999,0.27719400000000005,0.041735999999999995,0.263663,0.0,0.9555486351217584,single,-0.5660529999999999
138,1.15,jog,-0.9463578543141884,0.6768270730829302,-0.41461658466338863,-0.11447762929624612,-0.48860363298890314,1.241612904026075,-2.5793831753270515,2.3753750150006256,0.017280691227653223,0.01764070562822628,-0.021000840033599224,-0.008400336013440689,5.458154138195623,-3.6045095212998453,1.9235525852331044,3.274725903709195,-3.7960427702147768,-9.690563566512346,-0.7485160355918966,-3.8593480505234883,-1.4976610631885996,0.27152999999999994,-0.072431,-0.562454,0.01597700000000002,-0.050664000000000015,-0.8263309999999999,0.2555529999999999,0.02176699999999998,0.2638769999999999,0.0,0.9521926486848499,single,-0.562454
139,1.158333,jog,-1.151446057842296,0.7745109804392025,-0.1857674306972239,1.3898895794854704,0.9017642781043701,1.431734197803182,-2.574822992919662,2.2127685107403887,-0.3130925237009459,0.006960278411136623,0.01656066242650001,-0.0013200528021117162,-24.61156888612793,11.722537784263842,27.46299699581912,0.5472437786378535,-19.513561053670237,-39.646371646297055,-1.2817025341521024,4.5075605976357345,0.849667972078345,0.25966900000000004,-0.060446,-0.563515,0.02563000000000004,-0.056979999999999975,-0.8247939999999999,0.234039,0.0034660000000000246,0.26127899999999993,0.0,0.9699794720711632,single,-0.563515
140,1.166667,jog,-0.9985601151907966,0.7655387568994623,-0.27897768178545174,0.4392576174638103,0.02256084397071725,1.1209556418284174,-2.750779937605054,2.472162227021883,-0.5169186465082866,0.010559155267576033,0.022678185745140186,0.017038636909047156,18.344845530537842,-1.076580698312986,-11.184335383756853,-21.113144310702577,31.124755973302047,-24.45717816262833,0.4318306763186319,0.7340440747108583,2.2028665360162254,0.2450659999999999,-0.046223000000000014,-0.5654980000000001,0.03403999999999996,-0.06317099999999998,-0.822327,0.21102599999999994,0.016947999999999963,0.256829,0.0,0.9495544568543298,single,-0.5654980000000001
141,1.175,jog,-1.0337213488539374,0.7172686907476186,-0.20160806432257114,1.0413901635916603,0.23822098942848677,1.3651553877486042,-2.8769950798031347,2.4948997959918,-0.7122284891395559,0.021480859234373827,0.027241089643582534,0.009120364814592385,-4.219516820249636,-5.792639643806895,9.284725484564891,-15.146422920686236,2.728617421086805,-23.438118640497535,1.310656902291804,0.5475703706278974,-0.9502306605609783,0.22970599999999997,-0.031409999999999993,-0.5697530000000001,0.04283300000000001,-0.06892100000000001,-0.820571,0.18687299999999996,0.03751100000000002,0.250818,0.0,0.9402160061190674,single,-0.5697530000000001
142,1.183333,jog,-1.0523220928837282,0.7518300732029342,-0.16500660026401387,0.7293385965192438,0.2402851516134829,1.3217214538074609,-2.9045961838473677,2.4196567862714713,-0.9080763230529293,0.02808112324492483,0.01836073442937905,-0.007800312012480044,-2.2321785707177497,4.147531795909745,4.392351381082156,-3.3122649759070257,-9.029522347333394,-23.50268017681209,0.7920633638006795,-1.0656852531145524,-2.03056244174638,0.2142710000000001,-0.017512,-0.575945,0.05183599999999999,-0.07503299999999999,-0.819261,0.1624350000000001,0.05752099999999999,0.24331599999999998,0.0,0.9425903870086279,single,-0.575945
143,1.191667,jog,-1.04571634269258,0.7062634989200813,-0.1375089992800542,0.8955823369643384,-0.2645178502176849,1.2947861963059215,-2.902087832973345,2.3263738900887736,-1.025437964962795,0.010919126469889916,0.0273578113750905,0.007799376049915421,0.7926266128087635,-5.4675515098215115,3.299448162222158,0.30097802664061474,-11.193052097755817,-14.082270447547966,-2.059274871014493,1.0795628684558893,1.8718128224616446,0.1988000000000001,-0.0040100000000000136,-0.583345,0.060642000000000085,-0.08069099999999998,-0.81805,0.138158,0.07668099999999997,0.23470500000000005,0.0,0.9492143001079679,single,-0.583345
144,1.2,jog,-1.0406816272650883,0.7989919596783941,-0.08844353774152232,0.7077937940015179,-0.14307736194067272,1.480521297160501,-2.986199447977962,2.385095403816175,-1.2379695187807616,0.011040441617662525,0.01248049921996807,0.07044281771270966,0.6041900188997626,11.12786040541385,5.888090908260209,-10.093797552456238,7.046863521829095,-25.504806650422246,0.014558400068715926,-1.7853488725696105,7.517513700083382,0.18258799999999986,0.009206999999999993,-0.592924,0.06940599999999997,-0.08724499999999999,-0.816726,0.1131819999999999,0.09645199999999998,0.22380199999999995,0.0,0.8793553797856573,single,-0.592924
145,1.208333,jog,-1.1468858754350018,0.8829953198127775,-0.0367214688587438,0.815286912879296,-0.19836995481597156,1.719335548555062,-3.0450018000719505,2.548421936877431,-1.3847353894155516,0.025921036841472483,0.05664226569062333,0.052202088083522176,-12.74501958117264,10.080806448383763,6.206896541794985,-7.056564513859069,19.599967966069034,-17.61260898053372,1.7857428565714266,5.299623961436995,-2.18897511450704,0.1667709999999999,0.023084999999999994,-0.604157,0.079179,-0.09413100000000002,-0.8159850000000001,0.08759199999999989,0.11721600000000001,0.21182800000000002,0.0,0.8645449601673436,single,-0.604157
146,1.216667,jog,-1.0377969762419226,0.8352531797456356,0.012718982481394468,0.5610163114449541,-0.6244776129164216,1.0558011880523985,-3.2093832493400964,2.636549076073963,-1.4335253179745908,-0.0039596832253493384,0.013918886489081737,0.029157667386609645,13.08962073351107,-5.728598520175515,5.932379570451069,-19.724195976499765,10.574410750724,-5.854323081238315,-3.5853995760526027,-5.126395392553683,-2.7651092748875654,0.14867300000000006,0.03809699999999999,-0.6162099999999999,0.08779499999999996,-0.10097600000000001,-0.815848,0.0608780000000001,0.139073,0.1996380000000001,0.0,0.9457479119764549,single,-0.6162099999999999
147,1.225,jog,-1.169806792271668,0.8916356654266006,0.12108484339373815,0.9939515719611213,-0.39571428601448405,1.193646833274647,-3.245289811592425,2.4844593783750932,-1.3478939157566057,0.0015600624025009636,0.039721588863556936,-0.0534021360854426,-15.84181159603301,6.766168928472813,13.004423486420471,-4.308959828672488,-18.251493783615416,10.276179313330571,0.6623959711808719,3.096448142862684,-9.907572719554878,0.13137799999999988,0.05137000000000001,-0.628451,0.09755599999999998,-0.10807499999999998,-0.817302,0.03382199999999991,0.159445,0.188851,0.0,0.8890442210829357,single,-0.628451
148,1.233333,jog,-1.119644785791449,0.9219968798752062,0.15216608664347275,0.7412346499249617,-0.6099662728687151,0.7046328854325111,-3.3168126725069134,2.5527421096844107,-1.5317412696507997,-0.0214808592343744,0.05832233289331464,0.02964118564742667,6.019681564888912,3.6434914734916477,3.7298983859036228,-8.58308663320402,8.19425552733927,-22.062564969902283,-2.7650211972729597,2.232178570713774,9.965597231833677,0.11306900000000009,0.06495899999999999,-0.642483,0.106707,-0.11527200000000001,-0.818323,0.00636200000000009,0.180231,0.17584,0.0,0.8852354861012387,single,-0.642483
149,1.241667,jog,-1.134389248860078,0.9194864410847066,0.19534437245019803,0.47560949522918583,-0.911089953263914,0.8009658782624736,-3.365970722342196,2.6117110631149303,-1.4125269978401627,0.047396208303339474,0.024118070554356275,0.03671706263498901,-1.7691940327128333,-0.30122855657542535,5.1809798184215206,-5.898494100705838,7.0757083549938935,14.30456825181619,8.264586937570597,-4.104183146023291,0.8490373155222325,0.09447099999999997,0.07906199999999998,-0.655883,0.11655599999999999,-0.12273400000000001,-0.819645,0.02208500000000002,0.20179599999999998,0.16376199999999996,0.0,0.8922938078569997,single,-0.655883
150,1.25,jog,-1.2144485779431309,0.8744749789991665,0.5001800072002865,1.9806694282953419,0.005308986919797646,0.4415046195185636,-3.512540501620086,2.6446657866314904,-1.3416536661466576,0.06972278891156354,0.013440537621505102,0.06048241929677212,-9.607503790118042,-5.401591513925416,36.58173943958854,-17.589077076429984,3.9547250109876932,8.505140008821039,2.679296844860707,-1.2813552061503986,2.8519568776891076,0.07532100000000008,0.09381300000000001,-0.6712309999999999,0.12725700000000006,-0.129909,-0.823309,0.05193599999999998,0.223722,0.15207800000000005,0.0,0.8445433394698051,single,-0.6712309999999999
151,1.258333,jog,-1.0382815312612592,0.9623184927397181,-0.020760830433214965,-2.5475471546841484,-2.604393387243483,-0.2466063375042404,-3.457938317532737,2.5683427337093714,-1.377055082203299,0.035041401656061635,0.036841473658946904,0.07668306732269368,21.140891237474293,10.541643314598879,-62.51540113206604,6.552524191449593,-9.159132715963008,-4.24833986039142,-4.161932947978186,2.8082246534791815,1.9441555293317785,0.05515800000000004,0.107196,-0.682533,0.13620100000000002,-0.137621,-0.822497,0.08104299999999998,0.244817,0.1399640000000001,0.0,0.8466531996366742,single,-0.682533
152,1.266667,jog,-1.2710583153347592,1.0549556035517071,0.08675305975522242,-0.5445466259592258,-2.586483706097977,0.22706768426188526,-3.5298776097911966,2.707463402927745,-1.2158627309815127,-0.01223902087833522,0.05783537317014384,0.0826733861291093,-27.93097961045095,11.11556405231441,12.90063477183064,-8.632024509054366,16.693144854616353,19.341534823828304,-5.673196848379709,2.5190664160303307,0.7187807543095228,0.03633299999999995,0.120968,-0.693389,0.14669199999999993,-0.145931,-0.822531,0.11035899999999998,0.266899,0.12914199999999998,0.0,0.8306088288093461,single,-0.693389
153,1.275,jog,-1.2685707428297244,1.0997239889595691,0.3027721108844312,-1.4615393531394585,-1.8717157540071387,0.17934043838235128,-3.537021480859267,2.7704308172327146,-1.2180487219488916,0.0060002400096131015,0.0567622704908203,0.1296051842073692,0.2985206414298408,5.372421145789319,25.923323068428026,-0.8572988201212415,7.556391972275293,-0.26232940926184395,2.188798858508159,-0.12877747261773084,5.63204105103328,0.017429999999999946,0.13489,-0.706062,0.15731300000000004,-0.154622,-0.823974,0.1398830000000001,0.289512,0.11791200000000002,0.0,0.7639711528643156,single,-0.706062
154,1.283333,jog,-1.3009720388815313,1.0640825633025135,0.4670586823472865,0.33496467232702937,-0.3662945520429501,-0.19946580126203073,-3.6529461178446394,2.724228969158719,-1.1531261250449791,-0.024000960038411796,0.017760710428421266,0.19584783391335328,-3.8883110586591147,-4.277142164533183,19.715177182629596,-13.911512898760417,-5.544443546621217,7.791023269400133,-3.6002880172836162,-4.680374422464701,7.949435942155638,-0.0021689999999999765,0.148724,-0.719563,0.16795399999999994,-0.16334099999999996,-0.8262339999999999,0.1701229999999999,0.312065,0.10667099999999996,0.0,0.6698154431641463,single,-0.719563
155,1.291667,jog,-1.1871850251980152,1.0380369570434569,0.6093112550996068,0.22768163418511672,-1.702223382703733,-0.703524548349632,-3.6271898248140912,2.67698584113276,-1.0848332133429557,-0.05411567074633883,0.011279097672184399,0.23374130069594856,13.653349374072276,-3.125222733268191,17.06894321482158,3.0905079230319954,-5.66872186536597,8.19449384473539,-3.6134762068547643,-0.7777313122434595,4.546852265730262,-0.02250399999999997,0.162383,-0.733682,0.17739700000000003,-0.171898,-0.829364,0.199901,0.334281,0.09568200000000004,0.0,0.5996851256140894,single,-0.733682
156,1.3,jog,-1.363734549381943,1.100444017760691,0.5635425417016622,0.22710985677121334,-0.26624468266563517,-0.10363258964331183,-3.5599423976958384,2.7346693867754226,-0.952238089523564,-0.09480379215167929,0.0021600864034515992,0.30037201488058973,-21.186790373685923,7.489146851942028,-5.492465306365515,8.070014054752388,6.922302369214152,15.912051340380334,-4.882769879435948,-1.094325125252927,7.996005542378496,-0.04080499999999998,0.176001,-0.746313,0.187971,-0.18105000000000004,-0.831557,0.22877599999999998,0.357051,0.08524399999999999,0.0,0.5,flight,-0.746313
157,1.308333,jog,-1.3055322212888734,1.112084483379345,0.6060242409696442,-1.2295978600681485,-1.8602276973712883,-0.3937625168774962,-3.4314172566903,2.7201488059522636,-0.8919956798272006,-0.12840513620545124,-0.010800432017278268,0.33373334933397625,6.984558753518567,1.3969117507085418,5.098007832471193,15.423633866019411,-1.742539400355109,7.229378338697223,-4.032322579355845,-1.5553244234645367,4.0035202752174275,-0.058519999999999905,0.18940099999999999,-0.758796,0.19778000000000007,-0.190407,-0.8338260000000001,0.2563,0.37980800000000003,0.07503000000000004,0.0,0.5,flight,-0.758796
158,1.316667,jog,-1.3640508759299073,1.114950803935676,0.741060715142778,0.5048992514265975,-0.7012228107129292,-0.1266374834905893,-3.4008879289656577,2.741060715142768,-0.7722582193424464,-0.18958483321334457,-0.03923686105111156,0.4318454523638082,-7.021676822778192,0.34393095228351644,16.203080654323585,3.6632262688555177,2.509228364591361,14.367345870500754,-7.340976362838116,-3.4120985161786743,11.772510562734729,-0.07549499999999998,0.202953,-0.771408,0.20756799999999997,-0.20002599999999998,-0.836403,0.28306299999999995,0.402979,0.06499500000000002,0.0,0.5,flight,-0.771408
159,1.325,jog,-1.4156966278651344,1.2437297491899788,0.7261490459618486,0.6885521814129905,-0.16035269986975123,-0.022727776470434533,-3.3638545541822014,2.692067682707334,-0.6277451098043979,-0.2053282131285292,0.01920076803072062,0.3948157926317082,-6.197738141752983,15.454091594180255,-1.7894718805867744,4.4441827413244575,-5.879399068214884,17.34226683523939,-1.8892811610686149,7.012796001659992,-4.443736917328739,-0.09172899999999995,0.21502200000000002,-0.78269,0.21765400000000001,-0.21022999999999997,-0.839164,0.30938299999999996,0.42525199999999996,0.056474000000000024,0.0,0.5,flight,-0.78269
160,1.333333,jog,-1.420736829473146,1.2193687747509692,0.659426377055074,-0.4061319653437755,-0.8169899367404634,-0.13485471066209206,-3.5081003240128936,2.6881075243009223,-0.5907836313452431,-0.24732989319572105,0.05868234729388613,0.47617904716187887,-0.6048483868968515,-2.9234338700359075,-8.007040550434828,-17.310184787074252,-0.4752380182901308,4.435554837291986,-5.040403224191901,4.737979030741008,9.763981102864426,-0.10912299999999997,0.227261,-0.793108,0.22743199999999997,-0.21990200000000001,-0.8406910000000001,0.33655499999999994,0.447163,0.04758300000000004,0.024170000000000025,0.5,flight,-0.793108
161,1.341667,jog,-1.4499640028797953,1.2289416846652503,0.6804655627549904,-0.23883723372295998,-0.6037966330490768,-0.025286458407912868,-3.4803215742741314,2.620830333573364,-0.5041996640268871,-0.2961363090952811,0.07427405807535972,0.5467962562995062,-3.5069802503779615,1.1486572971299918,2.5245003239640944,3.3331833139864164,-8.072617077940931,10.389244938607835,-5.856301403835012,1.87085562532684,8.473387225537403,-0.12604400000000004,0.238861,-0.8029810000000001,0.23704799999999993,-0.22952499999999998,-0.841805,0.36309199999999997,0.46838599999999997,0.03882399999999997,0.11175999999999997,0.5,flight,-0.8029810000000001
162,1.35,jog,-1.4916596663866357,1.2498499939997383,0.6428657146285673,-0.6463341438650906,-0.8394218176084279,-0.06557422001510188,-3.268210728429078,2.5605424216968258,-0.319212768510736,-0.30685227409094873,0.0936037441497647,0.5850234009360269,-5.00367976801148,2.5090974840378717,-4.512162261661151,25.454319674192952,-7.234838818737187,22.199315434555125,-1.2859672381696194,2.3196551151331626,4.58744085401656,-0.14084799999999997,0.249783,-0.810998,0.24692100000000006,-0.23915999999999998,-0.842287,0.38776900000000003,0.488943,0.03128900000000001,0.18711000000000005,0.5,flight,-0.810998
163,1.358333,jog,-1.5167406696267935,1.2962918516740791,0.6233049321972974,-0.2340652344689946,-0.5789990596941186,-0.013087308863355943,-3.2770910836433758,2.519980799231991,-0.30037201488059695,-0.32749309972400303,0.09504380175206607,0.6413056522260951,-3.009840782450265,5.573245850754981,-2.347387787263901,-1.0656852531258918,-4.8675893993561745,2.2609808748516995,-2.476998155892775,0.17281382482915916,6.754140320421069,-0.15551700000000002,0.25998,-0.818695,0.2568309999999999,-0.24917000000000003,-0.842137,0.41234799999999994,0.50915,0.023442000000000074,0.2655799999999999,0.5,flight,-0.818695
164,1.366667,jog,-1.5689944804415499,1.4001679865610643,0.8939284857211303,1.856694600390076,0.2698642164217908,0.12345171642840141,-3.2673386129109394,2.337772978161729,-0.2800575953923668,-0.3182145428365692,0.07775377969762809,0.6289896808255288,-6.269955701314607,12.464139055313705,32.472228644568126,1.1702028716626196,-21.863189473273412,2.4375353357607388,1.1133377594712948,-2.0746366755984944,-1.47779834420042,-0.16967100000000002,0.267794,-0.828479,0.2672549999999999,-0.260191,-0.8443449999999999,0.4369259999999999,0.5279849999999999,0.015865999999999936,0.34134,0.5,flight,-0.828479
165,1.375,jog,-1.5761430457218542,1.3722548901956204,0.5940237609504446,-0.48415060667019705,-0.5768430642092789,-0.1829735249219085,-2.9488779551182396,2.1513260530421445,-0.05328213128525189,-0.320892835713426,0.08460338413536087,0.6290651626065096,-0.8578621481224458,-3.3497055520753847,-35.990006572745514,38.21680760742863,-22.374525995390172,27.214144258624383,-0.3214080015428783,0.8219854119444184,0.009058176044740743,-0.18111,0.27428600000000003,-0.833873,0.27771500000000005,-0.270921,-0.8440529999999999,0.45882500000000004,0.545207,0.010179999999999967,0.3981999999999999,0.5,flight,-0.833873
166,1.383333,jog,-1.5895835833433458,1.3840153606144374,0.5159006360254521,-0.7589388013230929,-0.30338577440394593,-0.2670815363631975,-2.691587663506562,2.0078003120124985,0.04656186247449934,-0.31861274450977883,0.09576383055322552,0.67502700108005,-1.6129290317402842,1.4113129027741644,-9.375149996999067,30.876070036203057,-17.223777874672663,11.981758521511118,0.27362188931323167,1.3393071424294674,5.515641242474598,-0.190293,0.279484,-0.837784,0.28830600000000006,-0.281656,-0.842727,0.47859900000000005,0.56114,0.004943000000000031,0.45056999999999997,0.5,flight,-0.837784
167,1.391667,jog,-1.5949124070074236,1.406647468202533,0.48332133429325663,-0.7921568475521373,0.2615486353867547,-0.34516528159826443,-2.4074874010078977,1.8392128629709426,0.01319894408447302,-0.4918406527477854,0.10883129349651839,0.764458843292531,-0.6394076870743689,2.7156356597186653,-3.9092034715857005,34.089304355491,-20.228875574940567,-4.003229948407255,-20.785686133669934,1.5679701155858863,10.730962588490561,-0.197065,0.283089,-0.8417020000000001,0.29749899999999996,-0.292472,-0.840384,0.49456399999999995,0.575561,0.0013180000000000414,0.5,0.48682000000000003,flight,-0.840384
168,1.4,jog,-1.6197047881915403,1.3399735989439698,0.3693747749909927,-0.8960591498665211,-1.2205653070033387,-0.3684846464486163,-2.107524300972061,1.6840273610944614,-0.012360494419777608,-0.5021000840033606,0.10788431537262053,0.7932317292691786,-2.9752047502840355,-8.001184358401982,-13.674134081635064,35.99701188477615,-18.623005145383726,-3.0672553107225324,-1.2311809979089532,-0.11364192054456666,3.452884432575049,-0.20113000000000003,0.285956,-0.8448829999999999,0.306812,-0.302739,-0.8368519999999999,0.507942,0.588695,0.00803100000000001,0.5,0.4196899999999999,flight,-0.8368519999999999
169,1.408333,jog,-1.6240249609984136,1.4105364214568337,0.3288131525261044,-0.3483305003596252,-0.3219811508822311,-0.47264655279946227,-1.784831393255702,1.5297011880474962,-0.06072242889715393,-0.5425417016680569,0.14616584663386242,0.9807992319692616,-0.5184414744837731,8.467877416640178,-4.867589399362487,38.72469791387893,-18.519881560897932,-5.803664283856412,-4.853188247293367,4.59396751004935,22.50900068403692,-0.20247000000000004,0.286949,-0.848129,0.315824,-0.31327499999999997,-0.831419,0.518294,0.600224,0.016710000000000003,0.5,0.3329,flight,-0.831419
170,1.416667,jog,-1.6399088072954457,1.3976481881449747,0.30993520518359147,-0.4530395322837133,-0.1593900245307581,-0.4264084444043296,-1.4870410367170894,1.3290136789057099,-0.14362850971922564,-0.574754019678432,0.20074394048476266,1.0771538276938049,-1.905909082917255,-1.5464642802806814,-2.2651724673042084,35.73198422589612,-24.080574651042735,-9.94793386393968,-3.8651689477292615,6.548847354319807,11.56162655682087,-0.20119600000000004,0.286377,-0.851909,0.324701,-0.32325,-0.825025,0.5258970000000001,0.6096269999999999,0.02688400000000002,0.5,0.23115999999999998,flight,-0.825025
171,1.425,jog,-1.620304812192461,1.3856954278170885,0.22680907236288422,-0.28543386821009314,-0.21391969955618292,-0.4012513471933608,-1.2356894275770816,1.1321252850113803,-0.23556942277690607,-0.5735029401176053,0.2713308532341262,1.082083283331314,2.352573515298737,-1.4343886148909109,-9.97553495988309,30.16339963278573,-23.62755236941391,-11.033350900957497,0.15013555272131102,8.470768360657903,0.5915583388346517,-0.19799100000000003,0.28426399999999996,-0.855762,0.33342399999999994,-0.332536,-0.817898,0.531415,0.6168,0.03786400000000001,0.5,0.12136000000000008,flight,-0.817898
172,1.433333,jog,-1.6287051482059465,1.3988959558382463,0.08628345133805733,-0.00356184324152238,0.7663319300240096,-0.5590631724981528,-1.0296411856474326,0.9251170046801982,-0.3529341173646994,-0.6421456858274384,0.3318132725308997,1.14412576503061,-1.0080806448440562,1.5841267276080533,-16.8637490729423,24.72677810268221,-24.841987319234853,-14.084326723604269,-8.237458983539387,7.2581806428386,7.445395619740371,-0.19299899999999998,0.280316,-0.859422,0.341645,-0.341428,-0.809083,0.5346439999999999,0.6217440000000001,0.05033900000000002,0.5,0.0,flight,-0.809083
173,1.441667,jog,-1.6211903047755984,1.3885289176865743,0.02687784977201827,-0.1768024795985406,0.2529928428256373,-0.48046483040803345,-0.8686105111591002,0.7332613390928643,-0.4745620350371934,-0.6834653227741636,0.35733141348692266,1.059395248380122,0.9017090749157632,-1.2439450625956299,-7.128101939769451,19.32213516778632,-23.02083820342362,-14.594182586092286,-4.957959796823246,3.0619319601659174,-10.166848650166486,-0.18672700000000003,0.27485499999999996,-0.8636010000000001,0.34946,-0.350022,-0.800478,0.536187,0.6248769999999999,0.06312300000000004,0.5,0.0,flight,-0.800478
174,1.45,jog,-1.6152646105844415,1.3744149765990772,-0.09948397935917151,-0.11337902445469918,0.6256236351860311,-0.5544661792241917,-0.7634705388215639,0.5690627625105085,-0.594023760950443,-0.8879155166206782,0.390135605424221,1.0228009120364911,0.7111117474087381,-1.6937406801268706,-15.164026056785184,12.617301372559368,-19.70461737457786,-14.33598054881203,-24.53500466176845,3.9366604988957916,-4.391496021076572,-0.17962900000000004,0.268144,-0.8677220000000001,0.355521,-0.358224,-0.791126,0.53515,0.626368,0.07659600000000011,0.5,0.0,flight,-0.791126
175,1.458333,jog,-1.6120244809792144,1.350774030961215,-0.19224768990759203,-0.1476991651846508,0.5280504812194567,-0.4462183204357165,-0.6795871834873244,0.4159366374654943,-0.7196687867514577,-1.1112444497779772,0.4609384375374914,1.128645145805812,0.38883110587148323,-2.8370269576217098,-11.132090549432245,10.066405296320418,-18.375870040202987,-15.078006216370165,-26.80054400063543,8.496679720781135,12.701816124963276,-0.17185899999999998,0.26035400000000003,-0.872117,0.35969399999999996,-0.365639,-0.780119,0.5315529999999999,0.625993,0.09199800000000002,0.5,0.0,flight,-0.780119
176,1.466667,jog,-1.599112071034345,1.3167746580273825,-0.29493640508760716,0.025672027201769993,0.5357533687605429,-0.3729251910897621,-0.5040796736261207,0.22822174226061862,-0.7714182865370905,-1.2147828173746225,0.47096232301416924,1.1313894888409168,1.5493652441648265,-4.079598384189254,-12.321660088794946,21.059216446029158,-22.523985505745053,-6.20944321881855,-12.423610222779844,1.2027700355985131,0.3292948206269376,-0.16273300000000002,0.251282,-0.876088,0.362897,-0.372688,-0.768232,0.52563,0.6239699999999999,0.10785599999999995,0.5,0.0,flight,-0.768232
177,1.475,jog,-1.6068642745709563,1.3042121684867154,-0.37993519740788995,0.292761829902331,0.5711965138539831,-0.49123709077778455,-0.48049921996879125,0.06660266410656641,-0.8717148685947294,-1.2581303252129923,0.5217808712348392,1.1081243249729786,-0.9303016364588009,-1.5075590472419125,-10.200263088957314,2.82976762958467,-19.395065181093166,-12.036071289768037,-5.201909016964967,6.098469725269298,-2.7919313414061913,-0.153347,0.24096900000000002,-0.880186,0.365803,-0.379208,-0.755832,0.51915,0.620177,0.12435400000000008,0.5,0.0,flight,-0.755832
178,1.483333,jog,-1.562222488899567,1.2665306612264615,-0.4141365654626201,0.24412502844964737,0.4012011887192849,-0.6062041202585211,-0.2869314772590902,-0.1017640705628253,-0.8391935677427173,-1.3225729029161224,0.5669026761070501,1.0708028321132927,5.357228569709543,-4.521961749700495,-4.104328339701246,23.22905828749584,-20.20481635298131,3.9027122107299173,-7.733418661122129,5.4148331779924845,-4.478758293494088,-0.14272,0.229567,-0.883728,0.3678,-0.385038,-0.743458,0.5105200000000001,0.614605,0.14027,0.5,0.0,flight,-0.743458
179,1.491667,jog,-1.5123590112790866,1.245740340772729,-0.5098392128629607,0.48815037699463854,0.3923309873446871,-0.5426766009601589,-0.12143028557715445,-0.15430765538756894,-0.5625149988000915,-1.4524838012958892,0.7910967122630115,1.0461963042956488,5.983138663364544,-2.494638883337217,-11.483399016119497,19.858554317486735,-6.304725800905116,33.198772371325134,-15.588060760711036,26.901132248135305,-2.952547134346503,-0.13112800000000002,0.21789899999999998,-0.884167,0.368299,-0.38882700000000003,-0.7304900000000001,0.499427,0.606726,0.15367699999999995,0.5,0.0,flight,-0.7304900000000001
180,1.5,jog,-1.4650186007440493,1.2368894755790358,-0.5400216008640466,0.580719314203354,0.29152909211669903,-0.6329842321341033,-0.07212288491539946,0.025561022440900118,-0.17400696027841273,-1.6258250330013355,0.8967958718348825,1.0482419296771959,5.681076507264811,-1.0621463090955525,-3.6220314413879917,5.917124764401229,21.585104743606227,46.62282953578331,-20.801779875848787,12.684406524885636,0.2454848651802575,-0.11952099999999999,0.207805,-0.881117,0.36695900000000004,-0.39166100000000004,-0.717255,0.48648,0.599466,0.16386200000000006,0.6831864436205891,0.0,single,-0.717255
181,1.508333,jog,-1.4014160566422744,1.1821672866914783,-0.6051842073683026,0.8016667937241547,0.7172496523119463,-0.8579687822111132,-0.1779671186847438,0.2012480499219968,-0.24000960038401778,-1.7640705628225346,1.0722428897155982,0.9524780991239736,7.6326105966369235,-6.566925343520705,-7.8198255735337305,-12.701816124966435,21.083286629196962,-7.9206336380182,-16.590127183631388,21.05448432505908,-11.49211935116082,-0.10932599999999998,0.19963099999999998,-0.878074,0.36393699999999995,-0.392577,-0.704275,0.47326299999999993,0.592208,0.17379900000000004,0.5,0.0,flight,-0.704275
182,1.516667,jog,-1.3647708183345222,1.21190304775617,-0.6157907367410591,1.9065483096744928,2.284288887590576,-0.712616589261331,-0.18154547636189472,0.2212622990160785,-0.1241900647948156,-1.851811855051572,1.2523398128149654,0.898848092152624,4.397076830783772,3.568005887292003,-1.2726817101939576,-0.4293685717723657,2.401517769868196,13.897232492104786,-10.528112818458942,21.609901979765517,-6.435086029679537,-0.09946500000000003,0.191375,-0.873977,0.35987800000000003,-0.39224000000000003,-0.6916519999999999,0.45934300000000006,0.583615,0.18232500000000007,0.5,0.0,flight,-0.6916519999999999
183,1.525,jog,-1.3277331093243874,1.154086163446547,-0.7809912396495882,2.572566829637123,2.230269647976239,-0.8566305872341983,-0.2047281891275652,0.04944197767911043,-0.10596423856954314,-1.9090363614544796,1.38425537021482,0.8561142445697875,4.444702869330992,-6.938303649300816,-19.824853343157393,-2.782036813353019,-20.619263330969595,2.187186634498096,-6.867215456967247,15.830500107987005,-5.12826684061405,-0.09010699999999999,0.18217000000000003,-0.868352,0.355034,-0.390322,-0.67801,0.445141,0.572492,0.190342,0.6070532958250754,0.0,single,-0.67801
184,1.533333,jog,-1.3751350054001916,1.1225249009960203,-0.7272290891635483,2.617432294088328,2.55700202159443,-1.2012532094618171,-0.1862474498979924,0.03756150246009201,-0.07356294251769971,-1.9583583343333357,1.5042601704067922,0.7103084123364819,-5.6884550672991026,-3.7875029941828924,6.451716126969745,2.217777418645443,-1.4257140548443796,3.88831105866349,-5.918873500402643,14.401152069119181,-17.49739976398692,-0.0802,0.17312899999999998,-0.862905,0.35017400000000004,-0.38714099999999996,-0.666031,0.43037400000000003,0.5602699999999999,0.196874,0.660431296542433,0.0,single,-0.666031
185,1.541667,jog,-1.2932565394768676,1.0767938564915023,-0.6559875209983326,1.5441023941536693,1.0895707972515594,-1.1799782297605854,-0.1275497960163188,-0.0019198464122823127,-0.08795296376290035,-2.1779457643388977,1.6864650827934067,0.6367890568754628,9.82462994040384,-5.487286357633658,8.548304315480816,7.043155013399895,-4.7373828740550845,-1.726664416270808,-26.348383729969548,21.862840459157425,-8.821616925968378,-0.07048499999999996,0.164139,-0.858171,0.342801,-0.38206,-0.655257,0.413286,0.546199,0.20291400000000004,0.7417561439435298,0.0,single,-0.655257
186,1.55,jog,-1.2676107044281537,1.0942037681507053,-0.663266530661222,2.1184131786800533,0.850461335069352,-1.1775556673055412,-0.057602304092166996,-0.05088203528141462,-0.045001800072002135,-2.2443297731908878,1.8343933757349966,0.5851434057362181,3.077623310778042,2.0892729700231274,-0.8735161001907219,8.394034792289762,-5.875697692203462,5.154345816740365,-7.966399718227393,17.75210523719997,-6.197726045751084,-0.06040200000000001,0.15459699999999998,-0.853019,0.334662,-0.375892,-0.644854,0.395064,0.530489,0.20816499999999993,0.8515621252208141,0.0,single,-0.644854
187,1.558333,jog,-1.261850474018972,1.0366014640585726,-0.6027841113644601,1.5654001764666545,0.35603809508985695,-1.2735620490503117,-0.05580223208928327,-0.05832233289331464,-0.0033601344053762754,-2.343693747749937,1.8951158046322027,0.5293411736469505,0.6912552993137855,-6.912552993175719,7.258180642837208,0.2160172810372908,-0.8928714282851422,4.997199767985868,-11.924153913242558,7.286982946982683,-6.696535712140659,-0.05035200000000001,0.145473,-0.848024,0.32564699999999996,-0.368738,-0.63542,0.37599899999999997,0.514211,0.21260400000000002,0.8653536099889063,0.0,single,-0.63542
188,1.566667,jog,-1.2630189584833094,1.0710343172546102,-0.4718022558195231,1.2671801683088033,0.06638815932443477,-1.2068461768321397,-0.054835613150945726,-0.013318934485237747,0.009119270458363223,-2.4278857691384474,1.9976001919846271,0.43568514518838103,-0.14020691916695016,4.131611854576116,15.716565340165102,0.11598499380100008,5.399975810904314,1.4974087909454528,-10.102234387870134,12.297142710873961,-11.23782438907713,-0.04028300000000001,0.13643600000000003,-0.844016,0.31593899999999997,-0.361016,-0.6278570000000001,0.356222,0.497452,0.21615899999999988,0.9047299222217436,0.0,single,-0.6278570000000001
189,1.575,jog,-1.2689307572303041,1.110644425777043,-0.3854554182167313,0.7926897503651045,-0.4411381609184458,-1.2442260829560843,-0.04920196807872618,-0.010320412816516415,-0.0020400816032645243,-2.5622224888995806,2.0316812672507085,0.3458538341533688,-0.7094442274084749,4.753403158818325,10.362034993734863,0.6760644512444018,0.3598369937263122,-1.339175814427919,-16.12105121338466,4.08989262763491,-10.780188531742837,-0.030119000000000007,0.12709499999999999,-0.840821,0.305162,-0.353341,-0.6217630000000001,0.335281,0.480436,0.21905799999999997,0.9161432021494169,0.0,single,-0.6217630000000001
