frame_id,timestamp,gait_type,root_linear_velocity_x,root_linear_velocity_y,root_linear_velocity_z,root_angular_velocity_x,root_angular_velocity_y,root_angular_velocity_z,left_linear_velocity_x,left_linear_velocity_y,left_linear_velocity_z,right_linear_velocity_x,right_linear_velocity_y,right_linear_velocity_z,root_acceleration_x,root_acceleration_y,root_acceleration_z,left_acceleration_x,left_acceleration_y,left_acceleration_z,right_acceleration_x,right_acceleration_y,right_acceleration_z,left_pos_rel_x,left_pos_rel_y,left_pos_rel_z,right_pos_rel_x,right_pos_rel_y,right_pos_rel_z,step_length,step_width,step_height,left_contact_prob,right_contact_prob,support_type,max_foot_height
1,0.008333,quasi,0.011520460818444258,-0.06096243849753425,0.0004800192007685108,-0.06350997839512816,0.06370592864425856,-0.059264729917418144,-0.0013200528021367203,-0.0018000720028785845,-0.0008400336013440611,0.0019200768030740432,0.0012000480019279385,-0.0008400336013440611,0.0,0.0,0.0,0.0,0.0,0.0,0.0,0.0,0.0,0.07052599999999987,-0.1397219999999999,-0.9130510000000001,-0.041989000000000054,0.15238200000000002,-0.9103680000000001,0.11251499999999992,0.2921039999999999,0.002682999999999991,0.9960249196138934,0.9691449166371569,double,-0.9103680000000001
2,0.016667,quasi,0.02291816654668253,-0.05123590112790438,0.021598272138223896,0.07246777902759187,-0.003344269308894735,-0.11071983019473208,-0.0004799616030589126,-0.0019198464122889367,-0.0007199424046075187,0.0032397408207342506,0.0011999040076872464,-0.001919846412286439,1.367615278166339,1.1670911170662188,2.5339876334839673,0.10080287965896419,-0.01437177938689131,0.014409790825119081,0.15834701435807622,-1.727792664892462e-05,-0.12956717193933018,0.07033099999999992,-0.13931099999999996,-0.913237,-0.04215300000000011,0.15281900000000004,-0.9105639999999999,0.11248400000000003,0.29213,0.0026730000000000365,0.9964902950214435,0.9666826593504483,double,-0.9105639999999999
3,0.025,quasi,0.021120844833787827,-0.06504260170407325,0.0114004560182488,0.014541028440920247,0.16747612107814527,-0.07004391939965274,-0.00048001920078183396,-0.0004800192007685108,-0.0002400096003842554,0.003600144005757169,0.001080043201719157,-0.0016800672026881223,-0.21568723303668577,-1.6568703439540222,-1.2237868858724463,-6.912003230693973e-06,0.1727861768295243,0.057594240276402656,0.043250112207238504,-0.014383872071053573,0.02877465613804352,0.07015099999999985,-0.13877299999999992,-0.9133340000000001,-0.042299000000000087,0.15337,-0.9106730000000001,0.11244999999999994,0.29214299999999993,0.0026610000000000245,0.9987999519980639,0.9665282388101973,double,-0.9106730000000001
4,0.033333,quasi,0.021240849633969962,-0.06372254890196319,-0.004560182407307514,-0.10316281369006292,0.0961159093501448,-0.15032756963252303,0.0009600384015370216,-0.0018000720028785845,0.0013200528021125718,0.0027601104044289292,-0.0003600144005730523,0.0013200528021117392,0.01440115206793901,0.15841267276011772,-1.9153532251957657,0.17281382483125593,-0.15841267276011925,0.1872149768986952,-0.10080806448196805,-0.1728138248280582,0.36002880172805246,0.06998199999999999,-0.13825699999999985,-0.9132849999999999,-0.04245299999999985,0.1538980000000001,-0.910624,0.11243499999999984,0.29215499999999994,0.0026609999999999134,0.9959501466596039,0.9682555955626069,double,-0.910624
5,0.041667,quasi,0.023998080153585066,-0.05975521958241989,-0.00035997120230084524,-0.09538467789929005,0.04449261513655613,-0.13914498579122977,-0.0005999520038169799,-0.0014398848092167025,-0.0008399328053755773,0.0035997120230350957,-0.0035997120230350957,0.004559635229182062,0.33084119505820775,0.47604143503039353,0.5039850257987364,-0.18718387393256555,0.04321900571896831,-0.2591775386954822,0.1007441347019638,-0.3887326160861583,0.388718793744939,0.0697770000000002,-0.13777099999999998,-0.913289,-0.042622999999999855,0.154366,-0.9105829999999999,0.11240000000000006,0.292137,0.002706000000000097,0.9970472716062357,0.9615496865323638,double,-0.9105829999999999
6,0.05,quasi,0.029281171246865835,-0.06600264010561027,0.0016800672026964494,0.04119496483248936,0.06925597151217112,-0.1321176370789816,0.0013200528021100738,-0.00108004320173248,0.00024000960038342268,0.003240129605184117,0.0014400576022922092,0.002880115204607734,0.6339962910453341,-0.74972045160091,0.24481440117572237,0.23040979310297055,0.04318272020691498,0.12959827262198487,-0.04315161620676573,0.6047965469011527,-0.20155046496751802,0.06954400000000005,-0.13722999999999996,-0.913301,-0.04283999999999999,0.15492799999999995,-0.9105730000000001,0.11238400000000004,0.2921579999999999,0.0027279999999999527,0.9971293451549228,0.9651065489376947,double,-0.9105730000000001
7,0.058333,quasi,0.04200168006721138,-0.06804272170886645,0.008520340813624412,-0.02342006733691349,0.2784025445788597,-0.19108611481583257,-0.00048001920078183396,-0.0015600624025009907,0.0009600384015361888,0.003600144005757169,-0.0019200768030740432,0.0010800432017283165,1.5265221193262386,-0.2448195851741486,0.820865667938073,-0.21601728103827048,-0.057604608276552345,0.08640691241482854,0.043203456207014546,-0.4032322579342677,-0.21601728103677156,0.06918999999999986,-0.13667600000000002,-0.913364,-0.04316000000000009,0.15547899999999992,-0.910635,0.11234999999999995,0.29215499999999994,0.0027289999999999814,0.996843926989455,0.9656755164626336,double,-0.910635
8,0.066667,quasi,0.02747780177583545,-0.06311495080393885,-0.0013198944084453137,-0.049289882102576676,-0.05076345336323007,-0.16661376751658216,0.0,-0.0022798176145897822,0.0007199424046075187,0.0021598272138317145,-0.00023998080151613468,0.0010799136069116943,-1.7427259768869605,0.5912852057748503,-1.1807337679469312,0.05759769627811782,-0.0863637163533467,-0.02880921489424887,-0.17282418909592684,0.20159539255554457,-1.5550133983938492e-05,0.06896100000000005,-0.13616899999999998,-0.913347,-0.043370999999999826,0.1560030000000001,-0.910615,0.11233199999999988,0.2921720000000001,0.0027320000000000677,0.9960153470032072,0.968635573870849,double,-0.910615
9,0.075,quasi,0.035161406456270125,-0.06516260650425544,-0.004800192007685112,-0.03402441455042664,0.04517024326741349,-0.15265939178548504,0.0006000240009639698,-0.0021600864034516387,-0.0008400336013440619,0.002880115204611067,0.00012000480018213538,-0.0003600144005763834,0.9220694444299389,-0.24572851317851835,-0.4176524180054964,0.07200576034609028,0.014368320069380009,-0.18720460889854576,0.08643801641417896,0.04320000020380059,-0.17279827282948265,0.06867299999999998,-0.135644,-0.913314,-0.0436399999999999,0.156547,-0.910578,0.11231299999999989,0.292191,0.0027359999999999607,0.9960098529254702,0.96779831895799,double,-0.910578
10,0.083333,quasi,0.03360134405376908,-0.07956318252731065,0.010800432017284822,0.026170179395530947,0.11144942705793516,-0.12840919607405638,-0.00012000480018213519,-0.0022800912036470937,0.0,0.0042001680066944885,-0.0010800432017191559,0.005160206408256491,-0.1872149768992015,-1.7281382482965555,1.8721497689871498,-0.08640691241402909,-0.014401152069537368,0.1008080644838667,0.1584126727569207,-0.14401152068898238,0.6624529951797515,0.06839200000000001,-0.1349999999999999,-0.913404,-0.043885000000000174,0.15720100000000015,-0.910625,0.11227700000000018,0.29220100000000004,0.002778999999999976,0.9961945882654452,0.9609756732909737,double,-0.910625
11,0.091667,quasi,0.03371730261578785,-0.07655387568993482,-0.0086393088552869,-0.12353384080737206,0.0895471606046954,-0.14853429196541934,-0.00035997120230084556,-0.0019198464122889385,0.00011999040076805865,0.0034797216222770314,-0.00035997120230084556,0.0016798656107511558,0.013913914329106217,0.36108793345042317,-2.332582298124758,-0.02879366476106438,0.043225916889627486,0.01439769627646493,-0.08644665039806307,0.08640172779197394,-0.41760748710167234,0.06810800000000006,-0.134378,-0.913331,-0.04413700000000009,0.1578360000000001,-0.910539,0.11224500000000015,0.2922140000000001,0.0027920000000000167,0.9967383596451661,0.9656121327778495,double,-0.910539
12,0.1,quasi,0.03288131525259633,-0.07860314412577363,-0.006240249609990635,-0.06491916168546229,0.09940092560285255,-0.11891328662072664,-0.0001200048002087816,-0.0019200768030740415,-0.0002400096003834225,0.0018000720028919063,0.0006000240009373224,0.0019200768030723761,-0.10032249648284185,-0.2459220491826234,0.2878986253805668,0.028797120135853085,-2.7648000132364907e-05,-0.04320172820730599,-0.20156601696689352,0.11520403254988205,0.028826496138391947,0.06783300000000003,-0.13373899999999994,-0.913281,-0.04439599999999988,0.15849599999999997,-0.9104709999999999,0.11222899999999991,0.2922349999999999,0.00281000000000009,0.9967687718665892,0.9674009312855656,double,-0.9104709999999999
13,0.108333,quasi,0.03804152166088119,-0.0801632065282481,-0.007920316812673772,-0.07241814353053105,0.11933339814432299,-0.15998620883997017,-0.00048001920075518796,-0.0019200768030740447,0.001680067202687291,-0.000840033601354887,-0.00012000480018213538,-0.001440057602304701,0.6192495389757433,-0.18721497689601255,-0.2016161289671353,-0.04320345620381695,-3.9032839523059116e-16,0.23041843310581003,-0.3168253455234364,-0.08640691241083143,-0.403232257935567,0.06751200000000002,-0.13308700000000007,-0.9132009999999999,-0.04472000000000009,0.15916299999999994,-0.9104169999999999,0.11223200000000011,0.29225,0.0027840000000000087,0.9956731653960615,0.9693742109129909,double,-0.9104169999999999
14,0.116667,quasi,0.034317254619631414,-0.07499400047997325,-0.007079433645298797,-0.06903123497106008,-0.07742750965837157,-0.18566068556122847,0.0005999520038436226,-0.0013198944084453126,-0.0002399808015352843,0.0043196544276634255,-0.0004799616030589122,-0.0010799136069108608,-0.4468762948463852,0.6202551053845509,0.10089790825233678,0.12958617765764455,0.07201612606536256,-0.23038732952034716,0.6191130344394418,-0.04319136103633027,0.04321382234147345,0.06723100000000004,-0.13247299999999995,-0.9131440000000001,-0.044969999999999954,0.15978400000000015,-0.910367,0.112201,0.2922570000000001,0.0027770000000000294,0.9975507062007213,0.9647660140762395,double,-0.910367
15,0.125,quasi,0.03120124804991326,-0.08280331213246825,0.0034801392055617136,-0.050706188356800824,-0.024810273542136288,-0.12351546162696814,-0.0002400096003909172,-0.0019200768030740447,0.0013200528021117403,0.00024000960036427076,-0.0004800192007818344,0.0010800432017274847,-0.3739357457960108,-0.9371548844947808,1.2671994300804654,-0.10079942448512427,-0.07202476834618177,0.18721152089847903,-0.4895769623543932,-6.912003230791561e-06,0.2592051852440115,0.06696900000000006,-0.1317990000000001,-0.913162,-0.045228000000000046,0.1604699999999999,-0.910387,0.1121970000000001,0.292269,0.002775000000000083,0.9960959995807912,0.970239944473553,double,-0.910387
16,0.133333,quasi,0.029761190447620996,-0.08196327853113988,-0.0037201488059526245,-0.07720557142322398,-0.050056716401662385,-0.1218615180462794,-0.0001200048002087816,-0.0015600624024876663,-0.00024000960038425518,-0.0006000240009639688,0.0002400096003909168,-0.002040081603263671,-0.1728138248280645,0.10080806448198312,-0.8640691241466857,0.014401152067938978,0.04320345620861371,-0.18721497689859523,-0.10080806448196794,0.08640691241722676,-0.3744299537970902,0.06671999999999989,-0.13112900000000005,-0.913133,-0.045481000000000105,0.16115499999999994,-0.910373,0.112201,0.292284,0.0027599999999999847,0.9973617132768882,0.9688333464338295,double,-0.910373
17,0.141667,quasi,0.032517398608100656,-0.08843292536596944,0.0021598272138183983,-0.07566586338636565,0.012571193094836274,-0.1238163032082892,0.000479961603085557,-0.0015598752099880956,0.0015598752099839324,0.004799616030722354,0.0005999520038436247,-0.0017998560115192175,0.33071852177581795,-0.7762955165382263,0.705540679118195,0.07199020917858652,2.2461303044249048e-05,0.21596889973220443,0.6479049714046479,0.04318963324366556,0.028824765028132214,0.0664530000000001,-0.1304050000000001,-0.9131379999999999,-0.045711999999999975,0.16189699999999996,-0.9104059999999999,0.11216500000000007,0.29230200000000006,0.0027319999999999567,0.9962373234696658,0.96407836286392,double,-0.9104059999999999
18,0.15,quasi,0.030361214448584965,-0.0925237009480471,-0.007560302412087385,-0.07624537835634605,0.050173335267929574,-0.11157908577006337,0.0,-0.0019200768030740415,0.001080043201727483,0.003120124805001979,0.0010800432017191559,0.005640225609024168,-0.25875244923985224,-0.49091270635757245,-1.166462213597237,-0.05759769627811792,-0.04322592020712176,-0.05758214427654495,-0.2015470089668035,0.05761324827499469,0.892845508285537,0.06620000000000004,-0.12965000000000004,-0.913066,-0.04593899999999995,0.16267699999999996,-0.910296,0.11213899999999999,0.292327,0.00277000000000005,0.9963283411835079,0.9614073652512529,double,-0.910296
19,0.158333,quasi,0.02988119524780313,-0.09216368654747405,-0.002760110404415604,-0.07153441039184114,0.05121318548552246,-0.07852767685901631,0.00012000480018213519,-0.002040081603256177,0.00024000960038425518,-0.00036001440057305197,-0.0008400336013548856,-0.001680067202688121,-0.057604608278151136,0.043203456207014566,0.5760460827639238,0.014401152067938927,-0.014401152067938947,-0.1008080644837666,-0.41763341000540355,-0.23041843310620902,-0.8784702762165226,0.06595200000000001,-0.12889899999999987,-0.913041,-0.04619099999999987,0.16343799999999997,-0.9102870000000001,0.11214299999999988,0.29233699999999985,0.002753999999999923,0.996570577183205,0.9692723970057713,double,-0.9102870000000001
20,0.166667,quasi,0.03047756179505354,-0.08939284857211362,0.002399808015361169,-0.0514683369096816,-0.01722413726024805,-0.09702197628059372,-0.0007199424046016899,-0.002759779217662014,0.0020398368130553285,0.0009599232061444676,0.0007199424046283331,0.0004799616030722338,0.07155826100916829,0.3324739591265211,0.6191406791188827,-0.10078560172592085,-0.08635680518428561,0.2159619885614437,0.1583798424187087,0.18718214614629436,0.2591827220734764,0.06569200000000008,-0.12817699999999987,-0.9130440000000001,-0.04643699999999984,0.16418900000000014,-0.9103030000000001,0.11212899999999992,0.292366,0.0027409999999999934,0.994155811856573,0.9704361063886144,double,-0.9103030000000001
21,0.175,quasi,0.025201008040326895,-0.09516380655224092,0.000480019200768512,-0.052263692870741556,-0.03792729314944142,-0.09321783196431035,-0.00012000480018213558,-0.002880115204611072,0.00048001920076767927,0.002520100804038019,-0.003360134405392907,-0.00312012480499283,-0.6332117790383606,-0.6925426593216513,-0.23038387310604366,0.07199539234604055,-0.0144408960697298,-0.18718560089855432,0.1872288008992626,-0.48962880235464423,-0.43202765007381166,0.06548100000000012,-0.12740800000000008,-0.9130440000000001,-0.046625999999999834,0.16495399999999982,-0.9103330000000001,0.11210699999999996,0.2923619999999999,0.002711000000000019,0.9951294869147183,0.9641695594397177,double,-0.9103330000000001
22,0.183333,quasi,0.026041041641681695,-0.10356414256570952,-0.0013200528021233959,-0.013855307034856207,0.021309834487587023,-0.07894393029916144,-0.0001200048002087816,-0.003240129605184114,-0.00024000960038425518,0.002040081603256177,0.002040081603282823,0.0018000720028802486,0.1008080644851553,-1.0080806448420243,-0.21601728103827028,-3.1976499057763567e-12,-0.04320345620701332,-0.08640691241472866,-0.05760460827815212,0.6480518431148116,0.5904472348341623,0.06526299999999985,-0.12657200000000002,-0.9130349999999999,-0.046826000000000034,0.16583400000000004,-0.910307,0.11208899999999988,0.29240600000000005,0.0027279999999999527,0.9945812963781966,0.9670523223667619,double,-0.910307
23,0.191667,quasi,0.0394768418526546,-0.09791216702665577,-0.008279337652986041,0.08536574393858883,0.09067880536653451,-0.12178381083976161,-0.0010799136069025348,-0.0033597312215056367,-0.0002399808015352843,0.0017998560115042247,-0.0004799616030855554,0.0010799136069116935,1.6121670519525906,0.6781828100616444,-0.8350473783132516,-0.115179842415857,-0.014351045874912689,3.4555854296729333e-06,-0.028824765029031897,-0.30238099428466236,-0.08641209454866264,0.0649249999999999,-0.1257839999999999,-0.912968,-0.04714000000000018,0.16664600000000007,-0.910229,0.11206500000000008,0.29242999999999997,0.002739000000000047,0.9941047104339711,0.9690214153977983,double,-0.910229
24,0.2,quasi,0.026521060842410238,-0.10464418576742868,-0.004440177607098729,-0.06459677382775253,0.04985711872303041,-0.1020153181482802,-0.0015600624025009894,-0.0020400816032695,-0.00048001920076851036,0.0021600864034649584,-0.0024000960038292286,0.001320052802111738,-1.5547559114657805,-0.8078745638753032,0.4607176342118456,-0.05762016027822564,0.15836428875988667,-0.02880576013839264,0.043229376210336415,-0.23042534510304472,0.028817856138250858,0.06469100000000005,-0.12492899999999996,-0.912935,-0.04734299999999991,0.16749800000000015,-0.910181,0.11203399999999997,0.2924270000000001,0.002754000000000034,0.9956455176092769,0.9666459906981322,double,-0.910181
25,0.208333,quasi,0.024600984039362922,-0.10548421936875726,0.006360254410172792,-0.08069040653858416,0.07044728702229638,-0.058433251855761856,-0.001800072002865266,-0.004800192007671796,-0.0007200288011519352,0.0002400096003909176,0.0030001200047932073,0.000120004800192128,-0.23041843310300258,-0.1008080644820101,1.2961036862200344,-0.02880230413587869,-0.3312264975881799,-0.02880230413817658,-0.2304184331062097,0.6480518431084182,-0.14401152069118123,0.06447100000000017,-0.12409000000000003,-0.912994,-0.047545999999999866,0.16840199999999994,-0.910233,0.11201700000000003,0.292492,0.0027610000000000134,0.9913717930276937,0.9673698390343676,double,-0.910233
26,0.216667,quasi,0.02771778257740485,-0.10823134149267549,0.002879769618433403,-0.015613211949506553,0.02098125780230697,-0.13033531383352728,-0.029877609791236562,0.05879529637628869,0.0926325893928487,0.0004799616030589122,-0.0009599232061444676,0.0005999520038394596,0.3739859056925755,-0.3296282846074184,-0.41762476502752405,-3.3690350118036076,7.630848138224194,11.201418069834478,0.02879193696520211,-0.47516717193876545,0.057589057313094695,0.06399099999999991,-0.12269800000000008,-0.912246,-0.047773000000000065,0.1692959999999999,-0.9102520000000001,0.11176399999999997,0.291994,0.0019939999999999403,0.8104804681684268,0.9780107737849126,double,-0.9102520000000001
27,0.225,quasi,0.025921036841472914,-0.12240489619585024,0.00036001440057305197,0.016629707046999433,0.17975006293293078,-0.07332274407224414,-0.0037201488059393014,-0.0014400576023055312,0.005880235209408423,0.0009600384015370207,-0.00036001440057305197,0.002040081603264504,-0.21561811303635356,-1.7008946001649745,-0.30238272145209993,3.1390208790708316,-7.228531618696048,-10.410698929970023,0.0576115202781841,0.07199193634602366,0.17282246482959837,0.06374400000000002,-0.12169000000000008,-0.9122,-0.04798100000000005,0.17031299999999994,-0.910238,0.11172500000000007,0.292003,0.0019620000000000193,0.9881572292147094,0.9765745882654422,double,-0.910238
28,0.233333,quasi,0.028321132845302143,-0.11508460338415377,0.003480139205575031,-0.00316775070270526,0.15549678621798665,-0.07489544834189728,-0.005760230409222125,-0.004800192007685103,0.004560182407295853,-0.0002400096003909168,0.00036001440057305197,-0.0008400336013440605,0.2880230413811625,0.8784702762146238,0.3744299537983891,-0.2448195851773457,-0.40323225793586576,-0.15841267276041873,-0.14401152069218007,0.08640691241402897,-0.34562764965901377,0.06346000000000007,-0.12077099999999996,-0.9121910000000001,-0.04821900000000001,0.17127500000000007,-0.910274,0.11167900000000008,0.29204600000000003,0.0019170000000000575,0.9853734106973918,0.9792551354306138,double,-0.910274
29,0.241667,quasi,0.021958243340538117,-0.11423086153105881,0.003359731221492326,-0.06357337069285822,0.057545050404522444,-0.08972628545842362,-0.002399808015347855,-0.004319654427636797,0.002399808015358679,0.003959683225362594,0.0014398848092033846,0.0027597792176628556,-0.7634856617187474,0.10244082710522713,-0.014447802265743371,0.4032184297905301,0.05765989681405182,-0.2592241890973337,0.5039228252644014,0.1295740831089915,0.43194298284220356,0.06325700000000012,-0.11985500000000004,-0.912199,-0.048368999999999884,0.1722389999999998,-0.910279,0.111626,0.29209399999999985,0.0019200000000000328,0.9908443139410968,0.9724054348204665,double,-0.910279
30,0.25,quasi,0.024480979239180706,-0.12360494419777818,0.010080403216138718,0.050018598168734364,0.10448487697650648,-0.0696052168930555,-0.0022800912036470937,-0.005160206408258156,-0.0009600384015361881,0.00024000960036427038,0.0007200288011727504,-0.00024000960038425518,0.3027404174538086,-1.124934917403019,0.8065128998735613,0.014366592067774075,-0.10087027248546246,-0.40319769793530114,-0.4463786901474044,-0.08638617641073247,-0.3599890577279621,0.06303400000000003,-0.11886799999999997,-0.9122910000000001,-0.04857100000000014,0.17327500000000007,-0.9103650000000001,0.11160500000000018,0.29214300000000004,0.0019259999999999833,0.990462323278876,0.979413297015717,double,-0.9103650000000001
31,0.258333,quasi,0.022080883235324904,-0.12936517460697408,0.0015600624024876715,0.099086897746781,0.14159299955226823,-0.055118711439385314,-0.0018000720028919124,-0.0015600624025009946,0.000720028801152768,0.000960038401537024,-0.0015600624025009946,0.0018000720028802544,-0.2880230413843523,-0.6912552993154829,-1.0224817969100046,0.057604608274952895,0.4320345620733434,0.20161612896783393,0.08640691241722734,-0.27362188931642273,0.24481958517514876,0.06283499999999997,-0.1178030000000001,-0.9122979999999999,-0.048747000000000096,0.17433999999999994,-0.9103629999999999,0.11158200000000007,0.29214300000000004,0.00193500000000002,0.995852545831148,0.9763696418738628,double,-0.9103629999999999
32,0.266667,quasi,0.025557955363573137,-0.1259899208063348,0.005519558435324028,-0.010718087030215026,0.16980683546894718,-0.06843583629927265,-0.00299976001919147,-0.003959683225335938,-0.0015598752099839272,0.0019198464122889352,0.0013198944084453126,0.0004799616030714012,0.4172152781675341,0.40499805623221363,0.4751015158190967,-0.14395104587227703,-0.28793146422305504,-0.27356659600872246,0.1151677478703996,0.3455671719398013,-0.15840057593098777,0.06259700000000001,-0.11678600000000006,-0.912357,-0.0489440000000001,0.17540099999999992,-0.9104049999999999,0.11154100000000011,0.292187,0.0019520000000000648,0.9913219846597423,0.9765154716419482,double,-0.9104049999999999
33,0.275,quasi,0.015480619224774415,-0.13224528981161093,0.0036001440057704774,0.060101259990830394,0.09591360072515509,0.04173573087504192,-0.002160086403464951,-0.002160086403464951,0.0007200288011527632,0.0018000720028919003,0.000240009600390916,0.0009600384015361848,-1.2093287098042338,-0.7506743076054359,-0.23033894510422923,0.10076486448176115,0.2159602570347989,0.27359942531341425,-0.014373504067806846,-0.1295913606209519,0.05761152027658486,0.062449999999999894,-0.11570199999999997,-0.912381,-0.049058000000000046,0.17650500000000013,-0.9104270000000001,0.11150799999999994,0.2922070000000001,0.0019539999999999003,0.994769112032212,0.9770364145028367,double,-0.9104270000000001
34,0.283333,quasi,0.018960758430322914,-0.13380535221408615,0.002760110404415613,0.08581276478793456,0.08019874797735968,-0.0010719484565257485,-0.002280091203647101,-0.0025201008040246953,0.0013200528021117424,0.001800072002865266,-0.001440057602318859,0.002400096003840062,0.41763341000222093,-0.1872149768961028,-0.10080806448516338,-0.014401152067940763,-0.04320345620541764,0.0720057603454915,-3.196243097185224e-12,-0.20161612897033232,0.17281382482945887,0.06227300000000002,-0.11460799999999993,-0.912393,-0.04920100000000005,0.177608,-0.9104300000000001,0.11147400000000007,0.2922159999999999,0.001962999999999937,0.9939235739305818,0.9748236082947899,double,-0.9104300000000001
35,0.291667,quasi,0.02387808975282698,-0.1347492200623931,0.002519798416119236,0.013980410917139833,0.18392682700299565,-0.08007150508023445,-0.0017998560115042247,-0.00455963522917956,0.001679865610751153,-0.00023998080151613449,-0.00035997120230084497,0.0027597792176628465,0.5900325560959996,-0.11325508139032142,-0.02883513178502241,0.057623613168091656,-0.24472455305433918,0.04317408311008042,-0.244786753585481,0.12960000000216138,0.043158532976096016,0.062059000000000086,-0.11352299999999993,-0.9124,-0.049401999999999946,0.178728,-0.910428,0.11146100000000003,0.2922509999999999,0.0019719999999999738,0.991363561762395,0.975624193773772,double,-0.910428
36,0.3,quasi,0.02052082083282391,-0.13584543381734232,-0.0006000240009639708,-0.0566012098156474,0.20701829224484278,-0.0302258030961404,-0.0016800672027097766,-0.0021600864034649653,0.0015600624024959984,0.002880115204611072,-0.001920076803074048,0.0010800432017283193,-0.4028883859358069,-0.13155091263041277,-0.37439366579661765,0.014375232064616392,0.2879573773808473,-0.014376960069021347,0.3744264977951775,-0.18722016089922078,-0.20157638496754246,0.061873999999999985,-0.11240900000000009,-0.9123819999999999,-0.04954899999999984,0.1798439999999999,-0.910414,0.11142299999999983,0.292253,0.0019679999999999698,0.9947500281017321,0.9742765802913107,double,-0.910414
37,0.308333,quasi,0.023040921636861774,-0.14028561142445348,0.006000240009613022,0.052851595978506534,0.18569827856349286,-0.0165303680953363,-0.002880115204611053,-0.004800192007671764,0.0008400336013440577,-0.00012000480020878121,-0.0004800192007551856,0.003480139205567525,0.3024241934522806,-0.5328426265583989,0.792063363803788,-0.1440115206889801,-0.3168253455186353,-0.08640691241472911,-0.3600288017304501,0.172813824831256,0.2880230413823588,0.06165799999999999,-0.11128000000000005,-0.912425,-0.04974199999999995,0.18100899999999998,-0.9104350000000001,0.11139999999999994,0.292289,0.0019899999999999363,0.9905656414936128,0.9742414382511825,double,-0.9104350000000001
38,0.316667,quasi,0.02087832973363565,-0.14794816414687384,-0.0026397888169039643,0.11512210714308242,0.11439961272469751,-0.04970424444623393,-0.0019198464122623048,-0.0022798176145897952,0.0013198944084478192,0.005879529637624912,-0.0016798656107461687,0.004199664026877911,-0.25949026916560314,-0.9194327720686832,-1.036720521540321,0.11522303723887131,0.3024207335111571,0.057578690557207136,0.719886541616718,-0.1439700515947912,0.0863360716715131,0.06146800000000008,-0.110066,-0.912392,-0.049867000000000106,0.18222800000000006,-0.910378,0.11133500000000018,0.29229400000000005,0.0020139999999999603,0.9945672035408595,0.9674965238652391,double,-0.910378
39,0.325,quasi,0.02148085923436079,-0.1405256210248444,0.007200288011527631,-0.02638337833359907,0.19213309186544505,-0.0030633749760359216,-0.002520100804038002,-0.005760230409222106,0.0,0.00732029281172309,-0.002280091203647086,0.012240489619585316,0.0723064323443102,0.8907408042757008,1.1808564536699333,-0.07203340834941732,-0.41766624200555574,-0.15839366476032807,0.1728984968316539,-0.07202995234620362,0.9649376686316299,0.0612680000000001,-0.10894300000000001,-0.912452,-0.049984999999999946,0.1833800000000001,-0.910336,0.11125300000000005,0.2923230000000001,0.0021160000000000068,0.9895210313232965,0.9547674771163903,double,-0.910336
40,0.333333,quasi,0.024480979239180786,-0.14904596183846974,-0.0026401056042334773,0.03448754250189888,0.11714061522905743,-0.03963625766031865,-0.0021600864034649653,-0.006960278411136762,0.0014400576023038704,0.0129605184207365,-0.004200168006721149,0.016080643225728497,0.36002880173046975,-1.0224817969069206,-1.1808944696701227,0.04320345620701278,-0.14401152069058676,0.17281382482945806,0.6768541472475008,-0.23041843310621235,0.4608368662118314,0.061045999999999934,-0.10775900000000005,-0.912418,-0.05008100000000004,0.18458700000000006,-0.91018,0.11112699999999998,0.2923460000000001,0.0022379999999999622,0.9876188747225505,0.9424931056037898,double,-0.91018
41,0.341667,quasi,0.024118070554343115,-0.1442284617230797,0.0026397888169039465,0.01966776789794293,0.04058000276261548,-0.030372628495675673,-0.004439644828421493,-0.007079433645312118,-0.0008399328053755765,0.010439164866804433,-0.015358771298311482,0.0015598752099830946,-0.04354555853583764,0.5780537695452398,0.6335366476046819,-0.27352512898446435,-0.01429748430229856,-0.2735769627645122,-0.3025382234139747,-1.3389252809683612,-1.7423527736675533,0.06080799999999997,-0.10661599999999993,-0.912447,-0.05019499999999999,0.18566100000000008,-0.910189,0.11100299999999996,0.292277,0.0022579999999999822,0.9860025484404349,0.9463599671969802,double,-0.910189
42,0.35,quasi,0.026161046441863917,-0.15864634585381335,0.003240129605184125,0.03315328790014956,0.145457035557853,-0.0392907344051049,-0.000840033601328242,-0.01824072962917681,-0.008400336013440632,0.001920076803074048,-0.002520100804038019,0.005400216008640764,0.24516691317902406,-1.7302153043002129,0.07204377634467539,0.43197062607623427,-1.3394090944275432,-0.9072846763548631,-1.022331460906085,1.540702087396315,0.4608593302121299,0.060583000000000053,-0.10544600000000004,-0.912544,-0.050397000000000025,0.18696199999999985,-0.9101710000000001,0.11098000000000008,0.2924079999999999,0.0023729999999999585,0.96650060037873,0.9658350246323832,double,-0.9101710000000001
43,0.358333,quasi,0.03144125765030402,-0.1512060482419337,0.002400096003829221,-0.00640639258135317,0.18574993279359883,-0.014230151839512208,-0.002280091203647086,-0.0152406096243835,0.005160206408256473,0.005280211208440274,-0.005760230409195459,0.009240369614784635,0.6336506910404512,0.8928714282826847,-0.10080806448516749,-0.1728138248312538,0.3600288017272646,1.6273301838109984,0.40323225793426276,-0.3888311058631257,0.46083686621191106,0.06030200000000008,-0.10431299999999999,-0.9125209999999999,-0.05061500000000008,0.18817400000000006,-0.910114,0.11091700000000015,0.29248700000000005,0.002406999999999937,0.9729146037813522,0.9557609012905472,double,-0.910114
44,0.366667,quasi,0.017998560115202105,-0.17362610991120406,0.011159107271419444,0.12123835325501582,0.1104457694135273,0.06670664984226336,0.0002399808015427777,-0.018838492920575184,0.006359491240700437,0.0026397888169172683,-0.0038396928245778704,0.0035997120230375906,-1.612994664639057,-2.690192184937645,1.0509972723290395,0.302384449866794,-0.4317114586263115,0.14390266767986112,-0.31682534095548387,0.2304460744681529,-0.6768247650284424,0.06015400000000004,-0.10302300000000009,-0.912561,-0.05074299999999998,0.189589,-0.910177,0.11089700000000002,0.2926120000000001,0.0023839999999999417,0.9668593261340466,0.9663465097620902,double,-0.910177
45,0.375,quasi,0.029641185647412315,-0.16296651866074327,0.008520340813637757,-0.021874611704472732,0.26404327602130073,0.024489766610641648,-0.003000120004819854,-0.019320772830909293,0.007200288011520185,0.001800072002865266,-0.00372014880596596,0.003840153606144765,1.3971709507032568,1.2792021181400233,-0.31666464151946394,-0.38882764986951157,-0.05787590427626425,0.10089964848430936,-0.10077004848818007,0.014345856067671975,0.028854144138626518,0.05988199999999999,-0.10182600000000008,-0.912572,-0.05097499999999999,0.19091599999999986,-0.910216,0.11085699999999998,0.29274199999999995,0.0023560000000000247,0.9652734039533353,0.9670374964810169,double,-0.910216
46,0.383333,quasi,0.03024120964840293,-0.1693267730709294,0.009120364814588404,0.09103981304862512,0.08916826626678705,0.008041055840686906,-0.005040201608049391,-0.017400696027835245,0.009720388815553208,-0.00480019200768512,0.00204008160328283,-0.015480619224769522,0.07200576034928795,-0.7632610596647225,0.07200576034449159,-0.24481958517095184,0.23041843310621057,0.30242419345170163,-0.7920633638006003,0.6912552993218294,-2.3185854831290453,0.059587999999999974,-0.10055999999999998,-0.9125669999999999,-0.051267000000000174,0.19234400000000007,-0.9104209999999999,0.11085500000000015,0.29290400000000005,0.0021459999999999813,0.9657349459998303,0.9513139224353133,double,-0.9104209999999999
47,0.391667,quasi,0.033117350611944166,-0.17710583153348108,-0.006479481641468495,0.173653685553576,0.05837398428022694,-0.00837860849559164,-0.0039596832253625805,-0.01847852171827434,0.004199664026877882,0.003359731221518958,0.0010799136069025348,0.002399808015359504,0.34510930688039754,-0.9334123425188012,-1.8718318281805717,0.12965183377571504,-0.12932873655376706,-0.6624339799226446,0.9791124585078079,-0.11521094269022009,2.1454796304450454,0.05927899999999986,-0.09923800000000005,-0.912478,-0.05151499999999998,0.19382900000000003,-0.910347,0.11079399999999984,0.2930670000000001,0.002130999999999994,0.967734950364356,0.9715772013263636,double,-0.910347
48,0.4,quasi,0.036481459258353374,-0.16512660506420715,0.002400096003842544,-0.04174026934871217,0.13269279090766764,0.015947085308038247,-0.001560062402474338,-0.017880715228603638,0.007440297611904392,-0.000240009600390916,0.0018000720028652538,0.0007200288011519304,0.4037091859365408,1.4375646789000223,1.0655919411149648,0.2879660173872834,0.07173964834641787,0.3888915858666142,-0.4319861780763061,0.08642246441410249,-0.20158156896766666,0.05896200000000018,-0.09801099999999996,-0.912436,-0.051820999999999895,0.19521999999999995,-0.910361,0.11078300000000008,0.2932309999999999,0.002075000000000049,0.967617228502912,0.9759941056450274,double,-0.910361
49,0.408333,quasi,0.03780151206049034,-0.17976719068762786,0.010920436817480316,0.07271720285034923,0.1550984077301982,0.021679705857731858,-0.002280091203647101,-0.013440537621505011,0.0025201008040321897,-0.00048001920075518877,0.004080163206539014,-0.000360014400576384,0.1584126727633465,-1.7569405524325876,1.0224817969084117,-0.08640691241722848,0.5328426265568987,-0.5904472348340591,-0.02880230413587824,0.2736218893164245,-0.12961036862214292,0.058628000000000124,-0.09662499999999996,-0.912506,-0.05213999999999985,0.19675200000000004,-0.910455,0.11076799999999998,0.293377,0.002051000000000025,0.9768940979452745,0.9726165889525671,double,-0.910455
50,0.416667,quasi,0.03479721622271697,-0.19354451643866846,0.009959203263732199,0.08741618071910733,0.13645755941642154,-0.01975965083099846,-0.00455963522917956,-0.013198944084466447,-0.001199904007679752,0.005039596832238472,0.0038396928245778704,0.005879529637629036,-0.3604866615998759,-1.6531468383777999,-0.1153387993458263,-0.27352340119179946,0.028988905332201158,-0.44636486821597526,0.6623009398840479,-0.028854137504336817,0.7486853897534694,0.05830000000000002,-0.09512200000000004,-0.9125989999999999,-0.0523880000000001,0.19839699999999993,-0.910489,0.11068800000000012,0.293519,0.0021099999999999453,0.976640361970336,0.9644942096924747,double,-0.910489
51,0.425,quasi,0.037681507260281556,-0.1734069362774684,-0.004200168006721149,0.0491833977909197,-0.06421718401343675,-0.02658649777916963,-0.0061202448097951966,-0.008760350414028674,0.000240009600384256,0.03336133445337827,-0.002280091203647101,-0.011760470418816886,0.3461287696585377,2.416606283595358,-1.699192520155212,-0.18728064089951282,0.5326525465543962,0.17279654482947457,3.398744464315357,-0.7344034595253794,-2.1168846821608023,0.05793500000000007,-0.09375,-0.912562,-0.052424000000000026,0.19982300000000008,-0.910552,0.1103590000000001,0.2935730000000001,0.0020099999999999563,0.9821846866341315,0.9208217534658253,double,-0.910552
52,0.433333,quasi,0.02424096963878971,-0.20424816992678066,0.012120484819394855,0.1216831107050604,0.03018020352169982,0.10105785823091251,-0.0033601344053928845,-0.006000240009599698,0.0019200768030723696,0.018360734429385468,0.002160086403464951,-0.01116044641785617,-1.6129290317402845,-3.701096081760727,1.9585566814011683,0.33122649758817957,0.3312264975913794,0.2016161289677315,-1.8001440086394744,0.5328426265585063,0.07200576034569936,0.057704999999999895,-0.09209800000000012,-0.912647,-0.05247299999999999,0.20154300000000003,-0.910746,0.11017799999999989,0.29364100000000015,0.0019009999999999305,0.9880999441732399,0.9449985617317314,double,-0.910746
53,0.441667,quasi,0.03635709143267866,-0.20590352771778986,0.007079433645312165,0.16148236742145208,0.05968075317957159,-0.015027320148933869,-0.0011999040076606101,-0.0035997120230351165,-0.0015598752099839376,0.017998560115175585,0.005519558435324065,0.004439644828413197,1.453818309801898,-0.19862704475752438,-0.6048777506698726,0.2592069111749804,0.2880403151625384,-0.4175608366998233,-0.04345744110989749,0.40310439547145827,1.8718612006562823,0.05739200000000011,-0.09041200000000005,-0.9127190000000001,-0.05262600000000006,0.20330500000000007,-0.910768,0.11001800000000017,0.2937170000000001,0.001951000000000036,0.993162418607613,0.9482528519258793,double,-0.910768
54,0.45,quasi,0.045481819272759585,-0.18864754590185076,0.00204008160325617,0.13606865479184646,-0.11576099572836908,0.05109547669356362,-0.0032401296051841034,-0.009480379215161394,0.0001200048001921272,0.01116044641787116,0.013320532821309464,0.0014400576023046935,1.095011141255357,2.0708006499386804,-0.6047464349041131,-0.24483686517742523,-0.7057082913868058,0.20159366496772563,-0.8206064679352448,0.9361543724931437,-0.35996486572764796,0.0569860000000002,-0.08891899999999986,-0.912735,-0.05291199999999985,0.20498800000000017,-0.9107729999999999,0.10989800000000005,0.29390700000000003,0.0019620000000000193,0.9833008291062664,0.9513175230089594,double,-0.9107729999999999
55,0.458333,quasi,0.03372134885397798,-0.19944797791909688,-0.01680067202687127,0.13497302557095006,-0.23365298282446365,-0.014956568739535672,-0.003000120004819854,-0.003360134405379584,0.02652106084243364,0.013920556822273524,0.014400576023028713,-0.0027601104044164457,-1.4113129027699074,-1.2961036862169864,-2.2609808748502926,0.028802304135875437,0.73445875552404,3.1682534552071977,0.331226497588188,0.12961036862105496,-0.5040403224194347,0.05667999999999984,-0.08728500000000006,-0.912374,-0.05307700000000004,0.2067699999999999,-0.910656,0.10975699999999988,0.29405499999999996,0.0017179999999999973,0.9551651830643986,0.9491229550635476,double,-0.910656
56,0.466667,quasi,0.036837053035737324,-0.21166306695465528,0.0067194624429979515,0.11904147168625556,-0.03602215083274438,-0.00434676666311504,-0.004199664026878715,-0.015838732901370393,0.0037197024238064817,0.011999040076792523,0.024238060955127823,0.0025197984161267296,0.37385459344364586,-1.4656934287927035,2.8221903611554118,-0.14393376794562754,-1.497312034556131,-2.73594413470448,-0.23056356437257014,1.180403759551128,0.6335383753951488,0.056338,-0.08565299999999998,-0.912399,-0.05328399999999989,0.20873600000000003,-0.910691,0.10962199999999989,0.294389,0.0017079999999999318,0.9719950984458234,0.9376489046813263,double,-0.910691
57,0.475,quasi,0.02964118564743896,-0.2112084483379321,0.009480379215174781,0.2026575811619136,-0.13950349786509145,0.14735239636633052,0.003960158406356878,0.018600744029763184,-0.014520580823233332,0.01824072962917681,0.01836073442938559,0.013320532821312884,-0.8635386281409314,0.0545564162634335,0.33132326559184405,0.9792178607027018,4.132902547837953,-2.1889215465066436,0.74903270759442,-0.7053073953848851,1.2961399742213107,0.05612400000000006,-0.08373799999999998,-0.912599,-0.053379000000000065,0.2106490000000001,-0.910659,0.10950300000000013,0.29438700000000007,0.0019400000000000528,0.9601210929985029,0.9320866175154036,double,-0.910659
58,0.483333,quasi,0.031081243249730967,-0.20880835233408815,-0.012120484819394855,0.04184518704705625,-0.2730670072074136,0.0016684565709016888,0.0075603024120873595,0.000120004800195458,-0.017880715228608634,0.025561022440899778,0.016680667226675702,0.021240849633984864,0.17281382482803312,0.28802304138292734,-2.592207372443243,0.4320345620701388,-2.2177774186448636,-0.40323225793535195,0.8784702762178014,-0.20161612897034448,0.9504760365620961,0.05592799999999998,-0.08199699999999999,-0.912647,-0.053425000000000056,0.21252799999999994,-0.910381,0.10935300000000003,0.2945249999999999,0.0022659999999999902,0.9676437988598063,0.9153636554866647,double,-0.910381
59,0.491667,quasi,0.04247660187184606,-0.20950323974082358,-0.005399568034565961,0.13314284227839382,-0.10053037441701637,0.03237282374307083,-0.003959683225335938,-0.022678185745139735,0.0,0.03047756179505354,0.007079433645312118,0.033477321814255,1.3673336479619733,-0.08337981842277749,0.8064454985395834,-1.3822876934753163,-2.735564020318595,2.14551418629813,0.5899375274962513,-1.1520558652944053,1.4682592008963433,0.05554100000000006,-0.08043999999999996,-0.9126019999999999,-0.053525000000000045,0.214333,-0.910057,0.10906600000000011,0.29477299999999995,0.0025449999999999084,0.9616312048108512,0.898178626116906,double,-0.910057
60,0.5,quasi,0.02232089283571582,-0.2221288851554124,-0.006720268810745844,0.35638631320987824,-0.387319631910139,0.17923208965690066,0.009000360014379623,-0.00648025921036825,-0.0009600384015361912,0.04164166566663843,-0.006600264010550386,0.04728189127565097,-2.4187818356090593,-1.515138055272874,-0.15849043275889677,1.5552673994618496,1.9438289373300763,-0.11520921655300535,1.3397460544323678,-1.6416293838788598,1.656614599951518,0.05542999999999987,-0.07864299999999991,-0.912554,-0.05336399999999997,0.21612900000000013,-0.909607,0.10879399999999984,0.29477200000000003,0.002946999999999922,0.9814466300190182,0.8649473698115555,double,-0.909607
61,0.508333,quasi,0.0344413776550972,-0.21192847713907678,-0.017160686427457536,-0.03543399085905099,-0.18589643976334516,0.008324824102825463,0.015360614424592281,-0.013320532821322787,-0.014040561622464726,0.03756150246009917,-0.011520460818444211,0.06900276011040403,1.4545163589801187,1.2240979258773046,-1.2529002300145984,0.7632610596679025,-0.8208656679412587,-1.569725575534439,-0.48963917035152354,-0.5904472348366501,2.606608524511337,0.05527100000000007,-0.07698800000000006,-0.912528,-0.053337999999999886,0.21779899999999996,-0.9088890000000001,0.10860899999999996,0.294787,0.003638999999999948,0.9588187461465523,0.8312702815626967,double,-0.9088890000000001
62,0.516667,quasi,0.037916966642666756,-0.2159827213822935,0.0013198944084453212,0.351574816425585,-0.3147631927571507,0.12934300912467914,0.001919846412288948,-0.011279097672177586,-0.0064794816414685385,0.025197984161245815,-0.056035517158627056,0.08591312694984467,0.4170373155231072,-0.4864703915546835,2.2174923009242815,-1.6127631404251752,0.24495262168769047,0.907257017158175,-1.4835035155811647,-5.341379450465935,2.029081694197352,0.0549710000000001,-0.07528199999999996,-0.912593,-0.05344400000000005,0.219132,-0.908184,0.10841500000000015,0.29441399999999995,0.004408999999999996,0.9780855491051992,0.7798735219989483,double,-0.908184
63,0.525,quasi,0.018240729629203332,-0.23364934597384182,-0.0016800672026831191,0.37691179939847574,-0.36165190814229,0.14696352526175813,0.007200288011514309,-0.005880235209417563,0.005040201608064346,0.063482539301572,0.03432137285491507,0.1366854674186963,-2.3612428913312544,-2.1200797541759577,-0.3600097937271604,0.6336783390406022,0.6478894111076443,1.3824172866354056,4.594330390054725,10.843260532046292,6.092924573245101,0.0548789999999999,-0.073384,-0.912537,-0.0530670000000002,0.22136500000000003,-0.907031,0.1079460000000001,0.29474900000000004,0.005506000000000011,0.9823754475378518,0.6873286085901155,double,-0.907031
64,0.533333,quasi,0.03156126245048657,-0.2313692547701845,-0.020280811232459773,0.5673487233279964,-0.4515815971309758,0.060995059073024785,-0.009480379215161521,-0.00864034561381995,0.017400696027841188,0.056162246489876305,-0.01284051362055445,0.15264610584423544,1.59852787966919,0.2736218893144541,-2.2321785707160475,-2.001760137606622,-0.331226497588193,1.4833186631197592,-0.8784702762145393,-5.659652763166921,1.9153532251937209,0.05453700000000006,-0.07152800000000004,-0.9122229999999999,-0.052861999999999965,0.22318599999999988,-0.9055899999999999,0.10739900000000002,0.2947139999999999,0.006633,0.963970791762375,0.6617431800330648,double,-0.9055899999999999
65,0.541667,quasi,0.028197744180463575,-0.2099832013438944,-0.003839692824564523,0.4222464995184056,-0.5219093683034847,0.15564943312711607,-0.004199664026878687,0.00155987520998808,0.005279577633788709,0.032397408207342264,-0.0033597312214922927,0.1357091432685375,-0.40358990521033966,2.5661211214650756,1.972776386836468,0.6336351317833926,1.2239285845701886,-1.4544178538579777,-2.8515524697064865,1.1376028796570776,-2.0322729272495565,0.054267000000000065,-0.06976499999999997,-0.912147,-0.05282699999999996,0.224908,-0.904427,0.10709400000000002,0.29467299999999996,0.00772000000000006,0.9884596927875722,0.6901948778920098,double,-0.904427
66,0.55,quasi,0.02124084963399652,-0.2294491779671207,-0.011760470418821804,0.4457573401910292,-0.46219457921511686,0.05333714677871441,-0.004680187207502953,0.0012000480019146104,0.0003600144005763816,0.12204488179527678,-0.121924876995068,0.2558502340093587,-0.8348607400056431,-2.336010635212555,-0.9505313325641723,-0.05766508827844277,-0.04318099220850451,-0.5903712028335901,10.758127155638322,-14.228386628294158,14.417507589202051,0.05405099999999985,-0.06784299999999999,-0.912046,-0.051987000000000005,0.22580400000000012,-0.902197,0.10603799999999985,0.2936470000000001,0.009848999999999997,0.9919250253057164,0.40151000000000003,single,-0.902197
67,0.558333,quasi,0.03216128645145055,-0.2226089043561691,-0.015960638425529815,0.524340363790599,-0.4363364920844878,0.0729716656577362,-0.03528141125645256,-0.035041401656061635,0.013440537621505102,0.12432497299892552,-0.011280451218053445,0.252010080403219,1.3105048382880267,0.8208656679409174,-0.5040403224178627,-3.6722937776250912,-4.349147924874184,1.569725575534482,0.2736218893134232,13.277862207730177,-0.4608368662114175,0.0534889999999999,-0.06628,-0.9118010000000001,-0.051218999999999903,0.22756500000000002,-0.899964,0.1047079999999998,0.293845,0.011837000000000097,0.9141492596643669,0.41290528774668417,single,-0.899964
68,0.566667,quasi,0.01931845452364729,-0.2399808015358755,0.002279817614589765,0.535297033827706,-0.26293655523151155,0.14285405060480086,-0.0059995200383829005,-0.006359491240710386,-0.013078953683704962,0.12407007439404505,-0.05675545956325463,0.26613870890328545,-1.541016550012378,-2.0844609046923783,2.1886796304438976,3.513545862499332,3.4415539255280816,-3.1820843898739937,-0.03058538575479561,-5.456564476265999,1.6952997960242808,0.053277999999999937,-0.06433300000000008,-0.911929,-0.050346,0.22909199999999985,-0.897765,0.10362399999999994,0.29342499999999994,0.014163999999999954,0.9737799695423449,0.35990578409544804,single,-0.897765
69,0.575,quasi,0.030361214448558622,-0.21708868354735114,-0.0036001440057705256,0.2964280793131217,-0.24294025244792702,0.05124633977392417,-0.0025201008040380353,-0.009480379215161521,-0.008880355214209204,0.1659666386655376,-0.060242409696362055,0.33217328693148024,1.325184198357306,2.747164045184756,-0.7056236193880169,0.41754701000178773,-0.3745215377956515,0.5038519704183123,5.027788824132117,-0.41845075400305476,7.924466342037129,0.05300400000000005,-0.06260299999999996,-0.9119729999999999,-0.049215999999999926,0.23039900000000013,-0.894967,0.10221999999999998,0.2930020000000001,0.017005999999999966,0.9779464536200138,0.32994,single,-0.894967
70,0.583333,quasi,0.01596063842555625,-0.2931717268690703,-0.04020160806431931,1.0251315039082938,-1.543871784149229,0.5302857122731538,-0.004680187207476307,-0.012840513620540955,-0.009600384015360184,0.21588863554543364,-0.20436817472698943,0.5023400936037423,-1.728138248290209,-9.130330411822731,-4.392351381081079,-0.25922073724208117,-0.4032322579358478,-0.08640691241461382,5.99087926075793,-17.295783635020612,20.420833634016724,0.05283199999999999,-0.06026699999999996,-0.911718,-0.04754999999999998,0.2311390000000001,-0.890446,0.10038199999999997,0.29140600000000005,0.02127200000000007,0.9721636570699629,0.28728,single,-0.890446
71,0.591667,quasi,0.018958483321319806,-0.24250059995200807,-0.01583873290137029,0.5995589106017191,-0.33067133128670373,0.22003082235660343,-0.004799616030722306,-0.0058795296376381555,-0.0055195584353256565,0.30393568514517366,-0.036477081833462884,0.5045596352291779,0.3597126104827854,6.080048826141328,2.9233111546614867,-0.014330312364530676,0.8352512578477017,0.4896598968123945,10.56480076790729,20.1453195216613,0.26632368915713545,0.05263400000000007,-0.058294999999999986,-0.911632,-0.045174999999999965,0.23285600000000006,-0.8861089999999999,0.09780900000000003,0.29115100000000005,0.025523000000000073,0.9843590008024488,0.24477,single,-0.8861089999999999
72,0.6,quasi,0.02376095043803484,-0.25597023880954756,-0.004320172806903313,0.5957062844049595,-0.12792337952469462,0.10829478721656254,0.004680187207476369,-0.004080163206525717,-0.0033601344053762754,0.2481699267970692,-0.06216248649946276,0.44545781831273573,0.5763191067700802,-1.6164213197575439,1.3822825026361554,1.1376218934595896,0.2159326090378561,0.25914124924389786,-6.692158688120121,-3.082371854794205,-7.092501730042327,0.05247499999999983,-0.056196000000000024,-0.911624,-0.04330500000000015,0.23447099999999998,-0.8823610000000001,0.09577999999999998,0.290667,0.029262999999999928,0.9882334764750085,0.20737000000000005,single,-0.8823610000000001
73,0.608333,quasi,0.01032041281648963,-0.2354494179767204,-0.009120364814601666,0.5407338108566985,-0.3509222970048476,0.2581838980456351,-0.009000360014379562,-0.024720988839558217,-0.016440657626304773,0.3044521780871236,-0.01320052802112733,0.5070202808112311,-1.6129290317466882,2.4625970038194023,-0.5760460827671107,-1.6417313358761398,-2.4769981558901253,-1.5697255755344346,6.7541403204193164,5.8756700442019945,7.387791011459869,0.052314000000000194,-0.054440000000000044,-0.911685,-0.040853999999999946,0.23632299999999995,-0.87806,0.09316800000000014,0.290763,0.033625000000000016,0.9482949338185164,0.16375,single,-0.87806
74,0.616667,quasi,0.026397888168959712,-0.22990160787137506,-0.017878569714417515,0.7303655107778722,-0.37697558370532475,0.15474179211560177,0.006359491240683827,0.013558915286780705,-0.02003839692824591,0.3484521238300977,0.051475881929447465,0.5922726181905477,1.9291427108795505,0.6656839579248094,-1.050900515936633,1.8430347078309908,4.593221037477699,-0.43169418069848314,5.279571123467046,7.760548350201003,10.229462128547766,0.05214699999999994,-0.052410999999999985,-0.911703,-0.03817000000000004,0.238668,-0.8729750000000001,0.09031699999999998,0.291079,0.038727999999999985,0.9583058535933544,0.11272000000000004,single,-0.8729750000000001
75,0.625,quasi,0.016680667226675702,-0.23268930757229148,0.0037201488059526123,0.5173217443825341,-0.0736191623261001,0.3053970885846752,0.002160086403464951,0.0004800192007685088,-0.012120484819392357,0.4274570982839374,-0.011880475218990615,0.5859834393375709,-1.1661131576003803,-0.3345373456037923,2.5919499004404223,-0.5039487384157997,-1.5695303115339183,0.9501874605608449,9.480976173507663,-7.603066980491758,-0.7547316516232719,0.05202600000000013,-0.05046800000000007,-0.911835,-0.03474699999999986,0.24050800000000006,-0.868123,0.08677299999999999,0.2909760000000001,0.04371199999999997,0.9794653041604201,0.0628800000000001,single,-0.868123
76,0.633333,quasi,0.010440417616725059,-0.20784831393256445,-0.004560182407294172,0.4191251271916937,-0.16379988396150486,0.36993474670401255,-0.010320412816516277,0.04128165126605179,0.053042121684866925,0.49393975759030256,-0.051122044881799555,0.6487459498379917,-0.7488599075903777,2.9810384783063633,-0.9936794927693207,-1.4977198151903488,4.896391703502113,7.819825573534023,7.978238246293637,-4.709176726606117,7.531802532151752,0.05185299999999993,-0.04839199999999999,-0.911355,-0.030718000000000023,0.24181400000000008,-0.862679,0.08257099999999995,0.2902060000000001,0.04867600000000005,0.8866647999567034,0.013239999999999974,single,-0.862679
77,0.641667,quasi,0.03923686105111208,-0.1850251979841542,0.09719222462202808,-0.38716194673526094,0.006690783262985187,0.4273257824110102,-0.00035997120230084735,0.002879769618433422,-0.003959683225341792,0.5057595392368469,-0.06431485481162647,0.6435085193184573,3.455296788383391,2.738554829422891,12.209312098550855,1.1951573811153693,-4.607857169140699,-6.839669415671831,1.418260336758389,-1.5830105507351793,-0.6284413870331693,0.051522999999999985,-0.046826000000000034,-0.912198,-0.02683000000000013,0.24281999999999992,-0.8581259999999999,0.07835300000000012,0.28964599999999996,0.05407200000000001,0.9918177455621613,0.0,single,-0.8581259999999999
78,0.65,quasi,0.016200648025920517,-0.19908796351854915,0.016680667226689025,0.4543187574484531,-0.19915726380012722,0.2845428923686211,-0.016800672026884483,0.015600624024956551,-0.014760590423616656,0.6673466938677698,-0.09456378255130296,0.6624264970598793,-2.7644561412686266,-1.687599368102111,-9.661773358374981,-1.9729630174707269,1.5265635913264222,-1.296160710221387,19.391234205078867,-3.630016529422341,2.2702481388961875,0.05124799999999996,-0.045036999999999994,-0.91246,-0.02140399999999998,0.243691,-0.852745,0.07265199999999994,0.288728,0.059715000000000074,0.9545541506547275,0.0,single,-0.852745
79,0.658333,quasi,0.03360134405376942,-0.20028801152046644,-0.005640225609026723,0.6516867945947612,-0.21699868475496822,0.3079267072765465,0.0,0.0116404656186265,-0.003960158406336919,0.5862234489379663,-0.09516380655226821,0.7117484699388047,2.088167050023888,-0.14401152069090267,-2.6786142848573085,2.0161612896777434,-0.47523801828034173,1.2961036862210291,-9.735178798728457,-0.07200576034624406,5.918873500411115,0.0509679999999999,-0.04327099999999995,-0.912446,-0.01679900000000001,0.24456699999999998,-0.8467669999999999,0.06776699999999991,0.2878379999999999,0.06567900000000004,0.9795072306504014,0.0,single,-0.8467669999999999
80,0.666667,quasi,0.02831773458122164,-0.17950563954882776,0.0029997600192047716,0.29691231954418223,-0.3871728803894227,0.15855262143575116,-0.00035997120230084253,-0.0007199424046016851,-0.005039596832253425,0.569354451643864,-0.0743940484761025,0.7456203503719643,-0.6339824181122794,2.4936851417852797,1.0367153381607186,-0.043193088828994454,-1.4831303123623818,-0.12952224933003337,-2.0241177458725903,2.4921715954122337,4.064300507938484,0.050729000000000024,-0.04178099999999996,-0.912513,-0.012289999999999912,0.24544300000000008,-0.840578,0.06301899999999994,0.28722400000000003,0.07193499999999997,0.9914942123357602,0.0,single,-0.840578
81,0.675,quasi,0.026881075243009846,-0.18012720508819974,0.043801752070076465,0.47020774981199603,-0.34981339450022464,0.32303342085194253,-0.004320172806903256,-0.004680187207489629,0.0037201488059526123,0.6450258010320274,-0.08220328813153052,0.8310332413296497,-0.17240601682608775,-0.07459084835857188,4.896434903500722,-0.4752432022803788,-0.4752483862820026,1.051211525045722,9.08092516358612,-0.9371462445011394,10.249956913198739,0.0504690000000001,-0.040318999999999994,-0.912847,-0.0071390000000000065,0.246259,-0.8340179999999999,0.057608000000000104,0.286578,0.07882900000000004,0.9877064207683344,0.0,single,-0.8340179999999999
82,0.683333,quasi,0.03816152646106365,-0.16116644665786575,0.06108244329773027,0.32450236810576805,0.3210725529552019,0.09641526913534615,-0.0038401536061481215,-0.005880235209417641,0.0038401536061439577,0.619464778591136,-0.09084363374536489,0.8477139085563518,1.3537082944982484,2.275382026921176,2.073765897954394,0.057604608274947636,-0.14401152069219045,0.014401152069044344,-3.067445390722628,-1.0368829489780924,2.0017601376097662,0.050119000000000025,-0.03902500000000009,-0.9133239999999999,-0.002295000000000158,0.24684499999999987,-0.827463,0.05241400000000018,0.28586999999999996,0.08586099999999997,0.9866593014555222,0.0,single,-0.827463
83,0.691667,quasi,0.03719702423806457,-0.1402687784977295,0.013078953683708292,0.247238666342025,-0.20113311808925047,-0.004508294458183986,-0.0021598272138316985,-0.007439404847612913,0.0040796736261097975,0.5999520038397022,-0.13354931605470496,0.8984881209503165,-0.11573100827922597,2.5075195776501182,-5.75995795704603,0.20162303723499042,-0.187085389752251,0.02874010318764554,-2.341345662519045,-5.1242719353659405,6.092418093828216,0.04979099999999992,-0.03791800000000001,-0.913399,0.002394999999999925,0.24690100000000004,-0.820084,0.047395999999999994,0.28481900000000004,0.09331499999999993,0.9854080182809692,0.0,single,-0.820084
84,0.7,quasi,0.026881075243010203,-0.11256450258010356,-0.0034801392055617427,0.26532943285286886,-0.7066587890322474,-0.29626802532118907,-0.002640105604220172,-0.00840033601342903,0.005520220808832928,0.6643465738629588,-0.15552622104883904,0.9506780271210917,-1.2379633979424531,3.3246460959589825,-1.9871706335377637,-0.05763571227510835,-0.11531635255203716,0.1728725768298504,7.727657509091233,-2.637334092659819,6.263039262063568,0.04954499999999995,-0.037049999999999916,-0.913324,0.007706999999999908,0.24654300000000007,-0.812133,0.04183800000000004,0.283593,0.10119100000000003,0.982678799076291,0.0,single,-0.812133
85,0.708333,quasi,0.0439217568702586,-0.16596663866553538,0.0847233889355552,0.7771986834705761,0.0914206005840282,-0.019719208952030835,-0.0037201488059659354,-0.00732029281172309,0.0028801152046077218,0.6655466218648779,-0.18600744029760397,0.9579983199327955,2.0449635938135517,-6.408512670758622,10.584846770804822,-0.12961036862423606,0.12961036861945707,-0.31682534552084424,0.14401152069111725,-3.6578926255567983,0.8784702762154969,0.04914799999999997,-0.03572800000000009,-0.914006,0.012887000000000093,0.24637600000000004,-0.804856,0.03626099999999988,0.28210400000000013,0.10914999999999997,0.9854970062880004,0.0,single,-0.804856
86,0.716667,quasi,0.049556035517157856,-0.11987041036717969,0.05387568994479461,0.3724487720539041,0.0017737364122670223,-0.2325432349906601,0.00035997120230084253,-0.005039596832251761,0.03167746580273558,0.6707463402927695,-0.19702423806097083,0.9379649628029675,0.6760593528796752,5.531104907410048,-3.7014277646700693,0.4895752349732118,0.2736616246065888,3.4554056393241708,0.6239162980431409,-1.3219099788057092,-2.403810550735284,0.04873799999999995,-0.034770999999999996,-0.914191,0.01806400000000008,0.24573299999999998,-0.797488,0.030673999999999868,0.280504,0.116703,0.9465369038187812,0.0,single,-0.797488
87,0.725,quasi,0.04104164166567474,-0.13308532341292761,0.048361934477384606,0.5686993505893048,-0.07095379556546755,-0.2281846078676632,-0.0021600864034383334,0.00108004320173249,0.0033601344053762754,0.7013080523220946,-0.20844833793350456,0.9450378015120683,-1.0217681329032993,-1.5858529996097503,-0.6616771231741332,-0.30241900944908184,0.7343861795252978,-3.3982156963110004,3.667552145604872,-1.3709468225769637,0.8487745960759473,0.04837800000000003,-0.033653000000000044,-0.914566,0.023565999999999976,0.24510500000000002,-0.790016,0.024812000000000056,0.27875800000000006,0.12454999999999994,0.9931033482741178,0.0,single,-0.790016
88,0.733333,quasi,0.052202088083518706,-0.12816512660507193,0.055922236889471316,0.5432607388640316,0.03297123564904205,-0.3333542696154153,-0.004680187207502953,0.021720868834751706,-0.023640945637824907,0.7069482779311251,-0.24036961478458763,0.9499579983199296,1.3393071424269674,0.5904472348320733,0.9072725803536156,-0.3024241934554913,2.476998155888531,-3.2402592155527503,0.6768541472495528,-3.830706450387967,0.5904472348327428,0.04790399999999995,-0.03240399999999999,-0.915229,0.029022000000000103,0.2441700000000001,-0.782566,0.018881999999999843,0.2765740000000001,0.13266299999999998,0.9459271426200324,0.0,single,-0.782566
89,0.741667,quasi,0.04727621790256872,-0.11399088072954305,0.01595872330214189,0.570811677554911,-0.25403966677164525,-0.26395058329893506,0.049556035517158516,-0.043196544276461364,0.03947684185265153,0.7061435085193126,-0.23398128149749572,0.9677225821934287,-0.5910571371430308,1.7007734431880195,-4.795238011438643,6.507826100871344,-7.78946641603233,7.5735286165678914,-0.096564604249162,0.766538671357324,2.1315795384568283,0.04792299999999994,-0.03181400000000001,-0.915033,0.034513000000000016,0.24317,-0.774634,0.013409999999999922,0.274984,0.14039899999999994,0.8721962970425889,0.0,single,-0.774634
90,0.75,quasi,0.051962078483154435,-0.08448337933516428,0.15048601944077428,1.0272558718966966,-0.8490209548332996,-0.2881172449201539,0.0016800672027097656,0.004320172806916579,0.0013200528021125664,0.6972278891155729,-0.24084963398534281,0.9678387135485399,0.5623257627007919,3.5410418089977975,16.143921293487562,-5.745346011574289,5.702234139370904,-4.5789978459784955,-1.069917125133771,-0.8242352679523655,0.013936320066151088,0.04750399999999999,-0.031074000000000046,-0.916276,0.03988999999999998,0.24186700000000005,-0.7678229999999999,0.00761400000000001,0.2729410000000001,0.14845300000000006,0.991967244438549,0.0,single,-0.7678229999999999
91,0.758333,quasi,0.07608304332170872,-0.11280451218049298,0.03252130085203649,0.8191185709603448,-0.27928943083568747,-0.38881077867930613,-0.04656186247450538,0.040321612864514765,-0.04464178567142718,0.7064682587303434,-0.2522500900036049,0.9806792271690808,2.8946315658891373,-3.398671888314962,-14.156332483947832,-5.789263131791065,4.320345620736593,-5.515641242474445,1.1088887093208262,-1.3681094465693044,1.5409232713957635,0.046482000000000134,-0.02979799999999999,-0.916919,0.045143000000000155,0.24070500000000006,-0.759922,0.001338999999999979,0.27050300000000005,0.15699700000000005,0.8732157505288765,0.0,single,-0.759922
92,0.766667,quasi,0.10979121670266431,0.04043676505879933,0.057595392368615154,-2.458725019336057,2.1042584064867436,-0.507599551603199,-0.0023998080153745066,0.0045596352291795905,-0.007199424046076062,0.7042236621070237,-0.2621790256779597,0.9715622750180066,4.044657233136044,18.38748227013357,3.0086502899662593,5.299022613286673,-4.291094028717948,4.4927239771239895,-0.2693300483944893,-1.1913769707649242,-1.0939467423895215,0.045547000000000004,-0.03009700000000004,-0.917459,0.05009700000000006,0.23818299999999992,-0.752305,0.004550000000000054,0.26827999999999996,0.16515400000000002,0.9852444870444741,0.0,single,-0.752305
93,0.775,quasi,0.04416176647067616,-0.16740669626785423,0.030961238449535508,1.5148958916998234,-0.45434686088377635,-0.08812978632495345,0.009360374414979259,0.000120004800195458,-0.002040081603264497,0.690987639505569,-0.2674906996279884,0.9665186607464231,-7.875849061801018,-24.942213047720234,-3.1962263193423177,1.411278342776157,-0.532776962556596,0.619145858971744,-1.5883862476244663,-0.6374263710582817,-0.6052579229069347,0.04525699999999988,-0.028700999999999977,-0.917734,0.05548699999999984,0.23734899999999992,-0.7445090000000001,0.010229999999999961,0.2660499999999999,0.17322499999999996,0.9840318943507999,0.0,single,-0.7445090000000001
94,0.783333,quasi,0.07116284651384244,0.02136085443417894,0.19044761790471854,0.41137815270390443,1.0436660231171941,-0.5175680447623507,-0.011280451218053445,0.005280211208440344,-0.007920316812672173,0.6926677067082879,-0.2685707428297111,0.9515180607224399,3.240259215548605,22.653012204732377,19.13913109986613,-2.4769981558901826,0.6192495389709508,-0.7056564513869831,0.2016161289714359,-0.129610368621473,-1.8001440086383436,0.04457,-0.028835000000000055,-0.9193870000000001,0.06066600000000011,0.23493299999999995,-0.738167,0.01609600000000011,0.263768,0.18122000000000005,0.9753998290147248,0.0,single,-0.738167
95,0.791667,quasi,0.03683705303576373,-0.11639068874490269,0.06803455723541875,1.1373233923449195,-0.2838596449207776,-0.14695432404577463,0.002519798416132541,0.011519078473733534,-0.012598992080633564,0.74094072474202,-0.2706983441324716,0.9473242140628659,-4.118765716112126,-16.52886287245987,-14.688392208939147,1.6558974843035614,0.7486041835004971,-0.5613961204657254,5.792298780145393,-0.25529173299262076,-0.5032213414415617,0.04428399999999999,-0.027768999999999933,-0.920059,0.0665340000000001,0.23364699999999994,-0.730839,0.022250000000000103,0.26141599999999987,0.18921999999999994,0.9712398252598685,0.0,single,-0.730839
96,0.8,quasi,0.056642265690630744,-0.16440657626304772,0.2557302292091666,1.0628018244128818,2.091888775226126,0.33393169178149146,-0.004200168006721121,0.0016800672026831191,-0.018120724828992886,0.7449897995919795,-0.26821072842913446,0.9445577823112905,2.3767205874075286,-5.762136987656886,22.524381612114134,-0.8064282278715509,-1.1807285816693116,-0.6626344351805231,0.4859084183318752,0.2985258254334759,-0.3319850895926335,0.043776999999999955,-0.026384999999999992,-0.922341,0.07227000000000006,0.23278199999999993,-0.7250989999999999,0.0284930000000001,0.2591669999999999,0.19724200000000003,0.9688719175815339,0.0,single,-0.7250989999999999
97,0.808333,quasi,0.05028201128044534,-0.12864514580582884,0.044881795271809535,0.4151300680381348,0.6603341439727606,-0.09199521797860173,0.007920316812687163,-0.05280211208448338,-0.0801632065282621,0.7436697467898794,-0.26881075243010205,0.9266770670826893,-0.7632610596646419,4.291543316598969,-25.3028241854505,1.4545163589833667,-6.538123039381615,-7.445395619737163,-0.15841267275892676,-0.07200576034652552,-2.1457716582985005,0.04342400000000013,-0.025753000000000026,-0.923383,0.07804800000000012,0.23161399999999988,-0.717751,0.03462399999999999,0.2573669999999999,0.20563199999999993,0.8394719292469687,0.0,single,-0.717751
98,0.816667,quasi,0.044036477081833864,-0.10703143748500085,0.05519558435325323,0.3005901879269443,0.5295128733096384,-0.05237183202129894,0.014518838492924985,-0.008039356851456533,0.011999040076794108,0.7374610031197429,-0.25653947684184747,0.9011279097672105,-0.7494041515012516,2.5934375234974585,1.2375556853184086,0.7917592608876616,5.371100939887989,11.058584905814195,-0.7449896412450703,1.472435275768477,-3.065653625567387,0.04317800000000016,-0.02492800000000006,-0.923743,0.0838270000000001,0.2303679999999999,-0.710701,0.040648999999999935,0.25529599999999997,0.21304199999999995,0.9658677045839277,0.0,single,-0.710701
99,0.825,quasi,0.06432257290292774,-0.09912396495859846,0.04644185767431054,0.38080745946011574,0.5823754078518454,-0.20754076780456215,0.006240249609977374,-0.010320412816503092,-0.004800192007680988,0.7526701068042857,-0.2619704788191607,0.8844353774151099,2.434428875686315,0.948934660554718,-1.050489221041974,-0.9934704047699132,-0.27373766531220206,-2.015988489676617,1.8251654487630982,-0.6517463071298777,-2.003184009612469,0.04269400000000001,-0.024187999999999987,-0.92417,0.08956300000000006,0.22901099999999985,-0.7037180000000001,0.04686900000000005,0.25319899999999984,0.22045199999999998,0.9783658269803132,0.0,single,-0.7037180000000001
100,0.833333,quasi,0.04848193927757942,-0.10740429617185725,0.024000960038398793,0.40632736617735427,0.2740746591708094,-0.15496041550124376,0.002880115204611053,-0.003000120004806511,-0.005280211208447768,0.7455898235929168,-0.2506900276010772,0.8730349213968494,-1.9009520731247156,-0.9936794927707612,-2.6930154369268755,-0.4032322579342742,0.8784702762146346,-0.0576046082763444,-0.8496679720831463,1.3537082945017902,-1.3681094465691246,0.04231399999999996,-0.02331799999999995,-0.924414,0.09537199999999979,0.22781700000000016,-0.696643,0.05305799999999983,0.2511350000000001,0.22777099999999995,0.9887977663386952,0.0,single,-0.696643
101,0.841667,quasi,0.06599472042234512,-0.0669546436285029,0.17410607151427515,0.36354636267192286,1.56956124918394,-0.2633642495855912,0.03695704343652179,0.03095752339812557,-0.009959203263738794,0.749460043196562,-0.2347012239020943,0.8626109911207038,2.1013656281216186,4.853570019600917,18.01117248330636,4.088904275487218,4.074591241052534,-0.5614341319043666,0.46438920130131606,1.9185029636408448,-1.25077157141174,0.04207200000000011,-0.022502000000000022,-0.925948,0.10106800000000016,0.22641900000000004,-0.690905,0.05899600000000005,0.24892100000000006,0.235043,0.917953653948195,0.0,single,-0.690905
102,0.85,quasi,0.03312132485301422,-0.11916476659066731,0.02040081603264191,0.5661672222827472,0.3220255529067681,-0.08101726134492733,0.013320532821309641,0.030601224048962865,-0.02028081123244978,0.7950318012720439,-0.201728069122772,0.8785551422056989,-3.9449652669304216,-6.26546537407475,-18.44536847253506,-2.8364947336148285,-0.04275763220481337,-1.2386425019454075,5.468829722246763,3.9569368509927525,1.9133746651860284,0.04190699999999992,-0.021253999999999995,-0.926287,0.10741699999999987,0.22573100000000001,-0.683754,0.06550999999999996,0.246985,0.242533,0.934910685034061,0.0,single,-0.683754
103,0.858333,quasi,0.059402376095033016,-0.14532581303251615,0.03252130085203649,0.7776840251266828,0.4360755411914677,-0.2769410632519874,0.004200168006721121,0.006960278411136715,-0.004080163206528161,0.7323892955718162,-0.21936877475098202,0.8112324492979671,3.1538523031343675,-3.139451151067891,1.4545163589817034,-1.094487557252908,-2.837026957617431,1.9441555293317596,-7.517401380082492,-2.1169693541593597,-8.079046310780207,0.04144700000000001,-0.01998500000000003,-0.926592,0.11302499999999993,0.22511400000000004,-0.677265,0.07157799999999992,0.24509900000000007,0.24932699999999997,0.9848402379602077,0.0,single,-0.677265
104,0.866667,quasi,0.04151667866570188,-0.12071034317255437,0.041756659467244654,0.6754176949069622,0.24381283659687178,-0.1770662539639519,-0.0015598752099881005,0.008399328053757487,-0.005159587233021552,0.727621790256792,-0.2144228461723054,0.7922966162706992,-2.146112002559544,2.953620093587944,1.1081543814744677,-0.6911498940135894,0.1726721433430262,-0.1295205215374846,-0.5720548734130383,0.5934639523250121,-2.272118193816652,0.04108800000000001,-0.018908999999999954,-0.926983,0.11874300000000004,0.22433300000000012,-0.6710100000000001,0.07765500000000003,0.24324200000000007,0.2559729999999999,0.9833664276202438,0.0,single,-0.6710100000000001
105,0.875,quasi,0.061922476899071016,-0.08004320172806557,0.0450018000720044,0.24562819340365452,-0.29942745403866516,-0.2621305380657341,-0.03672146885874429,0.042001680067197886,0.03720148805952196,0.7646705868234751,-0.2356894275771113,0.799471978879152,2.4487937397538766,4.880252183425973,0.38943244986916226,-4.219560020251535,4.032443539354405,5.083532376400257,4.446033429339132,-2.5520918522507894,0.8610779561325719,0.040266000000000135,-0.01789200000000002,-0.9270480000000001,0.12459900000000013,0.223036,-0.6647230000000001,0.08433299999999999,0.24092800000000003,0.26232500000000003,0.8882393664336621,0.0,single,-0.6647230000000001
106,0.883333,quasi,0.056162246489875556,-0.1124444977799066,0.04416176647064952,0.5746326655729358,-0.03600129081212076,-0.16546178584113294,-0.002520100804038002,0.02412096483859425,-0.0015600624024959882,0.7416296651865867,-0.21900876035040898,0.752670106804269,-0.691255299315425,-3.8883110586632537,-0.10080806448516452,4.104328339698326,-2.145771658298759,-4.651572118326868,-2.76502119727449,2.001760137609776,-5.616449306958209,0.03977699999999995,-0.016754000000000047,-0.927429,0.13031099999999984,0.222148,-0.658819,0.09053399999999989,0.23890200000000006,0.2686099999999999,0.9594960342302793,0.0,single,-0.658819
107,0.891667,quasi,0.05699544036477153,-0.11207103431725411,0.0452363810895217,0.7454408972130758,-0.03147183583518137,-0.1651853304656918,0.004199664026878744,0.01751859851211667,0.005159587233021552,0.8400527957763468,-0.10811135109191813,0.8082553395728411,0.09997526696615981,0.04481203055585461,0.12894343878955966,0.8063072751280038,-0.792220581530792,0.8062934527858865,11.809830884300542,13.306624581052493,6.669694356680153,0.039336999999999955,-0.015674000000000077,-0.927763,0.13683699999999988,0.22218099999999996,-0.65246,0.09749999999999992,0.23785500000000004,0.27530299999999996,0.9687679023642453,0.0,single,-0.65246
108,0.9,quasi,0.08712348493939774,-0.0754830193207714,0.037081483259330666,0.3911161027118168,-0.010448894725049236,-0.3034406885368891,-0.016800672026884483,0.03852154086163619,-0.013200528021120669,0.6831873274931173,-0.284771390855628,0.699627985119402,3.6155099693539046,4.390737429075071,-0.978626884698308,-2.5201411320968607,2.520453900098336,-2.2033019625755603,-18.824609178354603,-21.20005277375605,-13.035803966571297,0.03847099999999992,-0.01472400000000007,-0.9281820000000001,0.14180400000000004,0.220437,-0.646939,0.10333300000000012,0.23516100000000006,0.281243,0.9265828957457982,0.0,single,-0.646939
109,0.908333,quasi,0.0746429857194175,-0.09372374894996266,0.02004080163205553,0.5314203427265513,0.04742680339651961,-0.20180399703015203,-0.02064082563303283,0.025681027241095576,-0.005760230409216353,0.7358694347773743,-0.22104884195369473,0.6907476299052006,-1.4977198151902495,-2.188975114507552,-2.044963593816788,-0.4608368662124542,-1.540923271395744,0.8928714282856575,6.322105758341237,7.647011748702013,-1.065685253114314,0.03767699999999996,-0.013728999999999991,-0.9283969999999999,0.14731399999999994,0.2193759999999999,-0.64135,0.10963699999999998,0.2331049999999999,0.28704699999999994,0.9442540709673088,0.0,single,-0.64135
110,0.916667,quasi,0.10223182145429187,-0.05855531557475885,0.004319654427650075,0.38741690014231533,-0.07018251797195629,-0.2533180179400667,-0.00035997120230084253,0.008159347252214599,0.001679865610751142,0.7474202063834884,-0.2235421166306616,0.6666666666666622,3.3103954565483744,4.219874415071219,-1.8863867535883532,2.4335078510597348,-2.1024334039933814,0.8927401031878376,1.3859817141965414,-0.29916902771380394,-2.8894844298701923,0.03682199999999991,-0.01317299999999999,-0.928419,0.1526909999999999,0.218001,-0.63583,0.115869,0.231174,0.292589,0.9861029104446999,0.0,single,-0.63583
111,0.925,quasi,0.09672386895474128,-0.09264370574822893,0.04128165126605179,0.638912306596587,0.08735537802466851,-0.21635439134001233,0.000480019200781832,0.004200168006721121,0.0015600624024959882,0.7514700588023477,-0.23184927397096325,0.650186007440299,-0.6609807391756353,-4.090770451634458,4.435617045289999,0.10080288048513993,-0.4751205142797866,-0.014376960069021146,0.48600173033233407,-0.9968987567864662,-1.9777582174922772,0.03602000000000016,-0.012365999999999988,-0.92875,0.15814700000000004,0.21684099999999995,-0.630756,0.12212699999999987,0.22920699999999994,0.297994,0.9924897062460387,0.0,single,-0.630756
112,0.933333,quasi,0.27925117004682726,0.007680307212296243,0.18132725309013006,0.3633927834333347,-0.05812672311986664,-1.1280772062885602,0.0006000240009639748,0.005640225609026723,0.0008400336013440688,0.7412696507860501,-0.2256090243609623,0.6207848313932594,21.904152297142403,12.039363129788322,16.806144464668133,0.01440115206793998,0.172813824829667,-0.0864069124147277,-1.224097925872761,0.7488599075964237,-3.5282822569350643,0.033698000000000006,-0.012383000000000033,-0.930254,0.16199699999999995,0.214897,-0.627094,0.12829899999999994,0.22728000000000004,0.30316,0.9904434678863907,0.0,single,-0.627094
113,0.941667,quasi,0.06959443244538019,-0.10487161027118247,0.03911687065034017,0.187526149469987,-0.20739353390842022,-0.09421395312983495,0.0032397408207342263,0.00455963522917953,0.000479961603071398,0.7712982961362886,-0.20878329733622047,0.6234701223902014,-25.156795968495977,-13.50514968604246,-17.063880782312072,0.31674067911809833,-0.12966047274384265,-0.043205183378049926,3.6031491900933883,2.0189257289106917,0.3222091429016097,0.0331450000000002,-0.011471000000000009,-0.930576,0.16784500000000002,0.21403099999999997,-0.622224,0.13469999999999982,0.22550199999999998,0.30835199999999996,0.9906433984758933,0.0,single,-0.622224
114,0.95,quasi,0.17364694587786048,-0.032761310452414524,0.04188167526701631,-0.9602874349668908,0.2682790146497827,-0.4193108255743585,0.0019200768030474143,0.0045601824072942325,0.0003600144005763864,0.759510380415227,-0.22608904356174414,0.5790231609264452,12.486801083941106,8.653582121537093,0.331789825594164,-0.15836601676308942,6.56640003243402e-05,-0.014394240069004286,-1.414606470786241,-2.0767726179675776,-5.333848729599971,0.0317139999999998,-0.011160000000000059,-0.930922,0.17272699999999985,0.21241999999999994,-0.617748,0.14101300000000005,0.22358,0.31317400000000006,0.9917316586229262,0.0,single,-0.617748
115,0.958333,quasi,0.10104404176167117,-0.08856354254170327,0.033601344053755644,0.14506509738065687,-0.6847997110899334,-0.2643474399784235,0.002640105604246783,0.0033601344053795614,-0.0003600144005763816,0.7779911196447845,-0.2079683187327466,0.5796231849273948,-8.712697001822754,-6.696535712143108,-0.9936794927709869,0.0864069124204207,-0.14401152069058756,-0.0864069124148284,2.2177774186436374,2.1745739624381937,0.0720057603443662,0.030893999999999977,-0.010394000000000014,-0.931205,0.17836799999999986,0.21142499999999997,-0.6131979999999999,0.14747399999999988,0.221819,0.31800700000000004,0.9928526867533602,0.0,single,-0.6131979999999999
116,0.966667,quasi,0.11423086153105767,-0.09959203263738793,0.024958003359729346,0.35646937663837197,-0.5762726261626394,-0.25526335314367177,0.0032397408207342263,0.0029997600192047716,0.001199904007679744,0.781017518598518,-0.20986321094312302,0.5638348932085401,1.5822917889832495,-1.323312946446433,-1.0371179138500397,0.07195046994089738,-0.04324146702361255,0.1871752349719359,0.36313882334214587,-0.22736887573510983,-1.8944434507864942,0.029969000000000134,-0.009538999999999964,-0.931403,0.18392500000000012,0.21050599999999997,-0.6087069999999999,0.15395599999999998,0.22004499999999994,0.3226960000000001,0.9923743396668447,0.0,single,-0.6087069999999999
117,0.975,quasi,0.13536541461658805,-0.08568342733709336,-0.003840153606134798,0.37891088332680883,-0.519836915519583,-0.4136774973521343,-0.0001200048002087828,0.00024000960037759599,-0.0037201488059526618,0.7839913596543814,-0.2060482419296753,0.561142445697828,2.536247820176475,1.6690994000113644,-3.455917072586632,-0.4031856019372423,-0.33118329759116777,-0.5904299548340874,0.35687520171167997,0.4578145941974981,-0.3231066255504734,0.028839999999999977,-0.008823000000000025,-0.9314020000000001,0.18933,0.209503,-0.6039990000000001,0.16049000000000002,0.21832600000000002,0.327403,0.9937836432385606,0.0,single,-0.6039990000000001
118,0.983333,quasi,0.16164646585863213,-0.10008400336013415,-0.012600504020163363,0.7458302407949947,-0.47519783875088667,-0.4822916495636719,0.002160086403464951,0.0036001440057571543,-0.0007200288011519304,0.7695907836313423,-0.2404896195847964,0.5105004200168028,3.153852303137402,-1.7281382482948193,-1.0512841010474654,0.27362188931641956,0.40323225793586276,0.3600288017281554,-1.7281382482946195,-4.133130643840268,-6.077286173169921,0.027511000000000063,-0.00795900000000005,-0.931303,0.194396,0.20833299999999988,-0.59964,0.16688499999999995,0.21629199999999993,0.33166300000000004,0.9929004202770885,0.0,single,-0.59964
119,0.991667,quasi,0.15358771298295598,-0.09779217662587171,-0.01559875209982772,0.5836215580287707,-0.2859919135616722,-0.4286498260771838,0.0005999520038436266,0.0039596832253492855,-0.002639788816894806,0.7692584593232519,-0.22882169426444587,0.5023998080153612,-0.9669729872421635,0.2749972083348275,-0.35976098868063044,-0.18720115186241099,0.043141255050651944,-0.23035277366725296,-0.03987572691269299,1.4000390353192447,-0.9719956805185599,0.026236000000000148,-0.0071109999999999784,-0.9311950000000001,0.199527,0.207241,-0.595323,0.17329099999999986,0.214352,0.33587200000000006,0.9920056411121774,0.0,single,-0.595323
120,1.0,quasi,0.11724468978759169,-0.12048481939277579,-0.011520460818444211,0.38959184453882817,-0.08808889786734742,-0.21260220317906237,0.0033601344053662383,0.002520100804024679,-0.0014400576023038609,0.7663506540261582,-0.20364814592584332,0.48469938797551876,-4.361337236933174,-2.723226061070921,0.4894145303472328,0.33123513758821554,-0.17275680083098532,0.14397350469110043,-0.34895059367498577,3.0209466384978336,-2.124135370195894,0.02528700000000006,-0.006086000000000036,-0.9311109999999999,0.204936,0.20654799999999995,-0.5911879999999999,0.17964899999999995,0.212634,0.339923,0.9925997039881793,0.0,single,-0.5911879999999999
121,1.008333,quasi,-0.002040081603256197,-0.12216488659546054,-0.0909636385455337,-0.7011589263000956,0.08042354055859763,0.5935876277387833,0.0003600144005730556,0.0038401536061481215,-0.0007200288011519401,0.7758310332413566,-0.2037681507260282,0.4749789991599661,-14.314745156708145,-0.2016161289673307,-9.533562669757616,-0.36002880172725427,0.15841267276172505,0.08640691241472788,1.1376910134643567,-0.014401152068267226,-1.1664933175990326,0.02530699999999997,-0.0050360000000000404,-0.930359,0.2114180000000001,0.20586799999999994,-0.5864720000000001,0.18611100000000014,0.21090399999999998,0.34388699999999994,0.9934606253352989,0.0,single,-0.5864720000000001
122,1.016667,quasi,0.09719222462202678,-0.112191024718024,-0.006359491240710386,0.3385420080674666,-0.053636924445091196,-0.2370341197412294,0.0037197024238197784,0.004679625629950918,-0.000479961603071398,0.7726181905447339,-0.20386369090471348,0.4506839452843783,11.906924193098419,1.1967676838776655,10.15168554173538,0.4031303123646145,0.1007285845695692,0.02880575930892012,-0.385510282772099,-0.011463904329888783,-2.915173251210421,0.024528000000000105,-0.00406200000000001,-0.93031,0.217047,0.20510400000000006,-0.5826629999999999,0.19251899999999988,0.20916600000000007,0.34764700000000004,0.990004800416271,0.0,single,-0.5826629999999999
123,1.025,quasi,0.033361334453378494,-0.11664466578662928,0.018960758430349688,0.20170316879732716,-0.24842449821236598,0.05264739712269093,0.002760110404402308,0.004800192007685152,-0.0007200288011519401,0.7639505580223391,-0.19716788671547775,0.4387375495019832,-7.660013220766696,-0.5344583065649013,3.0385515025873397,-0.11515564855603973,0.014468544069871057,-0.028809216138310847,-1.040157508987742,0.8035286438540501,-1.4336248388809794,0.02427299999999999,-0.003049999999999997,-0.930474,0.22313500000000008,0.20443299999999998,-0.579165,0.1988620000000001,0.20748299999999997,0.351309,0.990693715649325,0.0,single,-0.579165
124,1.033333,quasi,0.055922236889483896,-0.11292451698068694,-0.03036121444858446,0.2120629047482594,0.3260999739026826,0.07337699167357745,0.0018000720028918764,0.005160206408244747,-0.000600024000960628,0.7753510140405541,-0.19200768030721443,0.437297491899666,2.7074165889961606,0.4464357141416395,-5.91887350041201,-0.11520921654991179,0.043203456205398824,0.014401152069039965,1.3681094465636305,0.6192495389731456,-0.1728138248310531,0.02382200000000001,-0.0020660000000000123,-0.930226,0.22913000000000006,0.203774,-0.575268,0.20530800000000005,0.20584000000000002,0.354958,0.990836664515428,0.0,single,-0.575268
125,1.041667,quasi,0.08171346292295951,-0.09059275257978935,-0.034917206623475736,0.13401123074434107,0.6734926709760812,0.010520375574536955,0.001319894408445339,0.004919606431493825,0.0009599232061436541,0.7590592752579736,-0.1811855051595787,0.39320854331654576,3.094699548053289,2.6795973603189354,-0.5466753269608068,-0.05761670199742579,-0.02886968763510034,0.18717869055727282,-1.9548522657284388,1.2985571331456602,-5.290250609925735,0.02315200000000006,-0.0012699999999999934,-0.929927,0.23477499999999996,0.20301900000000006,-0.5716999999999999,0.2116229999999999,0.20428900000000005,0.3582270000000001,0.9913612466736716,0.0,single,-0.5716999999999999
126,1.05,quasi,0.08808352334093358,-0.06816272650906072,0.005040201608075936,0.11129024066449318,0.474220806830171,-0.2874479846177691,0.0032401296051840604,0.0028801152046110143,0.0010800432017282976,0.7547101884075218,-0.19296771870875143,0.3888155526220939,0.7644378276699817,2.691710796919266,4.7950807910177575,0.23043744110628678,-0.24474873717542003,0.014414976069199736,-0.5219112985061432,-1.4139221827880133,-0.5271799705330366,0.022445000000000048,-0.0006779999999999564,-0.92996,0.24032999999999993,0.20197900000000002,-0.5685020000000001,0.21788499999999988,0.20265699999999998,0.36145799999999995,0.9925538979683213,0.0,single,-0.5685020000000001
127,1.058333,quasi,0.06444257770310988,-0.0703228129125142,-0.008280331213260217,-0.011407568265663394,0.5168031644399392,-0.10761602764184885,0.002040081603256197,0.003360134405366283,-0.0001200048001921288,0.7067082683307436,-0.18084723388934823,0.34477379095164296,-2.8370269576171756,-0.25922073724391026,-1.59852787967554,-0.1440115206921726,0.05760460827496377,-0.14401152069128015,-5.760460827646539,1.4545163589827566,-5.285222809366535,0.021924999999999972,-6.4000000000064e-05,-0.9298919999999999,0.24568199999999996,0.20105800000000007,-0.56556,0.22375699999999998,0.20112200000000013,0.364332,0.9934453499707503,0.0,single,-0.56556
128,1.066667,quasi,0.03695704343652179,-0.10115190784737602,0.03167746580274058,0.1931211488525208,0.3539254985402137,0.0010045965608058867,0.0021598272138316985,0.0014398848092166917,-0.000839932805375571,0.7553395728341868,-0.20506359491242734,0.3623710103191744,-3.2980002719687875,-3.6991954565468657,4.794552077753838,0.01436832380315579,-0.23041151861645986,-0.08638444986602313,5.835289717235763,-2.9057308643003275,2.1114974043114128,0.02163500000000007,0.0007909999999999862,-0.930163,0.25166900000000014,0.20019199999999993,-0.562804,0.23003400000000007,0.19940099999999994,0.367359,0.9954528369726685,0.0,single,-0.562804
129,1.075,quasi,0.03168126725069535,-0.10692427697107684,0.030721228849158323,0.18928380793686692,0.20336643834235027,-0.01971790304025476,0.0024000960038292525,-0.0003600144005730556,0.00048001920076768247,0.7593903756150182,-0.20820832833311362,0.36181447257890526,-0.6331184670378601,-0.6927120033242385,-0.11475302455085357,0.028833408136032183,-0.21599654503657312,0.15840057676026228,0.48611577833090136,-0.3773831058065886,-0.0667872003203111,0.021390999999999938,0.001678999999999986,-0.930415,0.257733,0.19934800000000008,-0.560045,0.23634200000000005,0.1976690000000001,0.37037,0.9958767294435785,0.0,single,-0.560045
130,1.083333,quasi,0.029041161646474408,-0.09960398415936432,0.034321372854914614,0.16281991703574192,-0.06723453204763503,-0.06233936661693713,0.002760110404428881,0.0,-0.0014400576023038418,0.7259090363614383,-0.18348733949359017,0.31549261970478176,-0.3168253455203286,0.8784702762165361,0.43203456207323027,0.043203456210203085,0.0432034562070142,-0.23041843310590313,-4.017921427286606,2.9666373262358117,-5.558844698682669,0.02117199999999997,0.0025089999999999835,-0.930713,0.2635399999999999,0.19864899999999996,-0.557702,0.24236799999999992,0.19613999999999998,0.373011,0.9948113437453021,0.0,single,-0.557702
131,1.091667,quasi,0.03359731221500375,-0.0803935685145275,0.024358051355886378,0.14723608107560296,-0.12103990867363847,-0.05141114319764497,0.0004799616030589218,-0.003839692824577947,0.0003599712023041825,0.8566114710823305,-0.2297816174705934,0.4217662586993109,0.546694332676917,2.3050654721426906,-1.1955029396482393,-0.27359596848692136,-0.46072628084689465,0.21598617765875433,15.683037523505476,-5.554868967723075,12.751816534021016,0.020896000000000026,0.003147000000000011,-0.930913,0.27039900000000006,0.19740400000000013,-0.5543899999999999,0.24950300000000003,0.19425700000000012,0.37652300000000005,0.9935228642745735,0.0,single,-0.5543899999999999
132,1.1,quasi,0.026281051242072175,-0.0769230769230759,0.01488059522381025,0.05395799198794929,-0.35507732527177577,-0.01514574797695354,-0.00024000960036426637,-0.008760350414015176,0.004080163206528107,0.8028321132845275,-0.286451458058334,0.3300132005280123,-0.8779864362092218,0.416475650000185,-1.1373402294582937,-0.0864000004107975,-0.5905025308336905,0.44644089814278876,-6.453781086979721,-6.800652896644619,-11.010807412852152,0.020675,0.003715000000000024,-0.931003,0.27686999999999995,0.195658,-0.551764,0.25619499999999995,0.19194299999999997,0.379239,0.9838884896410716,0.0,single,-0.551764
133,1.108333,quasi,0.04596183847351538,-0.06480259210368293,0.0016800672026831415,0.026066640751379502,-0.47932565276514244,-0.106644536861277,0.0021600864034383334,-0.010800432017271606,0.005520220808832095,0.8439937597503792,-0.2241689667586701,0.40345613824553733,2.361788939330779,1.454516358981529,-1.5841267276043716,0.28802304137796975,-0.24481958517418081,0.17281382482947338,4.939595159708629,7.474197923876692,8.813505066305735,0.02031000000000005,0.004165000000000085,-0.930971,0.28352,0.19433,-0.548416,0.26320999999999994,0.19016499999999992,0.382555,0.9794662782228106,0.0,single,-0.548416
134,1.116667,quasi,0.05723542116631354,-0.06731461483080374,0.01523878089752667,-0.09586997923408341,-0.40951376338225315,-0.1160072419621565,0.0008399328053863948,-0.009359251259901835,0.004319654427645913,0.7043436525077991,-0.2578593712502928,0.30561555075593977,1.3527217053993372,-0.30141861376539375,1.6269154901419995,-0.15840575930548698,0.17292785665583876,-0.14405644122704264,-16.75667233532266,-4.042525136983734,-11.739931304247278,0.01984000000000008,0.0046479999999999855,-0.931062,0.288913,0.19274199999999997,-0.5459959999999999,0.2690729999999999,0.18809399999999998,0.385066,0.9827630495706157,0.0,single,-0.5459959999999999
135,1.125,quasi,0.4075363014520564,0.15984639385575566,-0.2833313332533263,-2.3534391650061943,-1.197918452619464,-2.1790618853336667,0.0016800672026831415,-0.009480379215174844,0.004440177607104602,0.7718708748349996,-0.270970838833567,0.31225249009960604,42.03778714577536,27.260411458845734,-35.82984689197836,0.10082016048202981,-0.014535936070203979,0.014463360069445616,8.103590822897056,-1.57343904755482,0.7964645798231527,0.016458000000000084,0.0032369999999999344,-0.928664,0.291949,0.18915199999999988,-0.541033,0.27549099999999993,0.18591499999999994,0.38763100000000006,0.9823289790702653,0.0,single,-0.541033
136,1.133333,quasi,0.17868714748590991,-0.07176287051481973,0.025561022440900118,0.23375216382487096,0.059593516987711426,-0.6909784909107793,0.0024000960038292525,-0.00852034081362449,0.004080163206528215,0.8121924876995282,-0.3151326053042171,0.37501500060002607,-27.46299699581766,-27.794223493409035,37.068565425924554,0.08640691241403067,0.11520921655470567,-0.04320345620741511,4.838787095227288,-5.29962396143652,7.531802532151759,0.014988999999999919,0.0037639999999999896,-0.928843,0.29722800000000005,0.18712399999999985,-0.5381210000000001,0.28223900000000013,0.18335999999999986,0.3907219999999999,0.9837549665538614,0.0,single,-0.5381210000000001
137,1.141667,quasi,0.19198464122870573,-0.126709863210949,0.11651067914566075,0.9228287911757825,0.2533916632610616,-0.7642295791595294,0.002279817614589765,-0.007919366450685144,0.001679865610751142,0.7255819534437086,-0.27285817134627666,0.46688264938804275,1.5955716034072134,-6.5931116746014915,10.913085757710576,-0.014432252128568112,0.07211115466034813,-0.2880126704796082,-10.392432716080993,5.072526272850987,11.023235995682262,0.013407999999999864,0.004754000000000036,-0.9298,0.3016749999999999,0.18590600000000002,-0.535201,0.28826700000000005,0.18115199999999998,0.3945989999999999,0.9859825622679171,0.0,single,-0.535201
138,1.15,quasi,0.21084843393736044,-0.14940597623905713,0.15192607704308184,1.326535712385272,0.3932613659329281,-0.9317737214420265,0.000360014400599702,-0.006360254410186157,-0.0001200048001921288,0.6629065162606667,-0.29017160686428095,0.3182527301092058,2.2637456748655804,-2.723642509073365,4.250017748400505,-0.23038560110285378,0.18710092889703608,-0.21599308903675593,-7.521353316097742,-2.0776953699753333,-17.836303765611223,0.011654000000000053,0.005946000000000007,-0.931067,0.305442,0.18473300000000004,-0.5338149999999999,0.29378799999999994,0.17878700000000003,0.39725200000000005,0.9893807240669776,0.0,single,-0.5338149999999999
139,1.158333,quasi,0.25357014280571155,-0.15492619704787094,0.1584063362534459,1.482593047305287,0.6832048013022627,-1.0808385839212167,-0.0019200768030740096,-0.009120364814588222,-0.0015600624024959674,0.604104164166554,-0.32425297011879695,0.30637225489019354,5.126810136607507,-0.6624529951774532,0.7776622117321448,-0.2736218893164133,-0.33122649758814554,-0.1728138248294508,-7.056564513873951,-4.089927187629353,-1.4257140548436393,0.009525000000000006,0.007160999999999973,-0.9323999999999999,0.30836299999999994,0.18332199999999998,-0.5325819999999999,0.29883799999999994,0.176161,0.399818,0.9842500843052906,0.0,single,-0.5325819999999999
140,1.166667,quasi,0.26925845932324877,-0.08627309815215249,0.0820734341252737,0.5699361833101299,0.0505782503522263,-1.1153156165076243,-0.0007199424046283475,-0.008879289656829843,-0.0007199424046075325,0.6292296616270849,-0.28953683705304106,0.30777537796976634,1.8824473863135964,8.237712850458335,-9.159215518139389,0.1440046074448866,0.028926704794622532,0.10080633523979493,3.014818509782988,4.1656027196732115,0.1683613006446875,0.00727499999999992,0.00780599999999998,-0.93309,0.31136300000000006,0.181628,-0.530701,0.30408800000000014,0.17382200000000003,0.402389,0.9851042121033962,0.0,single,-0.530701
141,1.175,quasi,0.270490819632778,-0.0738029521180873,0.07080283211329415,0.35900347252352105,-0.10278025824521218,-0.9956176878515717,0.00528021120846685,-0.006480259210368121,-0.000960038401536172,0.6870274810992295,-0.2844113764550512,0.3720148805952163,0.14788915270961261,1.4964773831831246,-1.3525263424912215,0.7200472354608295,0.28789516938217685,-0.02881267213832177,6.936015777288319,0.6150798749537695,7.709048677000942,0.005065000000000097,0.008367000000000013,-0.9336880000000001,0.31483400000000006,0.17987300000000006,-0.5281910000000001,0.30976899999999996,0.17150600000000005,0.405497,0.9859766005496364,0.0,single,-0.5281910000000001
142,1.183333,quasi,0.26485059402377176,-0.06684267370693912,0.045241809672382595,0.1676644525479062,-0.40822055837443805,-1.042232914848807,0.002640105604220172,-0.006960278411136808,-0.0009600384015361976,0.5687027481099355,-0.2844113764550588,0.3472938917556743,-0.6768541472466441,0.8352668200105886,-3.0674453907250436,-0.3168253455234252,-0.05760460827657405,-3.070583375814009e-15,-14.19953594015302,-9.126398318351603e-13,-2.9666373262381156,0.0028799999999999937,0.00886599999999993,-0.934073,0.31736600000000004,0.17806,-0.525674,0.31448600000000004,0.16919400000000007,0.40839900000000007,0.987490302995232,0.0,single,-0.525674
143,1.191667,quasi,0.24742020638348844,-0.08723302135829465,0.040196784257256014,0.21441056999677713,-0.5034674356404137,-0.8996656537465599,0.002519798416132541,-0.010679145668347139,0.0005999520038394556,0.5526757859371074,-0.3431725461963118,0.3660907127429809,-2.0914791984981025,-2.446645986483726,-0.6053546214454694,-0.014435707713898502,-0.4462283725954287,0.18718387393516214,-1.923081614210216,-7.050776306845759,2.255438083430096,0.0008390000000000342,0.009503999999999957,-0.934403,0.3199099999999999,0.17592699999999994,-0.522958,0.3190709999999999,0.166423,0.41144499999999995,0.9816853520470459,0.0,single,-0.522958
144,1.2,quasi,0.2388095523820898,-0.12036481459258194,0.07260290411616131,0.6147131224201544,-0.21191681877104912,-0.8828962677963955,0.001800072002865278,-0.012840513620541127,0.001320052802112584,0.5527421096844056,-0.33997359894394447,0.3548541941677684,-1.0333198129603631,-3.9759742270835945,3.888889938666218,-0.08637062441704904,-0.25937452924445065,0.0864155524148728,0.007959168042506081,0.38388902584512014,-1.3484361664721667,-0.0011360000000000259,0.010399999999999965,-0.934997,0.3225260000000001,0.17409700000000006,-0.5206059999999999,0.3236620000000001,0.1636970000000001,0.41439100000000006,0.9782781735053345,0.0,single,-0.5206059999999999
145,1.208333,quasi,0.25873034921396965,-0.03948157926317268,-0.024720988839544565,-0.5144666621433349,-0.13787388131735387,-0.9920321500810131,0.005520220808831116,-0.01380055202207779,0.003360134405376186,0.5415816632665199,-0.3508940357614422,0.3858154326173007,2.390591243475277,9.706376494588724,-11.679334328057623,0.4464357141444585,-0.11520921655305968,0.244819585175035,-1.3393071424319598,-1.3105048382932345,3.7154972338331644,-0.003246000000000082,0.010614000000000012,-0.934763,0.32488300000000003,0.17150199999999993,-0.517185,0.3281290000000001,0.16088799999999992,0.417578,0.9746021338869604,0.0,single,-0.517185
146,1.216667,quasi,0.244060475161976,-0.09263258939284973,0.008279337652986208,0.22940466820839847,0.16261342902796025,-0.8476402428581875,0.004799616030722434,-0.01307895368370864,0.002999760019198191,0.5202783777297789,-0.3621310295176413,0.37113030957523585,-1.7602440667139354,-6.377611006680833,3.9597224013116636,-0.08646565612055386,0.08658487381439438,-0.04324146702399831,-2.556189769227429,-1.3483313842331828,-1.7620737991438868,-0.005239999999999911,0.011276999999999981,-0.934807,0.32718500000000006,0.16925599999999996,-0.5141610000000001,0.33242499999999997,0.15797899999999998,0.42064599999999996,0.9762481635987316,0.0,single,-0.5141610000000001
147,1.225,quasi,0.18516740669627327,-0.09468378735149716,0.11376455058201515,0.5038535442477043,-0.34645532951243563,-0.7649505456918468,0.004800192007685024,-0.01380055202207779,0.004800192007680028,0.493939757590296,-0.3634945397815787,0.3765750630025171,-7.0674509139207595,-0.24615360118173454,12.658731900759282,6.912000031079619e-05,-0.08659526441487296,0.2160604810370581,-3.16076084717178,-0.16362777678355458,0.6533965471356221,-0.0067429999999999435,0.011951000000000045,-0.935715,0.329758,0.16701600000000005,-0.511971,0.33650099999999994,0.155065,0.423744,0.9743669634425874,0.0,single,-0.511971
148,1.233333,quasi,0.17292691707668773,-0.10632425297011286,0.15324612984520525,0.7757512064547413,-0.2716045772477151,-0.7406230812462459,0.004320172806903313,-0.014040561622469076,0.0063602544101769975,0.48241929677189144,-0.3709348373934937,0.378015120604826,-1.4689175110507207,-1.3969117507039253,4.737979030744085,-0.057604608278136925,-0.028802304139120195,0.18721497689871405,-1.382510598632507,-0.89287142828694,0.17281382483006513,-0.008148000000000044,0.012719999999999954,-0.9369390000000001,0.3323370000000001,0.16481100000000004,-0.510098,0.34048500000000015,0.1520910000000001,0.426841,0.9733201022450092,0.0,single,-0.510098
149,1.241667,quasi,0.20626349892008794,-0.049676025917929245,0.051235901127904,0.12803777030825464,0.04583790195759325,-0.8018883910229571,0.006239500839925676,-0.013558915286780522,0.006839452843771793,0.4520038396928036,-0.36453083753300614,0.4060475161987008,4.000069815622745,6.797243466784639,-12.24024822621796,0.2303009398874908,0.05779293684767821,0.05749921209440748,-3.6495628844597547,0.7684185097777195,3.3636183817944034,-0.00981500000000013,0.01302099999999995,-0.937309,0.33438499999999993,0.16218699999999997,-0.5071410000000001,0.34420000000000006,0.14916600000000002,0.4301679999999999,0.972636517151924,0.0,single,-0.5071410000000001
150,1.25,quasi,0.19248769950797473,-0.06924276971079503,0.05136205448217783,0.2760548403582852,0.03559731327768131,-0.7134504293900578,0.006120244809795237,-0.012360494419772612,0.005160206408256542,0.43525741029642145,-0.37417496699867786,0.35689427577103794,-1.6531620559358378,-2.3481031792710865,0.015139008073182594,-0.01431129606749549,0.1438162566912182,-0.20151763296715067,-2.009651913642423,-1.1573418295537996,-5.898624796311447,-0.011368000000000045,0.013495000000000035,-0.937694,0.33640800000000004,0.15964600000000007,-0.5045949999999999,0.3477760000000001,0.14615100000000003,0.4330990000000001,0.9754559947911654,0.0,single,-0.5045949999999999
151,1.258333,quasi,0.13092523700947595,-0.13548541941677017,0.06072242889715721,0.805954676319135,-0.13304507189136747,-0.3889535188025707,0.0060002400096131015,-0.01068042721708947,0.003600144005760533,0.4297371894875902,-0.3876155046201963,0.3584543381735256,-7.38779101146038,-7.949435942154776,1.1232898613919917,-0.014401152067939143,0.20161612896713751,-0.18721497689859873,-0.6624529951795626,-1.6129290317434952,0.18721497689759958,-0.012408999999999892,0.014534999999999965,-0.93817,0.33889800000000014,0.15754499999999994,-0.502114,0.35130700000000004,0.14300999999999997,0.436056,0.9787191111704838,0.0,single,-0.502114
152,1.266667,quasi,0.14962802975761802,-0.06215502759779391,0.03503719702423287,0.273718575871325,-0.08150120112606449,-0.5106697039934412,0.007919366450671823,-0.010319174466046297,0.005039596832253425,0.41060715142788695,-0.39704823614110646,0.35961123110151244,2.2441555973292453,8.798943102828858,-3.0819812662495973,0.2302767507869819,0.043346862376190363,0.17272052153742276,-2.2954209334896944,-1.13183723553037,0.13881604607473125,-0.013589999999999991,0.014966999999999953,-0.9384199999999999,0.3410730000000002,0.15475399999999995,-0.49940899999999994,0.3546630000000002,0.139787,0.439011,0.976750193377603,0.0,single,-0.49940899999999994
153,1.275,quasi,0.19584783391336766,0.029641185647425836,0.03420136805473339,-0.4050126731765542,0.15446161017330212,-0.609342952376353,0.007920316812687163,-0.012000480019199556,0.0075603024120966195,0.4014160566422611,-0.3698547941917745,0.3546141845673842,5.546598362624512,11.015986228875626,-0.10030348847947823,0.00011404800376084862,-0.2017647369678716,0.30249676945196413,-1.1029754932948441,3.263343567662568,-0.5996695708782303,-0.015155999999999947,0.014619999999999966,-0.9386420000000001,0.34278600000000004,0.15142499999999992,-0.49673900000000004,0.357942,0.13680499999999995,0.44190300000000005,0.972924944256398,0.0,single,-0.49673900000000004
154,1.283333,quasi,0.1287651506060342,-0.08064322572902846,0.051962078483127096,0.5558948529408493,-0.092739719503119,-0.3462184256527925,0.009360374414979136,-0.005640225609013249,0.010920436817472604,0.37753510140403407,-0.385095403816148,0.34801392055681785,-8.05024400664014,-13.234658751524345,2.131370506227457,0.17281382482802687,0.76326105966473,0.4032322579354285,-2.8658292617576637,-1.828946312777294,-0.7920633638025,-0.016151000000000026,0.015245000000000064,-0.9389839999999999,0.3448589999999998,0.1488879999999999,-0.49427199999999993,0.36100999999999983,0.13364299999999985,0.444712,0.9742509604066063,0.0,single,-0.49427199999999993
155,1.291667,quasi,0.13558915286775555,-0.05855531557476041,0.04991600671947335,0.32589196241388385,0.037789563720294496,-0.36383493090451385,0.008639308855273737,-0.0031197504199762427,0.01343892488600866,0.3674106071514493,-0.3482121430285596,0.3251739860811185,0.818814766225281,2.650337191536894,-0.24550897092078075,-0.08652094548901032,0.3024328280582019,0.3021943926729187,-1.2148421229403603,4.425637243531211,-2.74057289125267,-0.01720900000000003,0.015707000000000026,-0.939288,0.34679100000000007,0.146474,-0.491978,0.3640000000000001,0.13076699999999997,0.44731,0.972869901796491,0.0,single,-0.491978
156,1.3,quasi,0.1052442097683909,-0.029881195247802635,-0.0754830193207704,-0.41635667809731575,-0.7451806645807357,-0.21213831556965032,0.0057602304092220285,-0.0022800912036470555,0.0063602544101768275,0.35317412696506256,-0.35197407896313465,0.26293051722068406,-3.6415388334770338,3.4410320805180934,-15.048485064231556,-0.34550323365554525,0.1007631364849601,-0.8494744360772482,-1.7084459602047866,-0.451450370163808,-7.46951504385376,-0.018038,0.01593699999999998,-0.938606,0.348857,0.14379000000000008,-0.48915800000000004,0.36689499999999997,0.1278530000000001,0.449448,0.98520211103396,0.0,single,-0.48915800000000004
157,1.308333,quasi,0.1124444977799081,-0.05544221768870355,0.022440897635898106,0.28871356575402735,-0.2758097806485712,-0.21014743954924467,0.01092043681748039,0.004800192007685152,0.007680307212288748,0.3708148325933116,-0.3397335893435802,0.2734909396375851,0.8640691241470382,-3.0674453907237664,11.751340088403863,0.6192495389725678,0.8496679720787558,0.15841267276034235,2.116969354164071,1.4689175110469868,1.2673013820834182,-0.0188839999999999,0.01643899999999998,-0.9387289999999999,0.35101000000000004,0.14142100000000002,-0.487066,0.36989399999999995,0.12498200000000004,0.4516629999999999,0.9763541815729644,0.0,single,-0.487066
158,1.316667,quasi,0.12443004559637254,-0.02339812814975459,0.048476121910255326,0.13472076457276996,-0.11298059200866073,-0.3619462379187939,0.010079193664503522,0.007679385649142368,0.008279337652987651,0.41420686345092206,-0.3977681785457081,0.185625149988002,1.4381506859208477,3.8449831460221633,3.1239769947632614,-0.10094110306897781,0.3454755989269491,0.0718779026516557,5.206627172739395,-6.963593616765953,-10.543051313844781,-0.019837000000000105,0.01669799999999999,-0.939064,0.3534249999999999,0.13830100000000012,-0.48592300000000005,0.373262,0.12160300000000013,0.45314099999999996,0.9747726701964031,0.0,single,-0.48592300000000005
159,1.325,quasi,0.172566902676088,-0.007320292811709864,-0.14340573622945735,-0.5232713295657239,0.023727360595767282,-0.36200489319560214,0.011400456018235581,0.0074402976119053235,0.0075603024120966195,0.3676947077883229,-0.32281291251651334,0.18480739229569182,5.776653915722539,1.9294174172620753,-23.026744046527593,0.15855782476083902,-0.028691712136931058,-0.08628768041414117,-5.5816819467898195,8.994991723172383,-0.09813484847116179,-0.021179999999999977,0.016820999999999975,-0.937806,0.3550510000000001,0.13567200000000001,-0.483188,0.3762310000000001,0.11885100000000004,0.454618,0.9740466979975035,0.0,single,-0.483188
160,1.333333,quasi,0.09948397935916886,-0.0050402016080626135,0.0050402016080626135,-0.22093617854604916,-0.5541361339785155,-0.20454546548366387,0.011160446417871011,0.009960398415943093,0.006600264010560246,0.3444137765510474,-0.33349333973359396,0.1233649345973852,-8.770301610094549,0.27362188931323783,17.814225109506467,-0.028802304135913323,0.3024241934522651,-0.11520921655302492,-2.793823501413072,-1.2817025341510184,-7.3733898593910405,-0.021915999999999825,0.016946000000000017,-0.937793,0.3570920000000001,0.13293499999999991,-0.48220199999999996,0.3790079999999999,0.1159889999999999,0.455591,0.972749689815242,0.0,single,-0.48220199999999996
161,1.341667,quasi,0.10139188864893482,-0.06719462443004746,0.020398368130550362,0.48539453875708194,-0.3059155049598753,-0.1946717927687854,0.009239260859117372,0.012239020878322224,0.005999520038396382,0.37856971442285564,-0.30057595392368935,0.08795296376289868,0.22893080030789498,-7.457934103910011,1.8428325560940773,-0.23052382514442957,0.2734128224597041,-0.07208350997886676,4.098384673843162,3.949770315563383,-4.249096572412671,-0.02268400000000015,0.017607999999999957,-0.937913,0.3594019999999999,0.13098999999999994,-0.481639,0.38208600000000004,0.11338199999999998,0.456274,0.9725555199855971,0.0,single,-0.481639
162,1.35,quasi,0.15792631705266408,0.0001200048001954564,-0.02940117604703413,-0.10278274578629339,-0.026614681201718685,-0.45139056103113373,0.012240489619590149,0.011160446417857689,0.001920076803072344,0.4395775831033131,-0.18612744509778362,0.1428057122284829,6.784402784558774,8.07807863077424,-5.976184348683981,0.36016185773103615,-0.12943411262024676,-0.48955277034969,7.32123709113841,13.734370433925806,6.582593119594774,-0.023897999999999975,0.017699999999999938,-0.937652,0.361749,0.12943800000000005,-0.4802040000000001,0.38564699999999996,0.11173800000000012,0.45744799999999997,0.9722075227353164,0.0,single,-0.4802040000000001
163,1.358333,quasi,0.11448457938319094,-0.023640945637826056,0.034201368054720065,0.21740844540587212,-0.21442082461364173,-0.25057186519295266,0.012120484819381692,0.011520460818431041,0.0012000480019204553,0.3583343333733435,-0.2630505220209065,-0.023640945637826056,-5.213217049018785,-2.851428109686995,7.632610596634439,-0.014401152071097784,0.04320345620705101,-0.08640691241472402,-9.749579950794466,-9.231138476313884,-19.974397919874054,-0.02475100000000019,0.017992999999999926,-0.9379270000000001,0.3637809999999999,0.12744299999999986,-0.48068600000000006,0.3885320000000001,0.10944999999999994,0.457241,0.9720582309409977,0.0,single,-0.48068600000000006
164,1.366667,quasi,0.12550995920324842,-0.005039596832251761,0.010319174466046297,-0.026529759054696372,-0.21096806046174102,-0.3316489937027936,0.009959203263745454,0.012119030477563832,0.0029997600191981107,0.3776097912167011,-0.22582193424525138,-0.010559155267575752,1.3229397432274295,2.231983298005058,-2.8656339799224364,-0.2593330400331439,0.07182261328687133,0.2159481662200194,2.312869911609959,4.4670731672252035,1.5696892692884814,-0.025714000000000015,0.01813599999999993,-0.937988,0.36588200000000004,0.1256029999999999,-0.48086000000000007,0.39159600000000006,0.10746699999999998,0.457128,0.9733825876989486,0.0,single,-0.48086000000000007
165,1.375,quasi,0.12396495859835246,-0.05400216008641132,0.05844233769349678,0.6609213236813599,-0.05906217295798354,-0.3321834760448758,0.008280331213260217,0.011400456018248904,0.0002400096003842576,0.3865354614184638,-0.25081003240128935,-0.12084483379335045,-0.18540748888707206,-5.87574262020401,5.7750105877176185,-0.20147270496642897,-0.08623238441316863,-0.331183297589569,1.0711232691423012,-2.99869172639364,-13.234810815525705,-0.02667799999999998,0.01868100000000006,-0.938473,0.36807,0.12396300000000005,-0.48235399999999995,0.394748,0.10528199999999999,0.45611900000000005,0.976512894374809,0.0,single,-0.48235399999999995
166,1.383333,quasi,0.1413656546261745,-0.018000720028799336,-0.06828273130924467,-0.09886852349067943,-0.13621333260844584,-0.3397700437920998,0.008640345613806626,0.011040441617662525,0.0015600624024960088,0.4022560902436027,-0.2083283331333224,-0.10500420016800945,2.0881670500206653,4.3203456207383075,-15.207616584992511,0.04320345620381764,-0.0432034562086142,0.15841267276032203,1.8865509210535294,5.098007832469378,1.9009520731238634,-0.02778400000000003,0.018923000000000023,-0.937891,0.370244,0.12237700000000007,-0.48266000000000003,0.39802800000000005,0.10345400000000005,0.455231,0.9764899124405712,0.0,single,-0.48266000000000003
167,1.391667,quasi,0.13342932565394688,0.007439404847612913,0.033717302615787564,0.07348806269181919,-0.05349116799516965,-0.3988245096391849,0.008519318454542084,0.00863930885528683,0.0015598752099830842,0.34077273818095066,-0.21994240460762654,-0.2444204463642903,-0.9522832940037873,3.052570779507086,12.239024949007854,-0.014522097343957385,-0.28811288245448496,-2.2461304646588796e-05,-7.377412054553824,-1.3935770907492246,-16.728611254653202,-0.02882499999999988,0.018932999999999978,-0.938159,0.3719720000000001,0.12048200000000009,-0.484978,0.40079699999999996,0.10154900000000011,0.45318099999999994,0.9796114373635024,0.0,single,-0.484978
168,1.4,quasi,0.15096603864154481,0.019920796831873394,0.03636145445818505,0.0007260469837150276,0.09705283378251964,-0.4329602395660501,0.008160326413051434,0.008160326413051434,-0.0003600144005763864,0.37993519740790005,-0.19380775231011146,-0.2462498499940018,2.104489738101295,1.497826951189319,0.3173109135242418,-0.043080768209606796,-0.057480192275938986,-0.23039596910590282,4.699683094557751,3.13628372705092,-0.21953721705406232,-0.030014999999999903,0.018834999999999935,-0.9384650000000001,0.3738800000000001,0.11870099999999995,-0.48733300000000007,0.403895,0.09986600000000001,0.45113200000000003,0.9807565693241309,0.0,single,-0.48733300000000007
169,1.408333,quasi,0.12804512180488808,-0.02952118084722959,-0.06564262570503608,-0.033494501211574705,-0.22877887196539368,-0.29099251075029386,0.007560302412087259,0.007920316812673628,0.003000120004800642,0.37117484699387476,-0.19956798271930168,-0.3207728309132286,-2.7506200452005674,-5.933274652478353,-12.24097925875667,-0.0720057603461136,-0.0288023041375017,0.40323225793555373,-1.051284101047058,-0.6912552993147862,-8.94311543492446,-0.03101900000000013,0.019146999999999914,-0.937893,0.37590599999999996,0.11728399999999994,-0.489459,0.4069250000000001,0.09813700000000003,0.448434,0.9810783552057925,0.0,single,-0.489459
170,1.416667,quasi,0.13990880729541907,-0.010079193664517112,-0.0022798176145898256,0.03785274305503306,0.0480072806311601,-0.37967953104299207,0.006479481641468625,0.010079193664517112,-0.0016798656107511866,0.3716102711783014,-0.1589872810175241,-0.3459323254139764,1.4235283765936184,2.3328518337788395,7.60292873655477,-0.1296881174248445,0.25904449866133006,-0.5615533495982622,0.0522467223934085,4.86929466064055,-3.01889782826353,-0.03213100000000013,0.019315000000000082,-0.9378879999999999,0.37783699999999987,0.11604300000000001,-0.492323,0.409968,0.09672799999999993,0.44556499999999993,0.9798343129894178,0.0,single,-0.492323
171,1.425,quasi,0.15000600024000377,-0.015600624024956343,0.01740069602784822,0.15139371434053275,0.24745271420149015,-0.40507766434917813,0.0021600864034649224,0.005160206408244747,-0.0003600144005763768,0.36385455418216506,-0.1584063362534459,-0.39337573502939466,1.2117116218150146,-0.6625981471785833,2.361756107336818,-0.5183481624869347,-0.590302082835987,0.15838848076020481,-0.9307232684670861,0.06971616033579495,-5.693436891325745,-0.03336300000000003,0.01948799999999995,-0.9380360000000001,0.37961899999999993,0.11485299999999998,-0.4957460000000001,0.41298199999999996,0.09536500000000003,0.44229,0.9906572497186995,0.0,single,-0.4957460000000001
172,1.433333,quasi,0.15192607704308184,-0.0045601824072942325,-0.02256090243610689,-0.10276567768087895,0.23265215026761177,-0.3471732137539665,0.005760230409222182,0.007680307212296243,0.002160086403456653,0.35929437177488055,-0.1449657986319317,-0.443177727109082,0.23041843310669466,1.3249059903590796,-4.795583639020218,0.43203456207335805,0.30242419345392046,0.3024241934517044,-0.5472437786252909,1.612929031742989,-5.976478108686882,-0.03458099999999997,0.019589999999999996,-0.9378299999999999,0.381347,0.11368300000000009,-0.49925099999999994,0.41592799999999996,0.0940930000000001,0.438579,0.9835993439737429,0.0,single,-0.49925099999999994
173,1.441667,quasi,0.12071034317255276,-0.05147588192944678,-0.0314374850011978,0.18350156225174183,-0.09349553880829303,-0.21915249225320627,0.005399568034539282,0.00851931845451544,0.00011999040076805765,0.36273098152147526,-0.13126949844014182,-0.5025197984161259,-3.7455884173900693,-5.629433587971225,-1.0651046994349462,-0.04327602288011732,0.10067329520268672,-0.24479193696767215,0.4123601807768999,1.6434245490508494,-7.120478918531736,-0.035542000000000185,0.02008999999999994,-0.937567,0.3833639999999999,0.11301799999999995,-0.503177,0.4189060000000001,0.09292800000000001,0.43439000000000005,0.9831882548013018,0.0,single,-0.503177
174,1.45,quasi,0.13140525621023114,-0.03360134405376942,-0.02052082083283737,0.02436501662219912,0.22457338557206724,-0.26628080891829586,0.004920196807893935,0.008040321612869298,0.0006000240009598112,0.3604944197767952,-0.111724468978762,-0.5106204248169984,1.283440902157503,2.1450303462951545,1.310052102287355,-0.057526848271372985,-0.05748192027434858,0.057606336276462014,-0.26839814528742184,2.3454973552598113,-0.9721140526668157,-0.03659599999999985,0.02043700000000004,-0.937391,0.3852730000000001,0.112367,-0.507261,0.42186899999999994,0.09192999999999996,0.43013,0.9842577058472944,0.0,single,-0.507261
175,1.458333,quasi,0.11628465138605312,-0.023400936037434514,-0.04644185767429598,-0.22328249273395767,0.03790561817205689,-0.1908301167309393,0.004440177607085332,0.007680307212296038,0.0012000480019195906,0.45697827913114797,-0.053162126485055014,-0.49165966638664893,-1.814545160707758,1.224097925877202,-3.1106488469288562,-0.05760460828136263,-0.04320345620703872,0.07200576034558609,11.578526263572673,7.027762209733104,2.275382026922977,-0.037528000000000006,0.020696000000000048,-0.936994,0.388112,0.11211899999999997,-0.5109710000000001,0.42564,0.09142299999999992,0.42602299999999993,0.9850796176634649,0.0,single,-0.5109710000000001
176,1.466667,quasi,0.14098872090234826,0.013318934485238102,-0.054355651547881606,-0.42576643476234627,0.010209721685316742,-0.32832686034193465,0.0023998080153745387,0.007919366450672033,0.001079913606911715,0.3538516918646684,-0.06923446124310784,-0.5883129349652129,2.9642512018593243,4.406031980162385,-0.9495792984864139,-0.2448247650240979,0.028684813820014338,-0.014414974203009108,-12.374200535934907,-1.9285258888952637,-11.597464432273311,-0.03868300000000002,0.020650999999999975,-0.936532,0.38988599999999995,0.11143099999999995,-0.515421,0.428569,0.09077999999999997,0.421111,0.9860914038481914,0.0,single,-0.515421
177,1.475,quasi,0.12624504980196957,-0.023160926437056924,-0.028801152046083498,-0.11412543412167653,0.14020864943431155,-0.28204637278517103,0.0026401056042201017,0.007320292811722992,0.0002400096003842512,0.3427337093483643,-0.08220328813150278,-0.6339853594143633,-1.7693113044975919,-4.377758421012167,3.066662606719988,0.028836864136032498,-0.07189171234237743,-0.10079251248379323,-1.3342112704072893,-1.5563214794665448,-5.480910170304767,-0.03971299999999989,0.020905000000000062,-0.93629,0.3916900000000001,0.11093900000000012,-0.520464,0.431403,0.09003400000000006,0.4158259999999999,0.9870241196981269,0.0,single,-0.520464
178,1.483333,quasi,0.09480379215169514,-0.06924276971078171,-0.04188167526700299,0.08913214188004905,0.08553106710338175,-0.09695274820059266,0.002880115204611091,0.007200288011514404,0.00036001440057555366,0.33745349813991976,-0.07092283691347817,-0.6571462858514378,-3.7731018421066507,-5.530042394542806,-1.5697255755333746,0.028802304139084547,-0.014401152071113501,0.014401152069039188,-0.6336506910409897,1.3537082944947452,-2.779422349342934,-0.04047899999999993,0.02154199999999995,-0.935938,0.39371199999999995,0.11092500000000005,-0.525591,0.4341909999999999,0.0893830000000001,0.410347,0.9870611672549892,0.0,single,-0.525591
179,1.491667,quasi,0.10955123590112006,-0.022198224142067353,-0.0533957283417357,-0.27636965979299183,0.07696108503810176,-0.15656199678954724,0.002759779217648674,0.006839452843769295,0.00011999040076805765,0.34569234461243104,-0.035637149028076485,-0.6407487401007884,1.7695516857961138,5.644893876735541,-1.3815758429004825,-0.014439163302425765,-0.04329675638890163,-0.028800575930824836,0.9885824901021372,4.233943830741711,1.9675480862310066,-0.04136899999999999,0.021783999999999915,-0.935492,0.39568000000000003,0.11081300000000005,-0.530486,0.437049,0.08902900000000014,0.405006,0.9877062691870357,0.0,single,-0.530486
180,1.5,quasi,0.1303252130085386,0.015240609624383703,-0.08820352814113139,-0.5400529345608264,-0.1837462921090497,-0.2672987785316176,0.0012000480019279496,0.008760350414015409,-0.0001200048001921288,0.39397575903036913,-0.16404656186249017,-0.7837513500540104,2.492976971969127,4.492839765564791,-4.177103060049923,-0.18717523289580446,0.23051692910670002,-0.028800576138268166,5.7942414998126175,-15.40974592996698,-17.16099963437217,-0.042445000000000066,0.021729999999999916,-0.934758,0.3978769999999999,0.10931899999999994,-0.5362819999999999,0.440322,0.08758900000000003,0.39847600000000005,0.9852617037265967,0.0,single,-0.5362819999999999
181,1.508333,quasi,0.11280451218048115,-0.04056162246490622,-0.004680187207489692,0.0920023617400085,0.2026983078757351,-0.20702045547241865,0.002880115204611091,0.009360374414979384,-0.0012000480019196224,0.3446537861514475,0.0045601824072942325,-0.7387495499820054,-2.102568202094998,-6.696535712143339,10.0232018401107,0.20161612896713751,0.07200576034609148,-0.1296103686220453,-5.918873500410668,20.233618657120598,5.400432025921692,-0.04336099999999998,0.022146,-0.9347289999999999,0.39980899999999997,0.10969499999999999,-0.542399,0.44316999999999995,0.08754899999999999,0.39232999999999996,0.9835554983870543,0.0,single,-0.542399
182,1.516667,quasi,0.12730981521477927,-0.018478521718260896,-0.031077513798896957,-0.1909976044116925,0.33984403339796815,-0.21653319955778305,0.005759539236866767,0.009959203263745454,-0.001199904007679744,0.31857451403887,0.005999520038409543,-0.7486201103911624,1.7404971243458132,2.649760108788716,-3.1674257969050954,0.34550324361118956,0.07185371355484352,1.7277926551302063e-05,-3.129262312524273,0.17270669919790013,-1.1843724992988887,-0.044373999999999914,0.022383000000000042,-0.93448,0.40140299999999995,0.10989900000000008,-0.548379,0.44577699999999987,0.08751600000000004,0.386101,0.9807215007861916,0.0,single,-0.548379
183,1.525,quasi,0.09420376815073117,-0.028441137645497886,-0.10464418576742972,-0.4333874488896256,-0.28477065480629776,0.023456999172620313,0.002760110404402308,0.011520460818431041,-0.0015600624024960088,0.3280931237249537,0.031201248049913515,-0.7403096123845064,-3.972884563068331,-1.1955617337377993,-8.828353770374827,-0.3599458577300475,0.18735840089830813,-0.04322073620740048,1.142278853484194,3.0243283345138847,0.9972996527848349,-0.045136000000000065,0.02271599999999996,-0.933621,0.40335199999999993,0.11039599999999994,-0.5536760000000001,0.448488,0.08767999999999998,0.379945,0.9800853891149421,0.0,single,-0.5536760000000001
