frame_id,timestamp,gait_type,root_linear_velocity_x,root_linear_velocity_y,root_linear_velocity_z,root_angular_velocity_x,root_angular_velocity_y,root_angular_velocity_z,left_linear_velocity_x,left_linear_velocity_y,left_linear_velocity_z,right_linear_velocity_x,right_linear_velocity_y,right_linear_velocity_z,root_acceleration_x,root_acceleration_y,root_acceleration_z,left_acceleration_x,left_acceleration_y,left_acceleration_z,right_acceleration_x,right_acceleration_y,right_acceleration_z,left_pos_rel_x,left_pos_rel_y,left_pos_rel_z,right_pos_rel_x,right_pos_rel_y,right_pos_rel_z,step_length,step_width,step_height,left_contact_prob,right_contact_prob,support_type,max_foot_height
1,0.008333,quasi,0.012600504020163416,-0.055802232089276094,0.0024000960038292308,-0.021085080626321372,-0.097401344714699,0.0701107672161189,0.00012000480018213529,0.00024000960039091698,-0.004440177607104561,0.0003600144005730523,-0.0009600384015370216,0.0012000480019196116,0.0,0.0,0.0,0.0,0.0,0.0,0.0,0.0,0.0,0.0017659999999999343,0.22646900000000003,-0.9082939999999999,0.012634000000000034,-0.09708899999999998,-0.909246,0.0108680000000001,0.323558,0.0009520000000000639,0.9830662022509491,0.9973693054846269,double,-0.9082939999999999
2,0.016667,quasi,0.001679865610746159,-0.06623470122391503,0.010079193664516917,0.0306896120419307,-0.07728681600635133,0.1151109097958932,-0.0011999040076606032,0.0031197504199495397,-0.0013198944084469788,0.00023998080154277791,-0.0008399328053864011,0.001199904007679753,-1.3103717793877196,-1.2517961524644754,0.9214180058420548,-0.15837638683018218,0.34554125504663097,0.3744040315163885,-0.014402879653260663,0.014411518616585135,-1.7277926548908467e-05,0.0017420000000001323,0.227047,-0.908389,0.012622000000000133,-0.09654399999999996,-0.90932,0.01088,0.32359099999999996,0.0009310000000000151,0.9847004875082856,0.9975263345178553,double,-0.908389
3,0.025,quasi,0.00732029281172312,-0.06264250570021739,0.005160206408244837,-0.005137597070942605,-0.013384501742669936,0.14251016235187003,-0.0015600624025009907,0.0009600384015370216,-0.0008400336013440611,0.0019200768030473968,-0.0008400336013282398,-0.0006000240009606385,0.6768783392508053,0.43108070607196053,-0.5903020828359631,-0.043220736210294916,-0.2591758092418719,0.05758560027636117,0.2016195849639528,-1.2095996860524849e-05,-0.21600000103688846,0.0016680000000000028,0.22757699999999992,-0.908439,0.012576999999999838,-0.09602899999999992,-0.909368,0.010908999999999835,0.32360599999999984,0.0009289999999999576,0.9873512945270246,0.9963666742420989,double,-0.908439
4,0.033333,quasi,0.015960638425529666,-0.07332293291730675,0.008760350414028652,0.019989994207835978,-0.010260207940187062,0.13222971199397962,-0.0022800912036470954,0.00216008640346496,-0.0001200048001921277,0.0003600144005996987,-0.0006000240009639692,0.0016800672026881223,1.0368829489747444,-1.28170253415209,0.43203456207654084,-0.08640691241402912,0.14401152069218032,0.0864069124147286,-0.18721497689279948,0.028802304135877903,0.27362188931342385,0.0015160000000000728,0.2282059999999999,-0.908513,0.012447000000000097,-0.09542300000000004,-0.9094270000000001,0.010931000000000024,0.32362899999999994,0.0009140000000000814,0.9856214701173123,0.996966728491509,double,-0.908513
5,0.041667,quasi,0.0032397408207342506,-0.07271418286538353,0.0019198464122756151,-0.020106146496242826,-0.03917470670913866,0.2045800259784448,-0.0014398848092300241,-0.00023998080154277791,-0.004079673626109828,0.0010799136069025357,-0.0011999040076872464,-0.0008399328053755773,-1.5263856017273114,0.07304416269777067,-0.8207948166250343,0.10081670199388904,-0.2879850257988646,-0.47512224933017755,0.08638099427679828,-0.0719798424193997,-0.30237581090277166,0.0014769999999999506,0.22880999999999996,-0.908563,0.012429000000000023,-0.094827,-0.90945,0.010952000000000073,0.32363699999999995,0.0008869999999999711,0.9839083896947085,0.9969670924549832,double,-0.908563
6,0.05,quasi,0.0067202688107591505,-0.07452298091923469,0.00108004320173248,-0.013814506837513715,-0.023685912046503815,0.19874800400723577,-0.0030001200047932,0.0020400816032561785,-0.0008400336013440611,0.0003600144005730523,-0.001680067202683126,0.0016800672026881223,0.41768006600562824,-0.2170644490401008,-0.10078041648183549,-0.18723571289609695,0.2736184333132073,0.3887723538660467,-0.08639136041395457,-0.057621888275036566,0.302412097451542,0.0013959999999999528,0.22944799999999987,-0.908579,0.012375999999999943,-0.09421999999999997,-0.909445,0.01097999999999999,0.32366799999999984,0.0008659999999999224,0.9851333034724823,0.995994842914823,double,-0.908579
7,0.058333,quasi,0.013440537621491656,-0.08928357134286306,0.008400336013442276,0.005359348428637282,-0.03842485325978872,0.2150019601797076,-0.00216008640346496,-0.0013200528021100738,-0.0036001440057605,0.001680067202683126,-0.0015600624025009907,0.00036001440057638307,0.8064645158685354,-1.7713417045035849,0.8784702762162242,0.10080806448196805,-0.4032322579342677,-0.3312264975898763,0.15841267276011925,0.014401152067938959,-0.15841267276031912,0.0012659999999999894,0.23018099999999997,-0.908679,0.012278000000000011,-0.09348899999999993,-0.909512,0.011012000000000022,0.3236699999999999,0.0008329999999999727,0.9843348582659672,0.9961320293600121,double,-0.908679
8,0.066667,quasi,0.018478521718261035,-0.09467242620589496,0.006839452843769346,-0.05115374433882456,-0.056254331903565796,0.25985503882860356,-0.0023998080153478495,-0.0009599232061444684,-0.0028797696184309075,0.001079913606929179,-0.0023998080153478495,0.00035997120230417564,0.6045097308338587,-0.6466108546954517,-0.18729099708098512,-0.028764292282564125,0.04321209454830879,0.08643801143863601,-0.07201267047683549,-0.10076141262861275,-5.183377994652668e-06,0.001092000000000093,0.2309619999999999,-0.90876,0.012133000000000171,-0.09271999999999991,-0.909566,0.011041000000000079,0.3236819999999998,0.0008059999999999734,0.9854907097445921,0.9955731654225348,double,-0.90876
9,0.075,quasi,0.029401176047047995,-0.011760470418808538,-0.057962318492741104,-0.42282975109756166,-0.2565105516740199,-0.23904719270201807,-0.0016800672026831276,0.0,-0.0025201008040321854,0.0008400336013282406,-0.002400096003855879,0.0016800672026881238,1.310770950292448,9.949832687757889,-7.776523621326113,0.08637235241386326,0.11519539255303841,0.04316198420721498,-0.02878675214219833,-3.456000336368996e-05,0.15841785676034434,0.0008330000000000837,0.23105999999999982,-0.9082979999999999,0.011894999999999989,-0.09264200000000011,-0.909069,0.011061999999999905,0.32370199999999993,0.0007710000000000772,0.9872420262954069,0.9949204267773776,double,-0.9082979999999999
10,0.083333,quasi,0.016080643225738437,-0.09384375375015717,-0.024480979239167384,-0.17362538392540883,-0.019533897728468783,0.10414953489966791,-0.003240129605184114,0.0007200288011727504,-0.0014400576023038656,0.0010800432017458023,-0.0022800912036470937,0.0009600384015353554,-1.5985278796723326,-9.850388015282439,4.017921427285934,-0.1872149768991942,0.08640691241722666,0.12961036862214315,0.028802304142273073,0.01440115207113709,-0.08640691241482873,0.0006720000000000059,0.23184800000000005,-0.908106,0.011770000000000058,-0.09187900000000004,-0.908857,0.011098000000000052,0.3237270000000001,0.0007510000000000572,0.9864598334206577,0.9955009312855607,double,-0.908106
11,0.091667,quasi,0.03515718742499123,-0.09287257019439081,-0.02627789776817487,-0.14817616665099342,0.12327484976175467,0.03766584222964907,-0.005159587233023191,0.0007199424046016911,-0.0008399328053755779,0.00035997120230084556,-0.00035997120230084556,0.002039836813055332,2.289002183735638,0.1165327040756377,-0.21561297444294295,-0.23031649002148769,-1.0366759186374797e-05,0.07200921489420305,-0.08640172779517126,0.2303959684840712,0.12956544414686552,0.000336000000000114,0.23262800000000006,-0.907894,0.011480000000000157,-0.09110799999999997,-0.908621,0.011144000000000043,0.323736,0.0007270000000000332,0.9839352502090633,0.9964959972266358,double,-0.907894
12,0.1,quasi,-0.05484219368773902,-0.12432497299892428,-0.003480139205575031,-0.002800738476005812,-0.01890300181170773,0.5772810093867748,-0.004440177607112052,0.003120124805001979,0.00012000480019212759,-0.0002400096003909168,-0.0010800432017191559,0.0009600384015361881,-10.800357747837536,-3.774439314116578,2.7358404611304232,0.08633260841367323,0.2880334093844097,0.11519712055294667,-0.07200057634606527,-0.08641209641405373,-0.12958099262200204,0.0007559999999999789,0.23369000000000018,-0.907864,0.011935000000000029,-0.09008099999999986,-0.908584,0.01117900000000005,0.32377100000000003,0.0007199999999999429,0.983753091821334,0.9975585912205109,double,-0.907864
13,0.108333,quasi,-0.006960278411123427,-0.1378855154205983,-0.005400216008635758,-0.10862543277083407,-0.017895033263207495,0.43254012497913574,-0.003600144005757172,0.0014400576022922103,-0.0003600144005763834,-0.0025201008040380145,-0.0009600384015370224,-0.0021600864034566347,5.7460596755808995,-1.6273301838082348,-0.2304184331046116,0.10080806448516504,-0.2016161289703312,-0.05760460827655243,-0.27362188931322445,0.014401152067938749,-0.3744299537972909,0.0007839999999998959,0.23485099999999992,-0.907822,0.011971999999999872,-0.08894000000000002,-0.9085570000000001,0.011187999999999976,0.32379099999999994,0.0007350000000000412,0.9861597480941007,0.994241297632342,double,-0.907822
14,0.116667,quasi,0.023638108951284202,-0.12646988240942036,-0.009599232061431354,-0.049797733050136773,0.12243460891359631,0.1894090726842993,-0.003959683225335938,0.0007199424046016899,-0.0033597312215014738,-0.00599952003838294,0.001199904007660602,-0.006359491240700437,3.6715127624679145,1.3697663800309476,-0.5038416190059506,-0.04314125504904791,-0.08640691116996876,-0.35993722353312785,-0.4174969083687212,0.2591723553152894,-0.5038882694077031,0.0005539999999999434,0.23591099999999998,-0.9077700000000001,0.011724999999999985,-0.08787600000000007,-0.9085300000000001,0.011171000000000042,0.32378700000000005,0.0007599999999999829,0.9836622781077797,0.9852919958337962,double,-0.9077700000000001
15,0.125,quasi,0.01272050882034556,-0.12336493459738747,-0.013200528021127396,-0.06474237426819918,0.10115984500939053,0.196627117982662,-0.005040201608076029,0.0020400816032561803,-0.000600024000960639,-0.004080163206539007,-0.0008400336013282406,-0.0008400336013440619,-1.3101644222895297,0.3726086417896194,-0.43217280207560843,-0.12966739262451604,0.1584230407601694,0.33117811358944405,0.23033203310259634,-0.24480230517086818,0.6623614111792128,0.00040599999999990644,0.23695599999999994,-0.9076649999999999,0.011584999999999956,-0.0868549999999999,-0.908427,0.01117900000000005,0.32381099999999985,0.0007620000000000404,0.9832626182486837,0.9929173442099061,double,-0.9076649999999999
16,0.133333,quasi,0.020760830433214757,-0.13500540021601365,-0.009480379215161426,-0.07226188991595592,0.054348980567262124,0.19518954408293274,-0.004440177607112052,0.0015600624025009894,-0.0015600624024959932,-0.003600144005757166,-0.0018000720028919063,0.006840273610944611,0.964877188631848,-1.3969117507051687,0.44643571414448185,0.07200576034609107,-0.057604608274953846,-0.11520921655290452,0.05760460827815197,-0.11520921655630205,0.9216737324239369,0.00019599999999986295,0.23809400000000003,-0.907599,0.011382000000000003,-0.08574499999999996,-0.9082910000000001,0.01118600000000014,0.323839,0.0006920000000000259,0.9848164981558667,0.9867722262780196,double,-0.907599
17,0.141667,quasi,0.01751859851211661,-0.1525077993760263,-0.0028797696184334125,-0.05148621129052824,0.017993340358568827,0.3304820361489127,-0.005879529637624893,0.002399808015374499,0.001439884809215041,0.0010799136069025385,0.0,0.0017998560115192175,-0.389036707595171,-2.1001198896103532,0.7920097908240975,-0.17270842698738234,0.10076141263181082,0.3599648682158677,0.5615619885600811,0.21599136103814623,-0.6048017277928252,9.999999999177334e-07,0.23938499999999996,-0.907563,0.01124499999999995,-0.08447400000000016,-0.9082520000000001,0.011244000000000032,0.3238590000000001,0.0006890000000000507,0.9822572973752345,0.9965017087264021,double,-0.907563
18,0.15,quasi,-0.028921156846266113,-0.1520460818432891,-0.0009600384015370207,0.0711670061309956,0.16761223049238674,0.4684765577353292,-0.0062402496099773115,0.0008400336013282392,0.0013200528021125708,0.004560182407294187,-0.0012000480019012912,-0.0007200288011519328,-5.572993562748432,0.05540832026127297,0.23037696110601105,-0.04328812820741852,-0.1871804169022271,-0.014380416068939162,0.4176489620054777,-0.14401152068898238,-0.30239827345147585,0.00018999999999991246,0.24065899999999996,-0.907544,0.011523999999999868,-0.08321699999999987,-0.90825,0.011333999999999955,0.32387599999999983,0.0007059999999999844,0.9822176309823099,0.9920498392278396,double,-0.907544
19,0.158333,quasi,0.0006000240009639688,-0.1564862594503745,-0.0020400816032695,0.010460859326091294,-0.007137115811042245,0.32185968948478055,-0.012240489619590353,0.004080163206539,0.005160206408256491,0.01152046081844425,-0.012720508820372187,0.019440777631104685,3.542683409003967,-0.5328426265553097,-0.1296103686226423,-0.7200576034577028,0.3888311058695257,0.4608368662119185,0.8352668200108072,-1.3825105986404518,2.419393547612697,8.299999999983321e-05,0.24199700000000002,-0.907484,0.011614999999999931,-0.08201900000000006,-0.908071,0.011532000000000098,0.3240160000000001,0.0005870000000000042,0.9709696262686611,0.956779756639184,double,-0.907484
20,0.166667,quasi,0.021718262538995267,-0.1575473962082909,0.0058795296376381945,0.04552318521970901,0.06292665519816032,0.24064766693551629,-0.0105591552675625,0.0023998080153478474,0.005399568034556802,0.007919366450671875,-0.0019198464122889352,-0.0034797216222703644,2.533985905691298,-0.12732622485197811,0.9502773267227846,0.20174398272472416,-0.20162649282351222,0.028721097468239896,-0.4320967563921731,1.2959758109051165,-2.7502398912137065,-0.00018600000000001948,0.24332999999999982,-0.9074880000000001,0.011499999999999844,-0.08072200000000018,-0.9081490000000001,0.011685999999999863,0.324052,0.0006610000000000227,0.9732233213887895,0.9852322952024715,double,-0.9074880000000001
21,0.175,quasi,0.009120364814588404,-0.13548541941679593,-0.013800552022091388,-0.06558994512013834,-0.1173159999093362,0.15616442592694932,-0.009720388815552376,0.004320172806929931,0.006960278411136762,0.014280571222846577,-0.004800192007658474,-0.0019200768030715497,-1.5118081992567975,2.6475431167040706,-2.3617042673382493,0.10065600048123449,0.23045299310957496,0.1872927368990716,0.7633751076652727,-0.34565529765625175,0.18716486489845416,-0.0003429999999999822,0.24449500000000013,-0.907315,0.011542999999999859,-0.07963299999999984,-0.9080499999999999,0.011885999999999841,0.32412799999999997,0.0007349999999999302,0.9714633082017279,0.9746873300998362,double,-0.907315
22,0.183333,quasi,0.016080643225711788,-0.13788551542059807,-0.026881075243009936,-0.11883834370076614,0.047859956601309955,0.19242470011915627,-0.013200528021127374,0.0031201248049753326,0.007560302412096544,0.0008400336013548856,0.0007200288011461039,-0.00480019200768094,0.8352668200076057,-0.28802304137791207,-1.5697255755332458,-0.41763341000539966,-0.14401152069537945,0.0720057603455876,-1.6129290317402711,0.6624529951763558,-0.3456276496591129,-0.0005869999999998932,0.24566999999999983,-0.907028,0.011416000000000093,-0.07847800000000005,-0.907866,0.012002999999999986,0.3241479999999999,0.0008380000000000054,0.9657384701531111,0.9917899212961396,double,-0.907028
23,0.191667,quasi,0.02711783057356123,-0.15934725221982177,-0.01223902087832198,-0.08688035920540856,0.060840157155977785,0.20453114113076748,-0.014998800095983993,0.0023998080153744905,0.009839212862970802,0.013798896088323392,-0.01547876169906955,0.003959683225342598,1.3243565332192742,-2.575202399714864,1.7569059712848503,-0.21577538695183796,-0.08643110026407984,0.27344737831464555,1.5549391033079545,-1.9436993640767506,1.0511009398876325,-0.0009379999999998834,0.24701799999999996,-0.906844,0.01130500000000012,-0.0772790000000001,-0.9077310000000001,0.012243000000000004,0.32429700000000006,0.0008870000000000822,0.960966869793258,0.9648147486612332,double,-0.906844
24,0.2,quasi,0.032401296051841146,-0.17340693627746784,-0.010200408016320854,-0.10615583602717621,-0.043927161502707424,0.1984000137906182,-0.015120604824201415,0.0037201488059393014,0.014040561622464772,0.012840513620527676,-0.008640345613833186,-0.0054002160086407455,0.6340412190423511,-1.6872295761005711,0.24464332917330178,-0.014617152072173489,0.15844723275708744,0.5041820184200128,-0.11501049655534804,0.8206427559386004,-1.1232328373914962,-0.0013339999999999463,0.248494,-0.9066420000000001,0.011141999999999985,-0.07590600000000003,-0.907691,0.012475999999999932,0.3244,0.0010489999999999666,0.9545652194303393,0.9726800492463523,double,-0.9066420000000001
25,0.208333,quasi,0.006960278411150086,-0.1816872674907019,-0.0190807632305317,-0.009805041405049793,0.23019301665277728,0.2848120163855822,-0.015360614424592384,0.004080163206539014,0.015360614424577394,-0.000960038401537024,0.0062402496100039785,-0.004680187207487995,-3.0530442386524808,-0.9936794927678018,-1.0656852531154286,-0.028802304139081907,0.04320345621021399,0.1584126727604254,-1.656132487947286,1.785742856574727,0.08640691241482683,-0.0015200000000001879,0.2500420000000001,-0.906355,0.011075999999999864,-0.07433999999999985,-0.907571,0.012596000000000052,0.32438199999999995,0.0012159999999999949,0.9510015884800207,0.9869013845913315,double,-0.906355
26,0.216667,quasi,0.030357571394268833,-0.19114470842332063,-0.017878569714417397,-0.05045619128126943,0.07414564915362838,0.24536640513719427,-0.009359251259875256,0.007799376049913808,0.01619870410367124,0.010799136069131922,-0.007559395248397674,-0.0013198944084478104,2.8074505619292927,-1.1348021277440252,0.14425168179917208,0.7201059712883516,0.4462698396178054,0.10056271647394346,1.4109880574356772,-1.6558249170148354,0.4032028796544494,-0.001850999999999825,0.25170000000000003,-0.9060710000000001,0.010913000000000173,-0.07281000000000004,-0.907433,0.012763999999999998,0.3245100000000001,0.0013619999999999743,0.9525986826143444,0.9779200997882076,double,-0.9060710000000001
27,0.225,quasi,0.0004800192007818336,-0.17688707548301622,-0.025801032041290778,-0.08818455075224338,0.3109718894760899,0.29756253174250324,-0.016080643225738437,0.003480139205575031,0.0283211328453138,0.012480499219954623,-0.012120484819381572,-0.003360134405376242,-3.585449681205685,1.7109843922122163,-0.9507335085651475,-0.8065992998755761,-0.5183291544868323,1.4547496389826653,0.2017716489646826,-0.5473526426237723,-0.24483859317513856,-0.0019890000000000185,0.25320300000000007,-0.90562,0.01101299999999994,-0.07143699999999997,-0.907246,0.013001999999999958,0.32464000000000004,0.0016260000000000163,0.9291510048461744,0.9704684953416817,double,-0.90562
28,0.233333,quasi,0.048601944077761715,-0.2041281651265992,-0.02028081123244625,0.021194763514366822,0.1760891214084782,0.19165267544707418,-0.01332053282130951,0.014880595223810498,0.03900156006240233,0.011640465618626384,-0.007200288011514332,-0.004080163206528174,5.7748619797167695,-3.2690615196907435,0.6624529951811502,0.3312264975913747,1.3681094465661174,1.2817025341519885,-0.10080806448196791,0.5904472348334616,-0.08640691241472839,-0.0025049999999999795,0.25502800000000003,-0.905126,0.010704999999999965,-0.06979599999999997,-0.907111,0.013209999999999944,0.324824,0.0019850000000000145,0.9071205083134284,0.9761956867202668,double,-0.905126
29,0.241667,quasi,0.009959203263745555,-0.18310535157189128,-0.02507799376050099,-0.08116271066647256,0.3193189090843332,0.25786479858654193,0.0035997120230351048,0.07031437485000921,0.05891528677705778,0.0005999520038436247,0.00599952003838296,-0.01415886729061679,-4.636757957045387,2.5225358236990605,-0.5756158540982422,2.0302669599645617,6.6515214334291874,2.389456049274718,-1.3247556533216684,1.5838502579670413,-1.209347742271255,-0.0025580000000000602,0.25714000000000015,-0.904426,0.010626999999999942,-0.06821999999999995,-0.9070199999999999,0.013185000000000002,0.3253600000000001,0.002593999999999985,0.821052372619139,0.9743513209105998,double,-0.904426
30,0.25,quasi,0.028921156846266113,-0.20952838113524827,-0.01968078723148228,0.009863685745387646,0.18605450371472748,0.2466391761624661,0.0019200768030740415,0.028201128045120007,0.05736229449178037,-0.0009600384015370207,-0.0030001200047931973,-0.008880355214208283,2.275525450920502,-3.1708903832181643,0.647690691109889,-0.2015642889668861,-5.0537917682574305,-0.18636652889444552,-0.18720633689915328,-1.0800000051813452,0.633446787040502,-0.00278299999999998,0.25912100000000016,-0.903784,0.010377999999999998,-0.06649899999999986,-0.90693,0.013160999999999978,0.32562,0.003145999999999982,0.8619590038396894,0.9842958690408028,double,-0.903784
31,0.258333,quasi,0.07836313452538297,-0.25021000840032376,0.009240369614783863,0.2990028008860367,0.48134245588531843,0.03605411161552987,-0.003480139205575043,0.03828153126124553,0.07416296651866099,0.00048001920075518877,-0.007320292811723138,-0.009720388815552376,5.9332746524801365,-4.8819905514311275,3.470677648657892,-0.6480518431116162,1.2096967738060183,2.0161612896772665,0.17281382482805868,-0.5184414744905739,-0.10080806448387077,-0.0034650000000000514,0.261525,-0.903243,0.009728999999999877,-0.06447500000000006,-0.907088,0.013193999999999928,0.32600000000000007,0.0038449999999999873,0.8223286274445151,0.9797033757590651,double,-0.903243
32,0.266667,quasi,-0.0020398368130470023,-0.2299016078713735,0.010799136069105278,0.34685231970227165,0.2530602628836146,0.4064354528381913,-0.010799136069105278,0.039596832253412664,0.09875209983201302,0.004199664026878715,-0.007199424046070185,-0.007559395248380189,-9.647584753831282,2.4368131184245536,0.18703701155764502,-0.8782093668742774,0.15782349318060118,2.9504599608053774,0.44632167340095064,0.014503091631023868,0.2592984841819276,-0.003538000000000041,0.263771,-0.9025099999999999,0.009780999999999818,-0.06261899999999998,-0.907241,0.013318999999999859,0.32638999999999996,0.004731000000000041,0.7744539853890992,0.9812462343740558,double,-0.9025099999999999
33,0.275,quasi,0.0070802832113055275,-0.2204488179527278,0.013440537621504923,0.2650411035283187,0.4085595729790397,0.39846154993131955,-0.016440657626311434,0.05592223688948464,0.1308052322092879,0.01488059522381045,-0.0008400336013548828,-0.02064082563302506,1.0944581812495489,1.1343801654440975,0.316980865522577,-0.677009667251426,1.959126921405485,3.846529746462829,1.2817630141523688,0.7631573796610195,-1.5698344395349597,-0.003733999999999904,0.26607400000000014,-0.901532,0.009846000000000021,-0.06078899999999998,-0.9075249999999999,0.013579999999999925,0.3268630000000001,0.005992999999999915,0.7013954157782392,0.9575676534063654,double,-0.901532
34,0.283333,quasi,-0.02052082083282391,-0.18180727229088406,-0.01704068162726219,0.09996389524936446,0.5159050379848358,0.5475872861650413,-0.000960038401537024,0.044881795271795914,0.1442457698307938,0.010560422416907264,-0.006240249609977332,-0.01104044161766495,-3.3122649758945766,4.637170966259911,-3.6578926255570847,1.8577486169176105,-1.3249059903622646,1.6129290317419789,-0.518441474487363,-0.6480518431084199,1.1520921655298373,-0.003570999999999991,0.26796299999999995,-0.900188,0.01010500000000003,-0.05932599999999999,-0.9074749999999999,0.013676000000000021,0.32728899999999994,0.007286999999999932,0.6753466973663984,0.9724947182884507,double,-0.900188
35,0.291667,quasi,0.005039596832265116,-0.14026877849771713,-0.03791696664266651,0.1372623287679401,1.4452942275722016,0.6613616825897563,-0.025437964962788426,0.05219582433407545,0.17278617710583183,0.04535637149027947,-0.041636669066459665,-0.010919126469882495,3.0670047594299255,4.984220517538624,-2.5049538055440723,-2.9371162180527213,0.8776132784112705,3.4245749070120004,4.175179874414707,-4.24723055633337,0.014556653201638453,-0.0038249999999999673,0.2695670000000001,-0.898432,0.010440999999999923,-0.05850399999999989,-0.90725,0.01426599999999989,0.328071,0.008817999999999993,0.6080174456154421,0.8957828126701608,double,-0.898432
36,0.3,quasi,0.002520100804011372,-0.16056642265691404,-0.00240009600384256,0.17218237151614701,0.5022720012807933,0.4773902274059491,-0.047161886475469664,0.04968198727948103,0.19896795871834835,0.010080403216125428,-0.00960038401537024,-0.0019200768030723824,-0.30235161745514816,-2.435814731692903,4.262194964457462,-2.6069748605161758,-0.3016725134518689,3.141939471080834,-4.233285524319467,3.844507986450198,1.0799291571835035,-0.004238999999999882,0.2713190000000001,-0.8967539999999999,0.010504000000000069,-0.05724599999999991,-0.907246,0.01474299999999995,0.328565,0.010492000000000057,0.5443633052459658,0.9765794133072381,double,-0.8967539999999999
37,0.308333,quasi,0.03888155526220924,-0.15876635065402106,-0.007800312012478276,0.28709452272033786,0.6199115441809928,0.463231668629526,-0.03564142565702514,0.0482419296771885,0.21204848193927725,0.014760590423628314,-0.015840633625347468,-0.005760230409216276,4.363549076946804,0.2160172810383979,-0.6480518431100075,1.3825105986372825,-0.17281382482809599,1.5697255755344823,0.5616449306975718,-0.748859907593568,-0.4608368662119138,-0.004859999999999864,0.27304400000000006,-0.894922,0.010303000000000173,-0.056054999999999966,-0.907229,0.015163000000000038,0.32909900000000003,0.012306999999999957,0.5096496283846931,0.9626584474198776,double,-0.894922
38,0.316667,quasi,0.048236141108713194,-0.155627549796003,-0.0021598272138184057,0.14581449163353807,0.38337462701063685,0.3835129923947792,-0.07823374130070802,0.04079673626110018,0.24874010079193704,0.03719702423806506,-0.06383489320854091,-0.02987760979121678,1.122460504740102,0.37662597288433985,0.6768040315166669,-5.110669023720077,-0.8933517417912601,4.402642050955123,2.6921566851976095,-5.75885044194789,-2.893854017518675,-0.005913999999999975,0.27468099999999995,-0.892831,0.010211000000000192,-0.05529000000000006,-0.90746,0.016125000000000167,0.329971,0.014629000000000003,0.41383460820816653,0.8671761424338689,single,-0.892831
39,0.325,quasi,0.04356174246971219,-0.18852754110164197,0.03696147845913521,0.2183874349202539,0.5417243599193861,0.40693641162476313,-0.12864514580582712,0.02016080643225072,0.2906516260650423,0.007440297611905225,-0.013560542421700381,-0.0006000240009598033,-0.5609502746911055,-3.9481568829519786,4.6947444705332355,-6.049610525035267,-2.4764106358873605,5.029584216141257,-3.570950033140491,6.033163420957677,3.513450832864137,-0.00734900000000005,0.2764199999999999,-0.890717,0.009910000000000085,-0.0538320000000001,-0.9077729999999999,0.017259000000000135,0.330252,0.01705599999999996,0.32943999999999996,0.9742012937379612,single,-0.890717
40,0.333333,quasi,0.056762270490813255,-0.17688707548304344,0.03852154086163645,0.24899352036434055,0.4073224875703916,0.2685242385799683,-0.15888635545420426,0.02232089283571582,0.3078123124925002,-0.003240129605184125,0.014160566422664441,-0.023280931237249516,1.5841267276012354,1.3969117507018542,0.18721497689922542,-3.6290903214181234,0.2592207372453025,2.0593647458847864,-1.2817025341520911,3.3266661279689056,-2.721817741064415,-0.009145999999999876,0.2780800000000001,-0.8884730000000001,0.00941000000000014,-0.05223999999999984,-0.908288,0.018556000000000017,0.33031999999999995,0.019814999999999916,0.30185,0.9542645942967528,single,-0.8884730000000001
41,0.341667,quasi,0.08147348212144175,-0.15934725221982177,0.032037437005041636,0.06128991322479773,0.5563571897718704,0.31696992057322465,-0.16318694504439962,0.01751859851211655,0.33117350611950996,0.005879529637624873,0.00599952003838294,-0.01187904967602613,2.9651081870204545,2.104610422752779,-0.778030220373747,-0.5160294684659652,-0.5762292204942724,2.803118985722313,1.0942715674116856,-0.9792472263356723,1.3681163380397618,-0.011185,0.2795540000000001,-0.88598,0.00878000000000001,-0.05086199999999996,-0.9086540000000001,0.01996500000000001,0.33041600000000004,0.022674000000000083,0.27326,0.97575157905163,single,-0.88598
42,0.35,quasi,0.07224288971558777,-0.149885995439798,0.01476059042361509,0.10852548058816765,0.5133500520626438,0.29522957505416664,-0.17316692667707748,0.013920556822273524,0.3499339973598955,-0.00480019200768512,0.002400096003855883,-0.00792031681267212,-1.107715397318372,1.1353962294520332,-2.0733045219520685,-1.1976457017494153,-0.4317822740721271,2.251349002806382,-1.2816178621516883,-0.43194816206973075,0.4750669462803335,-0.013230000000000075,0.2809189999999999,-0.883187,0.008137999999999979,-0.049593,-0.9088430000000001,0.021368000000000054,0.3305119999999999,0.025656000000000012,0.24344000000000005,0.9840544570358756,single,-0.883187
43,0.358333,quasi,0.08016320652824771,-0.16560662426498898,0.028561142445692963,0.20496204376364527,0.5524590460546708,0.26169221083681987,-0.2172086883475437,0.01320052802112733,0.3730949237969504,-0.031801272050877065,0.09300372014880198,0.04044161766470606,0.9504760365606508,-1.8865509210597529,1.6561324879488557,-5.2852228093683,-0.08640691241403946,2.7794223493405523,-3.2402592155516423,10.872869812185975,5.803664283856712,-0.015708000000000055,0.28240900000000013,-0.880316,0.007205000000000128,-0.04743799999999987,-0.908744,0.022913000000000183,0.329847,0.02842800000000001,0.21572000000000002,0.8228580504470682,single,-0.880316
44,0.366667,quasi,0.07211423086153985,-0.14806815454763092,0.014038876889852848,0.23288724579010203,0.38888330908163143,0.17624703469636,-0.3016558675305859,0.017038636909030996,0.39380849532037315,0.02531797456203036,-0.05807535397167368,-0.04295656347492163,-0.9657998160196601,2.1044480102421463,-1.7425324641036837,-10.132850873895139,0.46053622365054736,2.4854297484308514,6.853761292645473,-18.128038651364953,-10.006981178261052,-0.018823000000000034,0.28378499999999995,-0.877151,0.0068150000000000155,-0.04668799999999984,-0.909219,0.02563800000000005,0.3304729999999998,0.032067999999999985,0.1793200000000001,0.8724263511139787,single,-0.877151
45,0.375,quasi,0.06636265450618349,-0.14592583703346776,-0.0008400336013415652,0.41565124790559904,0.5067351932975859,0.1883685133992603,-0.3494539781591303,0.007680307212296192,0.4398175927037094,0.009000360014406268,-0.015240609624410248,-0.006480259210369083,-0.6902167713136179,0.2570883852349894,-1.785540680570557,-5.736002715533969,-1.1230444853875947,5.5213125385019035,-1.958192073397832,5.140374936669092,4.377331605010517,-0.022288000000000086,0.2850649999999999,-0.873479,0.006337000000000037,-0.04559900000000017,-0.909266,0.028625000000000123,0.33066400000000007,0.03578700000000001,0.14213000000000003,0.9685853704663043,single,-0.873479
46,0.383333,quasi,0.07128285131405075,-0.14772590903635968,0.03168126725068182,0.25331132973890225,0.5785967440865111,0.1760063137683485,-0.3637345493819769,-0.008640345613833216,0.48433937357494394,0.005400216008622444,-0.011160446417844588,-0.005280211208447803,0.5904472348334661,-0.21601728103827278,3.902712210731245,-1.7137370962254446,-1.9585566814027897,5.342827417644864,-0.43203456207654306,0.4896391703546946,0.14401152069138157,-0.025913000000000075,0.2862239999999998,-0.869707,0.005787999999999904,-0.044461000000000084,-0.909574,0.03170099999999998,0.3306849999999999,0.039866999999999986,0.10133000000000009,0.9775402503482353,single,-0.869707
47,0.391667,quasi,0.06563474922007136,-0.14686825053997032,0.011999040076792523,0.49720206680087337,0.6010504700532262,0.152694433148076,-0.3996880249579997,-0.049316054715615405,0.5226781857451397,0.06335493160548157,-0.04139668826494353,-0.051475881929446285,-0.6777180338348201,0.10291078670378649,-2.3616783266005856,-4.314071943367262,-4.880694636642927,4.600289437268503,6.95400955085902,-3.6280587769497137,-5.543037043556328,-0.029791000000000123,0.287037,-0.865451,0.005768999999999913,-0.04358200000000001,-0.910103,0.035560000000000036,0.330619,0.044652000000000025,0.05348000000000003,0.8474540180574462,single,-0.865451
48,0.4,quasi,0.023280931237226046,-0.14088563542541743,0.030121204848193948,0.2283889202413078,0.3172135164497939,0.007789281078192029,-0.42457698307932634,-0.09636385455416822,0.5559822392895707,0.009120364814588344,-0.006720268810759123,-0.005040201608063513,-5.082661464399991,0.7179425314476019,2.1747467624386596,-2.986794446337037,-5.645961819099079,3.9966462911833505,-6.50840835124121,4.161336787973631,5.572504538747459,-0.03352299999999997,0.2874080000000001,-0.861069,0.005651000000000073,-0.04246400000000006,-0.910396,0.03917400000000004,0.32987200000000017,0.04932700000000001,0.006730000000000014,0.9793342272041448,single,-0.861069
49,0.408333,quasi,0.03300132005280522,-0.11988479539181263,-0.016200648025920625,0.7439034175877491,0.6328819816518602,0.03052596743663115,-0.41185647425895694,-0.08244329773192198,0.6213848553942158,0.012840513620554364,-0.004200168006721149,-0.00864034561382489,1.1664933176022079,2.520201612097067,-5.5588446986817095,1.5265221193291052,1.670533640015154,7.848627877672544,0.4464357141444894,0.30242419345229576,-0.43203456207384916,-0.037229999999999874,0.28772,-0.855756,0.005483000000000127,-0.04150000000000009,-0.910333,0.042713,0.32922000000000007,0.05457699999999999,0.0,0.9732721652760715,single,-0.855756
50,0.416667,quasi,0.029037676985850164,-0.11279097672185505,0.028917686585078775,0.3937749261046801,0.6264161201600346,0.05285616300323705,-0.4479241660667126,-0.15610751139908752,0.6009119270458373,0.0015598752099880903,0.0008399328053864003,-0.006359491240700437,-0.4755991201049978,0.8511901451832938,5.413767051955766,-4.327776794787091,-8.838998520178242,-2.4565548774152304,-1.3535683238020475,0.6047637163555969,0.273680630324508,-0.041204999999999936,0.2873589999999999,-0.850989,0.005254000000000092,-0.04055300000000006,-0.910627,0.04645900000000003,0.327912,0.05963799999999997,0.0,0.9889972444576565,single,-0.850989
51,0.425,quasi,0.04404176167046767,-0.08376335053403207,0.02004080163206872,0.36796000301537773,0.5965676378532988,0.018497405947810408,-0.4903396135845487,-0.2282491299652076,0.6403456138245538,-0.012840513620554364,-0.03600144005759843,0.024720988839553384,1.8005621846414912,3.483454480717995,-1.0652688051134136,-5.090057304432523,-8.657340521555295,4.732231702714101,-1.7281157842964707,-4.421141589221759,3.729806801902544,-0.045657999999999976,0.28615499999999994,-0.84582,0.0047800000000000065,-0.04015499999999994,-0.9105880000000001,0.05043799999999998,0.3263099999999999,0.06476800000000005,0.0,0.9241326126743034,single,-0.84582
52,0.433333,quasi,-0.0031201248050019685,-0.09108364334572795,0.037681507260281306,0.41018979413959766,0.654047329167063,-0.05414353730663998,-0.4532581303252281,-0.3022920916836586,0.7001080043201706,-0.015360614424592281,-0.0006000240009639668,0.0034801392055683576,-5.65965276316686,-0.8784702762145509,2.116969354159668,4.449955989358027,-8.88551082664715,7.171773730423205,-0.3024241934522869,4.248339860390533,-2.549003916234842,-0.049409000000000036,0.28439499999999995,-0.8402999999999999,0.00467799999999996,-0.03940100000000002,-0.9108729999999999,0.054086999999999996,0.323796,0.070573,0.0,0.9737310981707743,single,-0.8402999999999999
53,0.441667,quasi,0.018598512119045854,-0.08831293496521168,0.001319894408458643,0.6535362885108346,0.545999987559739,0.13174574862367563,-0.3748500119990308,-0.3762898968082608,0.7339812814974841,0.004679625629964302,-0.0037197024237931847,0.001559875209983105,2.606027948649862,0.3324584089892349,-4.3630444986588515,9.408221541420419,-8.879026292848886,4.064468103829334,2.404636435631953,-0.37433146422237046,-0.2304132464105188,-0.05268800000000007,0.281995,-0.8341940000000001,0.004561999999999955,-0.03869599999999984,-0.9108710000000001,0.05725000000000002,0.32069099999999984,0.076677,0.0,0.9897032512104128,single,-0.8341940000000001
54,0.45,quasi,0.02280091203647086,-0.0812432497299935,0.013680547221882515,0.596056568446118,0.5858128286760663,0.2054217582696992,-0.5921036841473627,-0.4266170646825825,0.8967958718348705,0.009240369614770478,-0.007080283211332174,0.006240249609983953,0.5043081624174953,0.8483961640727415,1.4833376711177033,-26.071483517140408,-6.039501724987575,19.53853238178156,0.5473111706235637,-0.4032858259377145,0.5616673946958872,-0.057811999999999975,0.27911700000000006,-0.826835,0.004448999999999925,-0.038077999999999834,-0.910933,0.0622609999999999,0.3171949999999999,0.084098,0.0,0.9779863958624351,single,-0.826835
55,0.458333,quasi,0.03708148325934423,-0.08724348973958046,0.020520820832837232,0.5792071892123428,0.5268762957458786,0.29127882929210513,-0.5351014040561625,-0.5087003480139076,0.8846753870154815,-0.0060002400095864146,0.003480139205548396,-0.00036001440057555127,1.713737096228658,-0.7200576034545751,0.8208656679412857,6.840547232833358,-9.850388015279652,-1.4545163589810415,-1.8289463127753425,1.2673013820809547,-0.7920633638016946,-0.06258000000000008,0.2756050000000001,-0.819634,0.004089999999999927,-0.03732200000000008,-0.911107,0.06667000000000001,0.3129270000000002,0.09147300000000003,0.0,0.9884237000452483,single,-0.819634
56,0.466667,quasi,0.049316054715615405,-0.09743220542357021,0.08759299256059608,0.11631727480160642,0.78045949153199,0.43006112247293266,-0.49376049916007764,-0.5202783777297952,0.9052075833933271,0.012359011279093368,-0.021598272138210556,0.026517878569714274,1.4680311322619584,-1.2225480782325109,8.048016765989773,4.960511746590448,-1.3892524257124557,2.4636664720237,2.2029339199279776,-3.0091686277608507,3.2250891493028315,-0.06710600000000011,0.272081,-0.8128200000000001,0.003781999999999952,-0.03668999999999989,-0.911616,0.07088800000000006,0.3087709999999999,0.09879599999999988,0.0,0.9393913188517458,single,-0.8128200000000001
57,0.475,quasi,0.005520220808831226,-0.10488419536781994,0.09444377775110814,0.3798776704634908,0.8108177727265379,0.5194297535264752,-0.4770190807632125,-0.550342013680546,0.8954758190327631,-0.022080883235324904,-0.007680307212296192,0.031081243249730342,-5.2557102972260035,-0.894274564292541,0.8221271079457674,2.00905056964661,-3.607780625315116,-1.167858437605187,-4.132952659836596,1.6702226000137284,0.5476256666285947,-0.07112699999999994,0.2683690000000001,-0.806145,0.0035519999999999996,-0.03587999999999991,-0.9121440000000001,0.07467899999999994,0.304249,0.10599900000000007,0.0,0.935179816987552,single,-0.806145
58,0.483333,quasi,0.024480979239153978,-0.08400336013439577,0.08760350414016625,0.17956244149878586,0.6778277236412729,0.4694106657323848,-0.4790591623664921,-0.5796231849273815,0.9398775951038009,-0.04608184327372355,-0.017520700828030585,0.012840513620544287,2.2753820269197975,2.505800460029291,-0.8208656679397407,-0.24481958517696042,-3.513881104864439,5.3284262655751355,-2.8802304138243784,-1.180894469666909,-2.188975114506898,-0.0753229999999998,0.2642390000000001,-0.7990430000000001,0.0029640000000001887,-0.03532599999999997,-0.912767,0.078287,0.2995650000000001,0.11372399999999994,0.0,0.9150917157056975,single,-0.7990430000000001
59,0.491667,quasi,0.022678185745166377,-0.08159347252219981,0.061795056395480163,0.37291966887088956,0.44876840272993573,0.48191443457867356,-0.5388768898488143,-0.6444684425245991,1.0435565154787618,0.020518358531308022,-0.018478521718261018,0.029757619390448523,-0.2163179138454043,0.2891633803930835,-3.096765988083281,-7.177553093631169,-7.780808446990345,12.440475206978745,7.991384905811316,-0.11492931248265319,2.0298903011644134,-0.08000300000000005,0.2595480000000001,-0.7908609999999999,0.002945999999999893,-0.03479999999999994,-0.913034,0.08294899999999994,0.29434800000000005,0.12217300000000009,0.0,0.9323412419749268,single,-0.7908609999999999
60,0.5,quasi,-0.021240849633996663,-0.05244209768390997,0.07692307692307744,0.7278589203335439,0.7003427057686121,0.24337387287738718,-0.4860194407776454,-0.6505460218408897,0.9704788191527665,0.0152406096243836,-0.010320412816516345,0.020880835233409452,-5.270495065302191,3.4983049127913013,1.8154350807149064,6.343147614444862,-0.7293386915025345,-8.769674346093309,-0.6333552030390537,0.9790122286985111,-1.0652567091130558,-0.08387600000000006,0.254564,-0.783415,0.003249999999999975,-0.03444899999999995,-0.913501,0.08712600000000004,0.28901299999999996,0.13008600000000003,0.0,0.9536080591747829,single,-0.783415
61,0.508333,quasi,0.04608184327372355,-0.01812072482899455,0.10788431537261244,0.17221906397570283,0.7100529613433555,0.5276559013444545,-0.47425897035880704,-0.6720268810752461,0.9791191647665866,-0.007800312012478276,0.03264130565223195,-0.024600984039361094,8.079046310778823,4.118729491769503,3.715497233833537,1.4113129027767102,-2.5778062203715706,1.0368829489763667,-2.765021197271304,5.155612440747404,-5.458036634197811,-0.08821199999999996,0.24911499999999998,-0.7761549999999999,0.0028010000000000534,-0.03402599999999989,-0.9146049999999999,0.09101300000000001,0.28314099999999987,0.13844999999999996,0.0,0.9306476765213518,single,-0.7761549999999999
62,0.516667,quasi,0.14962802975762002,-0.1406287497000189,-0.0014398848092033894,1.2198118509978564,0.2765581394227048,1.025619946654393,-0.4584833213343048,-0.6838252939764736,0.9821214302855825,0.007679385649155792,-0.006119510439167692,0.008879289656827227,12.424548414194511,-14.699787001562882,-13.117854593450497,1.892926448824373,-1.4156962924439147,0.36024304283609054,1.857415126186004,-4.650925856899431,4.017311458625931,-0.09328000000000003,0.24458800000000003,-0.767958,0.0016180000000001193,-0.03290499999999996,-0.9145190000000001,0.09489800000000015,0.277493,0.14656100000000005,0.0,0.9779355013166335,single,-0.767958
63,0.525,quasi,-0.011160446417844513,0.0019200768030740352,0.017400696027835127,1.4054925486405043,0.8003865766592172,0.2928805524378949,-0.4269770790831556,-0.7044281771270872,0.9681987279491163,0.027601104044155948,-0.005400216008649055,0.0105604224168972,-19.29538895661393,17.106543442108766,2.260960138850167,3.7809003061501376,-2.472444875868649,-1.6707911120204175,2.3907018354734277,0.08631878441361261,0.20174400096843478,-0.09674500000000008,0.23870199999999997,-0.760035,0.0019409999999999705,-0.03296600000000005,-0.914576,0.09868600000000005,0.271668,0.15454099999999993,0.0,0.9499304428536413,single,-0.760035
64,0.533333,quasi,0.0578423136925328,-0.09036361454458305,0.14484579383174956,-0.5219789639206639,0.314934507549549,0.6121216668992842,-0.4606984279371128,-0.7363494539781562,1.0026401056042336,0.03984159366374679,-0.0008400336013282475,-0.005760230409217186,8.280662439742944,-11.074485941156597,15.29402349740977,-4.04672373142416,-3.830706450386336,4.133130643839859,1.4689175110513564,0.5472437786296471,-1.9585566814010003,-0.10106599999999988,0.23331900000000005,-0.752887,0.001791000000000098,-0.032219999999999915,-0.915831,0.10285699999999998,0.26553899999999997,0.16294399999999998,0.0,0.9328923233302184,single,-0.752887
65,0.541667,quasi,-0.020398368130549818,0.021118310535151504,0.06191504679626446,-0.4711297143931745,0.20536079801499713,0.2220254970357321,-0.47228221742259535,-0.7446604271658398,0.9912407007439318,0.010799136069105207,0.0073194144468282036,-0.024478041756658783,-9.388130768308379,13.376760868698549,-9.950893572772314,-1.389943542774474,-0.9972370035617383,-1.3678191577035863,-3.4848161260668777,0.9790554413434591,-2.245957685078168,-0.10483199999999981,0.22693699999999994,-0.745142,0.002051000000000025,-0.032335,-0.916551,0.10688299999999984,0.25927199999999995,0.17140900000000003,0.0,0.9537708096087122,single,-0.745142
66,0.55,quasi,0.013440537621518246,-0.10776431057240365,-0.15012600504020124,1.23144326840897,-0.2512217754958366,0.6798020375062958,-0.481459258370348,-0.7627505100203744,0.9966398655946205,0.01080043201729811,0.006960278411150039,-0.017160686427457536,4.060831123493091,-15.466533194234325,-25.445944058138103,-1.1012889652889217,-2.1708967784152815,0.6479256991106055,0.00015552000394849114,-0.043098048203307725,0.8781177642147145,-0.10895600000000005,0.22147899999999998,-0.7355860000000001,0.0020290000000000585,-0.031379000000000046,-0.915443,0.11098500000000011,0.252858,0.17985699999999993,0.0,0.9642701507457807,single,-0.7355860000000001
67,0.558333,quasi,0.06204248169925398,-0.10980439217568792,0.15708628345134004,-1.0961725813820034,0.2725214224185156,0.6442888994703433,-0.5059402376095087,-0.7699507980319256,1.0040801632065357,0.001800072002865278,-0.004800192007685152,-0.0025201008040322066,5.832466587991861,-0.24481958517752161,36.866949296957166,-2.9378350221001956,-0.8640691241511117,0.8928714282869666,-1.0800864051881574,-1.411312902776347,1.756940552433153,-0.11368899999999993,0.215978,-0.7285280000000001,0.001527000000000056,-0.030504000000000087,-0.9167730000000001,0.11521599999999999,0.2464820000000001,0.188245,0.0,0.9904791149762705,single,-0.7285280000000001
68,0.566667,quasi,0.01523878089752667,-0.056035517158626306,0.0950323974082084,0.2942635498582907,0.7139684071687694,0.47193776369151197,-0.5027597792176487,-0.791576673866107,0.988120950323969,-0.009359251259901835,0.027117830573561045,-0.036237101031916776,-5.615994816621904,6.451748862138373,-7.445870655523298,0.3816244770650302,-2.594897508301085,-1.914952349720017,-1.3390116705983954,3.8298563212438146,-4.045716370036515,-0.11800599999999983,0.2098479999999998,-0.721085,0.0013220000000000454,-0.029811000000000032,-0.917867,0.11932799999999988,0.23965899999999984,0.196782,0.0,0.9229700669587955,single,-0.721085
69,0.575,quasi,0.02088083523342375,-0.05436217448698438,0.10788431537261386,0.2249622381817917,0.8200018135026079,0.4468745637738807,-0.5361814472579118,-0.8066722668906704,1.0024000960038493,-0.02724108964358326,-0.05136205448219115,0.04176167046681919,0.6770736032517858,0.20080915296315124,1.5422918474025658,-4.010760595255424,-1.8115436246926153,1.7135660242266222,-2.1459064422994825,-9.417962925207357,9.360226988927959,-0.12264800000000009,0.20357899999999995,-0.713631,0.0009209999999999496,-0.02978600000000009,-0.9184180000000001,0.12356900000000004,0.23336500000000004,0.20478700000000005,0.0,0.8806944314680842,single,-0.713631
70,0.583333,quasi,0.025921036841472827,-0.0507620304812265,0.12132485299411735,-0.03242755591296756,0.8623136990332226,0.3707261253887762,-0.5343813752549862,-0.795151806072242,1.0022800912036405,0.002160086403464951,-0.015840633625347468,0.013320532821312795,0.6048483869013628,0.4320345620734267,1.6129290317416818,0.21601728104231827,1.3825105986353465,-0.014401152071138186,3.528282256936048,4.262741012461722,-3.4130730403823684,-0.1273169999999999,0.197376,-0.7062900000000001,0.0007230000000000292,-0.02949500000000005,-0.919318,0.12803999999999993,0.22687100000000004,0.21302799999999988,0.0,0.9653177822714021,single,-0.7062900000000001
71,0.591667,quasi,0.005759539236866767,-0.05795536357091523,0.08711303095752326,0.0984811340488303,0.6880189893277572,0.4695258241018491,-0.5190784737221045,-0.781137508999276,0.978641708663299,-0.05423566114712209,-0.004319654427636754,-0.014518838492920821,-2.419186177658496,-0.8631309202890173,-4.105090237172286,1.8362012878427647,1.681581122266123,-2.836378994521391,-6.7669483502023775,1.3824069111723811,-3.3404573211223187,-0.131691,0.191349,-0.69886,0.0002229999999998622,-0.029047999999999963,-0.920165,0.13191399999999986,0.22039699999999995,0.22130499999999997,0.0,0.9061478256686025,single,-0.69886
72,0.6,quasi,0.10536421456857584,-0.2156486259450456,0.1983679347173924,-1.077538192741674,1.027843596597247,1.7190206274864501,-0.5459018360734643,-0.7964718588743628,0.9932797311892607,0.002880115204611091,-0.01260050402016353,0.0026401056042243353,11.953039161371652,-18.923948442833535,13.35112249608426,-3.2189322394527893,-1.8401955928341402,1.7566329684341564,6.8541673289012,-0.9937417007712532,2.059155657883753,-0.13711800000000007,0.18650900000000004,-0.6922360000000001,-0.0006310000000000482,-0.027355999999999936,-0.9217960000000001,0.13648700000000002,0.21386499999999997,0.22956,0.0,0.9780127611028423,single,-0.6922360000000001
73,0.608333,quasi,0.010320412816516277,-0.056042241689666775,0.08712348493939774,0.08781525891312957,0.7024881019510196,0.4325511631107825,-0.5406216248649901,-0.7615504620184731,0.9882395295811782,0.007200288011514309,-0.015480619224774415,0.004800192007680092,-11.40571243874465,19.153532251935456,-13.349867968078025,0.6336506910445452,4.19073525211683,-0.6048483869053731,0.5184414744873634,-0.3456276496592911,0.2592207372441795,-0.14170900000000008,0.18063000000000007,-0.6847270000000001,-0.0006570000000001297,-0.027017999999999986,-0.922482,0.14105199999999996,0.20764800000000005,0.23775499999999994,0.0,0.9704414158763666,single,-0.6847270000000001
74,0.616667,quasi,0.0005999520038436266,-0.05903527717781854,0.10103191744660597,-0.09591889226219999,0.7182926121441985,0.49658198437133916,-0.5535157187425012,-0.7585793136549046,0.9800815934725288,0.011159107271432841,-0.010079193664503655,-0.00035997120230334514,-1.1663619885616399,-0.3591355277359952,1.6688783905937499,-1.5471674919019838,0.3565092828855897,-0.9788740231160908,0.4750203095654614,0.6481192176950793,-0.6191700515938884,-0.1463270000000001,0.17480000000000007,-0.677401,-0.0005690000000000417,-0.026610000000000023,-0.923327,0.14575800000000005,0.2014100000000001,0.24592599999999998,0.0,0.9749309066285239,single,-0.677401
75,0.625,quasi,-0.036001440057598186,-0.03360134405376897,0.021600864034556248,0.48862127725039556,0.3663135396413469,0.24905576304769766,-0.53930157206288,-0.7391095643825752,0.9696387855514151,-0.006600264010550342,-0.0075603024120873595,0.00024000960038342167,-4.3923427410826426,3.052194062648442,-9.532107693753678,1.7057658321878215,2.336463371214362,-1.2531870780167509,-2.131209802230062,0.30227904145161233,0.07200057634546554,-0.15052100000000013,0.1689210000000001,-0.669501,-0.00032399999999999096,-0.02639299999999989,-0.923505,0.15019700000000014,0.195314,0.254004,0.0,0.9832685208381646,single,-0.669501
76,0.633333,quasi,-0.007080283211332174,-0.1372854914196603,0.08496339853594612,0.7461641550891063,0.8226918286507419,0.7789445498651626,-0.5593423736949487,-0.7285491419656948,0.9731189247569901,0.051482059282345956,-0.04344173766950341,0.035161406456258294,3.4706776486578534,-12.442595387722415,7.603808292498453,-2.404992395544052,1.2673013820809365,0.41763341000539783,6.970157601451584,-4.305944468668654,4.190735252115052,-0.15512300000000012,0.16399399999999997,-0.6621,0.00016399999999983095,-0.02561099999999983,-0.9239200000000001,0.15528699999999995,0.1896049999999998,0.26182000000000005,0.0,0.8733562355827363,single,-0.6621
77,0.641667,quasi,-0.052075833933291085,0.015358771298311584,0.0013198944084453212,-0.9122610245777716,-0.49657037672113036,-0.026758047373902548,-0.5373170146388297,-0.7057835373170118,0.9407247420206387,-0.04379649628029167,-0.016678665706756905,0.016318694504440238,-5.399034163901988,18.31584625845605,-10.036417581893602,2.642831660201468,2.7316540255199264,-3.8869909690846653,-11.432512066551254,3.211311730591152,-2.2609445586534873,-0.15916700000000006,0.1579839999999999,-0.654271,0.0002329999999999277,-0.025878000000000068,-0.923795,0.1594,0.18386199999999997,0.269524,0.0,0.9172921680700907,single,-0.654271
78,0.65,quasi,-0.045841833673359283,-0.01812072482899455,0.05268210728428722,1.0080792508778393,1.1111901091061058,0.303028894182598,-0.5759030361214422,-0.7015480619224761,0.9673586943477747,-0.0008400336013282363,-0.012360494419772447,0.009240369614784635,0.7481099555900367,-4.017700243286451,6.163712093584746,-4.630507798225406,0.5082773784394226,3.196202127341394,5.154981720744421,0.5182012824894323,-0.8494329640772319,-0.16358399999999995,0.1522889999999999,-0.646649,0.000608000000000164,-0.02583000000000002,-0.924157,0.16419200000000012,0.17811899999999992,0.277508,0.0,0.9742408641141729,single,-0.646649
79,0.658333,quasi,-0.014760590423601864,-0.025801032041291038,0.042601704068162424,0.8244827965073427,0.7140049418749222,0.3337802564828296,-0.5172206888275621,-0.6823472938917449,0.8775951038041552,-0.006120244809795237,-0.00972038881555244,0.01044041761670438,3.7298983859063606,-0.9216737324248838,-1.2096967738059385,7.042163361800149,2.3041843310610113,-10.772061747704345,-0.6336506910436877,0.3168253455202246,0.1440115206911985,-0.16777100000000011,0.14681800000000012,-0.639691,0.0006800000000000139,-0.02569599999999994,-0.9244249999999999,0.16845100000000013,0.17251400000000006,0.28473399999999993,0.0,0.9741292918068988,single,-0.639691
80,0.666667,quasi,-0.02075833933285066,-0.03899688024956878,0.09707223422126872,0.49522792808226207,0.9424304177873216,0.4646633907953017,-0.5813534917206565,-0.6099112071034476,0.938444924406043,-0.008519318454542084,-0.007919366450698465,0.014158867290616649,-0.719672295326224,-1.5833751149841182,6.535940743113256,-7.695320721513551,8.691635083788903,7.301394360677628,-0.28786580810497103,0.21610539535084722,0.44617826660814014,-0.17244300000000012,0.14205999999999985,-0.632679,0.0007819999999998384,-0.025437000000000154,-0.925116,0.17322499999999996,0.167497,0.29243700000000006,0.0,0.9694600136949912,single,-0.632679
81,0.675,quasi,-0.03468138725548812,-0.05208208328333657,0.08400336013439577,0.5738951198086252,0.8772556503037207,0.49150761694288125,-0.49057962318490966,-0.5828633145325656,0.8395535821432825,-0.001200048001901287,-0.00612024480976851,0.012960518420736413,-1.6708325840198486,-1.5702871755391499,-1.5683276235296884,10.89329995628783,3.245876943583573,-11.867435768961972,0.8783475882204208,0.2159032330409154,-0.1438076166902953,-0.176242,0.137637,-0.6263829999999999,0.0010609999999999786,-0.02505399999999991,-0.925708,0.177303,0.16269099999999992,0.29932500000000006,0.0,0.9760282255400803,single,-0.6263829999999999
82,0.683333,quasi,-0.002400096003855899,-0.08784351374054501,0.17544701788072575,0.783525991329635,1.5251950612520528,0.7178155329818142,-0.6207848313932727,-0.645265810632427,0.9656786271450911,0.0012000480019013031,-0.010200408016334279,0.015600624024961755,3.873909906592165,-4.291543316597716,10.973677876674765,-15.625249995003504,-7.488599075946484,15.135610824650163,0.2880230413779686,-0.489639170354711,0.3168253455208648,-0.18139499999999997,0.132992,-0.6197980000000001,0.0010909999999999531,-0.024407000000000068,-0.9270400000000001,0.18248599999999993,0.15739900000000007,0.307242,0.0,0.9688699899670405,single,-0.6197980000000001
83,0.691667,quasi,-0.07043436525076659,0.051115910727145934,-0.1366690664746811,-0.4069309656864378,-1.0272651100388508,0.012905116986620963,-0.6447084233261376,-0.5377969762419081,0.8281737461003079,0.004559635229206173,-0.003839692824577845,0.008639308855290993,-8.16345923289059,16.673797032360195,-37.4509340479247,-2.870601383833068,12.895228508581484,-16.49926578411113,0.4031182178191558,0.7632247650295639,-0.8352909970807187,-0.18618100000000015,0.12808399999999986,-0.6117570000000001,0.0017160000000000508,-0.024865000000000137,-0.925829,0.1878970000000002,0.152949,0.3140719999999999,0.0,0.9825062573164922,single,-0.6117570000000001
84,0.7,quasi,-0.009360374414979384,-0.032521300852050246,0.0801632065282621,-0.1748426157310033,0.5517669973877293,0.5961250944574455,-0.5891035641425507,-0.5910236409456514,0.8301932077283143,0.00444017760708545,-0.0008400336013282475,0.007920316812673005,7.329172067177219,-10.0368668641782,26.0209135968973,6.672850016031134,-6.387455262659756,0.24234508916433312,-0.014335488074009943,0.35997350573018416,-0.08628249641401581,-0.19101199999999996,0.12342999999999993,-0.605507,0.001830999999999916,-0.024600999999999873,-0.926431,0.19284299999999988,0.1480309999999998,0.320924,0.0,0.9848020238877622,single,-0.605507
85,0.708333,quasi,0.03864154566181833,-0.124444977799106,0.2899315972638862,0.12083446613957136,2.1882603628641126,1.0735265013062996,-0.6038641545661978,-0.5726629065162581,0.816152646105841,0.002280091203647086,-0.00012000480020878121,0.00708028321132801,5.760460827648807,-11.031282484946042,25.17321381682746,-1.7713417045058224,2.2033762665778553,-1.684934792088466,-0.25922073724209227,0.08640691241083202,-0.10080806448397835,-0.19636600000000004,0.11969499999999988,-0.601122,0.0015279999999999738,-0.023565000000000058,-0.9287880000000001,0.19789400000000001,0.14325999999999994,0.327666,0.0,0.9876011170528198,single,-0.601122
86,0.716667,quasi,-0.25881929445643725,0.21430285577154448,-0.4604031677465743,0.23134494837713276,-3.2235843013690966,-1.2274916881384812,-0.6070314374849876,-0.5536357091432519,0.7955363570914296,0.001799856011530856,0.0,0.003359731221502284,-35.692445418556915,40.646488309412995,-90.03296916372148,-0.38004354677102664,2.2830810382776616,-2.473756781186864,-0.05762361316489396,0.014399424071127945,-0.4464305243371368,-0.199268,0.11329499999999992,-0.590655,0.0037000000000000366,-0.025351000000000123,-0.924923,0.20296800000000004,0.13864600000000005,0.334268,0.0,0.9936475561257933,single,-0.590655
87,0.725,quasi,-0.04320172806911307,-0.05424216968680225,-0.00216008640346498,0.1489796141610426,-0.021569809421492316,0.6033306325212139,-0.5925837033481258,-0.532581303252128,0.7581903276131103,-0.0009600384015370304,0.0002400096003909192,0.0032401296051841467,25.875142972198027,-32.22669212268681,54.99136941595026,1.7337974483213567,2.526629772125769,-4.481702805510568,-0.33120057759125304,0.02880230413907613,-0.014352768068899345,-0.20384599999999997,0.1093090000000001,-0.584319,0.0040519999999999445,-0.024896999999999947,-0.924878,0.20789799999999992,0.13420600000000005,0.34055899999999995,0.0,0.9943535364560598,single,-0.584319
88,0.733333,quasi,0.021960878435115978,-0.23448937957518337,0.8459138365534685,3.299818055520657,6.9057504430263545,1.6881041948668258,-0.6097443897756021,-0.5174606984279462,0.746069842793712,0.00012000480018213478,0.0018000720028919003,0.0024000960038408786,7.819825573530394,-21.630530407821954,101.77294167249849,-2.059364745886978,1.8145451607082452,-1.4545163589821508,0.1296103686210441,0.1872149768991929,-0.10080806448377111,-0.2091099999999999,0.10695100000000002,-0.585151,0.00387000000000004,-0.022927999999999837,-0.931907,0.21297999999999995,0.12987899999999986,0.34675600000000006,0.0,0.9949958014307665,single,-0.585151
89,0.741667,quasi,-0.040196784257256556,-0.03347732181424524,0.0849532037436927,0.4825076159523531,0.540988004516252,0.5750420537412609,-0.6102711783057299,-0.5004799616030656,0.7165826733861305,-0.00035997120230084735,0.0037197024237931847,-0.00035997120230417775,-7.458322857256166,24.11951736992312,-91.30797129946966,-0.0632095668499854,2.037525416952321,-3.538177274727829,-0.057592512896926434,0.23033722353027303,-0.33118157021179173,-0.21386099999999986,0.10305900000000001,-0.579887,0.004202000000000039,-0.022618000000000027,-0.932618,0.2180629999999999,0.12567700000000004,0.3527309999999999,0.0,0.9937427054447214,single,-0.579887
90,0.75,quasi,-0.026401056042228012,-0.1174846993879826,0.22764910596424212,2.2338732832970183,2.0701307264187845,0.8477057750065253,-0.6127445097803953,-0.4636985479419265,0.6948277931117236,-0.006960278411123393,0.004440177607112037,-0.0028801152046085544,1.6555536079477362,-10.081288560390856,17.12419323419523,-0.2968116494258287,4.413946197184564,-2.6106900605312338,-0.7920685478006141,0.0864604804174786,-0.30242937745162196,-0.21874700000000002,0.10017399999999999,-0.575994,0.0043640000000000345,-0.0216019999999999,-0.934539,0.22311100000000006,0.12177599999999988,0.358545,0.0,0.9854268400880566,single,-0.575994
91,0.758333,quasi,-0.14040561622466224,-0.06288251530060804,0.013320532821309464,2.2708099300972475,1.5105625936421285,0.4836982741661303,-0.6150246009840423,-0.46369854794189985,0.6683067322692868,-0.006360254410186072,0.0075603024120873595,-0.003480139205567525,-13.681094465670679,6.552524191452578,-25.72045759545563,-0.27362188931321474,3.1975702137289866e-12,-3.1826546072766906,0.07200576034289191,0.37442995379518895,-0.07200576034548999,-0.22270199999999996,0.09683400000000009,-0.5705359999999999,0.005481000000000069,-0.021015000000000006,-0.934679,0.22818300000000002,0.11784900000000009,0.3641430000000001,0.0,0.9825419250126806,single,-0.5705359999999999
92,0.766667,quasi,-0.05411567074633811,-0.030357571394295676,0.06731461483081796,1.285709146277258,0.8123157152760702,0.48600887049834135,-0.6274298056155457,-0.45428365730742604,0.6624670026397924,-0.008519318454515555,0.009239260859143892,-0.005879529637629075,10.353965140187741,3.9026810542731636,6.478771539417904,-1.48850547534239,1.129696500416831,-0.7007114986194445,-0.2590669599627424,0.20145889693503027,-0.2879038195418243,-0.2274799999999999,0.09330100000000008,-0.5655760000000001,0.005861000000000116,-0.020684999999999842,-0.935289,0.23334100000000002,0.11398599999999992,0.36971299999999996,0.0,0.9768752419284417,single,-0.5655760000000001
93,0.775,quasi,-0.06684267370693824,0.008280331213260108,0.03564142565702514,0.6928712967703183,0.42867646835786694,0.3888072438436255,-0.6321852874114998,-0.4395775831033189,0.6540261610464404,-0.007800312012478276,0.010800432017271462,-0.00720028801152097,-1.5273014473299023,4.6367337822579655,-3.8009347382446528,-0.5706806427401976,1.7647994964727076,-1.0129415088625915,0.08628422441344971,0.1873480328966235,-0.15849734476081714,-0.23219100000000004,0.08956900000000001,-0.560423,0.006353000000000053,-0.020664000000000016,-0.935646,0.2385440000000001,0.11023300000000003,0.375223,0.0,0.9747601314770236,single,-0.560423
94,0.783333,quasi,-0.12000480019202221,0.028321132845302424,-0.15552622104883904,-0.09161775742822828,-1.4242407645143633,0.12197204012986049,-0.6482659306372203,-0.4534981399255984,0.6429857194287799,-0.006720268810759212,0.01068042721708947,-0.007440297611904491,-6.379710366624801,2.404992395540922,-22.941035246113756,-1.929754377261562,-1.6705336400191555,-1.3249059903588853,0.12961036862103364,-0.014401152067921863,-0.0288023041381883,-0.23659299999999983,0.08555400000000013,-0.5537690000000001,0.007297000000000109,-0.020810999999999913,-0.934412,0.24388999999999994,0.10636500000000004,0.38064299999999995,0.0,0.9755850929540691,single,-0.5537690000000001
95,0.791667,quasi,-0.09467242620589425,0.029277657787392747,-0.06335493160548115,-0.1960504689154344,-0.7518936788053169,0.2897332425358837,-0.6377489800816103,-0.42860571154308896,0.6124310055195534,-0.005279577633781215,0.009719222462202678,-0.006719462443004568,3.0396417069987725,0.11477381114594618,11.059669959606094,1.261933112024225,2.9868524577044933,-3.6662723673177644,0.1728691117084217,-0.11533534375891347,0.0864933008039258,-0.24111900000000008,0.08173799999999987,-0.548137,0.008042000000000105,-0.020974000000000048,-0.93394,0.2491610000000002,0.10271199999999991,0.385803,0.0,0.9784304483650463,single,-0.548137
96,0.8,quasi,-0.07512300492019834,-0.0819632785311396,-0.1006840273610848,1.4966598272639637,-0.301766946845579,0.39957681389155103,-0.6353054122164752,-0.4222968918756526,0.595583823352931,-0.004080163206538986,0.009360374414979259,-0.006840273610943756,2.3460243952593096,-13.34944633607727,-4.479670677499518,0.29323987341114843,0.7570886436381044,-2.0217427297038677,0.1439354886886144,-0.04306348820633844,-0.014497920069505269,-0.24578699999999998,0.07890200000000003,-0.542335,0.00863400000000003,-0.020213000000000036,-0.933158,0.254421,0.09911500000000006,0.39082300000000003,0.0,0.9795160168225427,single,-0.542335
97,0.808333,quasi,-0.0558022320892766,-0.01284051362055445,0.0271210848433878,0.42476773868285733,0.22787310220881957,0.4095152178965244,-0.6438257530301348,-0.4220568822753206,0.5763830553222183,-0.003600144005757202,0.010560422416880688,-0.009120364814593461,2.3185854831299553,8.295063591813967,15.337226953614998,-1.0224817969110378,0.02880230413200456,-2.304184331058786,0.05760460827814572,0.14401152068900036,-0.2736218893135397,-0.2506870000000001,0.07549199999999989,-0.537758,0.009068999999999994,-0.02001800000000009,-0.93346,0.2597560000000001,0.09550999999999998,0.395702,0.0,0.9759823784115114,single,-0.537758
98,0.816667,quasi,-0.13786897048236835,0.13702903767698196,0.052195824334048464,-4.650398625526237,-1.6975412633836475,-0.20231026432215715,-0.6379889608831264,-0.4119270458363056,0.5619150467962511,-0.004079673626120621,0.008519318454542084,-0.007559395248379306,-9.847220829504575,17.982907523102384,3.0087280406360057,0.7003590289186874,1.2154831340310674,-1.736022141344742,-0.057538951327503675,-0.24491288245003456,0.18730136383659027,-0.25485500000000005,0.07091700000000012,-0.5335099999999999,0.01018399999999997,-0.021088999999999913,-0.933958,0.265039,0.09200600000000003,0.400448,0.0,0.9798362963370383,single,-0.5335099999999999
99,0.825,quasi,-0.06060242409696175,-0.014280571222846672,-0.007200288011514404,-0.5791241908841618,-0.451746584270259,0.308715986068829,-0.6378255130205217,-0.41977679107164684,0.5460218408736465,-0.003120124804975364,0.005760230409222182,-0.004920196807873117,9.272356460507295,-18.157879383154928,-7.127818594211378,0.019614528093687102,-0.9420071085252948,-1.9072610011526252,0.11515046455601419,-0.3311038095907749,0.3167164815200063,-0.25966500000000003,0.0675380000000001,-0.5288999999999999,0.010663000000000089,-0.020921999999999885,-0.933939,0.2703280000000001,0.08845999999999998,0.40503900000000004,0.0,0.9863451504550627,single,-0.5288999999999999
100,0.833333,quasi,-0.06696267850714702,-0.022320892835715672,-0.05724228969159471,-0.5738344198651688,-0.7851704722575478,0.25457974876296374,-0.6410656426256973,-0.4014160566422824,0.5343813752550062,-0.000720028801172748,0.004560182407294172,-0.005040201608063513,-0.763261059664615,-0.9648771886318213,-6.005280412826124,-0.38883110586530645,2.2033762665743843,-1.3969117507068578,0.2880230413779678,-0.1440115206921883,-0.014401152068930176,-0.26444899999999993,0.06437899999999996,-0.5239699999999999,0.011214999999999975,-0.020697999999999883,-0.9335039999999999,0.2756639999999999,0.08507699999999985,0.40953399999999995,0.0,0.9886083196400668,single,-0.5239699999999999
101,0.841667,quasi,-0.06515478761698537,-0.020398368130549818,-0.0737940964722722,-0.8651951992612227,-0.9387880406368334,0.2875042844699334,-0.6479481641468718,-0.4130069594432348,0.5107991360691119,-0.00011999040075806644,0.0038396928245512016,-0.0034797216222703414,0.21692955245519938,0.23068450985911207,-1.98605792904696,-0.8258365156196869,-1.3907970723484864,-2.829642330920821,0.07199884814190989,-0.08645183378245316,0.1872426188856683,-0.26930600000000005,0.06110700000000002,-0.5190980000000001,0.011757000000000017,-0.02049600000000007,-0.932918,0.28106300000000006,0.08160300000000009,0.41381999999999997,0.0,0.9913612466737125,single,-0.5190980000000001
102,0.85,quasi,-0.0739229569182714,-0.04116164646585688,-0.09768390735629291,-0.7934562075778626,-1.1513870564467856,0.24999487673774126,-0.6620664826593117,-0.42433697347894106,0.4978999159966394,0.0006000240009639748,0.003480139205575066,-0.0038401536061447904,-1.0522224050505353,-2.4916930679595883,-2.8668919817617824,-1.6942659921324805,-1.359656070527586,-1.5479683274298068,0.0864051844140223,-0.04314816020354484,-0.043253568207662574,-0.2742070000000001,0.05791400000000002,-0.514135,0.012378,-0.02012400000000003,-0.9321360000000001,0.2865850000000001,0.07803800000000005,0.41800100000000007,0.0,0.9913048261453231,single,-0.514135
103,0.858333,quasi,0.05544221768870281,-0.042121684867393344,-0.07044281771270872,-0.8616546421923348,-1.0571141103634085,0.29727677753259385,-0.6584663386535458,-0.42121684867393344,0.483019320772829,0.002640105604220137,0.0003600144005730508,-0.0009600384015361848,15.524441930514062,-0.1152092165530377,3.2690615196908777,0.432034562074391,0.3744299537990646,-1.7857428565715048,0.2448195851741454,-0.37442995379839217,0.3456276496590176,-0.28015600000000007,0.05475500000000011,-0.5095230000000001,0.011938000000000004,-0.019770000000000065,-0.9315570000000001,0.2920940000000001,0.07452500000000017,0.422034,0.0,0.9952796416971923,single,-0.5095230000000001
104,0.866667,quasi,0.060475161987048574,-0.08099352051835673,0.20218382529397003,-0.2744921816301134,1.3240592984696344,0.12105932567198721,-0.8389728821694177,-0.4457643388529105,0.53503719702424,0.0032397408207342692,0.0008399328053864059,-0.0021598272138225686,0.6039050034012228,-4.664247138344566,32.71258015438928,-21.659052497704938,-2.9454631844225103,6.241645818503878,0.07195046994410077,0.05758560172946459,-0.14396314042313302,-0.287652,0.051714999999999955,-0.506749,0.011460999999999943,-0.019087999999999994,-0.93326,0.29911299999999996,0.07080299999999995,0.426511,0.0,0.9933612540305949,single,-0.506749
105,0.875,quasi,-0.2329293171726824,-0.0322812912516589,-0.24672986919476037,-1.2027993431683304,-2.6166100164668715,-0.28479455966578743,-0.7125885035401385,-0.43153726149044974,0.43981759270370985,0.0033601344053662383,0.002640105604220137,0.0,-35.20994589700344,5.8457013400573175,-53.87179821057585,15.166732104797633,1.7073175761983321,-11.426809590847206,0.014447808068158948,0.21602937703512823,0.25918963324403693,-0.29164900000000005,0.0483880000000001,-0.501028,0.013429999999999831,-0.018796999999999953,-0.931204,0.3050789999999999,0.06718500000000005,0.430176,0.0,0.9928779175908149,single,-0.501028
106,0.883333,quasi,-0.054962198487947624,-0.06396255850232718,-0.034801392055683576,-0.2772941623496939,-0.16050929390348495,0.2870169320449062,-0.672266890675637,-0.39169566782670345,0.3934957398295887,0.0019200768030740352,0.0015600624025009842,0.0003600144005763816,21.356908518508824,-3.801904146246028,25.43243455407127,4.838787095223959,4.781182486949013,-5.558844698682464,-0.17281382482805677,-0.1296103686210426,0.04320345620741391,-0.2967930000000001,0.04565700000000006,-0.49745900000000004,0.013903999999999916,-0.018251000000000017,-0.930911,0.310697,0.06390800000000008,0.433452,0.0,0.9958333000007925,single,-0.49745900000000004
107,0.891667,quasi,-0.044036477081834446,-0.05267578593713471,-0.03683705303576421,0.006521190020603281,0.08500673543654132,0.18766486247249714,-0.6588672906167439,-0.3995680345572443,0.3702903767698645,0.0025197984161325748,0.0026397888168906425,0.0007199424046075229,1.3109816901983729,1.3543043634740262,-0.24425977682753156,1.6078233811966949,-0.9446084389897905,-2.7844208135018405,0.07196083670008915,0.12955680518234514,0.0431879054513011,-0.301917,0.04276600000000008,-0.49406599999999995,0.014291999999999971,-0.017789999999999973,-0.9305979999999999,0.31620899999999996,0.060556000000000054,0.436532,0.0,0.9938004959603213,single,-0.49406599999999995
108,0.9,quasi,0.024840993639753676,-0.08796351854072598,0.19824792991719428,1.3678608123400662,3.0453323678716155,0.40775559365493125,-0.6765870634825403,-0.37909516380656677,0.3446537861514429,0.0016800672026831191,0.0033601344053662383,0.00024000960038342167,8.265627111675007,-4.2346973003229476,28.211326407411196,-2.1264578022076477,2.4568427637918475,-3.0765139347679704,-0.10077177648499365,0.0864449284142077,-0.05759424027650297,-0.3077620000000001,0.04033999999999982,-0.49284599999999995,0.014098999999999862,-0.017029000000000183,-0.932248,0.32186099999999995,0.057369,0.439402,0.0,0.9937259941832427,single,-0.49284599999999995
109,0.908333,quasi,0.15000600024000776,-0.16224648985959825,0.5120604824193039,0.9340071080802079,4.023992890915647,0.5817098469655715,-0.6475459018360741,-0.37165486619463983,0.28057122284891733,0.00216008640346498,0.00312012480500201,0.0007200288011527728,15.020401608094952,-8.914313130789985,37.65901266075993,3.4850788007280045,0.8928714282883723,-7.690215204911332,0.05760460827815496,-0.02880230413587308,0.05760460827665372,-0.314408,0.038594999999999935,-0.49477499999999996,0.012866999999999962,-0.01565100000000008,-0.9365089999999999,0.327275,0.054246000000000016,0.44173399999999996,0.0,0.9935623517182746,single,-0.49477499999999996
110,0.916667,quasi,0.25857931365489445,-0.21766258699303678,0.8917686585073119,2.597575914038523,8.842267656591925,0.7597333960693851,-0.6873050155987415,-0.37449004079672493,0.27957763378929457,0.0014398848092033701,0.0028797696184333834,-0.00011999040076805765,13.027755389355155,-6.6493997040362505,45.56133622366272,-4.770711994560485,-0.3401937367512693,-0.11922114946277425,-0.0864172779291582,-0.02884031516302194,-0.10079424069124358,-0.3222909999999999,0.03728799999999999,-0.49987699999999996,0.010723999999999956,-0.013813000000000075,-0.943942,0.33301499999999984,0.05110100000000006,0.444065,0.0,0.9946301409558891,single,-0.49987699999999996
111,0.925,quasi,0.10512420496821016,-0.11952478099123878,0.2941317652706073,1.358693655790765,4.047556594415289,0.5525752764836844,-0.6743069722788932,-0.36781471258851345,0.2320892835713475,0.0013200528021367149,0.0004800192007551856,0.0013200528021117337,-18.41534965638829,11.777007800527732,-71.71929596024268,1.5598275914854391,0.8010714278424884,-5.698829979352798,-0.014380416064641157,-0.2879815693841579,0.17281209682944743,-0.328786,0.03521899999999989,-0.5003939999999999,0.009859000000000062,-0.012813000000000185,-0.946382,0.3386450000000001,0.048032000000000075,0.44598800000000005,0.0,0.9967873958149684,single,-0.5003939999999999
112,0.933333,quasi,0.018120724828994794,-0.21060842433699617,0.2641305652226257,3.1458849286391817,0.37657386209633137,-0.362450010452259,-0.6684267370694978,-0.4076563062522651,0.1998079923196846,0.0006000240009373283,-0.00048001920075519197,0.0020400816032645243,-10.440835250115944,-10.930474420467805,-3.600288017278519,0.70565645138551,-4.781182486949723,-3.8739099065958476,-0.08640691242042399,-0.11520921654990836,0.08640691241483225,-0.3345070000000001,0.03357699999999997,-0.5009300000000001,0.00971299999999986,-0.011061999999999905,-0.948566,0.34421999999999997,0.04463899999999987,0.4476359999999999,0.0,0.9963666742420672,single,-0.5009300000000001
113,0.941667,quasi,-0.09119270458364388,-0.00035997120230084253,-0.08183345332374205,0.5060991025569017,-2.3243671554180034,-0.5459499675162914,-0.6612670986321096,-0.37209023278135045,0.1593472522198207,-0.000479961603058909,0.0010799136069025276,0.0014398848092150266,-13.116562204540179,25.22779615247105,-41.51236123666487,0.8590878854557416,4.267587409516967,-4.854900419950034,-0.12958790544711174,0.18717696276190396,-0.07201785385763057,-0.33925800000000006,0.030479000000000145,-0.49892000000000003,0.010469000000000062,-0.011050000000000004,-0.947872,0.3497270000000001,0.04152900000000015,0.448952,0.0,0.9968954134276882,single,-0.49892000000000003
114,0.95,quasi,-0.2458898355934221,0.12156486259452322,-0.3854554182167313,-1.4970534123350547,-3.7369185331281987,-0.2086727227088683,-0.689907596303859,-0.3859354374175131,0.15528621144846144,0.0002400096003909192,-0.0014400576022922224,0.0012000480019204553,-18.56439829710544,14.63156531823175,-36.43609323088828,-3.436997200497975,-1.6614910159801757,-0.4873443863385704,0.08640000041399673,-0.30240864144903074,-0.028781568138074337,-0.3429580000000001,0.026249999999999885,-0.494414,0.012520000000000087,-0.012075000000000058,-0.94465,0.3554780000000002,0.03832499999999994,0.45023599999999997,0.0,0.996850270861243,single,-0.494414
115,0.958333,quasi,-0.1886475459018241,0.11040441617662379,-0.3361334453378185,-1.6825630031638819,-3.2084114289254586,-0.03169876183216389,-0.6677067082683162,-0.38497539901594435,0.11508460338414006,0.0008400336013282363,0.0,0.0013200528021117337,6.8693495369732105,-1.3393071424336231,5.918873500409524,2.664213132790432,0.11520921655691475,-4.824385943156272,0.07200576034289148,0.1728138248280591,0.01440115206903611,-0.3469500000000001,0.022122000000000197,-0.4906539999999999,0.014098999999999862,-0.012994999999999868,-0.941838,0.36104899999999995,0.035117000000000065,0.45118400000000003,0.0,0.9973922147265226,single,-0.4906539999999999
116,0.966667,quasi,-0.02051835853133453,-0.220902327813771,0.19858411327094558,3.2274807812527624,-0.48947553895848417,-0.39754049369884376,-0.6821454283657183,-0.37461003119750963,0.08555315574753518,0.00035997120230084253,0.0,0.0025197984161267127,20.173888573372725,-39.753628988527986,64.1609741551188,-1.732507811063354,1.243744638641066,-3.543490237173585,-0.057602879652914586,0.0,0.14395795704523276,-0.3524639999999999,0.02084100000000011,-0.49159600000000003,0.01427299999999998,-0.011153999999999886,-0.943472,0.36673699999999987,0.031994999999999996,0.45187599999999994,0.0,0.9957576986969856,single,-0.49159600000000003
117,0.975,quasi,-0.33997359894394447,0.0975639025561241,-0.5383415336613502,-2.856146694272712,-1.7634491466218865,1.456833491021208,-0.6667466698668147,-0.37333493339734963,0.028081123244938153,-0.001320052802110086,0.0003600144005730556,0.00036001440057555366,-38.336162296005384,38.2174763434415,-88.43461501647697,1.8479249368659232,0.15301785673347032,-6.896919777102791,-0.20161094496711193,0.04320345620701535,-0.2591844492441112,-0.35518700000000014,0.01691699999999985,-0.486876,0.01709499999999986,-0.011964000000000086,-0.938983,0.372282,0.028880999999999935,0.45210700000000004,0.0,0.9976419404531124,single,-0.486876
118,0.983333,quasi,-0.19752790111604818,0.2618504740189484,-0.46621864874595115,-3.778121754794484,-2.3290936320787012,0.510061300232354,-0.6751470058802215,-0.3630145205808284,-0.013080523220931872,-0.0013200528021100684,0.0004800192007551856,0.0010800432017283122,17.094167506047725,19.71517718262614,8.655092393543589,-1.0080806448345965,1.2384990779456615,-4.939595159710771,2.1077733342451817e-15,0.014401152067938254,0.08640691241482724,-0.359167,0.011709999999999887,-0.4831,0.018729999999999913,-0.014142000000000099,-0.9350890000000001,0.3778969999999999,0.025851999999999986,0.4519890000000001,0.0,0.9970469172646519,single,-0.4831
119,0.991667,quasi,-0.021478281737479274,-0.05099592032638855,-0.03635709143269198,-0.1866426955717716,-0.5219203492512561,0.25333015180346974,-0.6891048716102816,-0.32805375569952094,-0.05267578593713471,-0.0033597312214923374,0.0002399808015427793,0.0010799136069117006,21.124264384277645,-37.538564236301745,51.57926053674845,-1.674809902814994,4.194956189261776,-4.751051441829022,-0.2447418309793953,-0.028802303721191223,-1.5550133982663663e-05,-0.3647309999999999,0.009401000000000215,-0.483236,0.018881000000000148,-0.013714999999999922,-0.934777,0.38361200000000006,0.023116000000000136,0.45154099999999997,0.0,0.9941047104339866,single,-0.483236
120,1.0,quasi,-0.008880355214197428,-0.08316332653304088,0.09144365774631433,-0.21258819614346522,0.433205063616322,0.1660773289739983,-0.6737069482779292,-0.388455538221546,-0.07284291371653794,-0.0016800672026831191,0.0014400576023188495,0.00048001920076767607,1.5118116552600256,-3.8602431545244453,15.336703369615476,1.8478247128707888,-7.248503842796688,-2.420152139613961,0.20156774496690402,0.1440149766921955,-0.07199020834561647,-0.370271,0.006856999999999891,-0.48460499999999995,0.018941000000000097,-0.013009999999999966,-0.935535,0.3892120000000001,0.019866999999999857,0.45093000000000005,0.0,0.9962262565974319,single,-0.48460499999999995
121,1.008333,quasi,-0.03600144005759867,-0.07680307212288248,0.09324372974919413,0.04503263877090455,0.8877847434289975,0.43331012311150285,-0.6731069242769743,-0.3465738629545215,-0.12876515060602428,-0.002760110404428955,0.0016800672026831415,-0.00024000960038342487,-3.2546603676228836,0.7632610596614018,0.21601728103682033,0.07200576034500668,5.026002072125867,-6.710936864212991,-0.12961036862424644,0.02880230413588073,-0.08640691241462949,-0.37558,0.004608999999999863,-0.48645499999999997,0.019217999999999957,-0.012356000000000034,-0.936314,0.394798,0.016964999999999897,0.449859,0.0,0.9945997839913459,single,-0.48645499999999997
122,1.016667,quasi,-0.040316774658040726,-0.06311495080393838,0.08975281977441388,0.1137489582706467,0.9702083574992688,0.3795953638908059,-0.6645068394528438,-0.34101271898248015,-0.17830573554116716,-0.004199664026878687,0.0033597312214922927,-0.0013198944084478015,-0.5177987281547902,1.6424431628202545,-0.41887568691867416,1.03192762468567,0.6672838939334461,-5.944394640645848,-0.1727326160846798,0.20154355877239483,-0.12957581090285197,-0.38078199999999995,0.0022929999999998785,-0.48868900000000004,0.019519000000000064,-0.01180200000000009,-0.937073,0.400301,0.014094999999999969,0.448384,0.0,0.9907703537643362,single,-0.48868900000000004
123,1.025,quasi,-0.0943237729509133,-0.008400336013442354,-0.13404536181447796,-0.4713579184020969,-0.6183667125414666,0.12398123585448671,-0.6641065642625679,-0.3373334933397243,-0.2132485299411897,-0.004320172806903313,0.0025201008040380353,0.0001200048001921288,-6.481099039106333,6.566016415516204,-26.856856064909863,0.04803494423088573,0.44152473812023163,-4.193303060125149,-0.014461632068237945,-0.10075968048173108,0.1727948168294664,-0.38552999999999993,-0.00044800000000000395,-0.4893489999999999,0.020269000000000092,-0.011711000000000027,-0.935955,0.405799,0.011263000000000023,0.44660600000000006,0.0,0.9916618010377791,single,-0.4893489999999999
124,1.033333,quasi,-0.046201848073905066,-0.05844233769352186,-0.002760110404415558,0.33536166945259344,0.515254246761156,0.12200238402395484,-0.653666146645852,-0.32029281171246676,-0.2686907476299061,-0.007080283211332079,0.004440177607111978,-0.0010800432017282976,5.774861979720076,-6.005280412825949,15.754860363621756,1.2529002300150842,2.04496359381462,-6.653332255936086,-0.3312264975913498,0.23041843310619334,-0.14401152069127632,-0.39059200000000005,-0.00262999999999991,-0.491565,0.02059499999999992,-0.011186999999999836,-0.9359409999999999,0.41118699999999997,0.008556999999999926,0.44437599999999994,0.0,0.9859552223176322,single,-0.491565
125,1.041667,quasi,-0.07679385649150565,-0.03611711063113636,-0.04607631389488208,0.09827981977015708,0.2624391882417371,0.11510268247660094,-0.6437485001200104,-0.32001439884809524,-0.3084953203743747,-0.014878809695226224,0.003719702423793234,-0.001799856011518415,-3.6707473503241137,2.6788129424509153,-5.197528616566756,1.190022381310509,0.03340687117488958,-4.776166636005446,-0.935748318201859,-0.08645010598977172,-0.08637062752461376,-0.3953169999999999,-0.0049960000000000004,-0.493752,0.021111000000000102,-0.010855000000000059,-0.9355720000000001,0.416428,0.005859000000000059,0.44182000000000005,0.0,0.9742633720950444,single,-0.493752
126,1.05,quasi,-0.03804152166085385,-0.03420136805473248,-0.08256330253210246,0.07946887900052006,-0.44636366886526835,-0.2304753574140535,-0.6423856954277988,-0.2961718468738862,-0.3582143285731385,-0.019320772830922227,0.004920196807867157,-0.001680067202688093,4.650466198326067,0.22989830510066572,-4.37861378101761,0.1635431047895827,2.8612206857324636,-5.966519644637336,-0.5330568985594535,0.1440650886924159,0.01437523206892114,-0.40035299999999996,-0.0071790000000000465,-0.496049,0.021266999999999925,-0.01052900000000001,-0.934898,0.4216199999999999,0.003349999999999964,0.438849,0.0,0.9666532016688509,single,-0.496049
127,1.058333,quasi,-0.04368174726989491,-0.04224168966757604,-0.04116164646585688,0.28193016931420783,0.04842970038927991,-0.06704233098772314,-0.6331453258130453,-0.2990519620784785,-0.40237609504380484,-0.010200408016307632,0.005400216008649127,0.0008400336013440688,-0.6768541472508234,-0.9648771886287816,4.96839746384807,1.1088887093188025,-0.34562764965706594,-5.299623961438465,1.0944875572560517,0.05760460827816805,0.30242419345160027,-0.405265,-0.009319000000000077,-0.49905900000000003,0.021546000000000065,-0.01013200000000003,-0.934548,0.42681100000000005,0.0008129999999999526,0.435489,0.0,0.9807129639761567,single,-0.49905900000000003
128,1.066667,quasi,-0.055435565154782686,-0.033837293016572276,0.010679145668347139,-0.007753069435881082,0.39184449258062,0.027303385935292728,-0.6288696904247674,-0.30381569474441555,-0.44120470362370506,-0.008159347252214599,0.008039356851456533,-0.001679865610751142,-1.4103453185610373,1.008446922366655,6.22039742431049,0.513035203777043,-0.5716021917371025,-4.65906030476361,0.24490769907523605,0.31667156741149344,-0.30236371635411463,-0.4100440000000001,-0.01156899999999994,-0.5028250000000001,0.02194000000000007,-0.009782999999999875,-0.934651,0.43198400000000015,0.0017860000000000653,0.43182599999999993,0.0,0.9807049117766069,single,-0.5028250000000001
129,1.075,quasi,-0.06252250090003582,-0.025201008040300416,0.008040321612855976,-0.09147904221984991,0.4382195531009125,0.0471686515902252,-0.6031441257650331,-0.3498139925597057,-0.4633385335413463,-0.0033601344053929296,0.012240489619590475,0.0026401056042235026,-0.850466308082707,1.0363956529787517,-0.31667155352108334,3.087191246818017,-5.520016538496407,-2.6561658367504424,0.575928578761756,0.5041560984200144,0.5184172824882616,-0.41454900000000006,-0.01427400000000012,-0.506753,0.022432999999999925,-0.009471000000000007,-0.934696,0.436982,0.004803000000000113,0.42794299999999996,0.0,0.9783917295314541,single,-0.506753
130,1.083333,quasi,-0.0866434657386414,-0.032521300852049385,-0.045481819272758975,-0.06793595638367513,0.0003388972118379753,0.060046785341272335,-0.6242649705988045,-0.2648505940237647,-0.5557422296891774,-0.017160686427457307,0.008280331213233351,-0.0014400576023038418,-2.894631565895255,-0.8784702762209098,-6.422913822826595,-2.5346027641630915,10.196015664939337,-11.088887093223269,-1.6561324879472141,-0.4752380182835778,-0.48963917035008675,-0.4190289999999999,-0.016210000000000058,-0.511005,0.023012000000000032,-0.009131,-0.9343290000000001,0.4420409999999999,0.0070790000000000575,0.42332400000000003,0.0,0.9681528472596443,single,-0.511005
131,1.091667,quasi,-0.08699304055674087,-0.002159827213831756,-0.072834173266143,-0.3845637955767352,-0.24943974260307095,-0.00974007317484587,-0.6035517158627532,-0.2916966642668462,-0.5841132709383341,-0.014158867290597876,0.01295896328293725,-0.004319654427646027,-0.04194562252213524,3.6430853897550044,-3.282019917612736,2.4853917369872365,-3.2212707275116403,-3.4042526096900914,0.3601894812646374,0.5613909370895114,-0.34552397712289895,-0.4233340000000001,-0.018622999999999834,-0.515266,0.023619000000000057,-0.00900499999999993,-0.933758,0.44695300000000016,0.009617999999999904,0.418492,0.0,0.9672099410942399,single,-0.515266
132,1.1,quasi,-0.08856354254171542,0.00516020640825807,-0.11760470418816317,-0.510044547337918,-0.7707681247402038,-0.07887295442748334,-0.6132245289811422,-0.2946117844713852,-0.631105244209759,-0.012480499219981062,0.013920556822273247,-0.006480259210368121,-0.18846777690801883,0.8784391722176524,-5.372678617787038,-1.1607840055668786,-0.34982841768137996,-5.639262363065412,0.20141222496301267,0.11539584055393969,-0.2592829452444565,-0.4277059999999999,-0.021120999999999945,-0.519545,0.02425300000000008,-0.00893199999999994,-0.932832,0.451959,0.012189000000000005,0.41328699999999996,0.0,0.9670211127109898,single,-0.519545
133,1.108333,quasi,-0.07980319212767571,-0.015960638425529815,-0.07560302412096787,-0.30648388485414174,-0.47206597071831224,-0.06169776386578386,-0.6205448217928818,-0.27229089163565046,-0.661946477859123,-0.011280451218053445,0.012960518420736587,-0.013440537621505102,1.0512841010488163,-2.534602764165136,5.04040322419245,-0.878470276219812,2.6786142848595875,-3.7010960817669813,0.14401152069214299,-0.11520921655306234,-0.8352668200092457,-0.43221200000000004,-0.02325699999999986,-0.5244310000000001,0.024823999999999957,-0.008691000000000004,-0.932314,0.457036,0.014565999999999857,0.4078829999999999,0.0,0.9636425283174822,single,-0.5244310000000001
134,1.116667,quasi,-0.07007439404846574,-0.011519078473706892,-0.027597792176633277,-0.34042108595580145,-0.012917239757998725,0.004309611796640045,-0.5994720422366165,-0.2793376529877718,-0.7197024238060904,-0.008639308855273508,0.05939524838014524,0.027957763378929957,1.1673623805147462,0.5329445586540544,5.76016701995851,2.5285312642506765,-0.8455437187570544,-6.930159100907965,0.31691173059514244,5.571721857380405,4.967398728153917,-0.4366240000000001,-0.025489000000000095,-0.530199,0.025336000000000025,-0.008099999999999996,-0.931851,0.46196000000000015,0.0173890000000001,0.401652,0.0,0.8896461534579159,single,-0.530199
135,1.125,quasi,-0.05412216488659346,-0.02256090243610689,0.04236169446778482,-0.36085292542786856,0.40515703591045854,0.0006903842964279792,-0.6278651146045783,-0.24792991719667828,-0.7248289931597318,-0.017040681627275626,0.022920916836653298,-0.0030001200048007217,1.9143440731876191,-1.3250718783631465,8.3954742162989,-3.4073049763544936,3.7690790580935802,-0.6152129309542141,-1.0082050608426971,-4.377094869013834,-3.7150946098321085,-0.44140500000000005,-0.02736699999999992,-0.536592,0.025644999999999918,-0.007721000000000089,-0.932229,0.46704999999999997,0.01964599999999983,0.395637,0.0,0.9521357829376176,single,-0.536592
136,1.133333,quasi,-0.08256330253210467,0.003600144005757202,-0.13116524660986686,-0.5023817926666638,-0.8492178303514203,-0.07967148364847552,-0.6421456858274517,-0.2350894035761505,-0.7409096363854637,-0.022440897635898106,0.019200768030740608,-0.0014400576023038802,-3.413073040382992,3.1394511510697627,-20.82406589195407,-1.7137370962286735,1.5409232713942052,-1.9297543772629342,-0.6480518431084279,-0.4464357141380924,0.18721497689869865,-0.44606800000000013,-0.029355999999999938,-0.5416730000000001,0.026146000000000003,-0.007590999999999903,-0.931148,0.47221400000000013,0.021765000000000034,0.3894749999999999,0.0,0.9507180124867243,single,-0.5416730000000001
137,1.141667,quasi,-0.06887449004080515,-0.019078473722104514,-0.054955603551710454,-0.13938068149993746,-0.14744580382450015,-0.04872397785444597,-0.619150467962538,-0.23002159827213006,-0.7944564434845137,-0.027957763378947443,0.017398608111331725,0.0,1.6425260968681807,-2.721216430028983,9.144425612929666,2.7592054073570287,0.6080879894432913,-6.42510284365846,-0.6619709314913961,-0.21624189097778615,0.17279308882935795,-0.4506539999999999,-0.031113999999999864,-0.547836,0.026486999999999927,-0.0072870000000000434,-0.93069,0.4771409999999998,0.02382699999999982,0.382854,0.0,0.9451175980095999,single,-0.547836
138,1.15,quasi,-0.0799231969278845,-0.027601104044156315,-0.04020160806433317,-0.1759452676327038,0.004105457852868331,0.04186522108253081,-0.6153846153846236,-0.19896795871836967,-0.8263530541221729,-0.021240849633970157,0.013440537621518424,-0.012120484819392518,-1.3258978623640283,-1.0227565489081818,1.77055028049651,0.4519203861651784,3.7265858098836766,-3.827746386374587,0.8060618918729566,-0.4749874582759314,-1.4545163589814747,-0.45511599999999985,-0.03254200000000007,-0.554387,0.02697600000000011,-0.006944999999999979,-0.930456,0.48209199999999996,0.025597000000000092,0.376069,0.0,0.9534905058382488,single,-0.554387
139,1.158333,quasi,-0.06252250090003415,-0.023400936037434514,-0.006000240009599618,-0.1074278143244084,0.31372939181570825,0.01018790883047276,-0.6007440297611879,-0.18744749789989368,-0.8501140045601651,-0.009240369614797002,0.01032041281651614,-0.022320892835713712,2.0881670500240053,0.504040322419504,4.104328339701543,1.7569405524343544,1.3825105986410404,-2.8514281096834018,1.4401152069090297,-0.3744299537984194,-1.2240979258755569,-0.4596009999999999,-0.03390899999999997,-0.561421,0.02742,-0.006664000000000003,-0.930592,0.4870209999999999,0.027244999999999964,0.369171,0.0,0.9562165173107233,single,-0.561421
140,1.166667,quasi,-0.08867290616751371,-0.012119030477577475,-0.11543076553874798,-0.2819697742919552,-0.5880990155144546,-0.07270562933548996,-0.5961123110151402,-0.17182625389970327,-0.8753299736021279,-0.007679385649129251,0.011279097672191058,-0.026277897768178682,-3.137797608288943,1.3537203695533062,-13.130612614488895,0.5557617885826516,1.8743993280766387,-3.0256742310971156,0.18730309163280304,0.1150329800425889,-0.47480260768719046,-0.46382999999999996,-0.03523999999999994,-0.5677540000000001,0.028095000000000203,-0.006468999999999836,-0.929849,0.49192500000000017,0.028771000000000102,0.36209499999999994,0.0,0.9506509338329452,single,-0.5677540000000001
141,1.175,quasi,-0.08616344653785958,-0.012000480019199237,-0.1567262690507628,-0.008459638550381923,-0.7884068423842829,-0.16949269149116702,-0.606024240969628,-0.13740549621984058,-0.8941557662306319,-0.015600624024982988,0.020880835233396546,-0.014880595223808584,0.3011472014465477,0.014226624070351173,-4.955658647787605,-1.189479173705471,4.130656147829364,-2.259185482839745,-0.9505866285675746,1.1522545975285394,1.3677310145649704,-0.46816199999999997,-0.0362849999999999,-0.5738989999999999,0.028683000000000014,-0.0061949999999999505,-0.928667,0.496845,0.03008999999999995,0.3547680000000001,0.0,0.9499772034127337,single,-0.5738989999999999
142,1.183333,quasi,-0.07164286571462428,0.006240249609977374,-0.08760350414016742,-0.48616363685340525,-0.475279590790037,-0.185075843023929,-0.5892235689427595,-0.1285251410056467,-0.9203168126725197,-0.01656066242649379,0.05412216488659346,0.04512180487219546,1.7425394003642671,2.1889751145057934,8.295063591815195,2.0161612896758285,1.0656852531134013,-3.1394511510726173,-0.11520921654995907,3.989119123148592,7.2005760345619345,-0.472475,-0.037407999999999886,-0.580838,0.029142,-0.005795999999999912,-0.927561,0.501617,0.03161199999999997,0.346723,0.0,0.8793600219783815,single,-0.580838
143,1.191667,quasi,-0.0593952483801186,-0.0067194624429845855,0.01667866570674336,-0.49684335109994815,0.252337526510466,-0.1628321150331565,-0.6075113990880731,-0.0909527237821011,-0.9518838492920455,0.002519798416132541,0.022678185745139582,-0.004199664026877855,1.4695965124196764,-1.5550410430719774,12.512859352880966,-2.1943640683121437,4.508329400473397,-3.7877413750330593,2.2894721433436747,-3.7729756589217223,-5.918102819663179,-0.4770430000000001,-0.03811000000000009,-0.58891,0.029657999999999962,-0.005551000000000084,-0.927735,0.5067010000000001,0.032559000000000005,0.33882499999999993,0.0,0.9613316569800291,single,-0.58891
144,1.2,quasi,-0.07968318732749358,-0.038521540861636706,-0.03444137765511099,-0.11040272412279933,0.10379349877362917,-0.006367595504821605,-0.5801032041281711,-0.0804032161286397,-0.9417976719068875,-0.005400216008649127,0.012120484819408339,-0.006240249609984868,-2.434650059687407,-3.8164020663209426,-6.134650589446156,3.28911495978666,1.265991558077704,1.2103897018070489,-0.9504397485637514,-1.266974790079364,-0.24488006517545086,-0.4812130000000001,-0.03845900000000002,-0.596471,0.030276999999999887,-0.005128999999999939,-0.9275,0.51149,0.03333000000000008,0.331029,0.0,0.9755613466232682,single,-0.596471
145,1.208333,quasi,-0.08760350414017841,-0.021360854434178372,-0.10392415696626751,-0.21661483397074802,-0.5050425026548289,-0.12055171186880695,-0.5995439817592599,-0.03204128165126756,-0.9625585023400768,-0.006840273610941167,0.011400456018235278,-0.006360254410175995,-0.9504760365636259,2.0593647458847992,-8.338267048020558,-2.3329866351960313,5.803664283855909,-2.491399307954994,-0.17281382482803487,-0.08640691241726252,-0.01440115206901773,-0.485479,-0.03854800000000003,-0.603626,0.030950000000000033,-0.0048559999999999715,-0.926687,0.516429,0.033692000000000055,0.32306100000000004,0.0,0.9754364443026746,single,-0.603626
146,1.216667,quasi,-0.07679385649147902,-0.026757859371260916,-0.012598992080636398,-0.3658324616140371,0.04278995714439087,-0.10740054260871926,-0.5693544516438792,-0.03215742740580034,-0.9611231101512082,-0.012718982481394468,0.0019198464122889736,-0.0011999040076797758,1.2970539535276695,-0.6475887853470899,10.958143134825155,3.6224538175403524,-0.013936375633883337,0.17223328400151122,-0.7053886333637405,-1.137582146141887,0.6191925128985262,-0.489584,-0.03859299999999988,-0.611531,0.03148400000000007,-0.004616999999999871,-0.9265920000000001,0.5210680000000001,0.033976000000000006,0.31506100000000004,0.0,0.9784684923867084,single,-0.611531
147,1.225,quasi,-0.15864634585383683,0.042961718468747655,-0.41785671426856164,-0.8466480855076582,-3.2567575580989288,-0.43300953855842117,-0.5598223928956964,-0.00984039361576096,-0.9738389535581233,-0.024840993639753343,-0.012720508820371975,-0.009960398415936432,-9.822691631148011,8.366684008161208,-48.632871977429275,1.1438928054941429,2.6781511808519127,-1.52596224731968,-1.454699526984119,-1.7569129044354606,-1.0513013810460223,-0.4929269999999999,-0.039033000000000095,-0.616164,0.032599000000000045,-0.005081000000000113,-0.923193,0.5255259999999999,0.03395199999999998,0.307029,0.0,0.9506121965611949,single,-0.616164
148,1.233333,quasi,-0.1044041761670388,-0.029281171246866102,-0.2570502820112934,-0.4371029469242622,-2.475638565611232,-0.3522454068854161,-0.5444617784711454,0.003720148805965985,-0.969278771150855,0.009600384015370304,-0.025561022440900118,-0.0448817952718112,6.5093207352452325,-8.669493545615554,19.29754377262327,1.843347464844724,1.6273301838146008,0.5472437786233457,4.133130643840629,-1.540923271394247,-4.190735252115095,-0.496594,-0.03875799999999985,-0.622099,0.03354900000000005,-0.005049999999999999,-0.9214249999999999,0.530143,0.03370799999999985,0.299326,0.0,0.9124419432559244,single,-0.622099
149,1.241667,quasi,-0.07775377969762143,-0.07487401007918805,-0.11387089032877015,0.9959792442202648,0.7460087284295301,0.453692435053208,-0.5213582913366943,0.03455723542114732,-0.9407247420206328,0.012958963282936905,-0.008879289656816284,-0.0353971682265412,3.197791752989821,-5.470703003638301,17.18015258969548,2.7721966803996785,3.700154381471214,3.4262093988747284,0.40299727232620297,2.0016478022658637,1.1380642002963675,-0.500291,-0.037846000000000046,-0.6289899999999999,0.03430500000000003,-0.0044999999999999485,-0.920771,0.5345960000000001,0.0333460000000001,0.29178100000000007,0.0,0.9354559574864614,single,-0.6289899999999999
150,1.25,quasi,-0.05640225609024058,-0.026881075243010203,0.0602424096963887,-1.101607126682621,0.02951634744961066,-0.15172732427417224,-0.5111004440177669,0.05412216488662011,-0.9594383775351071,0.004200168006721177,-0.005640225609013399,-0.024000960038402443,2.5622853242986974,5.7593825556436204,20.894431780290464,1.2309909179080187,2.3478854512748075,-2.2457260907805616,-1.0510974770449786,0.3887032338657044,1.3675996865641262,-0.5040800000000001,-0.03717099999999984,-0.6374869999999999,0.03481000000000001,-0.004322999999999855,-0.921473,0.5388900000000001,0.03284799999999999,0.28398600000000007,0.0,0.9583166820281834,single,-0.6374869999999999
151,1.258333,quasi,-0.05592223688948539,-0.07980319212767571,0.005880235209417641,0.14887941621166556,0.4052953360087207,0.16055750713234823,-0.4806192247689995,0.06180247209886306,-0.9516380655226288,-0.026641065642619283,-0.028921156846293046,-0.07656306252250156,0.05760460827495414,-6.350908062482419,-6.523721887312079,3.657892625557144,0.9216737324184592,0.9360748844927876,-3.7010960817641596,-2.7938235014136397,-6.307704606276203,-0.507619,-0.035991000000000106,-0.6454660000000001,0.03505400000000014,-0.003899000000000097,-0.9221600000000001,0.5426730000000002,0.03209200000000001,0.276694,0.0,0.8565496385240727,single,-0.6454660000000001
152,1.266667,quasi,-0.09635229181664039,0.01871850251980367,-0.0779937604991642,-1.3579854881009117,-1.0002662465311287,-0.17830979256460686,-0.46412287017038073,0.08279337652988651,-0.9728821694264389,-0.009959203263745454,-0.014398848092140275,-0.06395488360931062,-4.851218493779061,11.821657625087429,-10.064074359081019,1.9794041994982758,2.518707035159982,-2.549088541373889,2.001663352396652,1.7425376474865202,1.5128604407476411,-0.5106840000000001,-0.03545700000000007,-0.6529240000000001,0.03577399999999997,-0.00417500000000004,-0.9220430000000001,0.5464580000000001,0.03128200000000003,0.269119,0.0,0.8894868070531647,single,-0.6529240000000001
153,1.275,quasi,-0.019560782431313664,-0.1300852034081477,0.14424576983079893,1.0455287509956563,2.0277163503881632,0.4965695273066747,-0.4489379575183042,0.10932437297493273,-0.9458778351134132,-0.001320052802110086,-0.003720148805965985,-0.020880835233409594,9.2153497402289,-17.857158997714237,26.6698104320131,1.822262408745553,3.183846927282667,3.24064974355286,1.0367395249772529,1.2814951741478926,5.169092568810922,-0.514262,-0.03346199999999988,-0.662008,0.035926000000000125,-0.003122000000000069,-0.9234190000000001,0.5501880000000001,0.03033999999999981,0.26141100000000006,0.0,0.9645822028971118,single,-0.662008
154,1.283333,quasi,-0.08292331693267552,-0.06408256330253512,-0.25237009480379696,0.1281743583954473,-1.8658046429378943,-0.09548680691624134,-0.39961598463935855,0.12900516020639846,-0.9252370094803624,0.0043201728069031985,0.0028801152046110143,-0.005400216008639823,-7.603808292494989,7.9206336380188915,-47.59580758845421,5.9188735004133886,2.3617889393334193,2.4769981558922893,0.6768541472474722,0.7920633638037782,1.8577486169170168,-0.5169009999999998,-0.03185299999999991,-0.667615,0.03665300000000005,-0.0025640000000000107,-0.921361,0.5535539999999999,0.0292889999999999,0.253746,0.0,0.9875143093443703,single,-0.667615
155,1.291667,quasi,-0.007319414446828399,-0.16894648428124318,0.48992080633550955,2.0431218543898995,4.512607444501034,0.44448233775335444,-0.3965682745380581,0.15238780897527077,-0.9347252219822615,0.02759779217662069,0.0037197024238198773,0.07775377969762516,9.071742558897114,-12.58266390433286,89.06778271410134,0.3656959564795425,2.8056933967929867,-1.1384944206742633,2.7930908770959846,0.10074240691251247,9.977681270250368,-0.5201450000000001,-0.029175000000000173,-0.6794880000000001,0.036943999999999866,-0.0011250000000000426,-0.9247960000000001,0.557089,0.02805000000000013,0.24530799999999997,0.0,0.8623498337530513,single,-0.6794880000000001
156,1.3,quasi,-0.08568342733710439,-0.09312372494900953,-0.043801752070089205,0.5344685722905491,-0.15957261479828944,0.06125743353069615,-0.3572542901716015,0.1512060482419317,-0.9309972398895777,-0.002760110404402235,0.002760110404402235,0.008880355214208968,-9.40405770914132,9.099095083671225,-64.04926897942991,4.7178668386482565,-0.1418169606791119,0.4473757461518904,-3.6430940334840263,-0.11515564855605731,-8.265141543671547,-0.522408,-0.027139000000000024,-0.686881,0.037635000000000085,-0.0003260000000000485,-0.924357,0.5600430000000001,0.026812999999999976,0.23747600000000002,0.0,0.9838327210064839,single,-0.686881
157,1.308333,quasi,-0.05988239529581564,-0.08172326893074977,0.054722188887557435,-0.0066222040351751185,-0.19956611064299792,-0.10599123116897818,-0.32833313332534464,0.16212648505941613,-0.8761550462018564,-0.0019200768030740608,0.002760110404428955,0.013320532821312972,3.096247694862473,1.3681094465690462,11.823345848751654,3.4706776486567996,1.310504838291674,6.581326495586447,0.1008080644819611,3.2065217449263174e-12,0.5328426265575477,-0.524645,-0.02510699999999999,-0.694638,0.038118000000000096,0.00037799999999998946,-0.924702,0.5627630000000001,0.02548499999999998,0.23006400000000005,0.0,0.9771027962031014,single,-0.694638
158,1.316667,quasi,-0.1490280777537744,0.04103671706261577,0.03335733141348672,-1.8754442935313902,-0.13680668569406051,0.33587462810299584,-0.2946964242860299,0.17530597552194904,-0.8806095512358926,-0.018478521718260896,0.10631149508038584,0.15010799136068942,-10.696626164861781,14.730019917610344,-2.563577810663613,4.036082198141889,1.5814123425165367,-0.5344978442568012,-1.9868544414670877,12.425172147342943,16.413181970167436,-0.5258589999999999,-0.0239879999999999,-0.702255,0.039206000000000074,0.0009220000000000894,-0.923729,0.5650649999999999,0.024909999999999988,0.22147400000000006,0.0,0.6918874717581075,single,-0.702255
159,1.325,quasi,-0.13380535221408704,0.007680307212296243,-0.0007200288011461112,-0.4175601371183552,0.09231561700786549,0.08851647835421024,-0.24444977799112985,0.1698067922716857,-0.8837153486139571,0.0060002400095864545,0.043561742469712776,0.05520220808832429,1.8268001367679718,-4.002929299210348,-4.089446803628123,6.029838748938016,-0.6599283871670921,-0.37271059379149385,2.9375689100981126,-7.530271524141802,-11.389149558666265,-0.5267809999999999,-0.022637000000000018,-0.709613,0.040370999999999935,0.0012210000000001386,-0.9232630000000001,0.5671519999999999,0.023858000000000157,0.21365,0.0,0.8823740383792186,single,-0.709613
160,1.333333,quasi,-0.1321252850114004,-0.028801152046083498,-0.08124324972999242,-0.3616775111465926,-0.80518327702582,0.1425124119805271,-0.20544821792870585,0.1719668786751461,-0.8232329293171555,-0.004200168006721065,0.002880115204584368,-0.0021600864034557626,0.2016161289675535,-4.377950229014653,-9.663173038382924,4.680374422467697,0.25922073724473105,7.258180642841771,-1.2240979258739157,-4.881990551437381,-6.883750689041047,-0.5273919999999999,-0.020963999999999983,-0.715796,0.041436999999999946,0.0014849999999999586,-0.922604,0.5688289999999998,0.02244899999999994,0.206808,0.0,0.9907800867461969,single,-0.715796
161,1.341667,quasi,-0.11531077513798992,-0.0591552675785774,-0.10823134149267766,-0.11221880872935486,-1.0446576802189298,0.11013103064031071,-0.1649868010559338,0.18118550515960535,-0.8227741780657706,-0.007919366450672033,0.015598752099854571,0.022318214542836837,2.017579778427021,-3.642202487700321,-3.238311946566565,4.854981626202642,1.10614668640022,0.05504574650647427,-0.4462681118251786,1.5261143382853906,2.937161140663915,-0.527806,-0.018961000000000006,-0.721751,0.042332000000000036,0.0021079999999999988,-0.921516,0.570138,0.021069000000000004,0.19976499999999997,0.0,0.9527377255086975,single,-0.721751
162,1.35,quasi,-0.1448457938317457,-0.05496219848794689,-0.08304332173287098,-0.4250132168646733,-0.8452455816368993,0.2780106476511484,-0.14700588023521063,0.17340693627743828,-0.8162726509060223,-0.006720268810759033,0.04308172326892979,0.05400216008640239,-3.5443440170113125,0.5031884184123889,3.0226832785078894,2.1577968103591565,-0.933465604484212,0.7802144677484896,0.143897472688465,3.298088463827522,3.8022255542499703,-0.5278240000000001,-0.017058000000000018,-0.727861,0.04348299999999994,0.0029250000000000664,-0.920374,0.571307,0.019983000000000084,0.19251300000000005,0.0,0.884320483582311,single,-0.727861
163,1.358333,quasi,-0.10908436337454182,-0.07068282731308725,-0.06804272170886708,-0.19353432442974236,-1.2002688330591407,0.05688683538434289,-0.09888395535820754,0.1724468978759059,-0.7728309132365366,0.004440177607112096,0.0030001200047932272,0.012360494419776775,4.291543316597169,-1.8865509210537033,1.80014400864083,5.774861979719613,-0.1152092165525496,5.2132170490202885,1.339307142430245,-4.809984791088075,-4.9971997679858395,-0.527739,-0.015032000000000156,-0.733734,0.04442900000000005,0.003538999999999959,-0.9197040000000001,0.572168,0.018571000000000115,0.18597000000000008,0.0,0.9775464850854041,single,-0.733734
164,1.366667,quasi,-0.15610751139908646,-0.047396208303352796,-0.023278137748983203,-0.7974016778473579,-0.3964031363875286,0.503420651572949,-0.05675545956322799,0.17494600431967486,-0.7553395728341669,0.006719462443011228,-0.027477801775861888,-0.028797696184304694,-5.642326376835167,2.794170747508313,5.37132036955646,5.055015094189972,0.29986878374957376,2.0987929448487685,0.2734923009238199,-3.657058049034663,-4.938587785466901,-0.5269109999999999,-0.01317899999999983,-0.739835,0.045786000000000104,0.0037050000000000693,-0.91975,0.572697,0.0168839999999999,0.17991499999999994,0.0,0.9327218032783917,single,-0.739835
165,1.375,quasi,-0.14928597143886166,-0.05292211688466551,-0.10152406096244103,-0.4727458308670394,-0.8691297537728405,0.38201463935455,-0.012960518420736587,0.15336613464537405,-0.784351374054971,0.008160326413051434,-0.03864154566181884,-0.03984159366374679,0.8186175399285811,-0.6631355551797392,-9.389886381070268,5.255603161225466,-2.5896879484340585,-3.4815554087128793,0.17291059282853943,-1.339702854429024,-1.325320710361478,-0.5257749999999999,-0.011460000000000026,-0.745525,0.047098000000000084,0.0038240000000000496,-0.9192359999999999,0.572873,0.015284000000000075,0.17371099999999995,0.0,0.9065014473675739,single,-0.745525
166,1.383333,quasi,-0.1689667586703308,-0.04548181927276019,-0.05712228489140001,-0.48853613301326343,-0.45371987199779107,0.3974113535665084,0.00852034081362449,0.13968558742349135,-0.7670706828273178,0.015120604824201566,-0.041881675267029635,-0.050162006480259876,-2.3617889393338936,0.8928714282857784,5.328426265575594,2.577806220372168,-1.6417313358793735,2.0737658979543196,0.8352668200108239,-0.38883110586953346,-1.2384990779446996,-0.5242960000000001,-0.009917000000000176,-0.7514409999999999,0.04863200000000001,0.003853999999999802,-0.9191779999999999,0.5729280000000001,0.013770999999999978,0.16773700000000002,0.0,0.8882098405798189,single,-0.7514409999999999
167,1.391667,quasi,-0.1423086153107898,-0.07163426925848046,-0.06599472042235843,-0.10591287817792737,-0.4961994008659468,0.35235111438022954,0.04619630429566556,0.13126949844014182,-0.7830573554115616,0.016318694504429198,-0.03047756179505334,-0.04319654427645746,3.198721305440461,-3.1380429548500204,-1.0646070951473907,4.520753957528292,-1.0098498900107349,-1.918247250329215,0.14375926088644386,1.3683841459054726,0.8357886013681743,-0.5227249999999999,-0.008225999999999845,-0.757417,0.049954000000000054,0.004197000000000006,-0.918988,0.5726789999999999,0.01242299999999985,0.16157100000000002,0.0,0.9077876394051912,single,-0.757417
168,1.4,quasi,-0.14640585623425056,-0.07548301932077241,-0.04608184327373749,-0.2957170432717883,-0.6035389089837384,0.29555344777651393,0.0782431297251747,0.13068522740908503,-0.7395895835833504,0.0116404656186265,-0.015480619224747975,-0.025441017640706325,-0.49168857835842933,-0.46186848221432647,2.389640843468274,3.845772882456431,-0.07011532833994943,5.2163412730363214,-0.5614099226932366,1.799705096640526,2.1307484262272047,-0.520853,-0.006507999999999958,-0.763196,0.051271000000000067,0.004697000000000173,-0.918816,0.5721240000000001,0.011205000000000132,0.15561999999999998,0.0,0.9467084697683583,single,-0.763196
169,1.408333,quasi,-0.1526461058442239,-0.07188287531501328,-0.0612024480979241,-0.1499265903678526,-0.7215472577558582,0.17346626802732235,0.11700468018719921,0.1124444977799051,-0.7371894875794914,0.008280331213233351,-0.006840273610967813,-0.016080643225728174,-0.7488599075930896,0.4320345620735708,-1.81454516070879,4.651572118327593,-2.188975114506133,0.2880230413847221,-0.4032322579374883,1.0368829489715603,1.123289861391814,-0.5186060000000001,-0.0049719999999999764,-0.768829,0.05261199999999988,0.005238999999999994,-0.9184399999999999,0.571218,0.01021099999999997,0.14961099999999994,0.0,0.9677707726405697,single,-0.768829
170,1.416667,quasi,-0.14722822174227412,-0.06299496040315535,-0.06287497000239728,-0.11168798318306994,-0.7209025278467586,0.12852795350471946,0.14830813534917667,0.09407247420207977,-0.7435805135589304,0.00983921286298765,-0.009839212862961006,-0.010799136069114652,0.6500940847072076,1.066464472265191,-0.20068657361089656,3.7561141303069414,-2.20446647202132,-0.7668617685912036,0.1870508339038071,-0.359843922725372,0.6337301603808042,-0.516143,-0.003662999999999972,-0.774502,0.05392100000000011,0.005681999999999965,-0.918006,0.5700640000000001,0.009344999999999937,0.14350399999999996,0.0,0.9706438744152524,single,-0.774502
171,1.425,quasi,-0.1509660386415408,-0.05268210728429983,-0.09912396495859582,-0.021421756405295304,-0.8888086987694743,0.05857756991527369,0.1611664466578748,0.08412336493457678,-0.6917076683067191,-0.007560302412113905,-0.011880475219017103,-0.00480019200768086,-0.4485559701507981,1.2375918779377573,-4.350053396879624,1.5430590794069252,-1.1939408697351273,6.224990429882436,-2.0880253540263114,-0.2449612811779744,0.7199020834553806,-0.5135419999999999,-0.002523000000000053,-0.77944,0.05511599999999994,0.006021999999999972,-0.91722,0.5686579999999999,0.008545000000000025,0.13778,0.0,0.9752038473356753,single,-0.77944
172,1.433333,quasi,-0.14904596183847074,-0.057722308892350666,-0.06876275051002652,-0.03091525212436187,-0.6593727423651686,0.08231069913733423,0.18024720988838427,0.0722428897156149,-0.690027601104051,-0.003840153606121475,-0.01992079683186007,-0.01116044641785632,0.23041843310573207,-0.6048483869015816,3.6434914734872894,2.2897831789883174,-1.425714054837632,0.20161612896533387,0.44643571414766164,-0.9648771886287102,-0.7632610596634487,-0.5107980000000001,-0.0014399999999998858,-0.7846169999999999,0.0563260000000001,0.006337000000000037,-0.9167399999999999,0.5671240000000002,0.007776999999999923,0.132123,0.0,0.9614088204385202,single,-0.7846169999999999
173,1.441667,quasi,-0.1463882889368838,-0.057115430765528837,-0.06371490280776868,-0.08771687683744936,-0.6669284338462524,0.019222717670246213,0.22594192464603607,0.060595152387805835,-0.6733861291096668,0.0009599232061444612,-0.020158387329007044,-0.014998800095992219,0.3188952365715051,0.07281954965464656,0.6056932688094319,5.482927136747234,-1.3976166700034773,1.996816893974578,0.5759631404206743,-0.028508578971318744,-0.4605655961286141,-0.507695,-0.0004589999999999872,-0.789698,0.057554000000000105,0.006645000000000012,-0.916334,0.5652490000000001,0.007103999999999999,0.12663599999999997,0.0,0.9580924948186982,single,-0.789698
174,1.45,quasi,-0.15048601944078963,-0.06240249609985368,-0.04656186247449268,0.01212186806122823,-0.49026325663330805,0.045182007273617014,0.24504980199209384,0.04680187207487028,-0.6619464778591196,0.005640225609013399,-0.008520340813651137,-0.007800312012480878,-0.4917473303619183,-0.6344732190477492,2.0584471778802538,2.293037003007073,-1.6552598479462,1.372813062588172,0.5616587546944655,1.3966214467005895,0.8638531241463347,-0.5043989999999998,0.0004509999999999792,-0.794826,0.0588550000000001,0.007093999999999934,-0.916011,0.5632539999999999,0.0066429999999999545,0.12118499999999999,0.0,0.9785748577086668,single,-0.794826
175,1.458333,quasi,-0.1363254530180948,-0.04452178087122197,-0.06648265930637763,-0.07300649523973783,-0.6374697830186252,-0.00025196709107800947,0.26737069482777603,0.07200288011519541,-0.6114244569782671,0.0069602784111233,-0.0022800912036470555,-0.0028801152046076836,1.699335944161117,2.1457716583021,-2.3905912434758916,2.6786142848532113,3.0242419345163443,6.062885021103045,0.1584126727600957,0.7488599075967806,0.5904472348341663,-0.5010350000000001,0.0014219999999998123,-0.7993669999999999,0.0600489999999998,0.007445999999999842,-0.915481,0.5610839999999999,0.006024000000000029,0.11611400000000005,0.0,0.9868830733772996,single,-0.7993669999999999
176,1.466667,quasi,-0.16762658987282447,-0.03947684185265538,-0.06803455723542057,0.17367704112359958,-0.19917141279623526,0.01800025105045307,0.3060955123590135,0.05087592992560451,-0.5962323014158982,0.003599712023061808,-0.002159827213805113,-0.000719942404608365,-3.755835955691178,0.6053442546876274,-0.18621285445679936,4.646606375238565,-2.5350312202533365,1.8229128344575412,-0.40323570771076983,0.014430524339086257,0.25919999999992316,-0.49708700000000006,0.002174999999999816,-0.803769,0.061476000000000086,0.007757000000000014,-0.9149200000000001,0.5585630000000001,0.005582000000000198,0.11115100000000011,0.0,0.9929012721584893,single,-0.803769
177,1.475,quasi,-0.13368534741390134,-0.04800192007682359,-0.05220208808351801,-0.21092657194314143,-0.6370462308129454,0.020789144399962333,0.31609264370574575,0.05400216008640989,-0.5725429017160584,0.0012000480019012712,-0.0019200768030740096,0.0007200288011527536,4.073112019551487,-1.0230503089125238,1.899972297120158,1.1997037497578389,0.3751626258016707,2.8428416776478387,-0.28797120138731486,0.02877120013573733,0.17280345682960438,-0.49333899999999997,0.0030250000000000554,-0.8081050000000001,0.06259999999999999,0.008141000000000176,-0.914479,0.555939,0.0051160000000001205,0.10637399999999997,0.0,0.9960400436271133,single,-0.8081050000000001
178,1.483333,quasi,-0.1422056882275294,-0.046681867274688135,-0.06252250090004914,-0.16859478946257164,-0.6428263943817201,0.041159898354472334,0.2930517220688921,0.06036241449659748,-0.5678627145085872,-0.0008400336013282475,0.0003600144005730556,0.0034801392055675714,-1.022481796907254,0.15841267276316687,-1.2384990779468645,-2.765021197270357,0.763261059664905,0.561644930693778,-0.24481958517095134,0.27362188931322284,0.33122649758968475,-0.4897119999999999,0.00391700000000017,-0.8123159999999999,0.06377800000000011,0.008533000000000124,-0.913929,0.55349,0.0046159999999999535,0.10161300000000006,0.0,0.994003094383557,single,-0.8123159999999999
179,1.491667,quasi,-0.13462922966160748,-0.056515478761685216,-0.05567554595631214,-0.12907062876800085,-0.5814845484177893,0.04924366575694481,0.27705783537315537,0.06203503719700921,-0.5430765538756861,0.00011999040075806644,0.0009599232061444612,0.005039596832253425,0.9091022997266464,-1.179938983320975,0.8215688677390147,-1.9191128744584331,0.20069866815595325,2.974101347840278,0.11519366475717623,0.07198329800472775,0.18711994560665252,-0.4862810000000002,0.004904999999999937,-0.816378,0.06490099999999988,0.00901200000000002,-0.9134230000000001,0.5511820000000001,0.004107000000000083,0.09704500000000005,0.0,0.9914473223020787,single,-0.816378
180,1.5,quasi,-0.15972638905558686,-0.06780271210847616,-0.032401296051841465,-0.33072719603652573,-0.7305895833962976,-0.06109771490262987,0.3164526581063272,0.0804032161286397,-0.515540621624869,0.0007200288011461112,0.0024000960038292525,0.006000240009600611,-3.011779598461492,-1.3545221825022258,2.793021709404883,4.727567830693893,2.204269642581382,3.3044440478599935,0.07200748834609988,0.17282764882812965,0.11528179255336542,-0.482313,0.006139999999999812,-0.820404,0.06623800000000002,0.009596999999999856,-0.913103,0.548551,0.0034570000000000434,0.09269899999999998,0.0,0.9891625927564025,single,-0.820404
181,1.508333,quasi,-0.13236529461176819,-0.051122044881800235,-0.055682227289094464,-0.29228923898723513,-0.6221235980657477,-0.015457536735943533,0.26317052682108866,0.07224288971558826,-0.5057002280091244,0.00312012480500201,0.0019200768030740608,0.0064802592103682935,3.2834626717651423,2.0017601376066336,-2.793823501410442,-6.394111518689434,-0.9792783406998092,1.1808944696681525,0.2880230413843659,-0.057604608274954526,0.05760460827645352,-0.479017,0.007167999999999841,-0.824154,0.06736699999999995,0.010038999999999909,-0.912585,0.546384,0.002871000000000068,0.08843099999999993,0.0,0.9875930537867272,single,-0.824154
182,1.516667,quasi,-0.14002879769620005,-0.05855531557475885,-0.033117350611957266,-0.24385049918136337,-0.5971206436125575,0.03475930776044498,0.2532997360211133,0.08111351091914036,-0.5094792416606633,0.0028797696184333834,0.00035997120230084253,0.005999520038397054,-0.919546806387306,-0.8919211294646696,2.7075685957687816,-1.1844001439855179,1.064389393274782,-0.4534453625556572,-0.02884031516302194,-0.1871976962770826,-0.057684085909675505,-0.4757389999999999,0.008332000000000006,-0.828124,0.06855800000000012,0.010529999999999928,-0.9122589999999999,0.544297,0.0021979999999999222,0.08413499999999996,0.0,0.9888923333517308,single,-0.828124
183,1.525,quasi,-0.13800552022080823,-0.05640225609024058,-0.06984279371174568,-0.10757706018016679,-0.6612639559849101,-0.029141014663682373,0.22116884675387685,0.08736349453978982,-0.46789871594864385,0.003480139205575066,0.0,0.005760230409216353,0.24280300916738815,0.2583774732411246,-4.407229461153095,-3.855860946506266,0.7500280355993664,4.989862679949574,0.0720472323462964,-0.043198272206989775,-0.028715904137849867,-0.4727459999999999,0.009530000000000038,-0.831441,0.06973700000000016,0.010999999999999899,-0.911629,0.542483,0.0014699999999998603,0.08018800000000004,0.0,0.9887834914254032,single,-0.831441
184,1.533333,quasi,-0.1472458898355749,-0.05868234729388613,-0.04140165606624669,-0.1290764025423541,-0.5002534607202377,0.024060127438342488,0.19908796351851987,0.08628345133804172,-0.47965918636744637,0.0034801392055483268,-0.0002400096003909128,0.004440177607104484,-1.108888709320355,-0.27362188931303455,3.413073040381434,-2.64981198072202,-0.12961036862451555,-1.411312902772388,-3.2088116715115848e-12,-0.028802304139074596,-0.15841267276033197,-0.46986000000000017,0.010737999999999914,-0.835093,0.07099299999999986,0.011486999999999803,-0.9112469999999999,0.540853,0.0007489999999998886,0.07615399999999994,0.0,0.9905889912748558,single,-0.835093
