frame_id,timestamp,gait_type,root_linear_velocity_x,root_linear_velocity_y,root_linear_velocity_z,root_angular_velocity_x,root_angular_velocity_y,root_angular_velocity_z,left_linear_velocity_x,left_linear_velocity_y,left_linear_velocity_z,right_linear_velocity_x,right_linear_velocity_y,right_linear_velocity_z,root_acceleration_x,root_acceleration_y,root_acceleration_z,left_acceleration_x,left_acceleration_y,left_acceleration_z,right_acceleration_x,right_acceleration_y,right_acceleration_z,left_pos_rel_x,left_pos_rel_y,left_pos_rel_z,right_pos_rel_x,right_pos_rel_y,right_pos_rel_z,step_length,step_width,step_height,left_contact_prob,right_contact_prob,support_type,max_foot_height
1,0.008333,quasi,0.04368174726989451,0.052202088083532244,-0.009720388815552351,0.08116365138708818,0.05343221187435946,0.05715652386769325,0.0,-0.00024000960039091698,-0.0007200288011519335,-0.000600024000950646,-0.0016800672026964494,-0.0008400336013440611,0.0,0.0,0.0,0.0,0.0,0.0,0.0,0.0,0.0,0.05660399999999999,0.12547699999999995,-0.9067390000000001,-0.10026499999999994,-0.1344470000000001,-0.91224,0.15686899999999993,0.25992400000000004,0.005500999999999978,0.9437250383374627,0.9967135331962897,double,-0.9067390000000001
2,0.016667,quasi,0.042116630669545255,0.06719462443004617,-0.00023998080154277791,-0.08425681180376415,-0.11071026723228036,0.053695156491624006,0.0005999520038436232,-0.0011999040076739248,-0.0015598752099830959,-0.0009599232061444684,-0.001679865610746159,-0.001319894408447395,-0.1877989681244606,1.7989604447460916,1.137557957044585,0.07198848138272415,-0.11517811462479093,-0.10077350717916514,-0.04318444986726929,2.4189098906942032e-05,-0.0575786905571555,0.05625800000000003,0.12490699999999999,-0.90675,-0.10062399999999994,-0.13502100000000006,-0.912249,0.15688199999999997,0.25992800000000005,0.005499000000000032,0.9415809886810127,0.9960964680233748,double,-0.90675
3,0.025,quasi,0.03504140165607464,0.05748229929195922,0.011400456018235477,-0.016185977536556054,1.7130445828467192e-05,0.19767043234944026,0.0,0.000600024000950646,0.00024000960038383904,-0.001320052802123397,-0.0013200528021100738,-0.0002400096003842554,-0.8490614440742369,-1.1655256375959382,1.3969082947051787,-0.07199712034604862,0.2160000010349899,0.21599481703671364,-0.04321728020867978,0.043179264206898486,0.12959136062200166,0.05596599999999996,0.12443300000000002,-0.906843,-0.1009270000000001,-0.13551099999999994,-0.912346,0.15689300000000006,0.25994399999999995,0.005503000000000036,0.9438929239555459,0.9968629970916011,double,-0.906843
4,0.033333,quasi,0.044281771270845156,0.05136205448219068,-0.010560422416893913,-0.0034768739144495613,-0.0687196885139073,0.006256920460304361,0.0002400096003775938,-0.0012000480019146154,-0.0006000240009598058,-0.00012000480018213529,-0.0019200768030740432,-0.0007200288011519335,1.1088887093208348,-0.7344587555224458,-2.6354108286486726,0.028802304137476753,-0.21601728103507276,-0.10080806448381673,0.14401152069377915,-0.07200576034609016,-0.057604608276452425,0.055598999999999954,0.12399499999999997,-0.90676,-0.10129699999999997,-0.13595500000000005,-0.912264,0.15689599999999992,0.25995,0.005503999999999953,0.9426883457955217,0.9965764145028534,double,-0.90676
5,0.041667,quasi,0.05447564194863863,0.07511399088071806,-0.008039356851443271,-0.009686022235799384,-0.06715565334424481,0.07553063232966978,0.00011999040077138896,-0.0005999520038436232,-0.0004799616030718179,-0.0014398848092167025,-0.0029997600191914724,-0.00011999040076805855,1.2231666280049764,2.850004367473887,0.3025036675606722,-0.014401151860595731,0.07200575930777443,0.014406335239739367,-0.15837293124964807,-0.12955162180434715,0.07199884813821393,0.05514600000000003,0.12336400000000003,-0.9066970000000001,-0.10176299999999994,-0.1366059999999999,-0.9121980000000001,0.15690899999999997,0.2599699999999999,0.005500999999999978,0.9436939555438689,0.9944506691762707,double,-0.9066970000000001
6,0.05,quasi,0.0381615264610633,0.07788311532461427,0.00408016320652568,-0.105364730445538,-0.06139356928422386,0.12860719813266516,0.00012000480019545849,-0.0007200288011461046,-0.0002400096003842554,-0.0004800192007685108,-0.00216008640346496,-0.0010800432017279002,-1.9577721693958157,0.332308225596569,1.4544005829795932,1.7280000083443683e-06,-0.014409792067980489,0.028795392138193026,0.11518848055300512,0.10076486448176074,-0.11521094455296312,0.05482900000000002,0.12270900000000007,-0.906733,-0.10208499999999998,-0.13727299999999998,-0.912241,0.156914,0.25998200000000005,0.005507999999999957,0.9436393239254787,0.995896178941408,double,-0.906733
7,0.058333,quasi,0.04908196327853027,0.07320292811712462,-0.005280211208453619,0.03105725040680308,-0.02562677600871804,0.07219145575556322,0.0019200768030740432,0.001080043201719157,0.0019200768030723776,-0.00024000960039091698,-0.001080043201719157,0.0015600624024959945,1.3105048382895677,-0.5616449306959862,-1.1232898613919715,0.21601728103667164,0.21601728103507278,0.25922073724428574,0.028802304137476756,0.12961036862424136,0.3168253455206882,0.05443600000000004,0.122108,-0.906673,-0.10249600000000003,-0.1378919999999999,-0.912184,0.15693200000000007,0.2599999999999999,0.005511000000000044,0.9400194869147254,0.9968123970057855,double,-0.906673
8,0.066667,quasi,0.0483561315094843,0.04451643868490643,0.02783777297816294,-0.3116371868836934,-0.16187737916461892,-0.01921917506757002,0.0014398848092167025,0.0,-0.000719942404607935,-0.0015598752099747698,-0.004919606431493731,-0.0029997600191981333,-0.08709284485792763,-3.442103363597094,3.973840195178372,-0.05761842978849779,-0.12959481662096914,-0.3167769627646163,-0.15837120345378602,-0.4607107307144917,-0.5471349198097104,0.05404500000000001,0.12173699999999998,-0.906911,-0.102912,-0.13830399999999998,-0.912441,0.156957,0.26004099999999997,0.005529999999999924,0.9420169330723521,0.990050921555202,double,-0.906911
9,0.075,quasi,0.04272170886835752,0.0814832593303715,-0.01560062402495663,0.09832819365455253,0.02064623155442418,0.02663108785449503,-0.0007200288011594283,-0.001800072002878586,-0.003480139205567959,0.00024000960037759398,-0.0016800672026831276,0.001440057602303868,-0.6761577632457436,4.436195925292823,-5.212816153020474,-0.2592000012451857,-0.21601728103667198,-0.33123686558982673,0.21599481703496523,0.3887602578675875,0.5327994265573028,0.053682999999999925,0.12104300000000001,-0.90681,-0.10326600000000008,-0.13899699999999993,-0.912299,0.156949,0.26003999999999994,0.005488999999999966,0.9384704573492142,0.9962904042179781,double,-0.90681
10,0.083333,quasi,0.04008160326412399,0.10440417616705108,-0.017040681627262133,0.14033547603517862,-0.03413391663255121,0.08112207028771892,0.0006000240009639688,-0.00036001440057305197,-0.0013200528021121544,-0.0014400576023055312,-0.0024000960038425517,0.0003600144005759664,-0.3168253455218448,2.7506200452033562,-0.17281382482965352,0.158412672761718,0.17281382482965713,0.2592207372441861,-0.20161612896713355,-0.08640691241562745,-0.12961036862209296,0.05335400000000001,0.12017,-0.906679,-0.10361200000000004,-0.13988699999999998,-0.912154,0.15696600000000005,0.260057,0.005475000000000008,0.9427599204772198,0.9952966214583319,double,-0.906679
11,0.091667,quasi,0.07163426925845441,0.03995680345572689,0.00515958723300987,-0.1644240703171654,-0.15394722807863317,-0.029387213758137916,0.001559875209988093,0.0004799616030722346,-0.00011999040076805865,-0.00035997120230084556,-0.0026397888168906295,0.0,3.786017037956617,-7.733066080072503,2.663819157700026,0.1151729312483951,0.10078905731284944,0.14399596848381288,0.12960000000056232,-0.028760836698833444,-0.04319827220733941,0.052770000000000095,0.11984099999999998,-0.906723,-0.10421199999999997,-0.14024199999999998,-0.9121969999999999,0.15698200000000007,0.26008299999999995,0.005473999999999979,0.9425325818540464,0.995559634567007,double,-0.906723
12,0.1,quasi,0.05088203528142213,0.08448337933517788,0.007200288011527656,-0.14550784857429516,-0.11424628994565497,0.11117127165506742,0.0008400336013415624,-0.00048001920076851036,0.0008400336013440605,-0.0015600624025009894,-0.00252010080403801,0.0006000240009602216,-2.49036769195155,5.34340284164778,0.24489388917770114,-0.08638444841552022,-0.11520230455307143,0.11520748855299633,-0.14401670469220484,0.014363136067757016,0.07200576034564035,0.05235299999999998,0.11913299999999993,-0.906776,-0.1046490000000001,-0.14096700000000006,-0.9122520000000001,0.15700200000000009,0.2601,0.005476000000000036,0.9431044989295534,0.9949599571309312,double,-0.906776
13,0.108333,quasi,0.03384135365414673,0.09696387855513267,0.004800192007685112,-0.10206210719619188,-0.1247464005522049,0.06962958320538046,0.0021600864034516387,0.0008400336013415638,-0.0015600624024959958,-0.00048001920075518796,-0.0021600864034516387,0.000360014400575967,-2.0449635938168025,1.4977198151871827,-0.28802304138276075,0.1584126727601197,0.15841267276011942,-0.28802304138246226,0.12961036862424125,0.043203456208612954,-0.028802304138276103,0.05208899999999994,0.11833199999999999,-0.9068290000000001,-0.104935,-0.14179299999999995,-0.912289,0.15702399999999994,0.26012499999999994,0.005459999999999909,0.9407436350546803,0.9962635422032461,double,-0.9068290000000001
14,0.116667,quasi,0.05555555555555444,0.07103431725462399,-0.01091912646988999,0.056650974851723455,0.07218618500045815,-0.0005312762461878851,0.0004799616030722338,-0.000599952003830301,0.0,-0.0005999520038436226,-0.0019198464122889352,0.00011999040076805845,2.6054957885058427,-3.1112984521848635,-1.8861673239230963,-0.2015988481376774,-0.17278444986463445,0.18719251289848743,-0.014390785107803523,0.028826492820098786,-0.028800575930874532,0.051629999999999954,0.11773500000000003,-0.906738,-0.10540300000000002,-0.142401,-0.912197,0.15703299999999998,0.26013600000000003,0.005458999999999992,0.9441294775943176,0.9966416975394425,double,-0.906738
15,0.125,quasi,0.06516260650425544,0.07956318252729745,0.011280451218053352,-0.14896009839806576,0.046419681954033516,0.11352806106172435,0.00264010560422015,-0.0004800192007685112,-0.0018000720028802516,-0.0008400336013415638,0.00024000960037759398,0.0013200528021117403,1.1528922295333022,1.023504772911733,2.6640558847885942,0.2592276492437199,0.014392512067897512,-0.21601728103687184,-0.028810944137518463,0.25919308924355344,0.1440132486911896,0.05110899999999996,0.11706800000000006,-0.9068470000000001,-0.10595299999999996,-0.14306200000000002,-0.91228,0.15706199999999992,0.2601300000000001,0.00543299999999991,0.9402846197776619,0.9973617132768808,double,-0.9068470000000001
16,0.133333,quasi,0.059762390495619586,0.09048361934477761,-0.008640345613833186,0.05483518747571231,-0.03930430868110157,-0.012376971249395925,0.0022800912036470937,0.002040081603256177,0.0008400336013440605,-0.0003600144005863752,-0.0014400576023055312,0.0012000480019204432,-0.6480518431100265,1.3105048382911495,-2.390591243476121,-0.04320345620701498,0.3024241934507003,0.31682534552073804,0.05760460827495358,-0.20161612896713355,-0.014401152069038397,0.05062999999999995,0.11633099999999996,-0.9067679999999999,-0.10645400000000005,-0.14382800000000007,-0.912198,0.157084,0.26015900000000003,0.005430000000000046,0.9404120668561231,0.9968186780029973,double,-0.9067679999999999
17,0.141667,quasi,0.03143748500119811,0.12526997840172022,0.00215982721383172,0.024936996606019144,-0.10900861253524421,-0.02130530146585784,0.0014398848092167062,0.0002399808015427785,-0.0009599232061432219,-0.000599952003830303,-0.0014398848092033846,0.0021598272138225617,-3.3987167619896255,4.174029164499963,1.2959170659545154,-0.10081670199548709,-0.2159948166202787,-0.21597753869537878,-0.028790209172537603,2.0733513576501486e-05,0.1151642922848717,0.05037999999999998,0.11528900000000009,-0.906794,-0.10672099999999995,-0.1448839999999999,-0.9121980000000001,0.15710099999999994,0.260173,0.005404000000000075,0.9430481889891653,0.9955596345670144,double,-0.906794
18,0.15,quasi,0.06516260650425533,0.09852394095764683,-0.006120244809795177,-0.009943806329234275,0.007221671527695876,0.1335759855478283,0.00048001920076851036,0.00024000960037759357,-0.0015600624024964098,0.0,-0.0006000240009639688,0.0006000240009602216,4.04717646742556,-3.20965287940398,-0.9936483887707775,-0.11518848055300553,3.4559984177442426e-06,-0.07201958434575632,0.07199712034445008,0.10078732848186908,-0.18718387289839658,0.049841000000000024,0.11446999999999996,-0.906756,-0.10726399999999991,-0.14571,-0.912142,0.15710499999999994,0.26017999999999997,0.005386000000000002,0.9433903445968113,0.9985857298668167,double,-0.906756
19,0.158333,quasi,0.06264250570023065,0.08268330733228597,0.010080403216125395,-0.10848325619956446,-0.10224004542081078,-0.05451550113165473,0.0021600864034649584,-0.0006000240009639688,-0.0026401056042238925,-0.0002400096003909168,-0.0009600384015370207,0.00024000960038383885,-0.3024241934506991,-1.9009520731262257,1.9441555293316404,0.20161612896873235,-0.10080806448356674,-0.1296103686220427,-0.028802304139075554,-0.043203456207014476,-0.04320345620741419,0.049337000000000075,0.11377599999999999,-0.906862,-0.107788,-0.14640699999999995,-0.9122239999999999,0.15712500000000007,0.26018299999999994,0.005361999999999978,0.9406074212209742,0.9983028758401817,double,-0.906862
20,0.166667,quasi,0.05687544996399976,0.10199184065274977,0.012479001679864756,-0.20680202349861906,-0.08912866974424223,-0.0326042590539032,0.002639788816890625,0.0019198464122889352,0.0008399328053755765,-0.00035997120230084497,0.0008399328053730787,0.0011999040076793356,-0.6919913290413835,2.316838651363544,0.2878087909454474,0.057559684836293055,0.30236026076948663,0.4175712034556594,-0.014394240689936172,0.21597926648789267,0.1151781146262894,0.04888500000000007,0.11294199999999999,-0.906959,-0.10826499999999994,-0.14725,-0.912318,0.15715,0.260192,0.005359000000000003,0.940792620628278,0.9974862400828016,double,-0.906959
21,0.175,quasi,0.0702028081123316,0.10416416656666051,-0.003960158406330232,0.006017129400536855,0.11514925410043012,0.08045788308762701,0.0025201008040246953,0.0002400096003909176,-0.001320052802112159,-0.0015600624025009946,0.0006000240009639708,0.004320172806912445,1.5993469516778915,0.26068953725077965,-1.9727781214682625,-0.014363136069354392,-0.2015884809670013,-0.2592086412441787,-0.144016704692206,-0.028790208137418522,0.3744472337973259,0.04832099999999995,0.11207600000000006,-0.906937,-0.10886300000000004,-0.14811299999999994,-0.912249,0.157184,0.260189,0.005311999999999983,0.9421216587650124,0.992279587557251,double,-0.906937
22,0.183333,quasi,0.044161766470662986,0.13368534741390356,-0.020040801632068655,0.20846739704463638,-0.16533772735075147,-0.10150766735095297,0.00252010080403801,0.001800072002878583,0.0006000240009598053,0.0014400576023055312,0.0013200528021100728,0.0006000240009602216,-3.1250499990001903,3.542683409005523,-1.9297543772636996,1.5978483187159452e-12,0.1872149768975956,0.23041843310595975,0.360028801728852,0.08640691241402873,-0.44643571414283206,0.04797399999999996,0.11097699999999999,-0.906765,-0.10921900000000007,-0.14921600000000002,-0.912077,0.15719300000000003,0.260193,0.005311999999999983,0.9416224139253129,0.9965939864862745,double,-0.906765
23,0.191667,quasi,0.06455483561314218,0.12994960403167075,-0.00455963522917956,0.07157930012210513,0.13479615760608538,0.17316547336293897,0.0021598272138183914,0.002759779217662014,0.000599952003839876,-0.0007199424046016899,-0.0010799136069158564,0.0009599232061432187,2.4469725392943573,-0.4482533456002893,1.8575913610378065,-0.04322937247655609,0.11515565332174585,-8.638963274454227e-06,-0.25917926648754724,-0.28797293124861134,0.04318444986597034,0.047453999999999996,0.10991700000000004,-0.906722,-0.10976299999999994,-0.150308,-0.912031,0.15721699999999994,0.26022500000000004,0.005309000000000008,0.9409842611031054,0.9973094904313505,double,-0.906722
24,0.2,quasi,0.05904236169447348,0.11628465138605507,-0.012240489619590353,0.22039516721523086,-0.005096254810882763,-0.065698410541954,0.004080163206539,0.0007200288011461039,-0.002040081603264087,0.0,0.0008400336013548856,0.0015600624024964098,-0.6615233311734905,-1.639859911870355,-0.9217393964251513,0.23044953710795713,-0.24477984117555598,-0.31681670552069613,0.08639654441397927,0.23040288110773316,0.0720195843457567,0.04699600000000004,0.108954,-0.9066369999999999,-0.11025499999999999,-0.1512699999999999,-0.911916,0.15725100000000003,0.2602239999999999,0.005279000000000034,0.9395129395556104,0.9970469172646349,double,-0.9066369999999999
25,0.208333,quasi,0.06132245289812078,0.10248409936397739,0.0272410896435964,-0.2795811198602011,-0.07365133494612527,0.06932604188719498,0.0034801392055617193,0.0003600144005863764,-0.001320052802112159,-0.0008400336013415652,0.002160086403451642,0.003240129605184125,0.273621889313249,-1.6561324879488437,4.737979030743652,-0.07200576034768776,-0.04320345620541563,0.08640691241472818,-0.10080806448356741,0.15841267275852153,0.20161612896768505,0.046513999999999944,0.10810300000000006,-0.9068750000000001,-0.11077300000000001,-0.15210599999999996,-0.912116,0.15728699999999995,0.260209,0.00524099999999994,0.9413575761227001,0.9933604573492198,double,-0.9068750000000001
26,0.216667,quasi,0.06899448044156367,0.11699064074874709,0.0023998080153478474,-0.09934878365561045,0.10569189203144082,-0.026369420961204256,0.0038396928245778704,0.0016798656107461574,-0.0004799616030718175,0.00011999040075806724,0.0008399328053730787,0.0019198464122868538,0.920569659640375,1.740645714515201,-2.9807153381627707,0.04314298284331063,0.15836947566112067,0.10080287965446852,0.11519366475877507,-0.15840575930868275,-0.15842130944291696,0.045970999999999984,0.10714199999999996,-0.906899,-0.11134700000000008,-0.15307400000000004,-0.9121199999999999,0.15731800000000007,0.260216,0.00522099999999992,0.9407592041311682,0.9965017087263975,double,-0.906899
27,0.225,quasi,0.06828273130924399,0.13872554902195294,-0.02412096483859433,0.06494249948817178,-0.06343657620433069,-0.16204176948358412,0.00384015360613476,-0.0016800672026831248,-0.0015600624024959932,-0.00012000480018213519,0.0007200288011461039,0.003960158406336464,-0.08541331241085803,2.6082933245176814,-3.1826200472749497,5.5295998666673315e-05,-0.40320806593415087,-0.12961728062212588,-0.028800576135869702,-0.01438905606947974,0.24484723317527998,0.045433999999999974,0.10597200000000007,-0.9067109999999999,-0.11191699999999993,-0.15422400000000003,-0.911886,0.1573509999999999,0.2601960000000001,0.005175000000000041,0.940795843772334,0.9932885468476509,double,-0.9067109999999999
28,0.233333,quasi,0.07164286571463689,0.13248529941197562,0.0014400576023055312,-0.1560257863065608,0.026475462868271248,0.016202990832792644,0.0021600864034649584,0.0009600384015370207,-0.0025201008040321815,0.00048001920076851036,0.0010800432017324792,0.0015600624024959932,0.4032322579374652,-0.7488599075935818,3.0674453907236097,-0.20161612896553463,0.316825345520238,-0.11520921655300462,0.07200576034449119,0.043203456208613336,-0.2880230413825115,0.04485499999999998,0.10487600000000008,-0.906744,-0.11251,-0.15531899999999998,-0.911885,0.15736499999999998,0.26019500000000007,0.005140999999999951,0.9428312976323404,0.9967379682326651,double,-0.906744
29,0.241667,quasi,0.06095512359010729,0.12742980561555195,0.006719462443011296,-0.0519366047987416,0.02447102169679118,-0.08191814350318713,0.004559635229179576,0.0015598752099747737,0.0010799136069112808,-0.0016798656107594847,0.0019198464122889415,0.0051595872330215346,-1.282426460826689,-0.606610726712705,0.6334779026524812,0.287922825259734,0.07197465903980735,0.4319671719394613,-0.25916544414782816,0.10076832380087164,0.43190842698890686,0.04438500000000001,0.103827,-0.906791,-0.11303200000000002,-0.15636499999999998,-0.911898,0.15741700000000003,0.260192,0.005106999999999973,0.9406990122281269,0.9904070194742676,double,-0.906791
30,0.25,quasi,0.06132245289812058,0.15720628825153393,-0.015360614424579009,0.10022875790063372,-0.0002132310050490799,-0.0014160184529043102,0.0020400816032695,-0.00024000960037759357,-0.0019200768030719598,-0.0010800432017191559,0.0016800672026831248,0.004080163206528174,0.04408128021280304,3.5733208491518007,-2.649715212719343,-0.3023585294503869,-0.2159948170349653,-0.3600132497279777,0.0719815683475733,-0.02877465613894354,-0.129536064621788,0.04389100000000001,0.10251500000000002,-0.906679,-0.11355199999999999,-0.15766100000000005,-0.911736,0.157443,0.2601760000000001,0.005056999999999978,0.9447436627409602,0.9924286998557019,double,-0.906679
31,0.258333,quasi,0.07080283211328224,0.11832473298932496,0.018480739229567725,-0.16102962300512905,0.07482406173332308,-0.12391645778923929,0.00408016320652569,0.001320052802110077,-0.003480139205568381,-0.0015600624025009946,0.002280091203647101,0.0050402016080643795,1.1376910134599407,-4.665973270395904,4.061124883492958,0.2448195851741504,0.18721497689759684,-0.18721497689864697,-0.05760460827815193,0.07200576034609117,0.11520921655300703,0.04333500000000001,0.10153999999999996,-0.906862,-0.114155,-0.1586280000000001,-0.911848,0.15749000000000002,0.26016800000000007,0.004986000000000046,0.9409352850122013,0.9904204728070483,double,-0.906862
32,0.266667,quasi,0.05783537317014423,0.17182625389968653,-0.002399808015361169,-0.025760555374726168,-0.04943876061987651,-0.09502521794450179,0.003959683225335938,0.0010799136069158564,-0.005159587233021102,-0.002039836813060324,0.004439644828421493,0.006359491240700437,-1.5559705955289178,6.419668935728525,-2.505465232172891,-0.01445644122747208,-0.02881439827144474,-0.20151764188297566,-0.05756832380121538,0.2591257049165335,0.15830209174898685,0.04288599999999998,0.10011700000000001,-0.9068849999999999,-0.11465400000000003,-0.16002300000000003,-0.911775,0.15754,0.26014000000000004,0.004890000000000061,0.9401117935622673,0.9866339454351506,double,-0.9068849999999999
33,0.275,quasi,0.07680307212288147,0.142685707428296,-0.03000120004799849,0.25509939049124714,0.2602889452030035,-0.08695578350669257,0.005160206408258139,0.0012000480019146104,-0.003720148805952196,-0.0013200528021100684,0.004800192007685088,0.006480259210368623,2.2762149229253765,-3.49700545678512,-3.3122995358979,0.14406854469245123,0.014416704068013143,0.17273952082910113,0.08637753641548694,0.043267392207319455,0.014492736069625037,0.04228900000000002,0.09893799999999997,-0.906666,-0.11530499999999999,-0.16117199999999998,-0.911471,0.157594,0.26010999999999995,0.004805000000000059,0.9411606852600007,0.9863803509850484,double,-0.906666
34,0.283333,quasi,0.07848313932557843,0.1521660866434584,0.016800672026884594,-0.17429042447929877,-0.032007266462055525,-0.04468652505333937,0.002280091203647101,-0.003000120004806531,-0.010800432017280695,-0.002640105604220154,0.006360254410172792,0.008400336013440632,0.2016161289687949,1.137691013460029,5.616449306958262,-0.34562764965931175,-0.5040403224194351,-0.8496679720783051,-0.15841267276012108,0.18721497689760083,0.23041843310596585,0.04165399999999997,0.09764499999999998,-0.906896,-0.115981,-0.16238699999999995,-0.911541,0.15763499999999997,0.26003199999999993,0.00464500000000001,0.9344851350137302,0.9818962374304965,double,-0.906896
35,0.291667,quasi,0.07871370290376642,0.1589872810175209,-0.015598752099840938,0.10708943948678575,0.15781248580500332,-0.12367074363575521,0.002519798416132558,-0.00011999040075806724,-0.009119270458363284,-0.004079673626107326,0.00527957763378125,0.009359251259898985,0.027665416149266434,0.8184778466597671,-3.8876198856162105,0.028762564493095336,0.34558790545337903,0.20172324921015233,-0.17273434387895018,-0.12967083949982486,0.11506062472502426,0.04101900000000003,0.09631900000000004,-0.9068419999999999,-0.11667099999999997,-0.16366800000000004,-0.911333,0.15769,0.2599870000000001,0.004491000000000023,0.9393204023648354,0.9808432445167218,double,-0.9068419999999999
36,0.3,quasi,0.07644305772230893,0.15048601944077528,0.00720028801152768,0.004440197796971607,-0.014901599350588901,0.06326781236712334,0.003600144005757178,0.000480019200768512,-0.0028801152046081576,-0.00540021600864909,0.0061202448097951966,0.008040321612864665,-0.27248832130775175,-1.0201921968973544,2.7359942531343666,0.1296466566212196,0.07200403234448348,0.7487285795938007,-0.15847142476200254,0.10088409648553323,-0.1582778887596692,0.040412000000000003,0.09506900000000007,-0.906926,-0.11735300000000004,-0.164871,-0.911326,0.15776500000000004,0.25994000000000006,0.0043999999999999595,0.9482744078099851,0.9809047343629229,double,-0.906926
37,0.308333,quasi,0.08952358094324028,0.14892595703828662,0.0212408496339832,-0.2844417624199013,0.08136712304750152,-0.13235552147675125,0.005640225609026647,0.0009600384015370176,-0.0006000240009602196,-0.0034801392055616963,0.004560182407294172,0.007920316812672485,1.5697255755347772,-0.18721497689771366,1.6849347920863385,0.2448195851757423,0.05760460827655149,0.273621889313324,0.23041843310781063,-0.18721497689919817,-0.014401152069144284,0.039713,0.09383600000000003,-0.907108,-0.11812800000000001,-0.16607400000000005,-0.911437,0.157841,0.2599100000000001,0.004329000000000027,0.9471221246336159,0.9837008818497761,double,-0.907108
38,0.316667,quasi,0.09419246460282327,0.14794816414687384,0.005279577633794607,-0.051991642478139186,0.10918354814765642,0.009641467467646844,0.006119510439167692,0.002039836813047016,0.00311975041996621,-0.005879529637624912,0.010079193664516976,0.0025197984161267465,0.5602212214522451,-0.11732576090866181,-1.9151994240687162,0.05750957885061761,0.12956544414566892,0.4463372235332914,-0.28790381954202415,0.6622283725969326,-0.6480103667561519,0.0389790000000001,0.09261999999999992,-0.9071260000000001,-0.1189619999999999,-0.167223,-0.91146,0.157941,0.25984299999999994,0.004333999999999949,0.9447177564780147,0.9801038531267663,double,-0.9071260000000001
39,0.325,quasi,0.06636265450618305,0.13500540021599988,-0.0699627985119402,0.377765362931242,0.9339723814748381,-0.34161771045116185,0.005400216008635731,0.002760110404415595,0.0004800192007680924,-0.009600384015370176,0.00708028321131885,0.011040441617664461,-3.3397108000288136,-1.5531937994568465,-9.029446315340753,-0.0863187844152115,0.08643628841576571,-0.3167804175204736,-0.4465203861448756,-0.35988364972976283,1.0225180849079178,0.03847100000000003,0.09151799999999999,-0.9065390000000001,-0.119595,-0.16828900000000002,-0.9107850000000001,0.15806600000000004,0.259807,0.004245999999999972,0.9474005609379355,0.972910173357466,double,-0.9065390000000001
40,0.333333,quasi,0.07716308652346836,0.1593663746549861,0.01644065762629822,-0.08911778875510985,0.06194128920311944,0.0014212601259560756,0.004320172806916608,0.00240009600384256,-0.00012000480019171164,-0.01404056162245566,0.009960398415943292,0.013680547221888852,1.2961036862216895,2.9234338700331546,10.368829489768228,-0.12961036862103997,-0.043203456207012575,-0.07200576034559049,-0.5328426265553217,0.34562764966092036,0.3168253455207486,0.03786400000000001,0.09021000000000001,-0.906677,-0.12035499999999999,-0.16953399999999996,-0.910808,0.158219,0.259744,0.004130999999999996,0.9504507384599117,0.963352115432863,double,-0.906677
41,0.341667,quasi,0.08051355891528396,0.157787377009847,-0.01667866570674347,0.11571923032152397,0.27536920517212027,-0.20343645284459125,0.007919366450671875,0.0015598752099880903,0.00035997120230375903,-0.017518598512129873,0.015118790496755382,0.01667866570674347,0.4020245250558673,-0.18946456025187255,-3.9740008798946076,0.4318686877556112,-0.1008184297881532,0.05759251289842455,-0.417331040277683,0.6189575330948025,0.35974543854747015,0.03725899999999993,0.08890799999999999,-0.906535,-0.12117200000000006,-0.17072300000000007,-0.91053,0.158431,0.25963100000000006,0.003994999999999971,0.946584080577946,0.9524588771672565,double,-0.906535
42,0.35,quasi,0.08700348013920287,0.18108724348973795,0.004680187207489661,-0.07709140404123226,0.10677915016537327,-0.317398492693711,0.004680187207489661,0.005400216008635768,0.005760230409216315,-0.014880595223810548,0.012000480019199476,0.028201128045122183,0.7788216997382603,2.796095821419779,2.563164876303034,-0.3887170578641813,0.46085933021093084,0.6480570271105928,0.3165730575206206,-0.3742122257957414,1.3827507906370742,0.03657299999999997,0.08744399999999997,-0.9065259999999999,-0.12202100000000005,-0.17213200000000006,-0.910334,0.158594,0.25957600000000003,0.0038080000000000336,0.9466223295524071,0.9432170981837286,double,-0.9065259999999999
43,0.358333,quasi,0.0600024000960103,0.19788791551662122,0.009480379215174717,0.19114407223908544,0.5436109256516969,-0.10924447448738445,0.0085203408136377,-0.0002400096003775928,-0.0044401776071041265,-0.005280211208440274,0.021960878435142623,0.0363614544581779,-3.240259215551716,2.0161612896775702,0.576046082765515,0.4608368662124113,-0.6768541472474903,-1.224097925875483,1.1520921655310494,1.1952956217380422,0.97927834070031,0.036143999999999954,0.08579300000000001,-0.9066420000000001,-0.12256500000000004,-0.17359800000000003,-0.9101100000000001,0.158709,0.25939100000000004,0.0034680000000000266,0.9493018688346053,0.928657395805658,double,-0.9066420000000001
44,0.366667,quasi,0.03911687065034043,0.20746340292776325,0.01667866570674347,0.05308082786529049,0.09683597827955447,-0.3203784339245328,0.006599472042239885,0.0019198464122756136,-0.00035997120230417536,-0.005879529637624873,0.024118070554356434,0.029157667386609062,-2.506063048436507,1.1489665720112816,0.8637252809657724,-0.23048581370264143,0.2591619885592998,0.48958560172785537,-0.07191245850547137,0.25884234691790364,-0.8643852977644385,0.035873000000000044,0.08407999999999993,-0.906784,-0.12293999999999994,-0.175126,-0.9100060000000001,0.15881299999999998,0.25920599999999994,0.003222000000000058,0.9563092133431726,0.9361768989172949,double,-0.906784
45,0.375,quasi,0.11964478579143503,0.13332533301331764,-0.017520700828044026,0.007609016455043499,0.4463324594543709,-0.16427244460205512,0.007320292811709816,0.001440057602305536,-0.0003600144005759676,-0.009360374414979321,0.03648145925836694,0.04200168006720275,9.663736366386031,-8.896924266704163,-4.104088147700418,0.0865019524144885,-0.057576960274820455,-5.183999975067831e-06,-0.41771808200581506,1.4836659911209091,1.5413431753982623,0.034936999999999996,0.08298099999999997,-0.9066409999999999,-0.12401499999999999,-0.175933,-0.9095099999999999,0.15895199999999998,0.258914,0.0028690000000000104,0.9588612089926872,0.90597496481025,double,-0.9066409999999999
46,0.383333,quasi,0.09168366734669252,0.1543261730469234,0.006840273610954626,-0.14784914664933557,0.06385322282174913,-0.13947146670134894,0.005400216008635768,0.000960038401537024,-0.00396015840633606,-0.0129605184207365,0.045601824072968665,0.07572302892115698,-3.3554684321063943,2.52020161209718,2.9234338700346467,-0.23041843310621057,-0.057604608276552643,-0.43203456207369517,-0.4320345620733455,1.0944875572544999,4.046723731423775,0.03421799999999997,0.08170299999999997,-0.9067310000000001,-0.12488699999999997,-0.17683899999999997,-0.9089360000000001,0.15910499999999994,0.25854199999999994,0.0022050000000000125,0.9666747984403794,0.8511014653315273,double,-0.9067310000000001
47,0.391667,quasi,0.08291336693064513,0.15562754979601529,0.0009599232061444676,0.11013878008842172,0.2413498031569882,0.021022530021815745,0.005759539236866806,-0.00035997120230084497,-0.005159587233021518,0.04691624670025424,-0.00035997120231416656,0.06695464362851,-1.0523518617767431,0.15615271767361308,-0.70558560172908,0.04311533816067169,-0.15838848138203357,-0.14391994560660626,7.184637043555397,-5.514974235095127,-1.0521220653524084,0.03357500000000002,0.080403,-0.9067820000000001,-0.12518700000000005,-0.17813900000000005,-0.908386,0.15876200000000007,0.25854200000000005,0.0016039999999999388,0.9710583192414222,0.8637385266081912,double,-0.9067820000000001
48,0.4,quasi,0.09468378735149842,0.14772590903635868,-0.008400336013442242,0.04957746902644929,0.39975984131225223,-0.08753600192396806,0.005280211208440274,0.0003600144005730508,-0.0015600624024959882,-0.0018000720028785772,0.05880235209409569,0.09084363374534911,1.4125069507804198,-0.9482348205516105,-1.1232760373918962,-0.05752166427775473,0.08640172841400369,0.43196025807338473,-5.846192092059596,7.099762786080596,2.866793485760111,0.032829999999999915,0.079175,-0.906725,-0.12599100000000008,-0.17887999999999993,-0.907559,0.158821,0.2580549999999999,0.0008340000000000014,0.9824639810131957,0.8196182854251028,double,-0.906725
49,0.408333,quasi,0.0925237009480341,0.15720628825153446,-0.003720148805952637,0.09168624688078043,0.182240271611453,-0.06612782137820067,0.005760230409222144,0.001440057602305536,-0.0006000240009602237,-0.006360254410172792,0.06168246729868051,0.11100444017760765,-0.2592207372452092,1.1376910134616345,0.5616449306959818,0.057604608278155695,0.12961036862264347,0.11520921655295416,-0.5472437786264521,0.34562764965616516,2.419393547612935,0.032107,0.07787699999999997,-0.906699,-0.126815,-0.17967600000000006,-0.906603,0.158922,0.25755300000000003,9.599999999998499e-05,0.9900537487426146,0.7871230525145458,double,-0.906603
50,0.416667,quasi,0.11159107271418113,0.13438924886009224,0.018598512119032407,-0.12038581875651073,0.37409272284622463,0.035223254638249955,0.007079433645312118,-0.0004799616030722338,-0.0002399808015357006,-0.005519558435324028,0.0753539716822741,0.13942884569234446,2.287901579811257,-2.7378257009169906,2.6780250689926834,0.15829172499279737,-0.23038387393541732,0.04320172779271931,0.1008754469460959,1.6404492900880228,3.4106558093036696,0.03123600000000004,0.07675299999999996,-0.906856,-0.127791,-0.180168,-0.9055960000000001,0.15902700000000003,0.25692099999999995,0.0012599999999999278,0.9881670968782539,0.7230922585701285,double,-0.9055960000000001
51,0.425,quasi,0.09840393615745169,0.15012600504020224,0.01176047041880856,-0.021845138626426015,0.41071242243150213,-0.028966745617063493,0.005520220808831226,0.0015600624025009946,0.001200048001920031,-0.0061202448097951966,0.08784351374054443,0.15012600504020182,-1.582519687595041,1.8884862810644474,-0.8205978279399813,-0.1871130248987035,0.24481267317571506,0.1728103688294414,-0.07208524834647431,1.4988049991924104,1.2837104701616935,0.03046199999999999,0.075515,-0.906944,-0.12866200000000005,-0.18068700000000004,-0.904443,0.15912400000000004,0.25620200000000004,0.0025009999999999755,0.9902323169350171,0.68491454194283,double,-0.904443
52,0.433333,quasi,0.10440417616703741,0.13524540981639077,0.022320892835715672,-0.09219889529792602,0.28777321334833716,0.04363156778801613,0.006360254410172749,-0.002760110404415595,-0.0014400576023038609,-0.007800312012478276,0.1077643105724303,0.17568702748109852,0.7200576034544222,-1.7857428565716313,1.2673013820841317,0.10080806448356168,-0.5184414744889682,-0.3168253455206865,-0.20161612896712733,2.3905912434760337,3.0674453907232198,0.029645000000000032,0.07436500000000001,-0.907142,-0.12959699999999996,-0.18091599999999997,-0.903165,0.159242,0.255281,0.003977000000000008,0.9881978331197852,0.6164765227416784,double,-0.903165
53,0.441667,quasi,0.0895128389728856,0.15850731941444973,0.02375809935205575,-0.14394436855019152,0.04703512628323563,-0.03559415669591908,0.022798176145911276,-0.00491960643149376,-0.006119510439165194,-0.01559875209982772,0.11531077513798837,0.19498440124790103,-1.7868175178967955,2.791205855298667,0.17245098588193983,1.9723928168632854,-0.2591187937458816,-0.5614894212696615,-0.935737951445823,0.905503307602366,2.3154996120473514,0.02908900000000003,0.07300299999999993,-0.9073910000000001,-0.13047299999999995,-0.181276,-0.901738,0.15956199999999998,0.2542789999999999,0.005653000000000019,0.9598126688344364,0.5650272380721886,double,-0.901738
54,0.45,quasi,0.130445217808719,0.11940477619104332,0.010680427217089328,0.013944955455791878,0.7938306007759751,0.06214791723575394,0.005400216008635731,-0.0015600624024876611,-0.005040201608064346,-0.027001080043205304,0.12456498259930146,0.22188887555502168,4.912081943577731,-4.69249288652421,-1.5693834315332253,-2.087838730022258,0.4031614099371276,0.1295222406217261,-1.3683340865687672,1.1105493173302587,3.2286660634970037,0.028046999999999933,0.07199500000000003,-0.907522,-0.13178500000000004,-0.18123299999999998,-0.8999780000000001,0.15983199999999997,0.253228,0.007543999999999995,0.9874169691107522,0.49807512235831414,single,-0.8999780000000001
55,0.458333,quasi,0.10932437297491869,0.15216608664347175,0.032641305652218844,-0.3500384680649414,0.17703034816380148,0.06406969401559892,0.002520100804038019,-0.0015600624025009946,-0.0014400576023038704,-0.02652106084243697,0.13248529941197607,0.25285011400456053,-2.5346027641666113,3.931514514872016,2.6354108286486944,-0.34562764965771264,-1.6000862015152726e-12,0.432034562073741,0.057604608276531306,0.9504760365624174,3.715497233834025,0.027156999999999987,0.07071399999999994,-0.907806,-0.13291700000000006,-0.18139700000000003,-0.898143,0.16007400000000005,0.252111,0.009662999999999977,0.9945079682316197,0.4255598872616618,single,-0.898143
56,0.466667,quasi,0.11279097672185505,0.12694984401247927,0.010079193664503588,0.12287363828421122,0.4314801773331117,0.12047474462557352,0.002519798416119236,-0.002639788816890625,-0.0034797216222703644,-0.04187664986800244,0.17290616750660237,0.30345572354211675,0.41595917289853074,-3.0257070591543624,-2.707236859577062,-3.628364756213112e-05,-0.12955680518234095,-0.244740103187724,-1.8425232812053585,4.850116162062187,6.072187369517179,0.026237999999999984,0.06963399999999997,-0.9079189999999999,-0.13420599999999994,-0.181014,-0.895698,0.16044399999999992,0.250648,0.012220999999999926,0.9915959117712876,0.37778999999999996,single,-0.895698
57,0.475,quasi,0.11244449777990735,0.11304452178087132,0.054722188887557074,-0.21151031052254346,0.22658991971042117,0.2811931864945172,0.002880115204611072,-0.0016800672026964535,-0.005760230409216315,-0.07560302412096735,0.18336733469338504,0.3450138005520224,-0.04157913619917179,-1.6687054160095989,5.3573737217153,0.04323974420878877,0.11517120055132293,-0.27367200131356734,-4.047326803427937,1.255390278025044,4.987168727937809,0.025325000000000042,0.0686779999999999,-0.908423,-0.13577299999999992,-0.18042800000000003,-0.8932789999999999,0.16109799999999996,0.24910599999999994,0.015144000000000046,0.9889072165895685,0.34856000000000004,single,-0.8932789999999999
58,0.483333,quasi,0.12444497779911932,0.10980439217568647,0.043321732869321276,-0.3087620127855397,0.6972582012391659,0.25553680065611345,0.002280091203647086,-0.002280091203647086,-0.0032401296051841034,-0.08712348493939774,0.21192847713907678,0.3692547701908065,1.4401152069137073,-0.3888311058664156,-1.3681094465661527,-0.07200576034609187,-0.07200576034448937,0.3024241934516022,-1.3825105986355863,3.4274741924506933,2.909032717962796,0.024306999999999968,0.06774399999999992,-0.908811,-0.137536,-0.1795770000000001,-0.890563,0.16184299999999996,0.247321,0.018248000000000042,0.9923812964699643,0.31752,single,-0.890563
59,0.491667,quasi,0.12347012239020226,0.11111111111110888,0.021118310535151643,-0.07335989115272012,0.5078559075643615,0.21822509429759776,0.0015598752099880903,-0.0016798656107461574,-0.004799616030717759,-0.10259179265659339,0.24046076313894935,0.400887928965682,-0.11697329120675097,0.15679372875238987,-2.6641975442968095,-0.08641900571862189,0.07202130944335587,-0.1871234011919431,-1.8560484421881012,3.4236004319501485,3.795675398953139,0.02329100000000006,0.06680399999999997,-0.9090269999999999,-0.13942,-0.17849900000000007,-0.887398,0.16271100000000005,0.24530300000000005,0.0216289999999999,0.9911350450926719,0.28371,single,-0.887398
60,0.5,quasi,0.13188527541102543,0.08676347053881195,0.07116284651386862,-0.24300746717657284,0.37740479032370045,0.3973638342371942,0.001440057602305536,-0.001920076803074048,-0.003000120004799869,-0.13260530421217154,0.26317052682107356,0.4453378135125415,1.009858756849057,-2.9218337420253206,6.005584540827685,-0.014378688069429338,-0.028826496139192505,0.21594816103658876,-3.601765457287678,2.7252806530810356,5.334199513603697,0.022204,0.06606500000000004,-0.909645,-0.14162400000000008,-0.177029,-0.8842800000000001,0.16382800000000008,0.24309400000000003,0.02536499999999997,0.9935966196273502,0.24635000000000007,single,-0.8842800000000001
61,0.508333,quasi,0.12636505460218003,0.11076443057722349,0.011520460818430887,-0.09072116765897209,0.7288357170543106,0.18957648967454843,0.0030001200047931873,-0.002520100804024679,-0.002280091203648335,-0.15480619224767755,0.26965078603144,0.4206168246729853,-0.6624529951812524,2.8802304138259256,-7.1573725783556315,0.18721497689759328,-0.07200576034448918,0.08640691241468032,-2.6642131327860223,0.7776622117324382,-2.9666373262397814,0.021175999999999973,0.0651210000000001,-0.90976,-0.14396699999999996,-0.175705,-0.8808710000000001,0.16514299999999993,0.2408260000000001,0.028888999999999943,0.9924445670756878,0.21111000000000002,single,-0.8808710000000001
62,0.516667,quasi,0.14038876889848945,0.11771058315334956,-0.0033597312215056588,-0.23843564629974595,0.09772390121228182,0.1634557783275793,0.00467962562995098,-0.00011999040077138965,-0.0011999040076793436,-0.19534437245021397,0.28809695224383386,0.500959923206147,1.6827110986692457,0.8334716314046213,-1.7854802063758857,0.20152455305469189,0.28799020917366247,0.1296120945487158,-4.864192488905284,2.21336287645716,9.640400591932108,0.02004499999999998,0.06413900000000006,-0.9097419999999999,-0.14676500000000003,-0.1742849999999999,-0.876668,0.16681,0.23842399999999997,0.03307399999999994,0.9919458321071881,0.16925999999999997,single,-0.876668
63,0.525,quasi,0.11016440657625952,0.10224408976359911,0.03444137765511053,-0.08075253054406697,0.8099417020848458,0.343066651957094,0.005400216008635731,0.0006000240009639668,-0.0044401776071041265,-0.220928837153483,0.3370934837393422,0.5359414376575038,-3.6270685614100326,-1.8560534489080027,4.536314517774635,0.08647430441434636,0.08640518441561904,-0.38884838586640696,-3.0702585747352598,5.879818972219868,4.197949652148882,0.019171999999999967,0.06329200000000001,-0.910066,-0.149524,-0.17232800000000004,-0.8724890000000001,0.16869599999999996,0.23562000000000005,0.03757699999999997,0.9883050890787337,0.12423000000000001,single,-0.8724890000000001
64,0.533333,quasi,0.09480379215169514,0.09576383055321885,0.03168126725068203,0.02042414269102897,0.7834469282877149,0.26952472087136914,0.02244089763591143,0.0003600144005730556,-0.007080283211328521,-0.24192967718709182,0.38665546621864594,0.6097443897755969,-1.8433474648463362,-0.7776622117341073,-0.3312264975913268,2.0449635938168553,-0.028802304139075165,-0.3168253455207511,-2.5202016120975665,5.947675804548682,8.85670852251215,0.018568999999999947,0.062497000000000025,-0.910389,-0.15233000000000008,-0.16990400000000005,-0.867672,0.17089900000000002,0.23240100000000008,0.042717000000000005,0.9607764984201401,0.07282999999999995,single,-0.867672
65,0.541667,quasi,0.12838972882168181,0.1107511399088073,0.02399808015359821,-0.48552836493105933,0.08833395927055808,0.15983046966929965,0.006959443244540683,0.0007199424046016851,-0.0075593952483801385,-0.2742980561555067,0.4461243100551921,0.6447084233261293,4.029990001198274,1.7983332560101197,-0.9219086989541352,-1.8576259168911242,0.043187905450999126,-0.05748884533856655,-3.8838947646285824,7.135690405153072,4.1953483981920074,0.017557000000000045,0.06157999999999997,-0.910652,-0.155686,-0.16710900000000006,-0.862499,0.17324300000000004,0.22868900000000003,0.048153,0.9828327974306011,0.018469999999999986,single,-0.862499
66,0.55,quasi,0.09516380655226693,0.1080043201728079,0.02016080643225072,0.1271871056314853,1.2164565665740583,0.22754252316364112,0.006600264010563665,0.0012000480019279335,-0.00468018720748838,-0.34453378135124746,0.4858994359774467,0.71690867634705,-3.987270163136295,-0.3296315535820713,-0.46049126621234504,-0.04310323220653021,0.057614976278200704,0.34551878565843586,-8.428624168455597,4.773206038912092,8.664376937587951,0.01681900000000003,0.06069000000000002,-0.910859,-0.15935,-0.16396,-0.856693,0.17616900000000002,0.22465000000000002,0.054165999999999936,0.9863671401352374,0.0,single,-0.856693
67,0.558333,quasi,0.07260290411616131,0.07572302892115,0.1068042721708947,-0.1678525993613643,1.0648649612585497,0.3996345059763914,0.005160206408258207,0.0019200768030607374,0.00036001440057597004,-0.3567742709708425,0.5749429977199129,0.7407896315852699,-2.7074165889962587,-3.8739099065952463,10.39763179390913,-0.17281382482964971,0.08640691241243376,0.6048483869032036,-1.468917511051863,10.685654835289446,2.865829261756881,0.016257000000000077,0.06007499999999999,-0.9117460000000001,-0.16292799999999996,-0.15979999999999994,-0.85141,0.17918500000000004,0.21987499999999993,0.060336000000000056,0.9908039810131861,0.0,single,-0.85141
68,0.566667,quasi,0.036237101031920106,0.08387329013678904,0.03191744660427003,0.5209787251831486,0.9112526625381822,0.04956682707953356,0.005639548836082057,0.0019198464122889224,0.0,-0.29325653947683983,0.5076793856491424,0.7125029997600136,-4.363547286326005,0.9779531096279072,-8.985700211977935,0.05751649001965998,-2.764468104331814e-05,-0.04319827220733949,7.6215180578356385,-8.070987769470838,-3.394124289087598,0.01600199999999996,0.059392,-0.912012,-0.165674,-0.15626799999999996,-0.8457380000000001,0.18167599999999995,0.21565999999999996,0.06627399999999994,0.9900710410468876,0.0,single,-0.8457380000000001
69,0.575,quasi,0.06660266410656153,0.12060482419297286,-0.015840633625347676,-0.3270940168840907,0.21061342129723476,0.2090497658429035,0.005040201608076071,0.00216008640346498,-0.0001200048001921288,-0.31117244689787354,0.536061442457703,0.7554302172086963,3.6440133294901838,4.407960405158304,-5.731198875509198,-0.07192454434249275,0.028829952139212748,-0.014401152069138353,-2.1499948903196784,3.405983056349563,5.151472152728076,0.015489000000000086,0.05840500000000004,-0.911881,-0.16882199999999992,-0.152806,-0.839311,0.184311,0.21121100000000004,0.07257000000000002,0.9908585184350924,0.0,single,-0.839311
70,0.583333,quasi,0.059162366494668744,0.06612264490579214,0.09024360974438639,-0.04367896096106682,0.4916804733109008,-0.08994791906754568,0.003960158406330205,0.0004800192007685088,0.0008400336013440577,-0.2722908916356735,0.6000240009600364,0.7593903756150214,-0.8928714282842618,-6.538123039383234,12.7306184291052,-0.12961036862424832,-0.20161612896873446,0.115209216553004,4.665973270394803,7.675814052842083,0.475238018279745,0.015028999999999959,0.057858000000000076,-0.912626,-0.17158400000000007,-0.14835699999999996,-0.833735,0.18661300000000003,0.20621500000000004,0.07889100000000004,0.9932056131239495,0.0,single,-0.833735
71,0.591667,quasi,0.05639548836092715,0.12071034317255276,0.012119030477563832,-0.021343147331345715,1.12712204222796,-0.03165542272020452,0.0027597792176619956,-0.0004799616030722306,-0.001919846412286841,-0.2796976241900593,0.546916246700254,0.7614590832733312,-0.3319988161436973,6.549999792027862,-9.374199576052552,-0.14403397992179026,-0.11518848138237726,-0.33115910890699274,-0.888736807581681,-6.372420717516441,0.24822506099229455,0.014581999999999984,0.05684800000000001,-0.912743,-0.174385,-0.14480500000000007,-0.8274900000000001,0.188967,0.20165300000000008,0.08525299999999991,0.9943400641156377,0.0,single,-0.8274900000000001
72,0.6,quasi,0.04776191047642063,0.12768510740429181,-0.09456378255130422,0.25735862320805264,-0.44948479959827176,-0.35510979969734263,0.005760230409222182,0.003360134405366283,0.0033601344053762754,-0.48409936397456127,0.636265450618034,0.9510380415216697,-1.0360707889723508,0.8370051880162146,-12.802449661450742,0.36006854572905483,0.46082995421079426,0.6336230430413013,-24.52918994173813,10.722333363468238,22.750385005201032,0.014232000000000022,0.05581199999999997,-0.911927,-0.178817,-0.140567,-0.818777,0.19304900000000003,0.19637899999999997,0.09315000000000007,0.9875544228280297,0.0,single,-0.818777
73,0.608333,quasi,0.032881315252609546,0.12936517460698654,0.05256210248410508,0.1205955951091082,0.6811005566699287,-0.37441078792499716,0.004200168006721121,0.002160086403464951,-0.0004800192007680924,-0.2569302772110945,0.6733469338773562,0.7532701308052296,-1.7857428565715856,0.20161612896852543,17.655812436746512,-0.18721497689920252,-0.1440115206889868,-0.46083686621197073,27.26138086685057,4.449955989358227,-23.733098609917107,0.013993000000000033,0.05475200000000002,-0.9123690000000001,-0.18123200000000006,-0.136034,-0.812938,0.1952250000000001,0.190786,0.09943100000000005,0.9920876673287442,0.0,single,-0.812938
74,0.616667,quasi,0.04847612191024265,0.06563474922005848,0.05375569954403726,0.7761997146183524,1.5753837698855662,0.00599406064475341,0.0016798656107461687,0.0013198944084453212,0.0025197984161267465,-0.32757379409646203,0.5859131269498439,0.8364530837533051,1.8712271007479233,-7.647039283288748,0.14322018957669566,-0.302412094549432,-0.10081497420441979,0.3599493180819362,-8.476543902731931,-10.49121753389883,9.981155861300204,0.013603000000000032,0.05421600000000004,-0.912796,-0.18436599999999992,-0.13169799999999998,-0.8064150000000001,0.19796899999999995,0.18591400000000002,0.10638099999999995,0.9944940805143898,0.0,single,-0.8064150000000001
75,0.625,quasi,0.048841953678152465,0.08772350894036171,0.07752310092402756,-0.5219609934503399,0.33966723415226496,-0.23292767180287843,0.000120004800195458,-0.0003600144005730508,0.0001200048001921272,-0.3361334453378185,0.6389055562222457,0.8397935917436667,0.043901568211906224,2.650757196724246,2.852202253688972,-0.1871907848974804,-0.20159712096704246,-0.2879867533822884,-1.027199236932252,6.359345886523648,0.4008769939231561,0.013197000000000014,0.05348200000000003,-0.913441,-0.18757400000000002,-0.12710500000000002,-0.800063,0.20077100000000003,0.18058700000000005,0.11337799999999998,0.9993366485078718,0.0,single,-0.800063
76,0.633333,quasi,0.006600264010563665,0.10872434897395399,0.022200888035520214,0.2520301007745045,0.7884077267900117,-0.37008592348239555,0.0013200528021100684,0.0,0.0018000720028798262,-0.42901716068642504,0.7980319212768531,0.8916356654266124,-5.069205528331769,2.5202016120955464,-6.6389311038650085,0.14401152069058026,0.04320345620701419,0.20161612896768175,-11.146491701500794,19.095927643658555,6.221297693861211,0.01315299999999997,0.05257600000000007,-0.913611,-0.19120400000000004,-0.12136099999999994,-0.792818,0.204357,0.173937,0.12079299999999993,0.9962796361379003,0.0,single,-0.792818
77,0.641667,quasi,-0.005159587233023217,0.10187185025197906,0.023038156947454053,0.25901427159531865,0.6602960116468704,-0.22950016106798535,0.0013198944084453212,0.0005999520038303051,-0.00035997120230376147,-0.40316774658027943,0.6856251499880045,0.8683705303575755,-1.4110692636893387,-0.8222340679115625,0.10046423229347784,-1.9005719312115566e-05,0.07198848138112653,-0.2591844498660427,3.1016815582128334,-13.487733535979027,-2.7915928808539796,0.013206999999999969,0.051732,-0.913806,-0.19452100000000005,-0.11649599999999993,-0.785773,0.20772800000000002,0.16822799999999993,0.12803299999999995,0.9975102192628704,0.0,single,-0.785773
78,0.65,quasi,0.005640225609026647,0.0932437297491929,0.11280451218047965,0.45232164068145414,1.3069837234654962,-0.17724802955961588,0.0003600144005730508,0.0018000720028785772,0.0015600624024959882,-0.4395775831033189,0.7459498379935166,0.900396015840631,1.2960293822212672,-1.035415876969414,10.772393523703975,-0.1151902085530141,0.14402016069221973,0.23041324910593322,-4.369355156970998,7.239252130746646,3.8432119864461023,0.013162999999999925,0.05096999999999996,-0.914733,-0.19823100000000005,-0.11105699999999996,-0.77921,0.21139399999999997,0.16202699999999992,0.13552300000000006,0.9959848674147225,0.0,single,-0.77921
79,0.658333,quasi,0.045121804872187136,0.10332413296531964,0.03300132005280544,-0.7061746293187162,0.8720372289878854,-0.32215332659442414,0.0,0.0004800192007685152,-0.00024000960038384123,-0.3496939877595102,0.7200288011520533,0.8115924636985543,4.737979030740532,1.2096967738061726,-9.576766125966031,-0.04320345620701477,-0.15841267276011928,-0.21601728103682297,10.786462899773133,-3.110648846929501,-10.656852531150546,0.012786999999999993,0.05011299999999996,-0.91501,-0.20152099999999995,-0.10591799999999996,-0.772722,0.21430799999999994,0.15603099999999992,0.14228799999999997,0.9991055370304807,0.0,single,-0.772722
80,0.666667,quasi,0.024958003359729346,0.09323254139669088,0.04631629469642363,-0.1307336050724668,0.801516708896218,-0.3702106908129027,-0.0015598752099747583,0.002399808015361153,0.0009599232061436286,-0.40172786177105735,0.7218622510199154,0.8546916246700187,-2.4194626244849577,-1.2108941167061062,1.597669143702674,-0.18717005159284214,0.23035622925277457,0.1439804183498273,-6.243565396153916,0.21999638443270267,5.171485597727868,0.012566000000000077,0.049355999999999955,-0.915388,-0.20507699999999995,-0.10067899999999996,-0.765985,0.21764300000000003,0.15003499999999992,0.14940299999999995,0.9949685042694989,0.0,single,-0.765985
81,0.675,quasi,-0.028441137645497508,0.08892355694227631,0.055922236889471316,-0.1581415598612816,0.3895212052689535,-0.2833698918760355,-0.0013200528021233915,0.0007200288011594248,0.00012000480019171084,-0.44353774150966246,0.7478699147965773,0.8781951278051108,-6.408153246757067,-0.5170988184824847,1.152759173532659,0.02877984013576933,-0.20158156896696525,-0.10079424048384908,-5.017386264083156,3.1210444949792095,2.82053319753894,0.012791999999999915,0.048621000000000025,-0.915853,-0.20853600000000005,-0.09518800000000005,-0.759133,0.22132799999999997,0.14380900000000008,0.15672000000000008,0.9974859384195192,0.0,single,-0.759133
82,0.683333,quasi,-0.06264250570023128,0.10200408016320955,-0.20208808352334504,0.38945744553790806,-1.7367039836953575,-0.18885621442107242,-0.003360134405366283,0.0003600144005730556,-0.00036001440057597004,-0.4725789031561302,0.7070682827313167,0.8867154686187536,-4.104328339701678,1.5697255755350246,-30.96247694861619,-0.24481958517255611,-0.04320345620861304,-0.05760460827645329,-3.485078800728191,-4.896391703499451,1.0224817969090259,0.01328600000000002,0.04777399999999998,-0.914172,-0.21195200000000003,-0.09014600000000006,-0.75006,0.22523800000000005,0.13792000000000004,0.16411200000000004,0.9943358525307155,0.0,single,-0.75006
83,0.691667,quasi,-0.01319894408447968,0.08075353971681287,0.09707223422126872,-0.8807048174380718,0.2502785803180541,-0.17684930773522953,-0.0029997600192047716,0.0014398848092166917,-0.00035997120230375665,-0.39248860091192694,0.7103431725461953,0.8172546196304213,5.932752773668253,-2.5498608646984064,35.896366420039776,0.04324146702201927,0.1295740831105865,5.183377995368146e-06,9.610067463907207,0.39295534135811516,-8.334635107791186,0.013371000000000022,0.04711300000000007,-0.914984,-0.215113,-0.08489899999999995,-0.744058,0.22848400000000002,0.13201200000000002,0.17092600000000002,0.9944219159743191,0.0,single,-0.744058
84,0.7,quasi,-0.16260650426017131,0.10032401296052641,-0.2298091923676968,1.3505322401746043,-1.752833384434395,-0.05907059384275284,-0.0016800672026831415,0.001560062402487682,-0.0021600864034562366,-0.44605784231369305,0.7208688347533949,0.8298331933277412,-17.9296244060594,2.3485507312748974,-39.22734028428759,0.15836947276150753,0.014421888068041682,-0.21602246503690106,-6.428566110856426,1.2631299900635706,1.5094892232473258,0.014712000000000058,0.04628999999999994,-0.913087,-0.21747499999999997,-0.07972800000000002,-0.735228,0.23218700000000003,0.12601799999999996,0.177859,0.9947500281017727,0.0,single,-0.735228
85,0.708333,quasi,-0.031201248049913102,0.15900636025441198,0.1779671186847481,-1.0087615233404366,1.4570586910976975,-0.7829762844506594,-0.0034801392055750194,-0.00012000480018213478,-0.0013200528021117337,-0.4980199207968282,0.7340693627745126,0.8456738269530744,15.769261515691548,7.042163361800711,48.935114730882425,-0.21601728103826598,-0.20161612896553577,0.10080806448391928,-6.235698845930031,1.5841267276032225,1.900952073122897,0.014942999999999929,0.044964000000000004,-0.9145810000000001,-0.22136500000000003,-0.074936,-0.7296640000000001,0.23630799999999996,0.1199,0.184917,0.9937933034724559,0.0,single,-0.7296640000000001
86,0.716667,quasi,-0.04223662107031633,0.09455243580513618,-0.001679865610759468,0.39247267497173177,0.8059389124919651,-0.3663360943518236,-0.014518838492911662,-0.0032397408207342263,-0.014518838492920821,-0.39428845692344444,0.7150227981761328,0.7558195344372391,-1.32413883134187,-7.733852225734977,-21.555913642369354,-1.3245379514442714,-0.3743383753962164,-1.5837275846903032,12.446779922412166,-2.28540491941201,-10.781652569694568,0.01517400000000002,0.044148999999999994,-0.914688,-0.22429900000000003,-0.06976500000000008,-0.723351,0.23947300000000005,0.11391400000000007,0.19133699999999998,0.9653554051453146,0.0,single,-0.723351
87,0.725,quasi,-0.003600144005757202,0.06768270730829402,0.01680067202688471,-0.0727396419460433,-0.6998870423820664,-0.027519033394943958,-0.004920196807880611,0.0008400336013415707,0.0006000240009602277,-0.45277811112445226,0.6396255850234136,0.7685107404296234,4.636562710255548,-3.2244963994770677,2.217753226646387,1.1518830775268376,0.48959251434967416,1.8143360727086508,-7.019039265691631,-9.048027499426363,1.5230056393116986,0.015162999999999927,0.043591999999999964,-0.9148229999999999,-0.22804200000000008,-0.06499900000000003,-0.717087,0.243205,0.108591,0.1977359999999999,0.9916211208185586,0.0,single,-0.717087
88,0.733333,quasi,-0.07476299051962529,0.03876155046201378,0.11460458418337155,0.33008519151234217,1.0814032091804917,0.12948176346946072,-0.0018000720028785772,-0.0013200528021100684,-0.002880115204608138,-0.4653786151445963,0.6651866074642916,0.7519500780031195,-8.539883176991214,-3.470677648659561,11.736938936335825,0.37442995379839444,-0.2592207372436854,-0.41763341000460236,-1.512120967255965,3.067445390720975,-1.9873589855398803,0.01577099999999998,0.04325800000000002,-0.915802,-0.23129699999999997,-0.05977900000000003,-0.711776,0.24706799999999995,0.10303700000000005,0.20402600000000004,0.9939268664943868,0.0,single,-0.711776
89,0.741667,quasi,-0.03179745620349907,0.10871130309574845,0.005999520038396301,-0.24846474031105298,0.4824633754393437,-0.34494694080412375,-0.004079673626107353,-0.002159827213831727,-0.002999760019198567,-0.49940004799616305,0.6911447084233285,0.7497000239980816,5.155451681800632,8.393298852140036,-13.03156517218333,-0.27353031236246567,-0.10076486821714224,-0.014356229252511347,-4.082245362559032,3.1147229372494714,-0.269984881814013,0.01600199999999996,0.04233399999999998,-0.915877,-0.23519400000000001,-0.054925,-0.705578,0.251196,0.09725899999999998,0.210299,0.9908246782281754,0.0,single,-0.705578
90,0.75,quasi,-0.029041161646474797,0.07488299531982075,0.05676227049081288,0.01880928414974971,0.7845178355988021,-0.09150337160523474,-0.004440177607098714,-0.009240369614783802,-0.01584063362534497,-0.5364214568582689,0.7074282971318804,0.7550702028081115,0.33076857758601447,-4.059559315483926,6.091773725238974,-0.043262208207291424,-0.8496990760772886,-1.5409664713964177,-4.442746773323618,1.9541088093785883,0.644447235093,0.016207000000000082,0.04163299999999992,-0.916482,-0.2394219999999999,-0.04965400000000009,-0.699759,0.255629,0.09128700000000001,0.216723,0.9685522796510352,0.0,single,-0.699759
91,0.758333,quasi,-0.09132365294611887,0.16512660506419383,-0.33205328213127955,1.4646153887164168,-2.8052952632598562,-0.5439824388152648,0.0019200768030607118,0.000360014400586374,-0.006720268810752461,-0.5028201128045133,0.7147485899436035,0.7031081243249704,-7.474197923874212,10.829666355978963,-46.65973270395906,0.7632610596615145,1.1520921655310374,1.0944875572533865,4.032322579353828,0.878470276217815,-6.2356988459307505,0.016984,0.040260000000000074,-0.913771,-0.24285099999999993,-0.04507399999999995,-0.691133,0.2598349999999999,0.08533400000000002,0.222638,0.9883359147871371,0.0,single,-0.691133
92,0.766667,quasi,-0.09443244540436604,0.07859371250300887,0.019438444924405617,0.8625157490528634,0.7560392547253532,-0.21916759898041577,-0.0016798656107461687,-0.001919846412288948,-0.002279817614590628,-0.5080393568514633,0.7005039596832305,0.6822654187664988,-0.3730252529694256,-10.383116458025611,42.17563319602678,-0.4319585329741902,-0.27356141263202965,0.5328115186179335,-0.6262591848992063,-1.7092188937332622,-2.500924593049158,0.017757000000000023,0.039588999999999985,-0.913952,-0.24629800000000002,-0.03989100000000001,-0.685609,0.26405500000000004,0.07948,0.22834299999999996,0.994297825202233,0.0,single,-0.685609
93,0.775,quasi,-0.02988119524780303,0.0854434177367013,0.024000960038398793,-0.2607472627478982,0.4943935783203523,-0.23510354043198392,-0.0013200528021100684,-0.0018000720028785772,-0.0006000240009602196,-0.5316212648505839,0.7016680667226582,0.6811472458898344,7.746459877182617,0.8219975079434069,0.547523714627764,0.04317926420690013,0.014373504069407218,0.20158329696752686,-2.8299421575807675,0.1396984326686312,-0.1341861126442309,0.017994999999999983,0.03886200000000006,-0.914157,-0.250479,-0.03475600000000001,-0.680133,0.268474,0.07361800000000007,0.234024,0.9961475738461061,0.0,single,-0.680133
94,0.783333,quasi,-0.046561862474506,0.08916356654266842,0.07896315852634747,-0.6475531512522076,0.4104019233668351,-0.23982604597006363,-0.0007200288011594343,-0.001560062402501005,-0.0009600384015357813,-0.5786631465258655,0.702988119524791,0.6757470298812011,-2.001760137609879,0.44643571414462413,6.595727647659808,0.07200576034449054,0.028802304137474415,-0.04320345620731608,-5.645251611098283,0.15841267276284376,-0.6480518431097365,0.018376999999999977,0.03810599999999997,-0.914823,-0.25491299999999995,-0.02964100000000003,-0.67516,0.2732899999999999,0.067747,0.23966300000000007,0.9967196248916136,0.0,single,-0.67516
95,0.791667,quasi,-0.07991360691143981,0.08291336693064458,0.04919606431485701,0.31849083657687083,0.3780434350934242,-0.041870839684545205,-0.0023998080153478313,-0.0028797696184333834,-0.004319654427645913,-0.5677945764338893,0.8131749460043174,0.647468202543793,-4.001889181297523,-0.7499639563263497,-3.571765564133697,-0.20155738111211713,-0.15835219773606532,-0.40312167339934074,1.3041240811106416,13.221361468625574,-3.3931878254629035,0.019023000000000012,0.03739099999999995,-0.915269,-0.25897900000000007,-0.023554999999999993,-0.670174,0.2780020000000001,0.060945999999999945,0.24509499999999995,0.9904676623567661,0.0,single,-0.670174
96,0.8,quasi,-0.018600744029763062,0.124444977799106,-0.0844833793351776,0.06163911468642412,-0.391110838325467,-0.4290441872315626,-0.004560182407307495,-0.002400096003842544,0.0015600624024959882,-0.5730229209168312,0.7171486859474326,0.6405856234249354,7.357837859315552,4.9839926639219065,-16.04217492500109,-0.2592552972470485,0.057563136276351554,0.7055942433867606,-0.6274264350104197,-11.523612151312173,-0.825942531964186,0.019139999999999935,0.03633399999999998,-0.914552,-0.263599,-0.018615999999999966,-0.664132,0.28273899999999996,0.05494999999999994,0.2504200000000001,0.9910263473442065,0.0,single,-0.664132
97,0.808333,quasi,-0.08760350414016742,0.09384375375015812,0.018960758430336365,0.5423583091079949,1.0951848483452702,-0.29252963699366674,-0.005160206408244884,0.0009600384015370304,0.009960398415936697,-0.5747029881195219,0.6924276971078837,0.6185047401896123,-8.280662439746187,-3.6722937776248847,12.413793083585134,-0.07200576034290099,0.40323225793587003,1.0080806448386876,-0.2016161289680518,-2.966637326238955,-2.649811980718024,0.01982700000000004,0.035559999999999925,-0.914627,-0.26765799999999995,-0.013628000000000084,-0.6591359999999999,0.287485,0.04918800000000001,0.255491,0.981235454492854,0.0,single,-0.6591359999999999
98,0.816667,quasi,-0.063714902807782,0.10979121670266284,-0.005159587233023149,0.25084873531498997,0.1634780267359993,-0.18247555833791607,0.0009599232061444612,0.004319654427650075,0.012718982481401622,-0.4690424766018744,0.6502279817614617,0.5184785217182609,2.866402847658416,1.9135424709028799,-2.894209942807695,0.7343568051823012,0.4031216733996903,0.33100360756718306,12.678247122347814,-5.063560756710062,-12.002186041678742,0.020366000000000106,0.03468099999999996,-0.914478,-0.27103599999999994,-0.009124000000000021,-0.6547719999999999,0.29140200000000005,0.04380499999999998,0.2597060000000001,0.9775554150122393,0.0,single,-0.6547719999999999
99,0.825,quasi,-0.1026041041641602,0.07200288011519734,0.04872194887795766,0.16955765988234103,-0.4048569590618924,-0.06748703579495229,-0.0019200768030740608,0.011880475219004096,0.010560422416896508,-0.5226209048361979,0.6734669386775473,0.5187807512300499,-4.666890838398963,-4.534781781767172,6.466042975036758,-0.34561382565925214,0.9073347883540249,-0.2590375692433857,-6.429668574861875,2.78878638138555,0.03626899217435912,0.02120500000000003,0.03417999999999999,-0.914796,-0.274536,-0.0041120000000000045,-0.650855,0.29574100000000003,0.03829199999999999,0.2639410000000001,0.9733148549447885,0.0,single,-0.650855
100,0.833333,quasi,-0.04416176647066284,0.0957638305532309,0.030961238449535508,-0.8813122220189071,-0.06931654543440297,-0.35878265928275366,-0.0019200768030740352,-0.00552022080883119,-0.010680427217088496,-0.5586223448937891,0.7250690027601064,0.49669986799471816,7.01336105766196,2.851428109688402,-2.1313705062308985,3.0705833758139684e-15,-2.0881670500222267,-2.549003916234839,-4.320345620735756,6.192495389722665,-2.649811980719021,0.02155700000000005,0.03333599999999992,-0.915143,-0.27882299999999993,0.0011319999999999109,-0.6469739999999999,0.30038,0.03220400000000001,0.2681690000000001,0.9797083036791812,0.0,single,-0.6469739999999999
101,0.841667,quasi,-0.10271178305735078,0.07571394288456111,0.13402927765779052,-0.32887447251416596,1.0262750500649362,-0.09515338923895238,-0.008999280057600994,-0.0011999040076739157,-0.005879529637628997,-0.5077993760499138,0.7099832013438944,0.4146868250539943,-7.025439955206083,-2.405794056715819,12.367175330964029,-0.8494364356283782,0.5183965444153157,0.5760616246051671,6.098268399793016,-1.8101513578368083,-9.840777890655536,0.02233799999999997,0.03269500000000003,-0.916309,-0.282199,0.006418000000000035,-0.6446350000000001,0.30453699999999995,0.026276999999999995,0.27167399999999997,0.9819725764502981,0.0,single,-0.6446350000000001
102,0.85,quasi,-0.04896195847833525,0.08856354254170445,0.08112324492979912,-1.1192918085443466,-0.00722928253577041,-0.22936970720751673,-0.005280211208440344,-0.006720268810759212,-0.007320292811712362,-0.5624624984999448,0.7052682107284381,0.4308172326893094,6.45023695896028,1.5420136394027915,-6.348977886474485,0.4463061141438478,-0.6624702751812488,-0.1728984968298786,-6.559837087487282,-0.5658215067150197,1.9357263452916404,0.022702,0.03190099999999996,-0.917046,-0.286478,0.01155700000000004,-0.641721,0.30918,0.020343999999999918,0.27532500000000004,0.9812450502723051,0.0,single,-0.641721
103,0.858333,quasi,-0.06564262570503696,0.11304452178087057,0.008400336013442242,-0.44482622540501826,-0.5237609567965743,-0.2552970766513812,-0.000360014400586374,-0.0244809792391673,0.0033601344053762307,-0.6117844713788583,0.7022680907236222,0.44581783271330955,-2.0017601376097005,2.937835022100806,-8.727098153888944,0.5904472348318672,-2.131370506229211,1.2817025341519919,-5.91887350040961,-0.3600288017299848,1.800144008640358,0.02324599999999999,0.030754999999999977,-0.917088,-0.291029,0.01646700000000001,-0.6380760000000001,0.31427499999999997,0.014287999999999967,0.2790119999999999,0.9588114613400442,0.0,single,-0.6380760000000001
104,0.866667,quasi,-0.06347492200624007,0.10247180225582268,0.025797936165102765,-0.06838515844256064,0.4135401050908359,-0.2511845846120464,-0.010679145668347281,0.0075593952483844025,0.021718262538996662,-0.5862730981521447,0.7437005039596919,0.3953683705303589,0.2601036355647829,-1.2686248530175124,2.0875450145981067,-1.2381966963956044,3.844537375516185,2.2027991521022963,3.06111989761384,4.971491868978877,-6.053451185859244,0.023685999999999985,0.02996399999999999,-0.917122,-0.2953859999999999,0.021811000000000025,-0.634996,0.3190719999999999,0.008152999999999966,0.282126,0.957741814190757,0.0,single,-0.634996
105,0.875,quasi,-0.07488299531980742,0.13764550582023333,-0.06708268330732915,0.48003524886456556,0.3568572507411491,-0.39757494858110254,0.000360014400586374,-0.004800192007685088,-0.001200048001920023,-0.5690627625105009,0.7209888395535674,0.32257290291611146,-1.36902355857042,4.22101326825999,-11.146120181499045,1.3247521983599675,-1.4832097991202975,-2.750307277201079,2.065322889912839,-2.7255087490848906,-8.735805545931493,0.02431300000000003,0.02877699999999994,-0.9165730000000001,-0.299504,0.026671999999999918,-0.6317490000000001,0.323817,0.0021050000000000235,0.28482399999999997,0.9917316586228982,0.0,single,-0.6317490000000001
106,0.883333,quasi,-0.07968318732749252,0.12936517460697322,-0.16956678267130584,1.7423543043155811,-0.12937286573082407,-0.28086373449970903,0.0012000480019146104,-0.005280211208440274,-0.005640225609024149,-0.5766230649226016,0.7063482539301612,0.3062522500900022,-0.5760460827655199,-0.9936794927709194,-12.298583867031834,0.10080806448196722,-0.05760460827495306,-0.5328426265575552,-0.9072725803552951,-1.756940552430834,-1.9585566814003619,0.02498699999999998,0.027655000000000096,-0.915207,-0.30364500000000005,0.031480000000000063,-0.6277840000000001,0.32863200000000004,0.0038249999999999673,0.2874229999999999,0.9869687458464351,0.0,single,-0.6277840000000001
107,0.891667,quasi,-0.07931365490761057,0.12982961363091355,-0.05699544036477153,0.5673782029549395,0.4257385049406542,-0.3495213132621029,0.0056395488360954545,-0.0022798176145897952,-0.0033597312215023285,-0.5928725701943847,0.6853851691864618,0.25749940004800204,0.04434034315838211,0.05572822461487107,13.507480478345927,0.53269748430296,0.36001842978767645,0.2736374355077794,-1.9497846498419884,-2.515368939728771,-5.84987401511884,0.025695000000000023,0.026554000000000078,-0.91476,-0.307925,0.036109999999999975,-0.625163,0.33362,0.009555999999999898,0.289597,0.9884181807570807,0.0,single,-0.625163
108,0.9,quasi,-0.07728309132364998,0.10332413296531825,0.005280211208440274,-0.0332697325383513,0.1808351294690737,-0.3608039312724623,-0.006000240009599698,-0.0038401536061480703,-0.006720268810752461,-0.586703468138727,0.7195487819512753,0.24060962438497188,0.24367737717035629,-3.180784911267873,7.473377123870339,-1.3968305347048007,-0.1872478088993482,-0.4032806419356917,0.740321859553301,4.09979752367855,-2.0268541537297593,0.026289000000000007,0.025661000000000045,-0.91486,-0.31217000000000006,0.041244999999999976,-0.623202,0.33845900000000007,0.015583999999999931,0.291658,0.9836775824928153,0.0,single,-0.623202
109,0.908333,quasi,-0.06276251050042674,0.1204848193927774,0.014400576023042132,-0.05767252126752865,0.6661776857677428,-0.24506226985482635,-0.0062402496099906975,-0.0002400096003909192,-0.0014400576023038802,-0.5744629785191443,0.7314292571703022,0.15108604344174026,1.7425394003628198,2.0593647458849516,1.0944875572545232,-0.028802304139085744,0.43203456207334506,0.6336506910414772,1.4689175110503776,1.425714054845436,-10.743259443565636,0.026760000000000006,0.024654999999999982,-0.914992,-0.316434,0.046336000000000044,-0.622063,0.343194,0.02168100000000006,0.292929,0.989318748811687,0.0,single,-0.622063
110,0.916667,quasi,-0.0889128869690408,0.09623230141588232,0.11231101511879539,-0.821258984580918,0.10707333496105713,-0.16312205686864192,-0.006239500839925676,-0.007679385649142368,-0.013438924886009136,-0.6238300935925023,0.7054235661147016,0.20026397888168507,-3.137794152701448,-2.910069351679253,11.748312826464185,8.984522018494844e-05,-0.8926537135530828,-1.439748894133089,-5.923579922409123,-3.1204332920086846,5.900880182378741,0.027449000000000057,0.02378900000000006,-0.9160400000000001,-0.32089199999999996,0.05141300000000004,-0.62133,0.348341,0.027623999999999982,0.29471,0.9721856833042025,0.0,single,-0.62133
111,0.925,quasi,-0.09960398415936565,0.11604464178567708,-0.13104524180966967,1.2144715119442804,0.24505772474445894,-0.4194728064998379,-0.009600384015356853,-0.005280211208453596,-0.005520220808832439,-0.5787831513260532,0.7088683547341859,0.08928357134285603,-1.282982982158263,2.377575947413258,-29.203918988175214,-0.40332211393629697,0.2879124493806266,0.9502825005612222,5.405849305946109,0.4133911699849105,-13.318181631924705,0.028199000000000085,0.022777999999999965,-0.9149940000000001,-0.324885,0.056352999999999986,-0.619494,0.35308400000000006,0.03357500000000002,0.2955000000000001,0.9795521774164864,0.0,single,-0.619494
112,0.933333,quasi,-0.06912276491059957,0.1153246129845192,0.1008040321612816,-0.8960588296915346,0.755341589380998,-0.16404777064313467,-0.004800192007685152,0.01284051362055445,0.03264130565222655,-0.5682227289091536,0.6950678027121172,0.06804272170886708,3.6578926255569852,-0.08640691241544392,27.82302579754631,0.5760460827639199,2.1745739624394833,4.57956635798144,1.267301382083245,-1.6561324879477706,-2.5490039162353466,0.028735000000000066,0.021924000000000055,-0.915562,-0.3290439999999999,0.061184000000000016,-0.619767,0.35777899999999996,0.03925999999999996,0.29579500000000003,0.9409949279950263,0.0,single,-0.619767
113,0.941667,quasi,-0.09047276217901555,0.12023038156948053,-0.021478281737465667,0.3460204103176055,-0.14872628699251048,-0.2638288029455951,0.0005999520038436186,0.010319174466032975,0.011759059275257578,-0.6546676265898698,0.6816654667626595,0.03479721622270342,-2.5617947286316074,0.5886451385842688,-14.672703851541439,0.6479654441479157,-0.30253649562292484,-2.5056691117073213,-10.372557917052497,-1.6081516618019702,-3.9891415270174475,0.02949400000000002,0.021007999999999916,-0.9152849999999999,-0.333746,0.065863,-0.6192979999999999,0.36324,0.04485500000000009,0.295987,0.9739061108097464,0.0,single,-0.6192979999999999
114,0.95,quasi,-0.08592343693748428,0.13788551542061275,-0.051482059282359965,0.10672930468698102,-0.2653087908351631,-0.42388107980870643,-0.005880235209417641,0.004080163206539041,0.0019200768030723952,-0.6314652586103489,0.6954278171126902,-0.014760590423615187,0.5459408666184226,2.118700810168293,-3.60059732928052,-0.7776535717342277,-0.7487112995912626,-1.1807251256672595,2.7843955333638695,1.6515481039278568,-5.9471746845456686,0.030160999999999993,0.01989300000000005,-0.9148400000000001,-0.3382919999999999,0.07050900000000004,-0.618992,0.3684529999999999,0.050615999999999994,0.2958480000000001,0.9876496071992553,0.0,single,-0.618992
115,0.958333,quasi,-0.08712348493939774,0.0972038881555231,0.01896075843033611,0.15609601545021007,1.1569163493141095,-0.14273184628597801,-0.0033601344053662383,-0.0006000240009639668,-0.004200168006720288,-0.6499459978399214,0.7788311532461261,0.01008040321612536,-0.14401152069044276,-4.8819905514327955,8.453476264574077,0.30242419345390525,-0.5616449306975865,-0.7344587555253399,-2.217777418645436,10.008800688039784,2.9810384783079855,0.03085900000000008,0.01907800000000004,-0.9150330000000001,-0.342982,0.07618900000000006,-0.6190660000000001,0.3738410000000001,0.05711100000000002,0.295967,0.9909796613594402,0.0,single,-0.6190660000000001
116,0.966667,quasi,-0.09875209983201487,0.11291096712262569,0.020998320134380116,-0.06539329789983288,-0.19433545609337863,-0.2265871943490355,-0.00659947204223984,0.0013198944084453037,0.000239980801535699,-0.6363090952723669,0.7069834413246896,-0.059155267578589146,-1.3953221613411375,1.884698700156284,0.244487845457642,-0.3886894212711276,0.23037177938675976,0.5327752349719166,1.636297404314177,-8.621035747712494,-8.307615886094789,0.03162700000000007,0.018148000000000053,-0.915206,-0.34746199999999994,0.0811400000000001,-0.619734,0.379089,0.06299200000000005,0.29547199999999996,0.9887759257656124,0.0,single,-0.619734
117,0.975,quasi,-0.09780391215647505,0.14208568342734726,-0.025081003240131603,-0.24895925536111613,-0.22411556408454078,-0.39006563998662996,-0.0064802592103682935,0.014400576023042132,0.01464058562342514,-0.5843033721348923,0.7134285371414896,-0.10188407536302076,0.11378707254768154,3.5011060008066526,-5.529739994541239,0.014306112069068528,1.5697445835349753,1.7281417042949205,6.240936413953572,0.7734424357134323,-5.1276620406134645,0.03238799999999997,0.017083999999999988,-0.914875,-0.35151600000000005,0.085901,-0.620374,0.383904,0.06881700000000002,0.294501,0.9641098475040459,0.0,single,-0.620374
118,0.983333,quasi,-0.07620304812193082,0.12396495859833749,-0.03624144965797578,0.2333451610010809,-0.12712077536654223,-0.27854053019003755,-0.030121204848193948,0.003960158406330205,-0.017400696027840955,-0.697947917916719,0.6905076203048004,-0.11688467538701197,2.592207372440194,-2.1745739624396605,-1.3393071424269927,-2.8370269576173714,-1.2529002300146268,-3.8451076024560136,-13.637891009459526,-2.750620045204498,-1.8001440086392837,0.03277200000000002,0.016083999999999987,-0.914718,-0.35669700000000004,0.09062199999999998,-0.621046,0.38946900000000007,0.074538,0.29367200000000004,0.9416487156581553,0.0,single,-0.621046
119,0.991667,quasi,-0.13630909527238208,0.09035277177825869,0.041276697864172415,0.5285820732712941,1.50570111383261,-0.10845659711151345,-0.009599232061431418,-0.002039836813047016,0.0011999040076793436,-0.6243100551955828,0.6967842572594241,-0.17650587952963864,-7.212148686159299,-4.033139767228101,9.301433587970799,2.462439739232379,-0.7199418309787923,2.2318934527862258,8.83583665960362,0.7531361836601507,-7.153972179340894,0.03382800000000008,0.01531400000000005,-0.9150520000000001,-0.360764,0.09567599999999998,-0.6228610000000001,0.39459200000000005,0.08036199999999993,0.292191,0.9835222405766709,0.0,single,-0.6228610000000001
120,1.0,quasi,-0.08772350894034839,0.13236529461177973,0.016560662426493566,-0.547617165128595,-0.2335568269642768,-0.3202281105540438,-0.011400456018248753,0.00204008160325617,0.0007200288011519304,-0.6086643465738563,0.7227889115564593,-0.21408856354254174,5.8305035799872185,5.041704408198831,-2.966042894237219,-0.21615552103892083,0.48960979434815427,-0.057587328276420394,1.8775601370126573,3.1206833429779355,-4.510102485647779,0.03446399999999994,0.014228000000000018,-0.915184,-0.365105,0.10059600000000002,-0.6247830000000001,0.39956899999999995,0.086368,0.2904009999999999,0.9806601468000475,0.0,single,-0.6247830000000001
121,1.008333,quasi,-0.0832833313332641,0.1321252850114039,-0.043081723268930935,-0.021964413138574643,-0.5745239367825444,-0.2558564539583989,-0.011520460818431041,-0.0014400576023055455,-0.005880235209408482,-0.6360254410176565,0.6698667946718034,-0.21276851074042785,0.5328426265551818,-0.02880230413726723,-7.15737257835414,-0.014401152067957461,-0.4176334100038098,-0.7920633638018089,-3.2834626717629236,-6.3509080624812615,0.15841267276057883,0.03506200000000004,0.013114999999999988,-0.9148740000000001,-0.369711,0.10507700000000009,-0.626197,0.40477300000000005,0.0919620000000001,0.2886770000000001,0.978309503522092,0.0,single,-0.626197
122,1.016667,quasi,-0.11267098632108291,0.121190304775625,0.0059995200383962215,-0.0017650359684266638,0.578460529704969,-0.1871699300233171,-0.011759059275262988,-0.0033597312214922927,-0.0044396448284135534,-0.5848332133429202,0.6309095272378143,-0.311615070794336,-3.526236499618261,-1.3120926608805867,5.889278054634843,-0.028629524457876775,-0.23034240690985514,0.17285701715801746,6.142575914895118,-4.674498132228076,-11.860638355400452,0.03590299999999991,0.012077000000000004,-0.914961,-0.37364600000000003,0.109325,-0.628844,0.40954899999999994,0.097248,0.28611700000000007,0.9783157945907961,0.0,single,-0.628844
123,1.025,quasi,-0.12036481459259527,0.10536421456857584,0.022440897635898106,-0.22389522385715033,0.39287419254068867,-0.24709771230166763,-0.013200528021114183,-0.0025201008040380353,0.005880235209408482,-0.5939037561502492,0.6416656666266698,-0.3105724228969162,-0.9232963244344683,-1.8992067931176408,1.973044233469583,-0.17298316882889808,0.10075968048173108,1.2384351419443334,-1.0885086772265786,1.2907883581969932,0.12512275260047603,0.03679600000000005,0.011178000000000021,-0.915099,-0.3775919999999999,0.11379400000000006,-0.6316189999999999,0.414388,0.10261600000000004,0.28348000000000007,0.9755515273019231,0.0,single,-0.6316189999999999
124,1.033333,quasi,-0.10944437777509863,0.1219248769950797,0.06972278891156168,-0.8553202851905283,-0.12211883302995434,-0.12537879449242512,-0.015480619224774209,-0.0031201248049886037,-0.003720148805952146,-0.5922236889475503,0.6492259690387533,-0.3424936997479867,1.3105048382931046,1.9873589855398506,5.674053915236139,-0.27362188931477094,-0.07200576034448072,-1.1520921655298764,0.20161612896901904,0.9072725803532179,-3.8307064503864074,0.03757899999999992,0.010136000000000034,-0.915711,-0.38161500000000004,0.11818800000000007,-0.635054,0.41919399999999996,0.10805200000000004,0.28065700000000005,0.972959687629209,0.0,single,-0.635054
125,1.041667,quasi,-0.13270938324934875,0.1462682985361163,-0.10835133189344905,0.9250905804879995,0.22060863205777767,-0.2988059918248369,-0.017998560115189143,0.0005999520038436347,0.0017998560115192474,-0.6119510439164976,0.623830093592519,-0.32877369810416035,-2.791577330723609,2.920976906771907,-21.36718512179195,-0.3021287365508738,0.44637350717930274,0.6623475902893567,-2.3670932288154143,-3.047261272646367,1.6462684957795324,0.038534999999999986,0.008922000000000097,-0.914793,-0.385609,0.12216800000000005,-0.6368910000000001,0.42414399999999997,0.11324599999999996,0.27790199999999987,0.9698362068454581,0.0,single,-0.6368910000000001
126,1.05,quasi,-0.13164526581063188,0.11040441617664896,-0.004200168006721065,0.599677826135441,1.0006628327854687,-0.12689672878302916,-0.01320052802111383,-0.0019200768030740096,-0.005760230409216616,-0.5712228489139449,0.6678267130685162,-0.3613344533781271,0.12769920061404694,-4.303838036657472,12.498639611991619,0.575786882764338,-0.30241555345225013,-0.9072466603547019,4.88757890346237,5.279805529340745,-3.90744693075317,0.03952200000000006,0.007986000000000049,-0.914806,-0.38927199999999995,0.12681300000000006,-0.639867,0.428794,0.11882700000000002,0.27493900000000004,0.9757833339451034,0.0,single,-0.639867
127,1.058333,quasi,-0.13296531861274546,0.11736469458778871,-0.0043201728069166365,0.17450083621907883,-0.07809526712448872,-0.13703252365322,-0.01248049921996807,-0.003480139205575066,0.0042001680067203446,-0.6497059882395391,0.6540261610464424,-0.33397335893435803,-0.1584126727605422,0.8352668200095777,-0.014401152069551459,0.08640691241398857,-0.18721497689920444,1.1952956217373156,-9.418353453209512,-1.6561324879483834,3.2834626717591866,0.04052600000000006,0.0069789999999999575,-0.914735,-0.393578,0.13128499999999999,-0.642614,0.43410400000000005,0.12430600000000003,0.27212099999999995,0.9772993122378735,0.0,single,-0.642614
128,1.066667,quasi,-0.10895128389728978,0.17446604271657598,-0.06875449964002044,-0.6569508028004619,-0.9118338221966692,-0.3904291246526281,-0.013678905687551911,-0.0016798656107461464,0.00551955843532524,-0.5398368130549551,0.6040316774657961,-0.4109671226301878,2.8814536495626952,6.851613646362711,-7.731500699916403,-0.1437972723282735,0.21601555013545784,0.15831418629768246,13.183246362440977,-5.998858121027826,-9.238512562494503,0.04132000000000002,0.005511000000000044,-0.914116,-0.397169,0.134865,-0.6454660000000001,0.438489,0.12935399999999997,0.26864999999999994,0.9752568789245218,0.0,single,-0.6454660000000001
129,1.075,quasi,-0.14316572662906643,0.11496459858394614,-0.050762030481227176,0.7788677592594867,0.4913567238839442,-0.18575043968770272,-0.013320532821309641,-0.0002400096003909192,0.0021600864034562366,-0.5753030121204858,0.5407416296651928,-0.4218168726749097,-4.105897363707784,-7.140458914272217,2.1591826663618656,0.04300646420764107,0.17278963282794194,-0.40315276993508153,-4.256114132429023,-7.595109540454086,-1.302022086250088,0.04240200000000005,0.004550999999999972,-0.913675,-0.40076999999999996,0.138413,-0.648558,0.443172,0.13386200000000004,0.26511700000000005,0.9775055455894456,0.0,single,-0.648558
130,1.083333,quasi,-0.13740549621984058,0.16680667226688803,-0.062282491299643236,-0.022595382466675567,-0.11255579560273164,-0.2643311382895771,-0.016200648025920302,-0.0009600384015370048,0.001200048001920007,-0.5324612984519317,0.5574222968918672,-0.4336973478939089,0.691255299319063,6.221297693860672,-1.3825105986338484,-0.34562764965925963,-0.08640691241402532,-0.11520921655300767,5.141211288677956,2.001760137606395,-1.425714054842074,0.043412000000000006,0.0031529999999999614,-0.913146,-0.40406200000000003,0.14166800000000002,-0.651653,0.44747400000000004,0.13851500000000005,0.261493,0.9728777056956677,0.0,single,-0.651653
131,1.091667,quasi,-0.12598992080633734,0.15598752099831925,-0.13834893208544427,0.6551072119813954,0.0777675399239441,-0.43587015938763746,-0.01439884809215398,-0.0032397408207343126,0.004799616030717855,-0.5191984641228764,0.4570434365250875,-0.507319414446855,1.3697594688629062,-1.2981942966845432,-9.127242714879108,0.21619869615627033,-0.27354240691112924,0.4319136103669206,1.5914128064621473,-12.044499684039067,-8.833941271052018,0.04434199999999999,0.0018259999999999943,-0.911953,-0.407339,0.14417700000000006,-0.654728,0.451681,0.14235100000000006,0.25722500000000004,0.9741339421780857,0.0,single,-0.654728
132,1.1,quasi,-0.15876635065403227,0.13056522260891273,0.05280211208448197,-0.3745460177007059,-0.21973992855892757,-0.03991334920500276,-0.050282011280457325,0.027601104044168902,0.022440897635905004,-0.5035401416056527,0.4695787831513178,-0.4861394455778178,-3.933328914879919,-3.0507978386422745,22.939042862105232,-4.306151828669473,3.7010494257653517,2.117038474161387,1.8790738650214065,1.5043017672182974,2.5416979322017106,0.04524600000000001,0.0009679999999999689,-0.912206,-0.4102119999999999,0.14700199999999997,-0.659219,0.4554579999999999,0.146034,0.25298699999999996,0.8973450292163891,0.0,single,-0.659219
133,1.108333,quasi,-0.11376455058201819,0.15348613944556952,-0.021000840033592563,-0.7993534319603405,-0.7433130342914299,-0.24012846837386728,-0.015600624024956758,0.0032401296051841467,-0.0073202928117127785,-0.4622584903396271,0.43861754470178776,-0.506900276011039,5.400432025922776,2.7506200452006473,-8.856708522509924,4.161932947978025,-2.9234338700329987,-3.5714857131426925,4.953996311775591,-3.7154972338329904,-2.4913993079588903,0.046063999999999994,-0.00028399999999995096,-0.912092,-0.41311600000000004,0.149378,-0.663268,0.45918000000000003,0.14966199999999996,0.24882400000000005,0.9707755526297064,0.0,single,-0.663268
134,1.116667,quasi,-0.15634749220062924,0.17614590832733545,-0.1499880009599322,0.9212739467105983,0.6518485099888042,-0.3905666116587479,-0.010079193664503522,-0.008879289656829605,-0.014038876889848591,-0.4742020638348843,0.42308615310775166,-0.4298056155507562,-5.109544230694832,2.718954749431937,-15.47722113346996,0.6625186417630422,-1.4542139743236933,-0.8061655961286011,-1.4331141702972237,-1.8636179018521701,9.250619205697415,0.047283000000000075,-0.0018259999999999943,-0.910959,-0.41576499999999994,0.15143600000000002,-0.6656,0.463048,0.153262,0.245359,0.9676167912995719,0.0,single,-0.6656
135,1.125,quasi,-0.13920556822272284,0.15864634585384105,0.038521540861636706,-1.0384051936830025,-1.0260814865711685,-0.22545262997546808,-0.006840273610941349,-0.008880355214210869,0.0085203408136324,-0.48385935437418365,0.517700708028324,-0.5810632425297081,2.0571131618752614,-2.100031498079271,22.622049900584496,0.38868595386561894,-0.0001278720006317249,2.7072144129942637,-1.1589212215647973,11.354200758499127,-18.151641303126517,0.04838600000000004,-0.003222000000000058,-0.9112089999999999,-0.41863700000000004,0.15442799999999995,-0.670763,0.4670230000000001,0.15765,0.24044599999999994,0.9765333416558044,0.0,single,-0.670763
136,1.133333,quasi,-0.15552622104883904,0.14880595223809315,-0.1554062162486436,1.3782990573368736,0.7859927828481695,-0.3046343560105725,-0.01284051362055445,0.0009600384015370304,-0.0015600624024960088,-0.4044161766470677,0.3514940597623955,-0.5339013560542447,-1.9585566814012172,-1.1808944696685455,-23.272261743703595,-0.720057603457717,1.1808944696685455,-1.2096967738063724,9.533562669760792,-19.945595615736234,5.659652763166184,0.049574999999999925,-0.004454000000000069,-0.909927,-0.42071100000000006,0.15611699999999995,-0.6739170000000001,0.470286,0.16057100000000002,0.23600999999999994,0.9783824750574042,0.0,single,-0.6739170000000001
137,1.141667,quasi,-0.14278857691384872,0.16378689704822885,0.05723542116630022,-1.286058670845667,-0.5136200569595539,-0.1978384519263378,-0.006599472042226519,0.0027597792176619956,0.006119510439165112,-0.3816894648428084,0.30813534917206564,-0.49892008639308416,1.5283950245968587,1.7975695716505389,25.514955293369592,0.7488650801929305,0.21595162180524974,0.9214750229974877,2.7269872575304905,-5.2026290605147025,4.1974165660139535,0.05071000000000003,-0.005796000000000023,-0.910353,-0.422702,0.15732000000000002,-0.678552,0.47341200000000005,0.16311600000000004,0.23180099999999992,0.9843104935474004,0.0,single,-0.678552
138,1.15,quasi,-0.1690867634705396,0.15060602424097175,-0.05880235209408315,0.33524585737619483,-0.335029716879022,-0.37943840614882,-0.007800312012491702,-0.012840513620541127,-0.009600384015360727,-0.3727349093963723,0.3199327973118956,-0.5640225609024391,-3.1559086231478615,-1.5817680075911706,-13.925089794837925,-0.14410656069425112,-1.8721100249853913,-1.88646279305484,1.0745896371578263,1.415750406795881,-7.812609445500481,0.052053999999999934,-0.007157999999999998,-0.909943,-0.42439899999999997,0.158731,-0.682762,0.4764529999999999,0.165889,0.22718099999999997,0.97028416851174,0.0,single,-0.682762
139,1.158333,quasi,-0.14472578903156358,0.17328693147725616,-0.014760590423614795,-0.5571551591062592,-0.3070153194374669,-0.30578883997802675,-0.006360254410172664,0.015000600024005706,0.01260050402016028,-0.3352934117364725,0.2859714388575455,-0.5810632425296925,2.923433870031874,2.721817741063724,5.285222809368485,0.1728138248312748,3.341067280036763,2.6642131327877854,4.493159445565726,-4.075526035563365,-2.0449635938141335,0.053207000000000004,-0.008476999999999957,-0.909715,-0.425987,0.15966999999999998,-0.687481,0.479194,0.16814699999999994,0.22223400000000004,0.9656713782033612,0.0,single,-0.687481
140,1.166667,quasi,-0.16330693544516095,0.12407007439404837,-0.0803935685145275,0.6807812130440148,0.04426720572835175,-0.3848445086555883,-0.007199424046070329,0.0021598272138184343,0.0008399328053755933,-0.33297336213103246,0.2751379889608871,-0.6108711303095883,-2.2295592048953354,-5.905550405952571,-7.875327344722097,-0.10069230092364784,-1.5407694756644488,-1.4111556533219236,0.2783836819582513,-1.29990999479945,-3.576660400755496,0.054508,-0.009492999999999974,-0.909038,-0.42740100000000003,0.160929,-0.691902,0.48190900000000003,0.17042199999999996,0.217136,0.9873946608196905,0.0,single,-0.691902
141,1.175,quasi,-0.1531261250450057,0.1944077763110436,-0.04464178567141743,-0.2983630990961862,-0.02992778981476951,-0.37408268984480286,-0.01248049921996774,-0.005280211208453526,-0.013680547221888578,-0.32833313332532255,0.2940117604704146,-0.5495019800791935,1.2217461178633238,8.440861864513863,4.290385556595397,-0.6337543710425199,-0.892840324285591,-1.7425273043638447,0.5568497306744067,2.264943178870417,7.364592611351701,0.05568000000000006,-0.011156999999999972,-0.90878,-0.42886099999999994,0.16175900000000004,-0.6961090000000001,0.484541,0.17291600000000001,0.21267099999999994,0.9679063495603268,0.0,single,-0.6961090000000001
142,1.183333,quasi,-0.16068642745709724,0.08280331213249559,-0.04092163686547928,0.7532225986958349,0.30312197693544296,-0.22207426952792292,-0.010560422416907333,-0.005040201608062748,-0.0016800672026881377,-0.27841113644546567,0.26737069482779646,-0.655226209048367,-0.907272580354208,-13.393071424282857,0.44643571414114763,0.23041843310457502,0.0288023041390592,1.4401152069123426,5.99087926075331,-3.1970557593445803,-12.687414972899859,0.056930999999999954,-0.011889000000000038,-0.908453,-0.429842,0.16329699999999997,-0.701228,0.48677299999999996,0.175186,0.207225,0.9802974353277587,0.0,single,-0.701228
143,1.191667,quasi,-0.17482601391889013,0.215382769378447,-0.12742980561555067,0.3843409826299863,-1.01198105956333,-0.6578555725325844,-0.008399328053744054,-0.00155987520998808,0.0002399808015361153,-0.2497000239980782,0.2156227501799831,-0.6349892008639283,-1.6966146462434346,15.908262208537364,-10.380149838021445,0.2593105787332929,0.4176057593082123,0.23038732952054697,3.445057889055346,-6.209256617208178,2.428246722394839,0.05831800000000009,-0.01369700000000007,-0.907389,-0.43046599999999996,0.16329899999999997,-0.705458,0.48878400000000005,0.17699600000000004,0.20193099999999997,0.9857561403862876,0.0,single,-0.705458
144,1.2,quasi,-0.16320652826112195,0.12012480499220435,-0.061802472098889706,-0.011520933743532198,0.0855641986999054,-0.3273880751999057,-0.013920556822273616,0.01092043681748039,0.019440777631105296,-0.22212888515540724,0.1875675027001141,-0.6295451818072781,1.394394054694383,-11.431412982868537,7.875595045801221,-0.6625739551817609,1.4976973511902776,2.304187787059805,3.30866900788086,-3.3667643681590387,0.6533084191347895,0.059562000000000004,-0.014607000000000037,-0.906712,-0.43095700000000003,0.16386099999999998,-0.710189,0.49051900000000004,0.17846800000000002,0.196523,0.9561891160964153,0.0,single,-0.710189
145,1.208333,quasi,-0.15888635545421442,0.18348733949357685,-0.06312252490098479,-0.2424484078978936,-0.24151246036042529,-0.4421845218877831,-0.007440297611905125,0.0010800432017324612,0.002640105604224265,-0.20568822752909677,0.18552742109683965,-0.6474258970358681,0.5184414744878734,7.603808292496266,-0.15841267275831716,0.7776622117326747,-1.1808944696685173,-2.0161612896772754,1.972957833470561,-0.24481958517633765,-2.1457716582970843,0.06082399999999999,-0.016127000000000002,-0.9061640000000001,-0.43134700000000004,0.16387799999999997,-0.715058,0.492171,0.18000499999999997,0.1911060000000001,0.9867194085355122,0.0,single,-0.715058
146,1.216667,quasi,-0.15694744420447704,0.11591072714182023,-0.02747780177586262,0.10491627303874818,-0.7235525285867471,-0.26026763328746133,-0.004439644828421582,0.0,0.0013198944084470041,-0.17914566834653833,0.164026877849776,-0.6558675305975645,0.23265073790945787,-8.108544798627058,4.277024613045698,0.36004953005562756,-0.129594816622568,-0.15841267047963595,3.184852313721975,-2.5798588009436125,-1.0129149942040594,0.06209500000000001,-0.017092999999999914,-0.905924,-0.43153199999999997,0.16427900000000006,-0.720295,0.493627,0.18137199999999998,0.18562899999999993,0.9922805139326254,0.0,single,-0.720295
147,1.225,quasi,-0.15252610104404174,0.1669266770670835,-0.10776431057241553,0.11560079422303014,0.36134381197736487,-0.38277129918836056,-0.005760230409208705,0.004560182407294111,0.0013200528021121325,-0.1680067202688093,0.15036601464057683,-0.6547461898475844,0.5305824025483284,6.122158877386581,-9.634766446244031,-0.15847660875880237,0.5472437786264288,1.9008000135410168e-05,1.3367272384169966,-1.6393691598702644,0.13456627264852275,0.0633180000000001,-0.018445999999999962,-0.905015,-0.43166099999999996,0.16414099999999998,-0.7248530000000001,0.49497900000000006,0.18258699999999994,0.18016199999999993,0.9875592451377504,0.0,single,-0.7248530000000001
148,1.233333,quasi,-0.18108724348973915,0.11460458418337308,-0.0367214688587581,-0.001267328663879353,0.10329425551140368,-0.29040260309229615,-0.006720268810759212,-0.004440177607112096,-0.007320292811712362,-0.14856594263770223,0.1315252610104466,-0.6545061802472143,-3.427474192451418,-6.278902302137394,8.525482024919967,-0.1152092165547241,-1.0800864051849621,-1.036882948976908,2.3329866351982784,-2.2609808748506435,0.028802304136574423,0.06477100000000002,-0.019438000000000066,-0.90477,-0.43138999999999994,0.16428199999999998,-0.730001,0.49616099999999996,0.18372000000000005,0.17476899999999995,0.9818598146431764,0.0,single,-0.730001
149,1.241667,quasi,-0.15850731941444762,0.16534677225821692,-0.049556035517157856,-0.0848687991149195,-0.6933322369246195,-0.5066538485842753,-0.006239500839925676,0.0005999520038436186,-0.0002399808015361153,-0.11339092872570458,0.13138948884089324,-0.6963042956563424,2.7093741391038337,6.08857548294258,-1.5400247970241971,0.05768754149670414,0.6047671719409259,0.8495694756630902,4.220664016318381,-0.016291357037838825,-5.015372619285796,0.0660400000000001,-0.020811000000000024,-0.904359,-0.43101399999999995,0.163999,-0.735391,0.49705400000000005,0.18481000000000003,0.168968,0.9895452158846543,0.0,single,-0.735391
150,1.25,quasi,-0.17952718108723814,0.18240729629184924,-0.08724348973959437,0.3531729743488136,-0.35026229701226264,-0.49183666730986775,-0.004200168006721177,0.003120124804988687,-0.0020400816032641075,-0.10500420016800945,0.11664466578662928,-0.6906276251050117,-2.5224843001068895,2.0473447778270093,-4.522675413708971,0.24472972917370905,0.302432833450749,-0.21602073703684252,1.0064476848308188,-1.769449544493471,0.6812277152683007,0.06750100000000003,-0.02230500000000002,-0.903649,-0.430393,0.163451,-0.7404189999999999,0.49789400000000006,0.18575600000000003,0.1632300000000001,0.9906401384401017,0.0,single,-0.7404189999999999
151,1.258333,quasi,-0.15900636025441411,0.1240849633985346,-0.029641185647425836,-0.2478629289215732,-0.12551749374624732,-0.36240975785137997,-0.003480139205575066,0.002640105604233495,0.0025201008040322066,-0.09384375375015146,0.10452418096724092,-0.6659066362654565,2.4625970038190585,-6.998959905594044,6.912552993180014,0.08640691241403071,-0.057604608274954554,0.5472437786267078,1.339307142428668,-1.4545163589809762,2.966637326239701,0.068797,-0.02331699999999992,-0.903381,-0.42985,0.16328800000000004,-0.745721,0.498647,0.18660499999999997,0.15766000000000002,0.9915949032403333,0.0,single,-0.745721
152,1.266667,quasi,-0.19042476601871766,0.1627069834413263,-0.05687544996399938,0.20112449176995004,-0.3108699043229845,-0.3779945099333298,-0.003119750419962838,0.0033597312214922927,0.001439884809215443,-0.07751379889608531,0.09515238780897313,-0.668946484281252,-3.769907099148465,4.634271663401897,-3.2678502899656032,0.04324319481788157,0.08634816621775764,-0.12961555013399995,1.9594378274617255,-1.1245252169747684,-0.3647525816889206,0.07035800000000003,-0.024645000000000028,-0.902895,-0.428909,0.162725,-0.750822,0.499267,0.18737000000000004,0.152073,0.9919906469904558,0.0,single,-0.750822
153,1.275,quasi,-0.16272650906036676,0.13416536661467343,0.020760830433214965,-0.6973543030180221,-0.9101209109426953,-0.405865112003495,-0.0021600864034516565,-0.00024000960037759599,0.0055202208088325115,-0.07068282731309392,0.08760350414016742,-0.6761070442817775,3.323923791953817,-3.425131024439354,9.316726316718476,0.11516428855288496,-0.43198617807151346,0.48965990635030676,0.8197493799341724,-0.9059022763477476,-0.859301572125947,0.07169600000000009,-0.025765000000000038,-0.903022,-0.42814199999999997,0.16233699999999995,-0.756629,0.49983800000000006,0.188102,0.146393,0.9901122388141088,0.0,single,-0.756629
154,1.283333,quasi,-0.18324732989318593,0.1700468018720721,-0.14508580343213662,0.7666661691702776,0.41612703884648294,-0.4507902237538938,-0.0030001200048064705,0.0,0.003000120004799809,-0.059402376095038886,0.06996279851193928,-0.681987279491167,-2.46259700381841,4.305944468666512,-19.902392159528222,-0.10080806448515532,0.028802304137476514,-0.30242419345165705,1.3537082944983598,-2.1169693541615064,-0.705656451384785,0.07319799999999999,-0.02718200000000004,-0.9017879999999999,-0.42711,0.16150299999999995,-0.761103,0.500308,0.188685,0.14068499999999995,0.992928649334101,0.0,single,-0.761103
155,1.291667,quasi,-0.1647468202543777,0.1419486441084661,0.06419486441085594,-1.090998838142179,-0.9888678272018587,-0.34363180016700406,-0.003839692824577947,0.0021598272138184343,0.0037197024238061396,-0.053995680345574094,0.0664746820254391,-0.6678665706743573,2.2198835659717515,-3.371509210895912,25.111671207462987,-0.10074067911824965,0.259158532975579,0.08634298284213392,0.6487515898086027,-0.41854049514041747,1.6943495100563932,0.07453899999999991,-0.02834700000000001,-0.9022920000000001,-0.42618700000000004,0.16087400000000002,-0.767204,0.500726,0.18922100000000003,0.1350880000000001,0.9903903577499913,0.0,single,-0.767204
156,1.3,quasi,-0.12972518900755786,0.2710908436337419,-0.30277211088443645,2.168461552740728,-1.2285157952338004,-0.9590115441619745,-0.004440177607098654,0.0008400336013415484,0.0030001200048002255,-0.043681747269893746,0.05472218888755598,-0.6499459978399027,4.202763860172714,15.49768385038684,-44.03779854737621,-0.07206105634473739,-0.15838156875997395,-0.08635334441448475,1.2377214779407377,-1.410355590769581,2.1505547623250054,0.07558299999999996,-0.030599000000000043,-0.899744,-0.42547000000000007,0.15907100000000002,-0.770097,0.501053,0.18967000000000006,0.12964699999999996,0.990959726885092,0.0,single,-0.770097
157,1.308333,quasi,-0.04608184327373749,0.12792511700468273,0.22656906276251268,-0.8117249071215055,4.695393714660072,-0.18679948553042258,-0.0006000240009639748,0.0030001200048065508,0.0021600864034562366,-0.03804152166086153,0.04944197767910377,-0.6607464298572017,10.037602992178224,-17.180574418463998,63.52348177690555,0.4608368662108142,0.25922073724529243,-0.10080806448385896,0.6768541472497625,-0.6336506910419123,-1.2961036862233368,0.07596199999999997,-0.03164,-0.901614,-0.425403,0.15841699999999997,-0.7774909999999999,0.501365,0.19005699999999998,0.1241230000000001,0.9937579557044877,0.0,single,-0.7774909999999999
158,1.316667,quasi,-0.19018478521717488,0.14146868250540343,-0.01919846412286258,0.28542046428103396,-0.5325079634021309,-0.31432203486161214,-0.0027597792176619956,0.0014398848092166917,0.0011999040076793276,-0.0273578113750905,0.040916726661871024,-0.6484281257499341,-17.290969755631906,1.6250978522582902,-29.489744046721068,-0.25914989401223953,-0.18721324641106876,-0.11521267047958984,1.2819426788782033,-1.0229482862050254,1.4780782466123634,0.07752399999999993,-0.03280700000000003,-0.901444,-0.42404600000000003,0.15757899999999997,-0.7827350000000001,0.50157,0.190386,0.11870899999999995,0.9944398693006726,0.0,single,-0.7827350000000001
159,1.325,quasi,-0.08052322092884848,-0.027601104044169638,0.21852874114964338,-2.37233012846829,-0.9420052939783732,0.7240853264485393,-0.002640105604220172,-0.0014400576023055455,0.0020400816032641075,-0.036841473658946904,0.022920916836673282,-0.6410656426257125,13.159914111163737,-20.289185953387086,28.528405768931734,0.014361408069341742,-0.345606913659218,0.10082534448395387,-1.1380849974626774,-2.1595835623662434,0.8835333162392507,0.07817300000000005,-0.03258899999999998,-0.903248,-0.42368199999999995,0.15800000000000003,-0.789898,0.5018549999999999,0.190589,0.11335000000000006,0.9939433561623596,0.0,single,-0.789898
160,1.333333,quasi,-0.19872794911796013,0.17940717628705125,-0.11568462738508917,0.3420456039693586,-0.19134912547622016,-0.47414336036229626,-0.0012000480019279175,0.0,0.000960038401536172,0.0021600864034515992,-0.002400096003842512,-0.6446657866314526,-14.185134788084673,24.84198731923884,-40.107208512507704,0.17281382482806062,0.17281382482965563,-0.12961036862209488,4.680374422464637,-3.0386430865853056,-0.43203456207128094,0.07981899999999997,-0.034084,-0.9022760000000001,-0.422008,0.15648499999999999,-0.7943060000000001,0.501827,0.190569,0.10797000000000001,0.9974386478509305,0.0,single,-0.7943060000000001
161,1.341667,quasi,-0.20446364290856253,0.11795056395488059,-0.06047516198704938,0.937941497769231,-0.4496839694040602,-0.31833614747287475,-0.0007199424046017042,-0.0004799616030722434,0.0013198944084474205,0.011519078473727181,-0.019678425725941997,-0.6454283657307532,-0.6882281966165721,-7.374203543577133,6.624605879294557,0.05760806303410395,-0.05759078510586183,0.043179266488031595,1.1229892092963476,-2.0732337079553416,-0.09150217174234207,0.08151699999999995,-0.03507099999999996,-0.901761,-0.420208,0.15533800000000003,-0.7991809999999999,0.501725,0.190409,0.10258000000000012,0.9973696211427195,0.0,single,-0.7991809999999999
162,1.35,quasi,-0.18480739229570023,0.12780511220448385,0.07248289931597725,-1.3994166301245854,-0.3869132010322431,-0.3257242396778978,0.000720028801146092,-0.0012000480019145944,0.0008400336013440465,0.01872074882995161,-0.03672146885875046,-0.6416656666266544,2.358844427320528,1.1825930936761175,15.95560558058614,0.17280345682800566,-0.08641382441405716,-0.057585600276414926,0.8642350121474022,-2.0452469858164126,0.4515419541700241,0.083063,-0.0361459999999999,-0.902358,-0.41851199999999994,0.15396700000000008,-0.8051320000000001,0.5015749999999999,0.19011299999999998,0.09722599999999992,0.9972795970821473,0.0,single,-0.8051320000000001
163,1.358333,quasi,-0.1814472578903122,0.15612624504980302,-0.0620424816992673,0.1130232703811699,0.03900169138678071,-0.30878039532702767,-0.0030001200047932272,-0.0009600384015370304,0.00036001440057597004,0.027841113644547232,-0.05052202088083626,-0.6371054842193756,0.40323225793688305,3.3986718883138645,-16.143691469488274,-0.446435714141288,0.02880230413747344,-0.05760460827650076,1.094487557253775,-1.656132487949829,0.5472437786245982,0.08455000000000001,-0.037454999999999905,-0.901838,-0.41676799999999997,0.15224500000000007,-0.8099240000000001,0.5013179999999999,0.18969999999999998,0.09191399999999994,0.9947158507085897,0.0,single,-0.8099240000000001
164,1.366667,quasi,-0.21814254859610901,0.19594432445405496,-0.10235181185504993,0.11228717956654223,-0.7925616927984955,-0.6558151149028186,-0.0005999520038436186,-0.002639788816903929,0.000839932805375571,0.031677465802733916,-0.06383489320854673,-0.6377489800815886,-4.403082638084536,4.777787305525755,-4.836732680079473,0.2879971203443233,-0.2015539255299839,0.05758560172781345,0.46032543294776274,-1.5974168859743658,-0.07721332639944951,0.08636299999999997,-0.03911000000000009,-0.9009780000000001,-0.414686,0.15007999999999994,-0.814386,0.501049,0.18919000000000002,0.086592,0.9952759731977213,0.0,single,-0.814386
165,1.375,quasi,-0.19320772830913416,0.07200288011519734,0.047881915276602766,-0.08675749614763661,-0.6189228111164884,-0.14014916289747079,-0.0032401296051841467,-0.0004800192007685152,0.0007200288011519401,0.05052202088083626,-0.07944317772710932,-0.6327853114124623,2.9922981263620647,-14.873568263393587,18.028768406534752,-0.3168339855202871,0.2591827212451019,-0.014389056069078601,2.261437066854976,-1.8730690649901283,0.5956640668578408,0.08794599999999997,-0.03971400000000003,-0.9013709999999999,-0.412655,0.148818,-0.820058,0.500601,0.18853200000000003,0.08131299999999997,0.9944105009750461,0.0,single,-0.820058
166,1.383333,quasi,-0.07596303852154092,0.11676467058682474,0.05052202088083626,1.5625093047259695,3.439630947494652,-0.3766272058970657,-0.004200168006721177,-0.0027601104044156313,0.0004800192007680988,0.05352214088563615,-0.08316332653306198,-0.6164646585863494,14.06992557153418,5.371629721784209,0.316825345521843,-0.11520921655310684,-0.273621889313229,-0.028802304138226747,0.3600288017280594,-0.4464357141428888,1.9585566814008275,0.08854399999999996,-0.040710000000000024,-0.901788,-0.411576,0.147152,-0.825616,0.5001199999999999,0.18786200000000003,0.07617200000000002,0.9915853898284073,0.0,single,-0.825616
167,1.391667,quasi,-0.2072234221262324,0.1627069834413263,-0.03203743700504142,-0.2695599844431717,-1.38750437721033,-0.43094252195830257,-0.004199664026878687,-0.0026397888168906074,-0.000239980801535699,0.06083513318934195,-0.08363330933525293,-0.5979121670266317,-15.749986033680166,5.512636531617616,-9.906342438910134,6.047274327932756e-05,0.014437435508162106,-0.08639308882934874,0.8774888773345026,-0.056393424788930016,2.2261208974942965,0.09023599999999998,-0.042088000000000014,-0.901523,-0.409342,0.14509899999999998,-0.830332,0.49957799999999997,0.187187,0.071191,0.9917229813268663,0.0,single,-0.830332
168,1.4,quasi,-0.21708868354733782,0.11844473778950788,0.10332413296531964,0.31214264807011816,-0.9266544045436371,-0.4339460043100006,-0.001800072002878601,-0.003960158406330258,-0.0002400096003842576,0.08568342733709336,-0.0936037441497672,-0.6072242889715654,-1.1838787256816878,-5.31168194549608,16.244038157969793,0.28796256138246834,-0.1584506887603099,-3.456000067034626e-06,2.9819145743131688,-1.1965000377432338,-1.117499333365388,0.09202999999999995,-0.043107999999999924,-0.9023859999999999,-0.40681900000000004,0.14333200000000001,-0.8362529999999999,0.498849,0.18643999999999994,0.066133,0.9927388556099659,0.0,single,-0.8362529999999999
169,1.408333,quasi,-0.18444737789511384,0.24204968198728083,-0.2655706228249108,-0.19092325915778915,-0.4616715209513481,-0.7618387113809816,-0.0021600864034515992,-0.0028801152046110143,-0.00036001440057596045,0.10104404176166983,-0.10404416176646963,-0.596423856954268,3.917113362801321,14.833186631197742,-44.2691414604853,-0.043203456207007315,0.1296103686210518,-0.014401152069086855,1.8433474648477375,-1.2529002300134706,1.2961036862231157,0.093549,-0.045148999999999995,-0.900176,-0.40444,0.14044799999999996,-0.8390099999999999,0.497989,0.18559699999999996,0.061166000000000054,0.993969833420665,0.0,single,-0.8390099999999999
170,1.416667,quasi,-0.2576193904487702,0.21382289416846462,-0.039956803455714306,0.28730288283360794,-1.2255679095320946,-0.7493280546798081,-0.0007199424046150258,-0.0019198464122889736,-0.0007199424046075325,0.11579073674106215,-0.11783057355411586,-0.5723542116630774,-8.779939111310025,-3.386943582771388,27.0714926048957,0.1728034555839454,0.11522303723566822,-0.043187905451353356,1.7694618405798659,-1.6542370755515343,2.8881263848321406,0.09568999999999994,-0.04694699999999996,-0.899849,-0.401328,0.13768400000000003,-0.8434470000000001,0.49701799999999996,0.184631,0.05640199999999995,0.9963781356938826,0.0,single,-0.8434470000000001
171,1.425,quasi,-0.22728909156366606,0.1608064322572884,-0.030961238449535095,0.0724313408879797,0.03994085821776958,-0.4920839666563294,0.0030001200048064705,0.002760110404415558,-0.003120124804992351,0.14592583703347817,-0.14556582263290513,-0.5792631705268106,3.6397814574707312,-6.362229918537775,1.0795109811807335,0.44642534614441753,0.5616172826958418,-0.2880334093825485,3.6163566893574335,-3.328363023975613,-0.8291082279770906,0.09760900000000006,-0.048263999999999974,-0.899617,-0.39821799999999996,0.135131,-0.8480160000000001,0.495827,0.18339499999999997,0.0516009999999999,0.9914439579038274,0.0,single,-0.8480160000000001
172,1.433333,quasi,-0.23568942757710112,0.14772590903636065,0.014760590423615187,-0.13714615644016698,-0.5530279004621788,-0.30951299929717285,0.0025201008040380353,-0.0007200288011461112,0.0007200288011519401,0.1737669506780293,-0.16932677307092386,-0.5535821432857372,-1.0080806448380109,-1.5697255755343669,5.486838938335617,-0.05760460827654382,-0.4176334100038043,0.4608368662119676,3.341067280037368,-2.851428109686662,3.0818465427905553,0.09959400000000007,-0.049500999999999906,-0.899734,-0.394806,0.13248900000000002,-0.8527520000000001,0.49440000000000006,0.18198999999999993,0.04698199999999997,0.9954699181355566,0.03018000000000004,single,-0.8527520000000001
173,1.441667,quasi,-0.2093832493400508,0.15142788576913555,-0.1285097192224665,-0.5441574823601535,-0.4224961493489113,-0.2818260645440275,0.00035997120230084253,0.014518838492911662,0.005399568034557182,0.2179025677945729,-0.19642428605711387,-0.5254379649627983,3.1564888693364694,0.4442016717992397,-17.191061872579866,-0.2591948166231313,1.8285177938634096,0.5614997880255828,5.2958503859543145,-3.251441443027334,3.3770312362537442,0.10134200000000004,-0.050641999999999965,-0.898618,-0.391245,0.12959000000000004,-0.85606,0.49258700000000005,0.180232,0.042557999999999985,0.9741757228019,0.07442000000000004,single,-0.85606
174,1.45,quasi,-0.2169686787471557,0.12420496819873006,-0.08112324492979912,0.2288836054260069,-0.15380631261701685,-0.257788958547136,0.0007200288011461112,-0.0008400336013415707,0.0006000240009602277,0.21504860194408162,-0.2071282851314078,-0.43741749669987146,-0.9102879403702123,-3.2668807836800355,5.686604379295311,0.04320864020704092,-1.8431383768454785,-0.5759683227645503,-0.3424896016430218,-1.2845312701660894,10.562878706699582,0.10315600000000003,-0.05168399999999995,-0.897937,-0.38764499999999996,0.12682900000000003,-0.8590289999999999,0.490801,0.17851299999999998,0.038908000000000054,0.9979022983956038,0.11091999999999996,single,-0.8590289999999999
175,1.458333,quasi,-0.12216488659545728,-0.06588263530540034,-0.0009600384015370048,0.9102809132993505,0.9389391136377194,0.6550509371273087,0.006000240009599618,-0.007080283211332079,0.006480259210368121,0.2468498739949592,-0.2187687507500218,-0.38521540861633846,11.376910134608995,-22.81142487749035,9.619969582174573,0.6336506910420514,-0.7488599075951518,0.7056564513869903,3.8163052983171744,-1.3969117507036848,6.264501150069853,0.10422399999999998,-0.05119400000000007,-0.897875,-0.38456999999999997,0.12555499999999997,-0.862231,0.48879399999999995,0.17674900000000004,0.03564400000000001,0.9811344633760812,0.14356000000000002,single,-0.862231
176,1.466667,quasi,-0.21862251019918705,0.1529877609791144,-0.08255339572834593,-1.452981216491604,-2.181344202549695,-0.17101965542540054,0.005519558435324138,-0.010919126469876885,0.0003599712023041825,0.26505879529637666,-0.20806335493161102,-0.4032877369810495,-11.573988913334725,26.262346566416955,-9.790419645645605,-0.05767717473907965,-0.46062434107809924,-0.7343758109028143,2.1848957645089766,1.2845447346305487,-2.1685059232915056,0.10609199999999996,-0.05255999999999994,-0.897184,-0.380539,0.12254600000000004,-0.8649039999999999,0.486631,0.17510599999999998,0.032280000000000086,0.9795996713362115,0.17720000000000008,single,-0.8649039999999999
177,1.475,quasi,-0.22980919236769068,0.11700468018721254,-0.07332293291730548,0.7542600526488087,0.2776138003190875,-0.36007144918644424,-0.00012000480018213318,0.000360014400573046,-0.0001200048001921256,0.29509180367214705,-0.18636745469818786,-0.4123364934597305,-1.34245555844275,-4.3181424207249774,1.1076998453186475,-0.6767746592471106,1.3535510464958278,-0.05759942427652703,3.6041051692991553,2.6036121724976335,-1.0858942132102265,0.10800600000000005,-0.053532000000000024,-0.896574,-0.37616499999999997,0.12001799999999996,-0.867729,0.484171,0.17354999999999998,0.02884500000000001,0.9993366485078786,0.21155000000000002,single,-0.867729
178,1.483333,quasi,-0.2246489859594386,0.09732389295571986,-0.004800192007685152,0.3005672247611938,0.14845055942038635,-0.19122662935340945,0.0007200288011461112,0.006600264010563753,-0.0075603024120966195,0.23856954278171222,-0.17424696987879115,-0.3384135365414651,0.6192495389718131,-2.361788939336716,8.223057831467772,0.10080806448196952,0.7488599075951955,-0.8928714282856789,-6.782942624557224,1.4545163589819772,8.87110967457891,0.10988399999999998,-0.054288,-0.896597,-0.372305,0.117755,-0.870509,0.482189,0.172043,0.026088,0.9832303101593995,0.23912,single,-0.870509
179,1.491667,quasi,-0.2257019438444933,0.13630909527238028,-0.12287017038637114,-0.5964781569063363,-1.4136088685390118,-0.26449018494500237,-0.0008399328053730732,0.0010799136069025276,0.0004799616030718143,0.16234701223901216,-0.15910727141829126,-0.28581713462922775,-0.1263448386194722,4.6778500499952145,-14.167264024320266,-0.18718041834883278,-0.6623890573147568,0.9647545014600879,-9.145971987364948,1.8166184857811112,6.311063344400883,0.11175800000000002,-0.0554150000000001,-0.895569,-0.36907100000000004,0.11529299999999992,-0.871867,0.48082900000000006,0.17070800000000003,0.023702,0.9975835841185651,0.26298000000000005,single,-0.871867
180,1.5,quasi,-0.23676947077883362,0.11100444017760255,-0.05340213608543403,0.5881904526153937,-0.0533640099269545,-0.18646593597546962,-0.00108004320173249,-0.0022800912036471162,-0.0013200528021121676,0.08808352334093593,-0.09132365294611341,-0.2815312612504527,-1.3281563583751856,-3.0366800785764974,8.33649757601557,-0.02881440013913585,-0.4032167059341983,-0.2160103690368413,-8.9119751467751,8.134359591045058,0.514325378468151,0.11372199999999999,-0.05635900000000005,-0.895135,-0.366364,0.11360700000000001,-0.8737680000000001,0.480086,0.16996600000000006,0.021366999999999914,0.9952542859643552,0.28633000000000003,single,-0.8737680000000001
181,1.508333,quasi,-0.2300492019680744,0.11316452658106753,-0.06972278891156354,-1.3186237625987214,-1.931627649076579,-0.24380973243641973,-0.0009600384015370304,-0.0019200768030607374,-0.0020400816032641075,-0.031561262450499894,-0.039481579263173736,-0.24708988359534587,0.8064645158717476,0.2592207372452892,-1.9585566814028152,0.01440115206953807,0.0432034562086142,-0.08640691241473017,-14.357948612916946,6.221297693860572,4.13313064383861,0.11563099999999993,-0.05731799999999998,-0.894571,-0.3647100000000001,0.11233499999999996,-0.875246,0.480341,0.16965299999999994,0.019325000000000037,0.9950642174970105,0.38640517143743497,single,-0.875246
182,1.516667,quasi,-0.24406047516199614,0.09167266618670279,-0.05975521958243276,1.0987020422762068,0.41028302474640305,-0.17185367493559503,-0.0032397408207342263,-0.0008399328053863948,0.000239980801535699,-0.04571634269258001,0.0025197984161258805,-0.21694264458843093,-1.6812182858077303,-2.578816941968391,1.1960126384846057,-0.27354240691110854,0.1296069111680267,0.27358560172783647,-1.6984737511495087,5.0397621405446715,3.6173792904865256,0.11763800000000002,-0.05808900000000006,-0.894071,-0.36305699999999996,0.11159199999999997,-0.876556,0.480695,0.16968100000000003,0.017514999999999947,0.994407594810767,0.45531408829502557,single,-0.876556
183,1.525,quasi,-0.2378495139805528,0.1059642385695398,-0.13284531381255002,-0.2743295298723108,-0.9621253649543601,-0.1092424262546843,-0.0006000240009506516,-0.002640105604220172,-0.00036001440057597004,-0.05328213128525189,0.04692187687507906,-0.18744749789991783,0.7453451555794317,1.7150572882319868,-8.771162154100315,0.3167786895216127,-0.21602937703513664,-0.07200230434557477,-0.9079309483585684,5.328462553576573,3.5395591849890047,0.11961500000000003,-0.05899399999999999,-0.8929670000000001,-0.36151900000000003,0.11110000000000003,-0.877011,0.48113400000000006,0.17009400000000002,0.01595600000000008,0.9954478952451233,0.5063690972100607,double,-0.877011
184,1.533333,quasi,-0.2157686307452353,0.10752430097203795,-0.0921636865474592,0.013657625732552615,-0.18714410571175596,-0.10060492624265135,-0.0014400576023055071,-0.0010800432017324612,0.0001200048001921256,-0.04908196327852941,0.061442457698301686,-0.1656066242649676,2.6498119807172804,0.1872149768988503,4.881990551432871,-0.10080806448516032,0.18721497689759792,0.05760460827650153,0.5040403224195856,1.7425394003626993,2.621009676581043,0.12140100000000009,-0.059899000000000036,-0.892198,-0.36012999999999995,0.11071599999999998,-0.877623,0.48153100000000004,0.17061500000000002,0.014575000000000005,0.9969932204531373,0.5487005462480534,double,-0.877623
185,1.541667,quasi,-0.22270218382529447,0.10187185025198042,-0.1615070794336567,0.41949857985209543,0.6377397059204611,-0.1444801833261753,-0.002519798416132608,-0.00299976001919153,-0.00047996160307182706,-0.0008399328053730955,0.052915766738664875,-0.13318934485241432,-0.8319598128220895,-0.6782398272207389,-8.320541503023616,-0.12955853297661646,-0.2303475902878696,-0.0719902091749417,5.788580570333241,-1.023121065471199,3.8897623485185875,0.12323600000000001,-0.060772999999999966,-0.890856,-0.35828099999999996,0.11030800000000002,-0.8773869999999999,0.481517,0.17108099999999998,0.013469000000000064,0.993421772576837,0.6264458740548552,double,-0.8773869999999999
