frame_id,timestamp,gait_type,root_linear_velocity_x,root_linear_velocity_y,root_linear_velocity_z,root_angular_velocity_x,root_angular_velocity_y,root_angular_velocity_z,left_linear_velocity_x,left_linear_velocity_y,left_linear_velocity_z,right_linear_velocity_x,right_linear_velocity_y,right_linear_velocity_z,root_acceleration_x,root_acceleration_y,root_acceleration_z,left_acceleration_x,left_acceleration_y,left_acceleration_z,right_acceleration_x,right_acceleration_y,right_acceleration_z,left_pos_rel_x,left_pos_rel_y,left_pos_rel_z,right_pos_rel_x,right_pos_rel_y,right_pos_rel_z,step_length,step_width,step_height,left_contact_prob,right_contact_prob,support_type,max_foot_height
1,0.008333,quasi,-0.05832233289331411,0.06876275051002588,0.015480619224761157,-0.07668219498701087,-0.10777183885872214,-0.25465292772320625,0.0004800192007685108,0.0007200288011594278,0.0008400336013440611,-0.0006000240009639692,0.0,0.001200048001920028,0.0,0.0,0.0,0.0,0.0,0.0,0.0,0.0,0.0,0.10442200000000001,-0.13836899999999996,-0.913563,-0.05407099999999998,0.111512,-0.9081549999999999,0.158493,0.24988099999999996,0.005408000000000079,0.9979899444735472,0.9436838425762004,double,-0.9081549999999999
2,0.016667,quasi,-0.010199184065274985,0.07523398128150277,-0.023158147348211987,0.23045929934564363,0.0763545691968712,0.06339614608322842,0.0015598752099880916,0.0015598752099747698,0.0,-0.0008399328053730795,-0.0004799616030722342,0.001319894408447395,5.7743159140915665,0.7764855737313283,-4.636281086269875,0.12957235531792427,0.10077350717726685,-0.10079596848380862,-0.02878675358880612,-0.057590785105859625,0.014380418349816073,0.10452000000000006,-0.13898300000000008,-0.91337,-0.05399299999999996,0.11088099999999995,-0.907951,0.15851300000000001,0.24986400000000003,0.005419000000000063,0.9963233388707244,0.9430825818540562,double,-0.907951
3,0.025,quasi,-0.05436217448697056,0.0775231009240279,0.02160086403456966,-0.029302507299784362,-0.09550110495249808,-0.1312624122249789,0.0003600144005730523,0.0014400576023055323,0.002040081603264089,0.0,-0.0014400576023055323,0.0001200048001921277,-5.299770841437126,0.2747053453168274,5.3712962177825085,-0.1439890566920724,-0.01437868806783122,0.24481958517509766,0.10079596848350887,-0.1152161285531379,-0.14399251269113972,0.10497599999999996,-0.139617,-0.913533,-0.05354000000000003,0.11022300000000002,-0.90813,0.158516,0.24984,0.005403000000000047,0.9957950725945774,0.9435615847476291,double,-0.90813
4,0.033333,quasi,-0.04416176647066302,0.09084363374535073,-0.02028081123245959,-0.3098735500562129,-0.07257729923040561,-0.3410370464951767,-0.000840033601341563,-0.00012000480019545849,-0.00012000480019171134,-0.0014400576023055323,-0.0002400096003842554,0.002280091203647928,1.2240979258739397,1.5985278796739277,-5.026002072126396,-0.14401152069058146,-0.18721497689919486,-0.2592207372441858,-0.17281382482965707,0.14401152069138087,0.2592207372441858,0.10533700000000001,-0.14037500000000003,-0.913365,-0.05318400000000001,0.109464,-0.9079419999999999,0.15852100000000002,0.24983900000000003,0.005423000000000067,0.998571657180582,0.941257613835481,double,-0.9079419999999999
5,0.041667,quasi,-0.022558195344368363,0.09047276217902955,-0.04055675545955716,-0.08039482213325637,-0.14648394136402743,-0.2091463217617549,0.0009599232061444684,-0.00011999040075806734,0.0,-0.0009599232061444684,-0.0027597792176620164,0.001319894408447395,2.5922211574627614,-0.0445010278763114,-2.432918673757808,0.2159775386952281,1.7277942633972663e-06,0.014399424069079833,0.05761151861783823,-0.30234816622003363,-0.11521439827220217,0.10553299999999999,-0.14112999999999998,-0.913027,-0.05300400000000005,0.10868699999999998,-0.907593,0.15853700000000004,0.24981699999999996,0.00543400000000005,0.9983876774361459,0.9403162718119004,double,-0.907593
6,0.05,quasi,-0.0669626785071473,0.07608304332173568,0.03528141125645223,0.10813939412004495,0.038472475267963185,-0.12444296730260693,0.000840033601341563,0.0028801152046110646,0.00012000480019171134,-0.001680067202683126,0.00312012480499532,-0.0019200768030719613,-5.328751129578655,-1.7268353362887159,9.100944043682876,-0.014387328069471418,0.3600270737272449,0.014401152069088125,-0.08642073641409549,0.7056167073871759,-0.3888120978662374,0.10609800000000003,-0.14173999999999998,-0.91332,-0.05245999999999995,0.10807899999999998,-0.907903,0.15855799999999998,0.24981899999999996,0.005417000000000005,0.9949958014307752,0.939112589054063,double,-0.907903
7,0.058333,quasi,-0.04260170406816203,0.0780031201247964,0.009000360014392923,0.1978402386173977,0.020678658285501788,-0.01686388532138566,0.0004800192007685108,0.0014400576022922092,0.0006000240009602221,-0.0019200768030740432,-0.0019200768030740432,0.0010800432017279002,2.923433870033033,0.2304184331046108,-3.1538523031392427,-0.043203456207014546,-0.1728138248312559,0.05760460827655236,-0.028802304139075616,-0.6048483869037997,0.36002880172805246,0.10645700000000002,-0.142378,-0.9133899999999999,-0.05212099999999997,0.10741300000000004,-0.9079689999999999,0.158578,0.24979100000000004,0.005421000000000009,0.9972795970821533,0.9409194869147182,double,-0.9079689999999999
8,0.066667,quasi,-0.06263498920086662,0.07475401967843054,0.023638108951284223,0.08890688579098403,0.024179266511120696,-0.11025635010225403,0.0013198944084453137,0.0017998560115308694,0.0,-0.002399808015361171,0.00035997120230750603,0.0007199424046075187,-2.4038019117716085,-0.38986086469472825,1.7563893612780535,0.10077696276419519,0.04317235532021361,-0.071997120345599,-0.057563140423221464,0.27358387393587097,-0.0432086389633287,0.10699000000000003,-0.14298599999999995,-0.9135869999999999,-0.05161899999999997,0.10679300000000003,-0.90816,0.158609,0.24977899999999997,0.00542699999999996,0.9962800825458349,0.94151133287142,double,-0.90816
9,0.075,quasi,-0.04788191527660236,0.10392415696628275,-0.01872074882994529,-0.08854079326416846,-0.24303114529503847,-0.20869611510584937,0.001080043201732481,0.0019200768030607216,0.0012000480019200288,-0.0008400336013415638,0.0015600624024943305,-0.000720028801151934,1.770439688499252,3.5005564968021403,-5.083266264398121,-0.028783296137385447,0.014427072066464932,0.14401152069123122,0.18718041689902898,0.14401670469060668,-0.17280345682940765,0.107398,-0.14383600000000007,-0.913421,-0.05122700000000002,0.10593999999999998,-0.90801,0.15862500000000002,0.24977600000000005,0.005411000000000055,0.9958189237648887,0.9427023970057826,double,-0.90801
10,0.083333,quasi,-0.03996159846394185,0.10644425777030726,-0.024480979239167384,-0.24241143536645957,-0.06940523987290997,-0.32034079396622683,0.001800072002878583,0.0022800912036470937,0.0,-0.001800072002878583,-0.00048001920076851036,0.00012000480019212759,0.9504760365607231,0.3024241934506791,-0.6912552993186236,0.08640691241402874,0.04320345620861296,-0.144011520691231,-0.11520921655310433,-0.24481958517494767,0.10080806448386666,0.10774600000000001,-0.14470400000000005,-0.9132170000000001,-0.05090899999999998,0.105049,-0.9078050000000001,0.158655,0.24975300000000006,0.005411999999999972,0.9951583189579972,0.9427686057070097,double,-0.9078050000000001
11,0.091667,quasi,-0.066714662826974,0.09611231101512506,0.01859851211901912,0.002168157871170596,0.028677883130542432,-0.1808949149065886,-0.0005999520038436236,0.003119750419976186,0.0004799616030718183,-0.0011999040076872472,0.0020398368130536667,-0.0026397888168947924,-3.2101109146906843,-1.2397344318673158,5.169125432947748,-0.2879798424192715,0.10075104587582107,0.05759078510580977,0.07201439827109865,0.3023585329760234,-0.33114874215105855,0.10829699999999998,-0.14547900000000002,-0.913368,-0.05036300000000005,0.10426499999999994,-0.907982,0.15866000000000002,0.24974399999999997,0.005386000000000002,0.9946450572598038,0.9402311580262769,double,-0.907982
12,0.1,quasi,-0.04104164166567433,0.10476419056761081,-0.00024000960037759357,-0.16888970556507618,0.07260135366706116,-0.2400003273268369,-0.0009600384015370207,0.006120244809795177,0.0014400576023038656,-0.0007200288011461039,-0.00024000960038425518,0.0018000720028802486,3.0808857747869487,1.0382670769813687,-2.2607130348489974,-0.0432120962070559,0.36007372972746765,0.11521612855298771,0.05758732827806827,-0.27359251331308293,0.5328046105574268,0.10863100000000003,-0.1463009999999999,-0.913354,-0.05002699999999993,0.10339000000000004,-0.907965,0.15865799999999997,0.24969099999999994,0.005388999999999977,0.9893995759830347,0.9428541056450093,double,-0.907965
13,0.108333,quasi,-0.06576263050521941,0.08208328333133547,0.020640825633019333,0.3048206369071314,-0.2047256538530474,0.005334268892183668,0.0014400576023055336,0.005640225609013352,0.004920196807872243,-0.001080043201732481,0.0020400816032628416,-0.0031201248049924084,-2.9666373262384615,-2.7218177410626865,2.5058004600260344,0.2880230413827621,-0.05760460827815008,0.41763341000460585,-0.043203456208613614,0.27362188931322434,-0.5904472348341127,0.10919100000000004,-0.146938,-0.913485,-0.049487999999999976,0.10272300000000001,-0.9081629999999999,0.15867900000000001,0.24966100000000002,0.005322000000000049,0.9872967362629034,0.9403113566027445,double,-0.9081629999999999
14,0.116667,quasi,-0.06815454763617727,0.09731221502279883,0.009119270458372443,0.007233044337845954,-0.09923572904621221,-0.16894530261653168,0.0038396928245778704,0.0051595872330231825,0.003239740820734664,-0.0020398368130470023,0.0010799136069158564,-0.00011999040076764214,-0.28700709514733147,1.8273256169262473,-1.3824760228757953,0.2879331920173187,-0.05767199135951156,-0.20163858736951973,-0.11516602007613637,-0.11521094268622321,0.35998732952060997,0.10979099999999997,-0.147706,-0.9135340000000001,-0.04893700000000001,0.10192100000000004,-0.90824,0.15872799999999998,0.24962700000000004,0.005294000000000021,0.9879976273193096,0.9432080361002686,double,-0.90824
15,0.125,quasi,-0.06924276971079445,0.10920436817472305,0.0096003840153569,0.0776120062689396,0.012488060608973648,-0.1825549950479859,0.0008400336013415638,0.001800072002878586,0.0012000480019200288,-0.000840033601354887,0.0002400096003842556,-0.0002400096003842556,-0.13059187262896607,1.4271154628494223,0.05773593627558589,-0.3599735057285862,-0.40315795393550935,-0.2447729291749234,0.14398214468884152,-0.10079251248429155,-0.014402880069196393,0.110375,-0.14860099999999998,-0.913604,-0.04836700000000005,0.10101300000000007,-0.908322,0.15874200000000005,0.24961400000000006,0.005282000000000009,0.9961320293600151,0.9456699727118374,double,-0.908322
16,0.133333,quasi,-0.03672146885875774,0.12420496819872882,-0.035281411256452205,-0.26570432380642073,-0.032896455196990325,-0.3188305848357719,0.0033601344053795727,0.003840153606148083,-0.0009600384015361881,-0.0014400576023055312,-0.0003600144005797136,0.0013200528021121544,3.902712210732831,1.8001440086410367,-5.386030873852042,0.3024241934522989,0.24481958517574645,-0.25922073724423556,-0.07200576034449102,-0.07200576034609008,0.187214976898645,0.11070900000000006,-0.14960399999999996,-0.913318,-0.04807300000000003,0.09997500000000004,-0.908017,0.1587820000000001,0.249579,0.005301,0.9913463307921098,0.9436792784996877,double,-0.908017
17,0.141667,quasi,-0.05987520998320475,0.1233501319894446,0.007919366450685224,-0.18906560649132453,-0.05376262481093625,-0.2295765711561846,0.0014398848092167062,0.003359731221505648,0.001079913606911697,-0.001319894408445317,0.0009599232061444707,-0.0016798656107511586,-2.778226676799504,-0.10257213934295999,5.1836786305660585,-0.23041151861805506,-0.057646074471134644,0.2447746590410235,0.014418429788842642,0.15837984241950892,-0.35996141263058795,0.1112200000000001,-0.15060399999999996,-0.9133749999999999,-0.04758499999999999,0.09895500000000002,-0.908097,0.15880500000000008,0.24955899999999998,0.005277999999999894,0.9936475561257965,0.9433164680233708,double,-0.908097
18,0.15,quasi,-0.06012240489619264,0.10776431057243066,-0.024000960038398873,0.02887360382275425,-0.18713788847758012,-0.21287575711140935,0.009000360014392916,0.0054002160086357495,0.007440297611904416,-0.00024000960037759357,-0.0008400336013415624,0.001680067202688121,-0.029664576141591945,-1.8703733849770698,-3.830592402386184,0.9072933163537986,0.24486796917437895,0.7632766116635922,0.12959136062255158,-0.21600345703660526,0.40320806593535063,0.111796,-0.15145700000000006,-0.9131130000000001,-0.04708599999999996,0.09804999999999997,-0.907883,0.15888199999999997,0.24950700000000003,0.005230000000000068,0.9785571274544094,0.9445439269894709,double,-0.907883
19,0.158333,quasi,-0.06888275531020796,0.11736469458777421,0.0247209888395583,0.25438499034953976,0.02330536907518022,-0.03582556245444313,0.0014400576023055312,0.003840153606148083,0.00048001920076809403,-0.0014400576023055312,0.0016800672026831248,-0.003240129605184114,-1.0512841010458795,1.152092165527846,5.846867740064458,-0.9072725803536995,-0.18721497689759573,-0.8352668200091583,-0.14401152069218007,0.3024241934507002,-0.5904472348340611,0.11238199999999998,-0.15240299999999996,-0.9133150000000001,-0.04652400000000001,0.097086,-0.908116,0.158906,0.24948899999999996,0.005199000000000065,0.9931178645009391,0.9414706253353076,double,-0.908116
20,0.166667,quasi,-0.06227501799856572,0.11375089992801284,-0.01667866570674347,-0.005171421890887667,-0.15987124778304312,-0.20484460700182344,-0.0019198464122889352,0.0013198944084453126,-0.005279577633789576,-0.0016798656107461574,0.0013198944084519733,-0.00011999040076805845,0.7928650481932128,-0.43362066951780304,-4.967561140664955,-0.4031562292529954,-0.3024069111714384,-0.6910963324403245,-0.028774659040151907,-0.0432172779255041,0.37438675358963913,0.11288500000000001,-0.15334000000000003,-0.91322,-0.04601899999999992,0.09614899999999998,-0.9079780000000001,0.15890399999999993,0.24948900000000002,0.005241999999999969,0.9903820377118535,0.9440137743980245,double,-0.9079780000000001
21,0.175,quasi,-0.06468258730348704,0.1364454578183063,-0.013560542421700471,-0.1341151717706798,-0.1442547896802174,-0.26560372303435836,0.001920076803074048,-0.008520340813637757,-0.007200288011520601,-0.0006000240009639708,-0.000480019200768512,-0.0009600384015361912,-0.28891987338549485,2.7234558850706256,0.37418976179563274,0.4608092182122876,-1.180875461668438,-0.23049446510632784,0.12958617662092758,-0.21599827303738026,-0.10080979248387553,0.11343999999999999,-0.15454800000000002,-0.9131670000000001,-0.045485,0.09500800000000004,-0.907873,0.15892499999999998,0.24955600000000006,0.005294000000000021,0.9811344633760768,0.9450105278679191,double,-0.907873
22,0.183333,quasi,-0.07968318732749279,0.11772470898836059,0.019800792031677738,0.20062269159422189,0.08176551390809118,-0.0706746009986293,0.011880475219003978,0.01788071522861702,0.01740069602784143,-0.00252010080403801,0.00048001920076851036,-0.00012000480019171124,-1.8001440086410334,-2.246579722782396,4.00352027521639,1.19529562173646,3.1682534552087787,2.9522361741704084,-0.23041843310620877,0.1152092165531047,0.10080806448391687,0.11420299999999994,-0.15537999999999996,-0.913187,-0.04484200000000005,0.09403100000000003,-0.908039,0.159045,0.249411,0.00514799999999993,0.9539429734287783,0.9442396418738588,double,-0.908039
23,0.191667,quasi,-0.073794096472286,0.1274298056155515,-0.011159107271419444,0.09965421535577745,-0.1708665898989139,-0.24406225194448353,0.004439644828421493,-0.007679385649155741,-0.007919366450683947,-0.0011999040076739237,0.0008399328053730787,-0.002039836813054912,0.706634371875063,1.1645184337882062,-3.714890725113649,-0.8928282206122483,-3.066966747992889,-3.0381644442675007,0.15841094268827516,0.043186177658335496,-0.23036141263057344,0.11485500000000004,-0.15650600000000003,-0.91316,-0.04423699999999997,0.092976,-0.907963,0.159092,0.24948200000000004,0.005197000000000007,0.9801813937638832,0.9438446449211209,double,-0.907963
24,0.2,quasi,-0.08184327373094442,0.14208568342733252,-0.0030001200047931973,-0.10591096940869767,-0.28599488556605446,-0.27199366685945936,0.002040081603256177,-0.00012000480018213519,-0.004560182407296269,-0.0009600384015370207,0.0007200288011527656,0.0,-0.9659399086353548,1.758775688441258,0.9791176367006168,-0.2879591053840531,0.9071619883563662,0.4031182099349184,0.028785024137393825,-0.014389056068680309,0.24479020917495625,0.11555399999999993,-0.15769099999999991,-0.913173,-0.04356300000000002,0.09179800000000005,-0.907938,0.15911699999999995,0.24948899999999996,0.00523499999999999,0.9916714017306123,0.9456499199967978,double,-0.907938
25,0.208333,quasi,-0.10080403216129426,0.11172446897876125,0.02352094083763044,0.32752047996777595,-0.17157240025723194,-0.11205597578924226,0.005040201608076038,0.006600264010550386,-0.003360134405376253,-0.0012000480019146184,-0.000480019200768512,-0.0004800192007680956,-2.2753820269230625,-3.6434914734875017,3.1826546072751354,0.36002880173045343,0.8064645158685393,0.14401152069122997,-0.028802304137477294,-0.14401152069138132,-0.057604608276502677,0.1164360000000001,-0.158567,-0.913397,-0.04273299999999991,0.09086300000000003,-0.908138,0.159169,0.24943000000000004,0.005259000000000014,0.9850688970712129,0.9451120830247133,double,-0.908138
26,0.216667,quasi,-0.08291336693064513,0.1233501319894442,0.013198944084466447,0.012946877633454788,-0.01902822105709775,-0.2445015982390533,0.004919606431480405,0.004439644828421493,0.00527957763378916,-0.0010799136069158564,0.0008399328053730787,-0.00035997120230375903,2.1467080910306104,1.394967963844845,-1.2385405271375072,-0.014470263570390251,-0.2592535615705412,1.0366825100990407,0.014414974201915277,0.15838157021137383,0.014404607447124605,0.11716800000000005,-0.15955799999999998,-0.9134629999999999,-0.04205099999999995,0.08984199999999998,-0.9082509999999999,0.159219,0.24939999999999996,0.005211999999999994,0.9858788069403153,0.9455222233976148,double,-0.9082509999999999
27,0.225,quasi,-0.11904476179047066,0.14028561142445392,0.019440777631104685,0.060684334186029726,-0.20896861840744918,-0.20132597746320668,0.002760110404415604,0.004440177607098729,0.005040201608064363,-0.0020400816032695,-0.0026401056042201455,-0.002640105604224309,-4.335940820811892,2.0323388257541954,0.7490499875960919,-0.25914988924334564,6.393599870822927e-05,-0.0287262721378611,-0.11522476855317926,-0.4176213140037467,-0.2736270733133983,0.11818300000000004,-0.16069,-0.9135829999999999,-0.041076,0.08865100000000004,-0.908435,0.15925900000000004,0.24934100000000003,0.00514799999999993,0.9878966236486262,0.9414288771945932,double,-0.908435
28,0.233333,quasi,-0.09468378735148542,0.13176527061082952,0.003480139205575031,-0.22296092606642998,-0.08907330365210747,-0.39868115265100906,0.00252010080403801,0.005760230409222125,0.006360254410176517,-0.0026401056042201455,-0.010440417616705108,-0.00012000480019212759,2.923433870033028,-1.022481796906804,-1.9153532251925645,-0.02880230413747673,0.15841267276171783,0.15841267276036877,-0.07200576034449119,-0.9360748844935743,0.30242419345159954,0.11899300000000002,-0.16174,-0.913559,-0.04030900000000004,0.08746599999999999,-0.908465,0.15930200000000005,0.24920599999999998,0.005094000000000043,0.9850943710677242,0.9311104659016893,double,-0.908465
29,0.241667,quasi,-0.08135349172067063,0.12742980561555195,-0.02543796496280183,0.012467204043536401,-0.31926711906026084,-0.26248468973250827,0.00191984641227562,0.0051595872330232,0.0055195584353248785,0.0009599232061444707,0.0011999040076805885,-0.001439884809215041,1.5995075150965699,-0.5202141822987253,-3.4698949086125426,-0.07202476503028458,-0.0720714154306367,-0.10087544694644114,0.43196889973177643,1.3967268567777447,-0.1583729312482501,0.11968699999999999,-0.162759,-0.913301,-0.039622999999999964,0.08641399999999999,-0.908265,0.15930999999999995,0.24917299999999998,0.0050360000000000404,0.9870071947278001,0.9461302950214399,double,-0.908265
30,0.25,quasi,-0.11652466098643266,0.11796471858873818,0.02916116644665703,0.2250016487175095,-0.0003268851367102914,-0.14577554548453767,0.0036001440057704896,0.006120244809781853,0.00624024960998439,-0.0007200288011461039,0.0006000240009573072,-0.0006000240009602216,-4.22070914025705,-1.1358558774527496,6.552157855449276,0.201643776970463,0.11528352055186036,0.08648640041515791,-0.20160230496706746,-0.07198848034600754,0.10078732848371758,0.12068800000000002,-0.16369100000000003,-0.913492,-0.03865799999999997,0.08543600000000001,-0.908513,0.159346,0.24912700000000004,0.004978999999999956,0.9842450053255716,0.9483552021089939,double,-0.908513
31,0.258333,quasi,-0.09348373934957112,0.13692547701908814,0.008760350414015352,-0.03486477293238517,0.035944762040546724,-0.21509499819632458,0.002880115204597749,0.003360134405379584,0.0050402016080643795,-0.0016800672026964535,0.001920076803074048,-0.0021600864034562223,2.765021197271283,2.2753820269230776,-2.4481958517510773,-0.08640691241722578,-0.3312264975881766,-0.14401152069122927,-0.11520921655470442,0.15841267276091972,-0.18721497689859648,0.1214909999999999,-0.16480400000000006,-0.913523,-0.037893000000000066,0.08431099999999997,-0.908604,0.15938399999999997,0.24911500000000003,0.004919000000000007,0.9888210019500969,0.9452384218259904,double,-0.908604
32,0.266667,quasi,-0.11351091912647006,0.13870890328772903,-0.005759539236866806,0.050520788813253496,-0.30274960393381334,-0.3561326247573656,0.009959203263745522,0.007919366450685196,0.010919126469882495,-0.0004799616030722338,0.00851931845452216,0.000599952003839876,-2.403069327681656,0.21399403271428968,-1.742247378315592,0.8494226132886687,0.5470640803102481,0.7054145502541529,0.14400115186275722,0.7918456505217308,0.3311781146263613,0.12251999999999996,-0.16589399999999999,-0.913384,-0.03695100000000007,0.08322600000000002,-0.908551,0.15947100000000003,0.24912,0.004832999999999976,0.972055142716507,0.9374135109826265,double,-0.908551
33,0.275,quasi,-0.11568462738510403,0.11940477619105665,-0.002760110404415595,0.18619483049144006,-0.14954433675920478,-0.1834422444700149,0.01692067682706662,0.010320412816516277,0.02052082083283335,-0.0018000720028785772,0.006480259210368207,-0.005520220808832439,-0.26085542525308564,-2.316587915117281,0.35994585772845294,0.8354102440082886,0.28813708938330385,1.152249413530639,-0.15841958476015094,-0.24469689717436025,-0.7344501155252957,0.12362499999999998,-0.16680300000000003,-0.91319,-0.03600199999999998,0.08228499999999994,-0.908574,0.15962699999999996,0.24908799999999998,0.0046159999999999535,0.9524510686928545,0.939338385489561,double,-0.908574
34,0.283333,quasi,-0.10260410416415952,0.13080523220927961,-0.01584063362533425,0.0809246395272761,0.010993025424320749,-0.2783584833120478,0.018600744029763184,0.014160566422651118,0.012840513620544789,-0.0061202448097951966,0.001560062402494333,-0.0021600864034562223,1.5697255755363664,1.3681094465646222,-1.5697255755332638,0.20161612896874703,0.4608368662108305,-0.9216737324239266,-0.5184414744889752,-0.5904472348342596,0.4032322579354644,0.12463499999999994,-0.167775,-0.9129510000000001,-0.03519800000000006,0.081208,-0.90846,0.159833,0.248983,0.004491000000000023,0.9555469001858737,0.9439648078041698,double,-0.90846
35,0.291667,quasi,-0.11771058315334877,0.13534917206623673,-0.004199664026878715,0.16733120529687914,-0.07271800874977714,-0.1564093650744613,0.018598512119032407,0.012119030477563911,0.024478041756659363,-0.005519558435324028,0.002039836813060324,-0.002039836813054912,-1.81263246810526,0.5452291645016929,1.3968046074460672,-0.00026780786306423765,-0.24496471623316596,1.3963916650005475,0.07207659880863551,0.0575683238020147,0.014428796544433643,0.12577099999999997,-0.168802,-0.9127120000000001,-0.03426300000000004,0.08009700000000003,-0.9084420000000001,0.160034,0.24889900000000004,0.004269999999999996,0.9449255533896093,0.9469200789757919,double,-0.9084420000000001
36,0.3,quasi,-0.09648385935437764,0.14520580823233498,-0.04176167046682057,-0.22858509129166268,-0.1039569438238378,-0.4691157837512239,0.013800552022078066,0.01116044641785791,0.027121084843393865,-0.0070802832113322205,0.003240129605184125,-0.002040081603264094,2.5473087482264707,1.1828436536779399,-4.50762107763614,-0.575778242764233,-0.11503468855226247,0.317177857522442,-0.1872944648995796,0.1440408966907241,-2.9376000141831565e-05,0.12668999999999997,-0.16991900000000004,-0.912138,-0.03351800000000005,0.07891399999999998,-0.908111,0.16020800000000002,0.24883300000000003,0.004027000000000003,0.9459793238286762,0.9463145463116598,double,-0.908111
37,0.308333,quasi,-0.11868474738989722,0.12552502100083848,-0.0015600624025009842,0.10556203924584218,0.12387637583431314,-0.22892287710271006,0.01572062882515201,0.0085203408136377,0.02724108964358581,-0.008040321612855868,0.0042001680067144595,-0.002880115204608138,-2.6642131327876495,-2.361788939337143,4.824385943156056,0.23041843310619656,-0.31682534552024477,0.014401152069115972,-0.11520921655149928,0.11520921655230175,-0.10080806448386422,0.12780999999999998,-0.170894,-0.911898,-0.03259599999999996,0.07790299999999994,-0.908122,0.16040599999999994,0.24879699999999993,0.0037760000000000016,0.9456909219986449,0.9463774614513558,double,-0.908122
38,0.316667,quasi,-0.13294936405087643,0.11531077513798837,0.012359011279093451,0.399114344644428,-0.37422873396665685,-0.19170399350069586,0.023038156947454053,0.01715862730981582,0.046676265898728,0.0032397408207342692,0.011639068874491756,-0.0011999040076793436,-1.7116170699519186,-1.2256114546256498,1.670155229372992,0.8780331320256882,1.0365114586246904,2.3320345878500484,1.3534992120938565,0.8925966963975688,0.20160921489426495,0.12911000000000006,-0.17171199999999998,-0.911612,-0.03146099999999996,0.07703899999999997,-0.9082349999999999,0.16057100000000002,0.24875099999999994,0.0033770000000000744,0.9086543657167179,0.9459950182935082,double,-0.9082349999999999
39,0.325,quasi,-0.09264370574822893,0.11688467538701865,-0.041281651266038465,-0.264613889567765,-0.03118167035119119,-0.4279587226298789,0.031681267250681606,0.018360734429372146,0.04848193927757109,-0.009840393615747768,0.0018000720028785772,-0.003120124804992393,4.8368724712165285,0.1888755849070281,-6.437136990895439,1.037214724976301,0.14425862469174594,0.21668947304009145,-1.5696789195346195,-1.1807268536677231,-0.23043571310608918,0.13014599999999998,-0.17253300000000005,-0.910864,-0.030770999999999993,0.07607999999999993,-0.9079170000000001,0.16091699999999998,0.24861299999999997,0.002946999999999922,0.898739641140206,0.9530650522055106,double,-0.9079170000000001
40,0.333333,quasi,-0.11220448817952976,0.13476539061562318,-0.022800912036484332,0.1210121228051618,-0.11042775783307951,-0.29551863432670933,0.030361214448585066,0.01596063842554303,0.05832233289331592,-0.009720388815552376,0.00240009600384256,-0.002400096003840062,-2.347387787267596,2.1457716582988806,2.217777418643247,-0.1584126727584956,-0.28802304138114976,1.1808944696681687,0.01440115206952992,0.07200576034609196,0.08640691241477651,0.13133400000000006,-0.17352299999999998,-0.910188,-0.02991699999999997,0.07497699999999996,-0.9077470000000001,0.16125100000000003,0.24849999999999994,0.0024409999999999155,0.8872313105430382,0.9584300595393398,double,-0.9077470000000001
41,0.341667,quasi,-0.14494840412766807,0.10715142788575963,0.006599472042226563,0.18810124999251956,-0.13437836281366008,-0.2032052127240196,0.02447804175665728,-0.005039596832265116,0.08147348212143009,-0.002039836813060324,0.0035997120230350926,-0.001679865610751153,-3.928955597328808,-3.313410454747243,3.5277638683358368,-0.7059242490914062,-2.5198266448053905,2.777915674119768,0.9215925128980135,0.14394240691055094,0.08642073351198803,0.13274600000000003,-0.174458,-0.9095639999999999,-0.02872600000000003,0.07411400000000001,-0.907816,0.16147200000000006,0.24857200000000002,0.0017479999999999718,0.857966158634803,0.9750774777754067,double,-0.907816
42,0.35,quasi,-0.12192487699508213,0.10944437777511415,-0.006000240009599738,-0.03724908719757186,-0.05654929327861756,-0.3288571105442464,0.02940117604703472,0.009480379215174781,0.10992439697587933,0.0006000240009639708,-0.0006000240009573092,-0.0037201488059522207,2.7629337732612504,0.27516499332227634,-1.5120259272562502,0.5907997468351677,1.7424668243657664,3.414246352388013,0.31679596952169703,-0.5039884824183862,-0.24484377717521572,0.134007,-0.17529099999999997,-0.9085979999999999,-0.02770499999999998,0.07319700000000001,-0.907797,0.16171199999999997,0.248488,0.0008009999999999406,0.8096955670399913,0.9856305003817811,double,-0.907797
43,0.358333,quasi,-0.1237249489979599,0.11640465618625014,-0.023880955238203334,0.07098219211976182,-0.28814299854587466,-0.4524940532321636,0.031921276851085846,0.006600264010563665,0.13200528021120794,0.0033601344053795614,-0.012600504020163363,-0.012720508820352576,-0.21601728103657264,0.8352668200091152,-2.1457716582987545,0.3024241934538719,-0.34562764965931886,2.6498119807186513,0.3312264975897731,-1.4401152069129968,-1.0800864051842454,0.1353040000000001,-0.17620599999999997,-0.907299,-0.026645999999999948,0.07212199999999996,-0.907704,0.16195000000000004,0.24832799999999994,0.0004049999999999887,0.7693328154227908,0.9696376261068884,double,-0.907299
44,0.366667,quasi,-0.14998800095991988,0.12119030477561248,0.005039596832251794,0.02646143312554168,-0.20382444335942804,-0.4383967295784893,0.04535637149027947,0.02087832973362219,0.1546676265898725,0.0017998560115175463,-0.014998800095990654,-0.012359011279097947,-3.1513141303047703,0.5742318921721065,3.4701886333639433,1.6120823901120243,1.713230828300757,2.719264024317797,-0.1872184297890585,-0.28777250729869086,0.04337623485176723,0.13693200000000005,-0.17704199999999992,-0.906052,-0.025380999999999987,0.07098700000000002,-0.907849,0.16231300000000004,0.24802899999999994,0.0017970000000000486,0.7111508766802355,0.967470157044366,double,-0.906052
45,0.375,quasi,-0.11328453138124892,0.10188407536301342,-0.007920316812673786,-0.19002271780972432,0.0070932387797857,-0.4003786790155901,0.0625225009000354,-0.008160326413064703,0.18012720508820426,0.0061202448097951966,-0.012360494419772529,0.0006000240009602237,4.404592533141852,-2.3168402031200177,-1.5552518474649721,2.0600179298879127,-3.4847781287275845,3.055271630665047,0.5184673944890988,0.31660934551999664,1.555146439464563,0.138397,-0.17795899999999998,-0.904485,-0.02438600000000002,0.07003500000000007,-0.907778,0.162783,0.24799400000000005,0.0032929999999999904,0.6489965281467072,0.976990385606424,double,-0.904485
46,0.383333,quasi,-0.12972518900756047,0.10224408976359979,0.0,-0.07246247399682934,-0.4103839522414658,-0.39839169681210446,0.054122164886593105,0.010080403216125428,0.2036481459258376,-0.00540021600864909,-0.008400336013442297,-0.005400216008640347,-1.9729578334707305,0.043203456208613496,0.9504760365623192,-1.0080806448388717,2.1889751145074015,2.82262580554823,-1.3825105986372634,0.4752380182803602,-0.7200576034562085,0.13992899999999997,-0.17872700000000008,-0.9027879999999999,-0.023350000000000093,0.06911299999999998,-0.9078229999999999,0.16327900000000006,0.24784000000000006,0.005035000000000012,0.5980528876049144,0.9810783552057747,double,-0.9027879999999999
47,0.391667,quasi,-0.13234941204704526,0.10943124550036273,0.024958003359729513,-0.18282135724850698,-0.2652885754316315,-0.4125486422147378,0.0795536357091395,0.0481161507079548,0.24442044636429028,-0.002879769618420081,-0.0019198464122889352,-0.002039836813054912,-0.31488157421223695,0.8623896972357734,2.9947208255014983,3.0515323761154747,4.563924585052717,4.892284669840729,0.3024293724776826,0.7775965444148495,0.40321324641053896,0.14169500000000002,-0.179238,-0.900959,-0.02227099999999993,0.06818499999999994,-0.908048,0.16396599999999995,0.24742299999999995,0.007089000000000012,0.49326694875584953,0.9933042680414543,single,-0.900959
48,0.4,quasi,-0.13908556342253886,0.09252370094803347,0.012960518420736413,-0.24655964581238404,-0.2940779414380897,-0.4079042428351202,0.10284411376454974,0.036001440057598186,0.2370094803792143,-0.004560182407294172,0.007440297611905225,0.0019200768030719533,-0.8083704998792243,-2.0289865057397325,-1.4397557829104823,2.794969165415835,-1.453823430980027,-0.8893514922688052,-0.2016576009689288,1.1232622133918302,0.4752086422809131,0.14371100000000003,-0.179709,-0.899092,-0.02114999999999989,0.06747599999999998,-0.90814,0.16486099999999992,0.247185,0.009047999999999945,0.47475790282033536,0.9851077959366492,single,-0.899092
49,0.408333,quasi,-0.12756510260409548,0.07068282731308678,0.019320772830922615,-0.28587118131360334,-0.3203953803055724,-0.4190433715338451,0.07032281291251373,0.032641305652218844,0.28645145805832306,-0.003960158406343554,0.006000240009599738,0.0007200288011523517,1.3825105986371544,-2.6210096765806723,0.7632610596647327,-3.9027122107327608,-0.40323225793583944,5.933274652479166,0.07200576034448805,-0.172813824829652,-0.1440115206911802,0.14535999999999993,-0.18002600000000002,-0.896866,-0.020120000000000027,0.06693700000000002,-0.9082950000000001,0.16547999999999996,0.24696300000000004,0.011429000000000022,0.39111366999848257,0.9879579237381514,single,-0.896866
50,0.416667,quasi,-0.15514758819294305,0.07631389488841857,0.035397168226533944,-0.2010664783940441,-0.40728485122060526,-0.37579303579789064,0.09299256059516203,0.06827453803696198,0.2638588912886966,-0.004919606431480405,0.008159347252221314,0.0028797696184304886,-3.309633499981707,0.6756740551154043,1.9290131264232437,2.720152109749014,4.275645834502413,-2.710891141063887,-0.11512455305217781,0.2590721433431214,0.2591481662200786,0.147428,-0.18009300000000006,-0.8949619999999999,-0.018867999999999996,0.06636899999999996,-0.908566,0.166296,0.24646200000000001,0.01360400000000006,0.38399893855188144,0.9834109684766117,single,-0.8949619999999999
51,0.425,quasi,-0.1293651746069874,0.06492259690386463,0.04308172326893065,-0.25510311686542325,-0.3910753374153727,-0.4311129456801327,0.10476419056762448,0.07896315852634694,0.3196927877115092,-0.00648025921036825,0.011280451218046708,0.0016800672026881264,3.0940133908503196,-1.3670104385640178,0.9221834924273042,1.4126521027796086,1.2826857661568445,6.7003355841608965,-0.18728582489953782,0.3745474577973601,-0.14397004869103147,0.14937900000000004,-0.1799759999999999,-0.8926569999999999,-0.01784399999999997,0.06592200000000004,-0.908911,0.167223,0.24589799999999995,0.0162540000000001,0.33746000000000004,0.9781377440346608,single,-0.8926569999999999
52,0.433333,quasi,-0.14676587063482166,0.05868234729390023,0.033001320052805004,-0.24045356236721302,-0.3992582767735902,-0.4221313545708628,0.14028561142445348,0.10824432977318549,0.35785431417256525,-0.007920316812673734,0.010440417616705073,0.0022800912036479186,-2.088167050022103,-0.7488599075920288,-1.2096967738060247,4.26274101245996,3.5138811048648053,4.579566357981023,-0.17281382482965055,-0.10080806448357511,0.07200576034558857,0.151771,-0.17956300000000003,-0.88995,-0.016687000000000007,0.06551999999999997,-0.909167,0.168458,0.245083,0.01921699999999993,0.30783000000000005,0.9778306671828151,single,-0.88995
53,0.441667,quasi,-0.13702903767699712,0.07835373170146609,0.04667626589872509,0.01758431496593893,-0.363492888069702,-0.26678087870091227,0.13498920086392344,0.11855051595872264,0.40292776577873995,-0.008759299256058334,0.006839452843776047,0.002159827213822985,1.1683264888198461,2.360377298724018,1.640862232531817,-0.6355184257895453,1.2366434107916018,5.408381522219218,-0.10066983961898307,-0.4320812062549852,-0.014430524337045152,0.154038,-0.17922800000000005,-0.886981,-0.01561799999999991,0.06492399999999998,-0.909538,0.16965599999999992,0.24415200000000004,0.022556999999999938,0.27443000000000006,0.9811314273450247,single,-0.886981
54,0.45,quasi,-0.1454458178327116,0.0429617184687349,0.06384255370214505,-0.17147065897504765,-0.27596456679204073,-0.3357976339771337,0.12312492499700925,0.12144485779431281,0.4552982119284759,-0.010680427217089328,0.004080163206525663,0.0009600384015361848,-1.0100540208465674,-4.247211476386781,2.0600369378879018,-1.4237700548318897,0.34733491366736624,6.284704926165336,-0.23054457710680262,-0.33112800159010825,-0.14398041669108305,0.15627600000000008,-0.178574,-0.8837189999999999,-0.014494999999999925,0.06459999999999999,-0.9100619999999999,0.170771,0.243174,0.026343000000000005,0.23657,0.980877519696568,single,-0.8837189999999999
55,0.458333,quasi,-0.12516500660025293,0.06132245289812078,0.02184087363494731,-0.2630501147770064,-0.6677223507299888,-0.39805398499549927,0.1514460578423123,0.1537261490459594,0.5408616344653796,-0.011520460818430963,0.006000240009599738,-0.002040081603264094,2.433794699683034,2.203376266576974,-5.040403224192708,3.398671888311907,3.8739099065938647,10.268021425285479,-0.10080806448357578,0.2304184331062138,-0.3600288017281035,0.15858099999999997,-0.17780400000000007,-0.879394,-0.013548000000000004,0.06413899999999995,-0.910261,0.17212899999999998,0.24194300000000002,0.030866999999999978,0.19133000000000006,0.9780856572467951,single,-0.879394
56,0.466667,quasi,-0.13474922006240642,0.03887688984881097,0.0629949604031674,-0.2361348809643111,-0.5551091371265985,-0.3121925901947842,0.18370530357570766,0.21010319174466718,0.5199184065274769,-0.009839212862974131,0.0017998560115175463,-0.002879769618430905,-1.150013614369268,-2.6932521057487144,4.938095364557242,3.870799824021518,6.764703947529124,-2.512986313643231,0.2017336159655424,-0.5040057593091178,-0.1007545014599004,0.16123500000000002,-0.176377,-0.875586,-0.012506999999999935,0.06382999999999994,-0.91081,0.17374199999999995,0.24020699999999995,0.03522400000000003,0.14776000000000006,0.9826520362641966,single,-0.875586
57,0.475,quasi,-0.12468498739948443,0.04464178567141832,0.036841473658953315,-0.23782061598226267,-0.4562326112979479,-0.27366221759374326,0.1868474738989601,0.248889955598227,0.5480619224769007,-0.008520340813637757,-0.0006000240009573092,-0.002040081603264094,1.2077562297998334,0.6918151713197365,-3.138543951063741,0.3770755218111643,4.6545978463410425,3.377357008211189,0.15827097675943566,-0.28799712138183864,0.1007665924837169,0.16383099999999995,-0.1746749999999999,-0.871326,-0.011539000000000077,0.06345300000000004,-0.911134,0.17537000000000003,0.23812799999999995,0.039807999999999955,0.10192000000000007,0.9853638414524695,single,-0.871326
58,0.483333,quasi,-0.13824552982119728,0.061562462498497963,0.07032281291251326,-0.2779003322305618,-0.428525331345015,-0.34176419200278146,0.19860794431776732,0.2643705748229864,0.5802232089283554,-0.013800552022077974,-0.008520340813631039,0.007560302412096519,-1.6273301838128882,2.0305624417472186,4.017921427284268,1.4113129027729732,1.857748616915801,3.8595087545247377,-0.6336506910404649,-0.950476036562306,1.15209216552989,0.16663799999999995,-0.17298499999999994,-0.867077,-0.010502000000000011,0.06286900000000006,-0.9116569999999999,0.17713999999999996,0.235854,0.04457999999999995,0.054199999999999915,0.9701759969777856,single,-0.867077
59,0.491667,quasi,-0.147588192944572,0.05879529637628869,0.08123350131989897,0.007278803421722847,-0.25622961411645395,-0.23709320452374624,0.17386609071274683,0.2674586033117392,0.6168706503479707,-0.007559395248384352,-0.0007199424046083507,-0.002999760019198547,-1.1210298924135733,-0.3320333719953527,1.3091778746563114,-2.968784929808071,0.3705337759482575,4.3973411830591855,0.7488789025310314,0.9359729312482218,-1.2671061232655454,0.16931700000000005,-0.1712459999999999,-0.8626130000000001,-0.009334999999999982,0.06237300000000007,-0.912359,0.17865200000000003,0.23361899999999997,0.04974599999999996,0.0025400000000000422,0.9863922679495942,single,-0.8626130000000001
60,0.5,quasi,-0.14124564982599142,0.04824192967718882,0.06924276971078125,-0.06263551578287432,-0.42466465173327794,-0.20856854690597904,0.1575663026521075,0.3105724228969075,0.6680667226689088,-0.008400336013442297,-0.00648025921036825,-0.004560182407296284,0.7611356196544595,-1.2664546620784707,-1.4389453509081662,-1.9560528093891008,5.173865304832402,6.143774429489759,-0.10091692848409302,-0.6912656673178824,-0.18725817689880483,0.17180700000000004,-0.16906,-0.857623,-0.008228000000000013,0.061917000000000055,-0.912974,0.18003500000000006,0.23097700000000004,0.05535099999999993,0.0,0.9807534513801022,single,-0.857623
61,0.508333,quasi,-0.10584423376934293,0.03132125285012188,0.07572302892116231,-0.13994523788970792,-0.6508299945251401,-0.039202421854148004,0.1237249489979599,0.3646945877835115,0.7244689787591474,-0.007320292811709766,-0.0006000240009639668,-0.002760110404416011,4.248339860392216,-2.030562441745694,0.7776622117341936,-4.061124883493035,6.494919583175778,6.768541472487508,0.12961036862264808,0.7056564513865665,0.2160172810368733,0.17371999999999999,-0.16628200000000004,-0.852217,-0.007407000000000052,0.061650999999999956,-0.913628,0.18112700000000004,0.227933,0.06141099999999999,0.0,0.986922780080585,single,-0.852217
62,0.516667,quasi,-0.09731221502279946,0.02963762898968066,0.06095512359010749,-0.08815196988491367,-0.6981646243359951,-0.059140745697491705,0.09155267578593262,0.38756899448045173,0.7775377969762463,-0.005999520038396301,-0.0005999520038369659,-0.0010799136069112843,1.0237603487573215,-0.20201870175680747,-1.7720068791762544,-3.8603639563267884,2.744709226894693,6.367748766150607,0.15848005439326524,8.638964122978431e-06,0.20160748710160026,0.17529399999999995,-0.16329899999999997,-0.8462449999999999,-0.006646000000000041,0.06139899999999998,-0.914145,0.18194,0.22469799999999995,0.06790000000000007,0.0,0.989791017504121,single,-0.8462449999999999
63,0.525,quasi,-0.10884435377414944,0.033601344053755644,0.07740309612384544,-0.03288540417158021,-0.3905949058718386,-0.059276164526556936,0.15828633145326587,0.42889715588622956,0.8033121324852968,-0.006960278411136715,0.001080043201725814,0.00024000960038383804,-1.3839120066422574,0.47566483428236744,1.9738356574748446,8.008359014440535,4.959577751803391,3.0930439828453618,-0.11529561655351134,0.2016074889670914,0.15839712076024443,0.17752,-0.16000499999999995,-0.8401959999999999,-0.005797000000000052,0.061128000000000016,-0.9147879999999999,0.18331700000000006,0.22113299999999997,0.07459199999999999,0.0,0.988253892667686,single,-0.8401959999999999
64,0.533333,quasi,-0.09216368654746165,0.0636025441017683,0.0936037441497672,-0.04906780305586696,-0.7657099215931503,-0.022960065075795275,0.14724588983559214,0.42793711748469826,0.8093123724949072,-0.005400216008635803,0.00108004320173249,0.0,2.0017601376080574,3.6002880172822427,1.9441555293318027,-1.324905990360474,-0.1152092165524197,0.7200576034573946,0.18721497689918712,8.011620421573027e-13,-0.028802304138226358,0.17951499999999998,-0.15696900000000003,-0.834232,-0.005074000000000023,0.06060700000000002,-0.9155679999999999,0.184589,0.21757600000000005,0.08133599999999996,0.0,0.9908213977314482,single,-0.834232
65,0.541667,quasi,-0.0869930405567652,0.04499640028797832,0.05975521958243276,-0.0668881910417599,-0.8004073345953662,-0.07320667122625552,0.14326853851692095,0.42920566354691925,0.834533237341005,-0.004199664026878687,0.0010799136069091885,0.0007199424046075133,0.6204278846527979,-2.232558652962543,-4.061498028237843,-0.47724397872224145,0.15221335039848546,3.026261680597273,0.1440547134337781,-1.5550134785394568e-05,0.08638617765868824,0.1814340000000001,-0.153767,-0.8277749999999999,-0.0043839999999999435,0.06024099999999999,-0.91606,0.18581800000000004,0.21400799999999998,0.08828500000000006,0.0,0.9926739224525978,single,-0.8277749999999999
66,0.55,quasi,-0.10440417616703741,0.036121444857793644,0.09912396495859714,0.027712725793019373,-0.7133729036763321,0.18821099758093063,0.14088563542541743,0.4182167286691403,0.8484339373574916,-0.004440177607098714,0.0006000240009573052,0.001200048001920023,-2.0894198500266583,-1.0650372531122811,4.724438422676613,-0.28595980937279597,-1.3187249343308436,1.6681507280075027,-0.02886278413776862,-0.05758905627647682,0.05761497627655198,0.18347800000000003,-0.15058300000000002,-0.821531,-0.003550999999999971,0.05994499999999997,-0.916876,0.187029,0.210528,0.09534500000000001,0.0,0.9922692315332358,single,-0.821531
67,0.558333,quasi,-0.07932317292692052,0.045001800072004994,0.08748349933997196,0.19807403002205842,-0.9315373973394226,0.13781795666380448,0.13356534261369613,0.3966158646345893,0.8682347293891841,-0.0025201008040380353,-0.00012000480018879799,0.0021600864034562366,3.009840782445352,1.0656852531154963,-1.3969117507050628,-0.8784702762176136,-2.5922073724410377,2.376190091406777,0.23041843310460774,-0.08640691241402973,0.11520921655300881,0.18525199999999997,-0.14765300000000003,-0.8150249999999999,-0.002910999999999997,0.05956899999999998,-0.9175869999999999,0.18816299999999997,0.20722200000000002,0.10256200000000004,0.0,0.9944644375762565,single,-0.8150249999999999
68,0.566667,quasi,-0.09215262778977502,0.040196784257256014,0.06287497000240892,-0.09125284848222369,-0.4970871865434177,-0.039497190609549475,0.12071034317255276,0.40712742980560995,0.9352051835853055,-0.002519798416132541,0.0014398848092166917,0.0004799616030718143,-1.539411430628078,-0.5765557733080084,-2.95278729752374,-1.5424765348144067,1.261286917569062,8.035811638603413,3.628364596764857e-05,0.18717177938630644,-0.20159884813827805,0.18702600000000003,-0.14459500000000003,-0.807755,-0.0021640000000000548,0.05924600000000002,-0.918107,0.18919000000000008,0.20384100000000005,0.110352,0.0,0.9950973319445824,single,-0.807755
69,0.575,quasi,-0.07872314892595655,0.045841833673346565,0.05364214568582495,0.10599351835581261,-0.6606502509854355,0.03871625245283515,0.12312492499699756,0.4009360374415059,0.9420376815072684,-0.001800072002878601,0.0020400816032628585,0.0013200528021121676,1.6116019277353406,0.6774330272519623,-1.10798323731958,0.2897614093897546,-0.7429968035646345,0.8199325479374782,0.0863706244154502,0.07202649634539449,0.10081497648390267,0.188708,-0.14163599999999998,-0.800352,-0.001523000000000052,0.05888100000000002,-0.918543,0.19023100000000004,0.200517,0.11819100000000005,0.0,0.9949599571309464,single,-0.800352
70,0.583333,quasi,-0.08076323052922499,0.03852154086163619,0.060962438497534,-0.4564640103736386,-0.3746709099641199,0.06585295798125639,0.1369254770190739,0.4258970358814364,0.9631585263410503,0.0014400576023055264,0.002640105604220137,0.0036001440057600686,-0.24481958517561814,-0.8784702762162896,0.8784702762161314,1.6561324879486712,2.9954396303768616,2.534602764164378,0.3888311058663283,0.07200576034528691,0.27362188931331954,0.19052199999999997,-0.13840799999999998,-0.7928339999999999,-0.0008380000000000054,0.05858199999999997,-0.919021,0.19135999999999997,0.19698999999999994,0.12618700000000005,0.0,0.9921817591560926,single,-0.7928339999999999
71,0.591667,quasi,-0.07739380849532058,0.051235901127904,0.0650347972162273,0.11238316090528118,-0.7425225442790289,-0.00039917729711497695,0.15310775137989502,0.4370050395968197,0.9793616510679074,-0.005879529637624834,-0.0013198944084453037,-0.0009599232061432123,0.404298300204509,1.5256011838574166,0.48864395472681466,1.9417175858916482,1.3328538175405809,1.944219429668469,-0.8782802063751265,-0.4751619885607644,-0.5471642922850067,0.19244300000000003,-0.135193,-0.785214,-0.00024199999999996447,0.05814400000000003,-0.919571,0.192685,0.19333700000000004,0.13435700000000006,0.0,0.9898302678705049,single,-0.785214
72,0.6,quasi,-0.06588263530541542,0.056042241689667524,0.08124324972999458,-0.15100595784769857,-0.623471223897707,0.006705723374625511,0.14484579383174956,0.4460578423137064,0.9948397935917518,-0.0006000240009639748,0.00480019200767849,0.004080163206528215,1.3813960386301771,0.5767839387691789,1.9450921053363044,-0.9914745647600547,1.0863797812176612,1.85745140091738,0.6335660190400705,0.7344397475247629,0.6048345629030929,0.194199,-0.13194299999999992,-0.777601,0.00030200000000002447,0.05771700000000002,-0.9202140000000001,0.19389699999999999,0.18965999999999994,0.1426130000000001,0.0,0.9894525406028777,single,-0.777601
73,0.608333,quasi,-0.07212288491539183,0.03948157926317321,0.08316332653305421,-0.8836807281940069,-0.27907563440132915,-0.12876143911563132,0.1594863794551805,0.4626185047401807,1.012960518420733,-0.0033601344053795614,0.0019200768030740352,-0.00132005280211215,-0.7488599075934693,-1.9873589855387312,0.23041843310447827,1.7569405524338015,1.9873589855363296,2.174573962436245,-0.3312264975897726,-0.3456276496585195,-0.6480518431105656,0.196129,-0.128417,-0.769853,0.0008749999999999591,0.05740400000000001,-0.920918,0.19525400000000004,0.18582100000000001,0.151065,0.0,0.993185037386529,single,-0.769853
74,0.616667,quasi,-0.049196064314857665,0.04079673626110018,0.11639068874490424,-0.5495802492447202,-1.0357470258567067,0.16320687023769725,0.1497480201583914,0.46532277417807416,1.0225581953443785,-0.0027597792176620325,0.0010799136069092029,0.0016798656107511643,2.75099839219274,0.15780621525401758,3.986964508261366,-1.1685096348439106,0.3244863736373285,1.1516291005094184,0.0720368595773377,-0.10081151861829099,0.35996141263058934,0.19778700000000005,-0.12487899999999996,-0.762301,0.0012619999999999854,0.057072999999999985,-0.921874,0.19652500000000006,0.18195199999999995,0.15957299999999996,0.0,0.9943224263792603,single,-0.762301
75,0.625,quasi,-0.046801872074882976,0.030961238449535508,0.02796111844474232,-0.1883994021729366,-0.5949084091058043,-0.04352674936895927,0.15588623544941002,0.46765870634824336,1.025441017640701,-0.002400096003829221,0.0014400576023055264,0.0006000240009598033,0.2873145613794167,-1.1803069496657428,-10.611972914935984,0.7366152995342137,0.2803230733432362,0.34595251365923513,0.043163712208425555,0.04321900820788696,-0.12958617662202765,0.199476,-0.12124000000000001,-0.753989,0.0016320000000000778,0.056827000000000016,-0.9221020000000001,0.1978439999999999,0.17806700000000003,0.16811300000000007,0.0,0.9952290649858629,single,-0.753989
76,0.633333,quasi,-0.06492259690387753,0.04284171366855277,0.030121204848193948,0.007283471802535219,-0.3330844632676955,-0.07004194193802,0.1594863794551805,0.46777871114845215,1.0406816272650878,-0.0031201248050019685,0.00132005280211673,0.0,-2.1745739624378344,1.4257140548442595,0.25922073724368405,0.43203456207493723,0.014401152071138186,1.8289463127789305,-0.08640691241722605,-0.014401152068738265,-0.07200576034558992,0.20134600000000002,-0.117699,-0.745568,0.00214700000000001,0.056481,-0.9223530000000001,0.19919900000000001,0.17418,0.17678500000000008,0.0,0.994353536456043,single,-0.745568
77,0.641667,quasi,-0.04979601631868797,0.04571634269258062,0.04403647708182113,-0.5328120120204485,-0.4633082342205192,0.01278748704250009,0.17074634029278513,0.49028077753779054,1.064554835613156,-0.000959923206144474,0.0033597312214989983,-0.0002399808015357022,1.815044466665424,0.34492788865225127,1.669699092107903,1.3510872135354814,2.7000319641634882,2.864555837301212,0.2592034555864539,0.24474183097939523,-0.028795392552880196,0.20318400000000003,-0.11399400000000004,-0.7370629999999999,0.002553999999999945,0.05612800000000001,-0.9227219999999999,0.20063000000000009,0.17012200000000005,0.18565900000000002,0.0,0.9941626591795398,single,-0.7370629999999999
78,0.65,quasi,-0.06696267850714702,0.052322092883714165,0.057362294491790165,-0.45403295754606837,-0.19663386111544154,-0.03278957565457625,0.17676707068282016,0.5087003480139309,1.0894035761430414,-0.00204008160325617,0.003120124804995307,0.001200048001920023,-2.0600818658897126,0.7927217318052946,1.5991620556785047,0.7225165474660997,2.2104368746118235,2.9819681423119273,-0.1296241926211078,-0.028753920137248312,0.17281036882943948,0.20521500000000004,-0.11019099999999993,-0.7284630000000001,0.00309500000000007,0.055718000000000045,-0.9231900000000001,0.20211999999999997,0.16590899999999997,0.19472699999999998,0.0,0.9934728713660252,single,-0.7284630000000001
79,0.658333,quasi,-0.07476299051961297,0.050762030481227176,0.1122044881795305,-0.19522174475292006,-0.27122989135225456,0.07495667111487632,0.18996759870395002,0.5177007080283174,1.1099243969758867,-0.0027601104044156313,0.002520100804031374,-0.00036001440057597004,-0.936074884491302,-0.18721497689751632,6.5813264955887245,1.5841267276047024,1.0800864051825878,2.4625970038216165,-0.08640691241563278,-0.07200576034608648,-0.1872149768985968,0.20742099999999997,-0.10630000000000006,-0.720149,0.003695000000000004,0.055315999999999976,-0.9241280000000001,0.20372599999999996,0.16161600000000004,0.20397900000000002,0.0,0.9937419545393184,single,-0.720149
80,0.666667,quasi,-0.06923446124310599,0.036717062634979016,0.07295416366689912,0.20179028184508016,-0.31717736282048414,0.11207328374121311,0.1880249580033565,0.5183585313174895,1.1400287976961767,-0.003359731221505614,0.0035997120230350688,-0.002999760019198527,0.6633704435453482,-1.685261320644115,-4.709662168542247,-0.233098236212324,0.07893248010225377,3.612239107306184,-0.07194874215142527,0.12954298284181504,-0.3167441347039281,0.209565,-0.10228599999999999,-0.711256,0.0042440000000000255,0.05504000000000003,-0.9247609999999999,0.20532099999999998,0.15732600000000002,0.21350499999999994,0.0,0.9903903577499927,single,-0.711256
81,0.675,quasi,-0.019560782431300078,0.057362294491790165,0.0787231489259555,0.05756197849698107,-1.0679829357457622,0.2572435111840657,0.19368774750990012,0.5215408616344719,1.1477259090363587,-0.0016800672026831191,0.004200168006721121,-0.005640225609024149,5.9610799006127095,2.4775269238942834,0.6923059233236954,0.6795619232621614,0.38189491383443264,0.9236903084341769,0.2015677449684973,0.0720576003463398,-0.31686854552089416,0.21134200000000003,-0.098418,-0.702348,0.004393000000000091,0.05459699999999995,-0.925464,0.20694899999999994,0.15301499999999996,0.22311599999999998,0.0,0.9879496217197565,single,-0.702348
82,0.683333,quasi,-0.0441617664706501,0.05544221768870355,0.07548301932077241,0.07062322003977727,-0.6042898532588795,0.16539367165518182,0.2040081603264191,0.5067802712108502,1.1504860194407895,-0.006720268810759212,-0.0002400096003842576,0.002640105604223919,-2.9522361741689966,-0.23041843310772056,-0.3888311058662093,1.2384990779454081,-1.771341704502795,0.3312264975916032,-0.6048483869046128,-0.5328426265577125,0.9936794927694881,0.21341,-0.09465699999999999,-0.69339,0.004704999999999959,0.05413299999999999,-0.926071,0.20870500000000003,0.14878999999999998,0.23268100000000003,0.0,0.9879595848287488,single,-0.69339
83,0.691667,quasi,-0.09731221502279817,0.04883609311255617,-0.01919846412286258,-0.2685536270906625,0.017470842923211577,-0.011110918716867771,0.21754259659226538,0.5,1.186705063594898,-0.002399808015361153,0.004919606431487034,-0.0035997120230379827,-6.377543622767899,-0.7926715354148461,-11.360869143704615,1.6240024317070036,-0.813567459905229,4.345937623483093,0.5184138223419757,0.6191043954729123,-0.7487182178139974,0.21603399999999995,-0.090897,-0.6833400000000001,0.005495999999999945,0.053766999999999954,-0.925941,0.210538,0.14466399999999996,0.24260099999999996,0.0,0.9890811665508977,single,-0.6833400000000001
84,0.7,quasi,-0.011040441617662525,0.10668426737068593,0.018960758430336365,0.1964806117518274,-0.7750382771358655,0.33598757943798885,0.2086883475339088,0.49489979599183287,1.1920076803072261,-0.0032401296051841467,0.0038401536061414597,-0.0014400576023042965,10.35302692969356,6.942058593319367,4.5792898779790345,-1.062552389098363,-0.6120489629385788,0.6363394590577562,-0.1008426244837395,-0.12953952062229493,0.2591688972439345,0.21786499999999998,-0.08766200000000002,-0.673565,0.005560999999999927,0.05291000000000001,-0.926111,0.21230400000000005,0.14057200000000003,0.25254600000000005,0.0,0.9912887388534045,single,-0.673565
85,0.708333,quasi,-0.020400816032641638,0.12960518420737746,0.2128885155406138,-0.3331241951098343,-2.0415055702914855,0.6055081017717925,0.2214088563542515,0.49501980079203506,1.1910476419056732,-0.0033601344053662383,0.002880115204611053,-0.001680067202687699,-1.1232898613919446,2.750620045204781,23.27226174370294,1.5265221193258909,0.014401152070345456,-0.11520921655500953,-0.014401152067933642,-0.11520921655231044,-0.02880230413817371,0.21987999999999996,-0.08461700000000005,-0.665414,0.005703000000000014,0.051853999999999956,-0.9278989999999999,0.21417699999999995,0.136471,0.26248499999999997,0.0,0.9921104512487326,single,-0.665414
86,0.716667,quasi,-0.01871850251980367,0.0874730021598241,0.12718982481402122,-0.07741437920875005,-1.037885336605935,0.31580478196574,0.2297816174706006,0.48896088312935204,1.2047036237100932,-0.004919606431493694,0.0021598272138250376,0.0,0.2018614726227448,-5.055457409113635,-10.283020245571386,1.004650961884934,-0.7270119585652712,1.6385867295920151,-0.18712167340142116,-0.08642764468274655,0.20159193696756494,0.221951,-0.08127099999999998,-0.656434,0.00581799999999999,0.051142999999999994,-0.928959,0.21613300000000002,0.13241399999999998,0.272525,0.0,0.9910452711074023,single,-0.656434
87,0.725,quasi,-0.008280331213246894,0.05208208328332394,0.05616224648984966,0.35714789613675657,-0.45262869205277667,0.3366295193453238,0.22332893315732852,0.48169926797071866,1.2048481939277673,-0.0032401296051841467,0.001320052802110086,-0.0002400096003842576,1.2526306620133052,-4.247080148385994,-8.523650344914461,-0.7743530917163264,-0.8714286761830613,0.017349120085696966,0.20154528096838625,-0.10077696048421447,-0.028802304138276707,0.223881,-0.07769099999999995,-0.6468619999999999,0.005859999999999976,0.05072000000000004,-0.929429,0.21802100000000002,0.128411,0.282567,0.0,0.9941551105259414,single,-0.6468619999999999
88,0.733333,quasi,0.050522020880835586,0.1142445697827985,-0.13572542901715928,-0.5140925898723866,0.6336370427210668,0.25570213229073113,0.25945037801511917,0.4938197527901071,1.213728549141962,-0.00588023520940424,0.0020400816032628316,0.004320172806912415,7.056564513870423,7.459796771807787,-23.027442158527318,4.334746772805771,1.454516358980965,1.065685253113487,-0.3168253455202307,0.0864069124148257,0.5472437786267434,0.225622,-0.07452800000000004,-0.6356169999999999,0.005390000000000006,0.04978499999999997,-0.9282619999999999,0.22023199999999998,0.124313,0.29264500000000004,0.0,0.9873725396074584,single,-0.6356169999999999
89,0.741667,quasi,0.015358771298298263,0.13474922006239398,0.08015358771298364,0.5187390697469958,-1.2142246719284804,0.431670464198629,0.2558195344372492,0.4865610751139973,1.1939044876409906,-0.000479961603072237,0.0056395488360954545,-0.007319414446844537,-4.219252409711726,2.4603612046550998,25.90340973483851,-0.435666376034316,-0.8709716434017053,-2.3786970843498443,0.6479809942803015,0.4319015158186517,-1.3966387393516941,0.227626,-0.07159599999999999,-0.626335,0.005257999999999985,0.048709,-0.9289909999999999,0.222368,0.120305,0.3026559999999999,0.0,0.9845791715473478,single,-0.626335
90,0.75,quasi,0.006360254410172749,0.1304452178087057,0.10392415696628222,-0.1324223271960051,-1.4794814094601751,0.6111560745485535,0.2636505460218403,0.4852994119764694,1.1965678627145044,-0.017520700828030585,-0.03816152646106314,0.012360494419777027,-1.0798652211839046,-0.5165009304798123,2.8525824136923656,0.9397589805101481,-0.15140563272865676,0.3196177935334062,-2.044970505815226,-5.256339289230579,2.361683531335831,0.22977000000000003,-0.068639,-0.61723,0.005059000000000036,0.04730400000000001,-0.929754,0.224711,0.11594300000000002,0.312524,0.0,0.92704531692655,single,-0.61723
91,0.758333,quasi,-0.012000480019199396,0.10092403696147571,0.30805232209288075,-0.2348643591906578,-1.8845461844670504,0.824050830392903,0.2641305652226088,0.47281891275651483,1.1592463698547897,-0.032881315252609546,-0.0034801392055683576,-0.024000960038401707,-2.203376266575311,-3.5426834090039425,24.496359669578506,0.05760460827655216,-1.4977198151871518,-4.478758293497492,-1.8433474648480614,4.161932947977276,-4.3635490769445076,0.23207100000000003,-0.06553999999999993,-0.6101369999999999,0.004885000000000028,0.04643400000000003,-0.9325209999999999,0.227186,0.11197399999999996,0.322384,0.0,0.9319041047003773,single,-0.6101369999999999
92,0.766667,quasi,-0.04583633309335201,0.07907367410608111,0.2710583153347761,-1.1732170131659545,-0.7052480850448246,0.402689770011327,0.28221742260618227,0.47252219822414443,1.1723062155027666,-0.0058795296376382335,0.00011999040077138965,0.004919606431485433,-4.0599775706926815,-2.6218337959436915,-4.438925696916831,2.170249266087541,-0.035602895652796125,1.5670561132681766,3.2399550773903845,0.4319809942812296,3.470190361157584,0.23480499999999993,-0.06226100000000001,-0.602626,0.005217999999999945,0.04577599999999998,-0.934739,0.22958699999999999,0.108037,0.332113,0.0,0.9872213509346366,single,-0.602626
93,0.775,quasi,0.0364814592583667,0.18156726269050524,0.34705388215528543,0.561220507266267,-4.623656906592532,1.031253733274738,0.28129125165006635,0.47101884075362294,1.165966638665542,-0.0013200528021100684,-0.00720028801152097,-0.0025201008040317565,9.87853022341514,12.299722619035606,9.119832811773554,-0.11114496053233035,-0.18041011286709316,-0.760779651653006,0.5471591066276427,-0.8784685482170081,-0.8928005802852704,0.23684499999999997,-0.05984900000000004,-0.5958019999999999,0.004902999999999991,0.04420299999999999,-0.937652,0.23194199999999998,0.10405200000000003,0.3418500000000001,0.0,0.9870967709778077,single,-0.5958019999999999
94,0.783333,quasi,0.01836073442937239,-0.059642385695424724,-0.052082083283337265,1.181446336782438,1.0001671045893183,0.19535913722938858,0.2942517700708067,0.4729389175567166,1.1410056402256215,0.0016800672026964648,-0.005280211208447005,-0.007080283211328521,-2.1745739624378344,-28.946315658938218,-47.89823178190643,1.5553244234657964,0.23041843310856325,-2.995439630375716,0.36002880172885643,0.2304184331062021,-0.5472437786267619,0.23914400000000002,-0.05541099999999999,-0.5858599999999999,0.0047640000000001015,0.044655999999999973,-0.9372769999999999,0.23437999999999992,0.10006699999999996,0.351417,0.0,0.9850154091588127,single,-0.5858599999999999
95,0.791667,quasi,-0.013078953683694971,0.005879529637624834,0.2640988720902318,1.0213990473077792,-2.7880637902876764,0.4831864253385487,0.3194144468442564,0.5196784257259348,1.1113510919126377,-0.00011999040077138805,-0.003359731221505614,-0.003359731221502284,-3.772460776705918,7.862000879895495,37.93867955046396,3.019279670440304,5.608292316920791,-3.55826113666709,-0.21598963324548104,0.2304391632999012,0.4464305243371981,0.241915,-0.05112899999999998,-0.578799,0.0048719999999999875,0.04457899999999998,-0.939506,0.237043,0.09570799999999996,0.360707,0.0,0.9920785127908374,single,-0.578799
96,0.8,quasi,-0.00264010560423346,0.1377655106204288,0.45745829833193585,0.0007614583758248294,-3.425669492065315,0.8163618999209517,0.33553342133685454,0.4881795271810805,1.1190447617904635,-0.0016800672026964422,-0.0015600624024943227,-0.0001200048001921272,1.2527118780104964,15.826950795968248,23.204059311376845,1.9343543132842997,-3.780019026143549,0.9232773164317526,-0.1872167048992017,0.21596889703723557,0.3887827218660918,0.2447330000000001,-0.04820900000000006,-0.573286,0.0048799999999999955,0.04341799999999996,-0.943319,0.2398530000000001,0.09162700000000001,0.37003300000000006,0.0,0.996173621650916,single,-0.573286
97,0.808333,quasi,0.05160206408256875,-0.26629065162607735,-0.7389895595823897,-0.42872786241828237,7.533179646323138,-1.541271667903809,0.33385335413416256,0.480139205568231,1.0811232449298125,-0.003120124804988687,-0.0004800192007685152,0.0009600384015361976,6.509320735245734,-48.48867901674185,-143.57948612916553,-0.20161612896819836,-0.9648771886294952,-4.55076405384032,-0.17281382482806407,0.12961036862184294,0.12961036862214503,0.247085,-0.04198899999999994,-0.558119,0.0044239999999999835,0.045633000000000035,-0.937153,0.24266100000000002,0.08762199999999998,0.379034,0.0,0.9945006891936261,single,-0.558119
98,0.816667,quasi,-0.010919126469876594,-0.03443724502038925,0.07895368370530867,-0.007782258456864819,-0.23788543521125521,-0.24349769573404065,0.36429085673146333,0.4865610751139909,1.0752339812814888,-0.0007199424046016851,0.0020398368130536497,0.0009599232061432123,-7.501942710876514,27.820183178028117,98.14533756751764,3.6522081350252624,0.7705627004751449,-0.7066551053904014,0.28799884813858695,0.3023585329760194,-1.3822341370924752e-05,0.250212,-0.037646999999999986,-0.5498160000000001,0.004508999999999985,0.04593699999999995,-0.937803,0.245703,0.08358399999999994,0.38798699999999997,0.0,0.9960556989594251,single,-0.5498160000000001
99,0.825,quasi,0.06312252490098647,0.02988119524780343,-0.02640105604224169,-0.4037782776512938,0.35487419293675215,0.21743380025608197,0.3570142805712201,0.5043801752070077,1.038641545661832,-0.0004800192007685152,0.0026401056042268333,0.0021600864034562366,8.885353578646795,7.7185215730461145,-12.643074492685866,-0.8732240681919248,2.138377546263892,-4.391267925075853,0.028791936137426144,0.07203513634623654,0.14402534469135186,0.252661,-0.03369299999999997,-0.5409410000000001,0.003979000000000066,0.04571000000000003,-0.9375650000000001,0.24868199999999996,0.079403,0.396624,0.0,0.9942586903098458,single,-0.5409410000000001
100,0.833333,quasi,0.23364934597384182,0.2499699987999578,-0.4298571942877799,-0.37748173450669753,3.6185391132966505,1.007191329973407,0.3826953078123106,0.4713788551542093,1.0105604224168938,0.0014400576023055264,0.007800312012478276,0.0033601344053762307,20.464037090226167,26.411712894774205,-48.41667325639464,3.0818465427925594,-3.960316819008556,-3.3698695841759463,0.2304184331062083,0.6192495389717293,0.14401152069122633,0.253903,-0.03184799999999999,-0.5289379999999999,0.0020440000000000458,0.04369199999999995,-0.933955,0.25185899999999994,0.07553999999999994,0.40501700000000007,0.0,0.9856425458179612,single,-0.5289379999999999
101,0.841667,quasi,0.11531077513798683,0.17074634029276953,-0.0874730021598241,0.2035337312576267,0.10619312796483549,0.8084855416200029,0.36561075113990865,0.4635229181665371,0.9988000959923128,-0.00011999040077138805,0.0034797216222703414,0.002399808015358655,-14.199492540899218,-9.506078534579753,41.082816430039976,-2.049982802064052,-0.942637027558449,-1.4111262808472445,-0.1871907851064198,-0.5184293724751502,-0.1152299484062357,0.255989,-0.02940799999999999,-0.5198849999999999,0.0010820000000000274,0.042298,-0.933206,0.254907,0.07170599999999999,0.41332100000000005,0.0,0.9929521597525371,single,-0.5198849999999999
102,0.85,quasi,0.021960878435142914,0.16452658106324536,-0.1168846753870202,-1.2434216418998072,0.7749834080959487,0.4298672604426578,0.38869554782191545,0.47485899435977735,0.9873994959798498,0.0034801392055617427,0.010080403216132157,-0.0031201248049920177,-11.202435701769444,-0.7464009635814504,-3.5295419689423215,2.7702864132973737,1.3603835585311812,-1.3681267265646366,0.4320328340733426,0.7921134758024573,-0.662418435179494,0.25904499999999997,-0.026822000000000012,-0.510683,0.0009279999999999289,0.04101100000000002,-0.9322579999999999,0.25811700000000004,0.06783300000000003,0.4215749999999999,0.0,0.9814811599918847,single,-0.510683
103,0.858333,quasi,0.06708268330732915,0.1264850594023755,0.01800072002881242,-0.12992955088825614,-0.5415824148288301,0.5428897190870452,0.39829593183726714,0.49345973838953405,0.9428777151086007,-0.002280091203647086,-0.0002400096003842544,0.007800312012480357,5.414833177989446,-4.5651652059126,16.186894925696873,1.152092165528818,2.2321785707136232,-5.342827417646567,-0.6912552993170291,-1.238499077945082,1.3105048382902111,0.26180499999999995,-0.023764000000000007,-0.5029760000000001,0.00034999999999996145,0.03995500000000002,-0.932343,0.261455,0.06371900000000003,0.42936699999999994,0.0,0.9864495502332467,single,-0.5029760000000001
104,0.866667,quasi,0.18226541876650548,0.029277657787379813,0.010079193664503655,0.7677001632363453,-0.13950251259599963,0.31222592925385445,0.48140148788097414,0.48332133429326307,0.9154067674586082,-0.037916966642666756,-0.03263738900887881,0.029517638588913018,13.820822589294094,-11.663955077393357,-0.9505071231472053,9.97186897572684,-1.2165111706588718,-3.296250017997689,-4.276082966045101,-3.887374539056244,2.605870719514373,0.2642979999999999,-0.019979999999999998,-0.495431,-0.0014850000000000696,0.039439,-0.932181,0.265783,0.059419,0.43675,0.0,0.9031870860805968,single,-0.495431
105,0.875,quasi,0.0702028081123178,0.1362054482179278,0.026761070442814387,0.2721907393768449,-0.036165313009828885,0.5969288756037623,0.4242169686787533,0.49777991119643733,0.8636745469818767,-0.004560182407294172,-0.004200168006721121,0.0034801392055683576,-13.448051200550488,12.831848125590728,2.001905289608864,-6.86241680093851,1.7350986323261968,-6.208114781799018,4.002974227213782,3.4126030243798837,-3.124624910997786,0.26724800000000004,-0.016967000000000065,-0.488457,-0.0021079999999999988,0.038269,-0.932375,0.26935600000000004,0.05523600000000006,0.443918,0.0,0.9881504754241394,single,-0.488457
106,0.883333,quasi,-0.06060242409696095,0.1596063842553693,-0.08232329293171266,-0.1303399010967988,0.6440730706959666,0.3859807806799897,0.4365774630985124,0.5036601464058549,0.8213128525140925,0.011880475219003938,0.013680547221889177,-0.0007200288011523468,-15.6972557553436,2.808224653479108,-13.090647230832424,1.4833186631176125,0.7056564513881586,-5.0836066804013065,1.9729578334691036,2.1457716582995583,-0.5040403224193792,0.27139099999999994,-0.014100000000000057,-0.48092700000000005,-0.0015040000000000608,0.037053,-0.931695,0.272895,0.05115300000000006,0.450768,0.0,0.9697776064815529,single,-0.48092700000000005
107,0.891667,quasi,0.14950803935684862,0.08423326133909101,0.02975761939045205,0.2223641129083212,-0.6583515207750645,0.13390881648225586,0.451523878089764,0.5136789056875588,0.7864170866330743,0.0415166786657152,0.0371970242380584,-0.027597792176625734,25.211238715360064,-9.044051225855378,13.448633587972804,1.7934263248442146,1.2021549414091652,-4.187156933167551,3.5560599288110666,2.8217515018201778,-3.2250735991688915,0.27390800000000004,-0.010520999999999947,-0.47462100000000007,-0.0024039999999999617,0.036661,-0.932173,0.276312,0.047181999999999946,0.45755199999999996,0.0,0.8963326453315544,single,-0.47462100000000007
108,0.9,quasi,0.07104284171367269,0.009360374414979259,0.02652106084242347,-0.19822047473765078,-0.25991499304826005,0.08420102638513904,0.45901836073442354,0.5066602664106481,0.7340693627745126,0.004320172806903256,0.0007200288011527632,-0.0004800192007680924,-9.41620036519568,-8.985105835126777,-0.3884025618659028,0.8993738923148309,-0.8422704040454435,-6.281978142153061,-4.463759253427551,-4.377414549010618,3.2542629276200086,0.27714099999999997,-0.0063770000000000215,-0.46872499999999995,-0.0029600000000000737,0.03658899999999998,-0.932398,0.28010100000000004,0.042966000000000004,0.463673,0.0,0.9926566823670349,single,-0.46872499999999995
109,0.908333,quasi,0.22428897155886554,0.003480139205568404,0.02532101284052252,-0.12566367345203477,-0.19844243046992727,-0.11094204283967884,0.4837393495739882,0.5187807512300565,0.6953078123124947,0.004080163206539041,0.001680067202689803,0.0021600864034562366,18.390271192271005,-0.7056564513873644,-0.1440115206889429,2.9666373262408334,1.4545163589833827,-4.651572118326924,-0.02880230413587152,0.11520921655310795,0.3168253455207432,0.27930299999999997,-0.0020830000000000015,-0.46314200000000005,-0.004794999999999994,0.036573999999999995,-0.9325910000000001,0.28409799999999996,0.038657,0.469449,0.0,0.9918118766788677,single,-0.46314200000000005
110,0.916667,quasi,0.07259419246459828,0.03347732181425145,0.04487640988720694,-0.05155178152450718,-0.5653186308869877,0.150028140421984,0.4931605471562174,0.5086393088552869,0.642548596112306,0.0059995200383962215,0.0025197984161258805,0.0007199424046075133,-18.2019173379249,3.599373963124888,2.346459928807808,1.1304532736056072,-1.2168757349135568,-6.330599496062917,0.23030439547122225,0.10075968483754152,-0.17280345558539867,0.28280799999999995,0.0018770000000000175,-0.45816100000000004,-0.005349999999999966,0.036316000000000015,-0.932959,0.2881579999999999,0.034439,0.47479799999999994,0.0,0.9890884946278684,single,-0.45816100000000004
111,0.925,quasi,0.07176287051481879,0.04728189127565148,0.08112324492979804,-0.14424203723969592,-0.7989989122623576,0.37156944923831087,0.5111004440177601,0.5189007560302383,0.602784111364452,0.006120244809781833,0.0020400816032628316,0.002280091203648335,-0.09976262447851718,1.656614599951995,4.349794196878789,2.152873738334653,1.2314229179108884,-4.771929046904335,0.01448755206835607,-0.05756832027637667,0.18722534489869377,0.286469,0.005807000000000007,-0.45381400000000005,-0.005897000000000041,0.035939,-0.933616,0.292366,0.030131999999999992,0.47980199999999995,0.0,0.988596035609322,single,-0.45381400000000005
112,0.933333,quasi,0.10140405616224557,0.02820112804512029,0.07152286091442882,-0.01471067462096263,-0.7207653239758745,0.11612426484632182,0.5049801992079717,0.5052202088083559,0.5684627385095445,0.006960278411136808,-0.0006000240009573131,0.0015600624024960088,3.557084561073689,-2.2897831789909238,-1.1520921655309386,-0.7344587555248424,-1.6417313358793368,-4.118729491768601,0.10080806448517732,-0.31682534552024105,-0.08640691241477651,0.289832,0.009782000000000013,-0.449673,-0.006684000000000023,0.035699000000000036,-0.934199,0.296516,0.025917000000000023,0.484526,0.0,0.9880697281555206,single,-0.449673
113,0.941667,quasi,0.1005519558435324,0.054715622750181,0.051715862730989555,-0.18496348856437506,-0.5911088234670301,0.17989791953646544,0.6117110631149517,0.5800335973122112,0.44144468442524115,0.0052795776337945365,-0.0009599232061444612,0.0070794336453083246,-0.10224385873688131,3.1814848458195955,-2.37664965004069,12.806679134506748,8.976888469385006,-15.240947214339144,-0.2016679598442835,-0.043184449866468126,0.6622715674120798,0.294092,0.014160000000000006,-0.44642500000000007,-0.007477999999999985,0.035235000000000016,-0.934571,0.30157,0.02107500000000001,0.48814599999999997,0.0,0.9851944292305526,single,-0.44642500000000007
114,0.95,quasi,0.11208448337933505,0.057842313692546124,0.015120604824188243,-0.43463538450317707,-0.7075894270060428,0.036347870448831095,0.5435017400696084,0.500300012000482,0.4586583463338566,0.007560302412100783,-0.0013200528021167475,-0.0007200288011523564,1.3839586626428366,0.3752179218006904,-4.391606613080721,-8.185446183288606,-9.568412973926542,2.0657220579161897,0.2736979213136046,-0.04321728020788307,-0.93597293249259,0.29768700000000003,0.017847000000000002,-0.44272900000000004,-0.00834899999999994,0.034741999999999995,-0.934703,0.306036,0.016894999999999993,0.4919739999999999,0.0,0.9871526966256552,single,-0.44272900000000004
115,0.958333,quasi,0.13656546261851418,0.06648265930637184,-0.0036001440057571543,-0.20631805448246876,-0.23076489406567358,0.04580398722008226,0.6097443897755888,0.5076203048121918,0.37429497179888166,0.014280571222846481,-0.006840273610941258,0.003120124804992393,2.937835022102368,1.0368829489770413,-2.2465797227823496,7.949435942155298,0.8784702762162163,-10.124009904593136,0.8064645158701153,-0.6624529951787456,0.46083686621201647,0.30162999999999995,0.021523000000000014,-0.43957999999999997,-0.009368000000000043,0.03413100000000002,-0.934647,0.310998,0.012608000000000008,0.49506700000000003,0.0,0.973102084120282,single,-0.43957999999999997
116,0.966667,quasi,0.0895128389728711,0.05903527717783108,0.05279577633789208,-0.05249894655786739,-0.7075321030307553,0.24689194334567635,0.6426685865130773,0.5460763138948875,0.30345572354211475,0.0197984161267062,-0.0034797216222703414,0.006479481641468453,-5.645863168423653,-0.8936143662755828,6.766969083711159,3.950587561493681,4.614351941768113,-8.50002978842889,0.66208842138945,0.40323397992211313,0.4030905731312736,0.30624000000000007,0.025581999999999994,-0.43749099999999996,-0.009948999999999986,0.03360999999999997,-0.935033,0.31618900000000005,0.00802799999999998,0.49754200000000004,0.0,0.9647994071215948,single,-0.43749099999999996
117,0.975,quasi,0.16296651866075768,0.05796231849273492,-0.056042241689667524,0.1909099412051085,0.0850201768757931,0.04553027201798723,0.6205448217928685,0.5201008040321666,0.30757230289211634,0.01680067202688471,0.008160326413058097,0.010920436817472895,8.814794154312642,-0.12876019261924504,-13.061084606691539,-2.6549579647436734,-3.117185870961375,0.49400928237149044,-0.3597436817258513,1.3968616387049735,0.5329359385580803,0.3100529999999999,0.029433000000000042,-0.434461,-0.011167000000000038,0.03319500000000003,-0.9344750000000001,0.32121999999999995,0.0037619999999999876,0.5000140000000001,0.0,0.9639402714618965,single,-0.434461
118,0.983333,quasi,0.06324252970118109,0.062042481699273136,0.14436577463097913,-0.08215928705407292,-1.3029693824888595,0.4369003879407522,0.6481459258370295,0.5003000120004754,0.2128885155406138,0.004920196807867223,0.02364094563782574,0.01692067682707328,-11.967357369443917,0.4896391703513978,24.049923955435712,3.312264975898335,-2.376190091406599,-11.362508982539559,-1.4257140548442861,1.857748616916786,0.7200576034561814,0.31492699999999996,0.033084999999999976,-0.43389,-0.011653000000000024,0.03287499999999999,-0.935537,0.32658,0.00020999999999998797,0.501647,0.0,0.9508570127201066,single,-0.43389
119,0.991667,quasi,0.11411087113031444,0.05963522918166217,0.02999760019198151,0.1330993162252644,-0.47695293130416855,0.28781611653144284,0.6081113510919248,0.49076073914086943,0.13678905687545434,-0.004439644828408201,0.02543796496280192,0.012119030477561495,6.103712674482078,-0.2888471943377706,-13.72308308603291,-4.803764668239125,-1.1446211734588414,-9.131204543455711,-1.1230911490611324,0.2156250689916233,-0.5761514698238316,0.319044,0.03667799999999999,-0.43299999999999994,-0.012641000000000013,0.03259000000000001,-0.9356859999999999,0.331685,0.0040879999999999805,0.502686,0.0,0.9524584565480062,single,-0.43299999999999994
120,1.0,quasi,0.11268450738029752,0.02784111364454686,0.0019200768030740352,0.4171841942126886,-0.16351134333969097,0.15206003743441732,0.6679467178687072,0.5100204008160343,0.06768270730829312,0.0009600384015370176,0.02412096483859425,0.014160566422656853,-0.17117049682190297,-3.8154464823131136,-3.3694375841722497,7.180531234463232,2.3112518510938163,-8.293093671806183,0.647987907109708,-0.15804633675838975,0.24499411317596903,0.32367099999999993,0.04069600000000001,-0.43245199999999995,-0.013572000000000028,0.032559000000000005,-0.935584,0.33724299999999996,0.008137000000000005,0.503132,0.0,0.9533552355001835,single,-0.43245199999999995
121,1.008333,quasi,0.10932437297491941,0.06672266890675699,0.004800192007685152,0.16916814848687134,-0.39482027432240363,0.1901513499076248,0.7337093483739493,0.49117964718588686,0.0351614064562571,0.004320172806903313,0.017160686427457765,0.011160446417857153,-0.40323225793569395,4.665973270396074,0.3456276496593236,7.8918313338824815,-2.2609808748527054,-3.9027122107327874,0.40323225793427653,-0.8352668200091864,-0.36002880172803653,0.328874,0.04423299999999997,-0.432199,-0.014447000000000099,0.03214600000000001,-0.935531,0.3433210000000001,0.012086999999999959,0.503332,0.0,0.9651308550917027,single,-0.432199
122,1.016667,quasi,0.09419246460282202,0.05087592992560316,0.04619630429565224,-0.052535054889078114,-0.6635419240358259,0.19735720626816533,0.6930645548356082,0.4850011999040095,-0.02639788816894604,0.004799616030722306,0.012958963282936905,0.008039356851451537,-1.8156837499516774,-1.9014565612135481,4.967136103667719,-4.876985065795625,-0.7413543654760426,-7.386524433069675,0.05752858457151303,-0.5041664440269772,-0.37450078790563857,0.3338650000000001,0.04785100000000003,-0.43280399999999997,-0.015191999999999983,0.031830000000000025,-0.9358489999999999,0.34905700000000006,0.016021000000000007,0.503045,0.0,0.9733540548219259,single,-0.43280399999999997
123,1.025,quasi,0.17988719548782453,0.06084243369735268,-0.02640105604224169,0.20223359498213112,-0.19381982065928646,-0.061823318685885816,0.7098283931357323,0.47425897035881337,-0.08328333133325078,-0.017760710428421738,0.048361934477377945,0.028801152046082183,10.28377905736269,1.196028293741703,-8.712031721816224,2.011741065657533,-1.2891191101879516,-6.8265262407662615,-2.70734746899607,4.248526484392339,2.4915150839590585,0.33828100000000005,0.05129599999999995,-0.43327799999999994,-0.01683900000000005,0.031725999999999976,-0.935389,0.3551200000000001,0.019569999999999976,0.5021110000000001,0.0,0.9016267609151251,single,-0.43327799999999994
124,1.033333,quasi,0.12828513140525236,0.07116284651385386,0.024720988839557888,0.07023589909174835,-0.5797771372016386,0.07681568562087185,0.8051122044881612,0.5585023400935996,-0.07584303372135676,0.011760470418821646,-0.011160446417857689,-0.0027601104044159743,-6.192495389724142,1.2384990779432385,6.134890781447099,11.434514742880985,10.109608752524267,0.8928714282843981,3.5426834090055044,-7.142971426285203,-3.78750299417948,0.34392100000000003,0.055357000000000045,-0.43411600000000006,-0.017809999999999993,0.031040000000000012,-0.9356180000000001,0.361731,0.024317000000000033,0.501502,0.0,0.97258941616808,single,-0.43411600000000006
125,1.041667,quasi,0.10343172546196854,0.05867530597552514,0.004559635229179651,0.2883348123516502,-0.36946718129673106,0.06078938556495366,0.7339812814974855,0.48728101751860553,-0.14914806815454976,0.007919366450685356,-0.005159587233023286,-0.004919606431485499,-2.9821701395829487,-1.4983849937999718,-2.4191688997334557,-8.535027956644713,-8.545875038996327,-8.795900459946532,-0.4608956045280013,0.7200454985402588,-0.2591187937448483,0.34917599999999993,0.05892900000000001,-0.43539700000000003,-0.01860600000000001,0.03050799999999998,-0.935697,0.36778199999999994,0.02842100000000003,0.5003,0.0,0.9822407901173527,single,-0.43539700000000003
126,1.05,quasi,0.12168486739468878,0.04908196327852941,-0.0004800192007685024,0.28220347238305576,-0.3854603975809814,0.10652781352559906,0.7705508220328691,0.5024600984039269,-0.15852634105364136,0.00948037921517459,-0.009240369614783679,-0.006120244809792576,2.190464650512412,-1.1512471735264085,-0.604782722902684,4.388520405062149,1.8215625687412837,-1.1254377654015884,0.18732902489970085,-0.4897134743502126,-0.14408236869159438,0.354583,0.06270700000000001,-0.43671400000000005,-0.01954099999999992,0.030021999999999993,-0.935744,0.3741239999999999,0.03268500000000002,0.49903,0.0,0.9756918270938258,single,-0.43671400000000005
127,1.058333,quasi,0.1215648625945099,0.053762150486020406,0.005400216008635803,-0.004749843070186864,-0.10219544809905083,0.021568588622218433,0.7532701308052496,0.4708988359534404,-0.2634105364214529,0.013320532821309641,-0.015960638425536477,-0.0027601104044160476,-0.014401152067549439,0.5616449306961528,0.7056564513865786,-2.0737658979502696,-3.7875029941781837,-12.586606908413836,0.46083686621085873,-0.806464515870978,0.40323225793550455,0.35984700000000003,0.06618299999999999,-0.43895399999999996,-0.02044299999999999,0.029440999999999995,-0.935812,0.38029,0.036742,0.496858,0.0,0.9650477793171376,single,-0.43895399999999996
128,1.066667,quasi,0.10991120710343423,0.07223422126229744,0.009239260859130448,0.29396017475041775,-0.13708267254298614,0.23453782255842873,0.7024238060954968,0.47024238060954837,-0.28485721142308246,0.011639068874491601,-0.010439164866811025,-0.0035997120230379827,-1.3983267927856462,2.2164711754591897,0.46064853017693974,-6.101070879499931,-0.07876833979985856,-2.5733951285852403,-0.20175953285553483,0.6625238251410379,-0.10074413470385513,0.3647849999999999,0.0695,-0.44140499999999994,-0.021262000000000003,0.028752,-0.935919,0.3860469999999999,0.040748000000000006,0.494514,0.0,0.9732604114742025,single,-0.44140499999999994
129,1.075,quasi,0.10716428657145444,0.038641545661832165,-0.040801632065270495,-0.015281481982708574,-0.09551069008797976,0.015026032754588102,0.7729509180367321,0.4654986199448046,-0.43465738629545747,0.010920436817467067,-0.008760350414015409,-0.0019200768030723952,-0.32964364958356157,-4.031282323348803,-6.005147356822441,8.463591976627377,-0.5692740507312839,-17.976740054287337,-0.08623929641480155,0.20146579296719444,0.20156428896743103,0.370333,0.07305699999999998,-0.44468700000000005,-0.022063999999999973,0.028356999999999966,-0.9355950000000001,0.392397,0.04470000000000002,0.490908,0.0,0.9764482617655932,single,-0.44468700000000005
130,1.083333,quasi,0.1376455058202315,0.05808232329292883,-0.08508340333614044,-0.07039666572199889,0.27265570275211526,-0.16291891188701205,0.757830313212517,0.5034201368054639,-0.42049681987278176,0.00864034561381972,-0.004920196807873819,-0.002160086403456179,3.657892625558205,2.332986635196967,-5.3140251135088405,-1.8145451607122047,4.550764053841191,1.6993359441588223,-0.2736218893132494,0.46083686621163117,-0.028802304138219072,0.37550100000000003,0.076768,-0.44748199999999994,-0.02313900000000002,0.027831999999999968,-0.934904,0.39864000000000005,0.048936000000000035,0.487422,0.0,0.9830417275001204,single,-0.44748199999999994
131,1.091667,quasi,0.1455483561315146,0.053995680345574094,-0.08567314614830886,0.5063402405123876,0.28551513928642125,0.10590682817963824,0.7387808975282146,0.45728341732662364,-0.49220062395009934,0.008039356851456746,-0.006359491240697234,-0.0017998560115188313,0.9482661760599052,-0.49035792504857395,-0.07076347638210119,-2.2857470223545437,-5.53596346038411,-8.603768187823247,-0.07211288245296193,-0.17270151581754767,0.043224189097354745,0.38044500000000003,0.080129,-0.45087,-0.024285,0.027328999999999992,-0.934205,0.40473000000000003,0.052800000000000014,0.48333499999999996,0.0,0.982654341794641,single,-0.45087
132,1.1,quasi,0.0769230769230759,0.056882275291007575,0.020760830433214413,0.047406884552828654,-0.19115401855071493,0.1613424780288036,0.7109084363374393,0.4400576023040816,-0.5276611064442467,0.004560182407294111,-0.0025201008040313068,-0.000960038401536172,-8.23536291952928,0.3464052496619981,12.772588093306302,-3.3448291360584266,-2.0671804899246076,-4.255428116422264,-0.41751763400486913,0.46074528221119165,0.1007821444836967,0.385728,0.08332200000000001,-0.45543999999999996,-0.02488800000000002,0.026834000000000024,-0.9343859999999999,0.41061600000000004,0.05648799999999998,0.478946,0.0,0.9911701507841775,single,-0.45543999999999996
133,1.108333,quasi,0.13812552502100367,0.09084363374535157,-0.0703228129125142,0.12772579201569453,0.05912958599873575,0.011333630936483104,0.7347893915756685,0.42733709348374094,-0.5438617544701881,0.005280211208453667,-0.0022800912036471162,-0.0012000480019200388,7.34458755525361,4.0755260355627385,-10.930474420464353,2.865829261758,-1.5265221193256648,-1.9441555293341657,0.08640691241564408,0.028802304138268654,-0.028802304138229803,0.3907,0.08612599999999998,-0.459386,-0.02599499999999999,0.026058000000000026,-0.93381,0.416695,0.060067999999999955,0.474424,0.0,0.990207774979077,single,-0.459386
134,1.116667,quasi,0.1073914086873017,0.056035517158626306,-0.060595152387805835,0.32555195683986166,0.06280199748485144,0.2297492335558115,0.7441804655627475,0.3922486201103908,-0.5686345092392557,0.005639548836095379,-0.001679865610752807,0.0004799616030718143,-3.6877989361293184,-4.176639859218262,1.1672258848942034,1.1268387313509702,-4.210279982403392,-2.9724927728662593,0.043117065951729025,0.07202130944256115,0.20158502579695708,0.396007,0.08892800000000001,-0.46362000000000003,-0.02684299999999995,0.025577000000000016,-0.933301,0.42284999999999995,0.06335099999999999,0.469681,0.0,0.9901600555154404,single,-0.46362000000000003
135,1.125,quasi,0.11316452658106753,0.04272170886835788,-0.04116164646585688,0.44483437064486414,0.3970017756986842,0.20392653090439028,0.7375495019800908,0.39805592223689484,-0.5691827673106973,0.0045601824072942325,-0.005280211208447005,-0.0009600384015361976,0.6928018593262794,-1.5977209036683722,2.332113995193704,-0.7957474598172029,0.6969041313457455,-0.06579360031699845,-0.12952915262224365,-0.4320587540734707,-0.1728069128294762,0.40121,0.091889,-0.46802000000000005,-0.027747999999999995,0.025177000000000005,-0.9329660000000001,0.428958,0.066712,0.464946,0.0,0.9882624098955026,single,-0.46802000000000005
136,1.133333,quasi,0.1090843633745285,0.07272290891635677,-0.042601704068162424,0.35862110633158045,0.005269316003979405,-0.0185869533810302,0.7482299291971736,0.4527781111244456,-0.5673826953078187,0.0032401296051841467,0.005040201608062748,0.0018000720028802666,-0.48963917035150256,3.6002880172805907,-0.17281382482966043,1.2817025341513058,6.566925343519892,0.21601728103667212,-0.15841267276012214,1.2384990779442995,0.3312264975898824,0.40653600000000006,0.09505599999999997,-0.47239300000000006,-0.028629999999999933,0.024612999999999996,-0.932596,0.435166,0.07044299999999998,0.4602029999999999,0.0,0.989572694589596,single,-0.47239300000000006
137,1.141667,quasi,0.12802975761939428,0.06923446124309933,-0.044516438684906096,0.3321003769219618,-0.049358846850748046,0.31819556032898444,0.7307415406767384,0.3915286777057825,-0.5885529157667333,0.002159827213818377,0.0014398848092166917,0.0017998560115187832,2.273265448148025,-0.41858023437214004,-0.2297497740273166,-2.098438747352422,-7.3493440627145015,-2.5402232372107547,-0.12962591689054012,-0.43200345558507663,-2.5916890026803275e-05,0.411559,0.097742,-0.47692700000000005,-0.02967900000000001,0.024048000000000014,-0.93221,0.441238,0.07369399999999998,0.45528299999999994,0.0,0.9947354425321665,single,-0.47692700000000005
138,1.15,quasi,0.10836433457338239,0.06264250570022462,-0.08640345613825279,0.091377563240475,0.5603383518118095,-0.046525106703507395,0.7311892475699113,0.3909756390255626,-0.6017040681627276,0.002640105604220172,0.0010800432017258282,-0.0012000480019200388,-2.3599451633279815,-0.7910663077972848,-5.026643160128054,0.053726976259807546,-0.06636729631823968,-1.5782014155759525,0.05763571227670698,-0.04318272020771232,-0.36000288172793105,0.41674900000000004,0.10047800000000001,-0.48122099999999995,-0.03056000000000003,0.023535000000000028,-0.9315,0.44730900000000007,0.07694299999999998,0.45027900000000004,0.0,0.9948422749077123,single,-0.48122099999999995
139,1.158333,quasi,0.12636505460217834,0.09084363374534915,-0.022680907236288423,0.16428458192314593,0.056437056570599727,0.22754041604425285,0.7371894875794914,0.3808952358094269,-0.6149045961838386,0.0036001440057704293,-0.000360014400573046,-0.0006000240009597953,2.1601728103678908,3.3842707362443347,7.6470117487055385,0.720057603453738,-1.2096967738072129,-1.584126727602402,0.11520921655469105,-0.17281382482885504,0.07200576034564178,0.4218390000000001,0.10289500000000001,-0.486156,-0.03158299999999992,0.022775000000000045,-0.931316,0.453422,0.08011999999999997,0.44516000000000006,0.0,0.9938874727829208,single,-0.486156
140,1.166667,quasi,0.11615070794337633,0.07043436525078178,-0.08015358771298471,0.1257076550070181,0.3400441864509863,0.06783331422797051,0.7281017518598605,0.35229181665467363,-0.6690664746820412,0.005879529637624991,0.0015598752099814607,-0.0016798656107511866,-1.225623549172331,-2.448916306043647,-6.896169963606598,-1.0904410510716491,-3.4321357277122426,-6.4989055073438395,0.2735043954709149,0.23036832380064112,-0.12957062752476742,0.42693899999999996,0.105244,-0.491064,-0.03250200000000003,0.022201000000000026,-0.930662,0.459441,0.08304299999999998,0.439598,0.0,0.9894822863832524,single,-0.491064
141,1.175,quasi,0.09972398895954646,0.07512300492019734,-0.07452298091923339,0.06860570550689019,0.31450363201769743,-0.09538755525134833,0.7551902076082903,0.34273370934837094,-0.6632665306612087,0.007560302412100582,-0.0025201008040313068,-0.0013200528021121325,-1.9712851294647287,0.5626592667005252,0.6756998432438769,3.2507447196003,-1.1470187575066026,0.696021123344822,0.20170080096910614,-0.4896167063497775,0.04317926420725403,0.43240100000000004,0.10747400000000001,-0.49596999999999997,-0.03326999999999991,0.021554000000000018,-0.930052,0.46567099999999995,0.08592,0.434082,0.0,0.9865369208547912,single,-0.49596999999999997
142,1.183333,quasi,0.10356414256571056,0.06828273130925133,-0.01932077283090942,0.17301084736027122,0.11820079047587789,0.13493982737431956,0.752670106804279,0.3325333013320525,-0.679347173886965,0.0076803072122829195,-0.003960158406336919,-0.0004800192007680988,0.4608368662143453,-0.8208656679402463,6.624529951797008,-0.30242419344908666,-1.2240979258752591,-1.9297543772658652,0.014401152067963394,-0.17281382482966826,0.10080806448386433,0.43781,0.109676,-0.5014700000000001,-0.034069000000000016,0.020952000000000026,-0.929895,0.471879,0.08872399999999997,0.42842499999999994,0.0,0.9855758312475754,single,-0.5014700000000001
143,1.191667,quasi,0.10655147588192862,0.08087353011759092,-0.02291816654668236,-0.041178335024459,-0.25565383460492197,0.004174936906146792,0.7504199664026865,0.32157427405807476,-0.6905447564194824,0.011279097672190758,-0.0026397888168972683,-0.002399808015358655,0.3584513218404173,1.510774995001139,-0.4316527136756552,-0.2699952485712181,-1.3149780746313482,-1.343602415708828,0.4318203095641722,0.158431676198661,-0.2303562292525248,0.443176,0.111682,-0.507034,-0.03486299999999998,0.020255999999999996,-0.929724,0.478039,0.09142600000000001,0.42269,0.0,0.9802835652445863,single,-0.507034
144,1.2,quasi,0.13620544821792963,0.061442457698309985,-0.06108244329773027,0.3009316331009912,0.3113242477498066,-0.025438718252805057,0.7483499339973624,0.326773070922837,-0.7206288251530106,0.006000240009599778,-0.011520460818431041,-0.005280211208448254,3.5586190250811565,-2.3318219631922616,-4.579896405982031,-0.2484138251919028,0.6238805789946309,-3.6102326573297105,-0.633488259041285,-1.065723269114827,-0.3456622096591414,0.448277,0.11389299999999997,-0.5125299999999999,-0.03594799999999998,0.019648,-0.929259,0.48422499999999996,0.09424499999999997,0.416729,0.0,0.9766307105580595,single,-0.5125299999999999
145,1.208333,quasi,0.10992439697588045,0.06804272170886527,-0.014640585623419338,-0.265500771660837,0.09107051944851212,-0.18344269339037964,0.7417496699867855,0.30685227409096205,-0.7386295451817969,0.010920436817466775,-0.003840153606148019,-0.0028801152046085163,-3.153852303137971,0.7920633638011727,5.573245850751244,-0.7920633638037657,-2.3905912434746877,-2.16017281036673,0.5904472348334227,0.9216737324232435,0.2880230413824188,0.45354199999999995,0.11588300000000001,-0.5185630000000001,-0.036773000000000056,0.019048999999999983,-0.929161,0.490315,0.09683400000000003,0.4105979999999999,0.0,0.9801185608896896,single,-0.5185630000000001
146,1.216667,quasi,0.08195344372450229,0.051355891528676756,-0.054115670746352144,-0.018663121774647892,0.4156543357059992,-0.4199008734648199,0.7252219822414404,0.29733621310295505,-0.7657787377009984,0.010919126469890206,-0.007799376049913964,-0.00251979841612678,-3.3562458904942036,-2.0022594408673906,-4.736631284249287,-1.9831638763313404,-1.1418359716831274,-3.2576424909049635,-0.0001572291308578282,-0.4750686877569018,0.04323455585334092,0.458903,0.11793300000000001,-0.524494,-0.03736499999999998,0.018556000000000017,-0.928731,0.496268,0.099377,0.40423699999999996,0.0,0.9772448434603798,single,-0.524494
147,1.225,quasi,0.13656546261849903,0.06300252010080265,-0.05700228009118971,0.26197035568913335,0.11127834390459451,-0.05164373544773309,0.7167886715468434,0.2703708148325892,-0.7292691707668177,0.011760470418808323,-0.0078003120124781715,-0.0006000240009597953,6.553704415456112,1.3976513347084711,-0.3464069776596083,-1.0120377648622123,-3.2359772315331092,4.381323285032998,0.10096531248267161,-0.00011232000050493973,0.23038214510583835,0.463738,0.11966100000000002,-0.5300960000000001,-0.03840500000000002,0.017966000000000037,-0.928261,0.502143,0.10169499999999998,0.3981649999999999,0.0,0.9764584551174003,single,-0.5300960000000001
148,1.233333,quasi,0.1153246129845192,0.09264370574823683,-0.04440177607105435,0.008632961200225117,-0.3653632613459426,-0.09811817395985394,0.7004680187207596,0.25945037801512266,-0.7451098043921782,0.012960518420736587,-0.007680307212289581,-0.0015600624024960088,-2.549003916234253,3.5570845610745767,1.5121209672549478,-1.958556681397337,-1.3105048382895255,-1.9009520731261997,0.14401152069222062,0.014401152068713763,-0.1152092165530088,0.46861400000000003,0.12105099999999996,-0.5359349999999999,-0.039258000000000015,0.01712999999999998,-0.927904,0.5078720000000001,0.10392099999999999,0.391969,0.0,0.9747569618338331,single,-0.5359349999999999
149,1.241667,quasi,0.112191024718024,0.06803455723541875,-0.03323734101271533,0.17378121089659262,-0.21993748077433292,-0.14124058993822072,0.6823854091672611,0.24802015838732538,-0.7655387568994418,0.011999040076792443,-0.006839452843769295,-0.0023998080153590715,-0.3760005119384653,-2.9528615926107378,1.3396250369977116,-2.169739567254423,-1.3715166340049425,-2.4512781986157264,-0.11536817181955084,0.10089445266622021,-0.1007614126305563,0.473366,0.12255099999999997,-0.542038,-0.040093000000000045,0.01650600000000002,-0.927647,0.5134590000000001,0.10604499999999994,0.385609,0.0,0.9766360821589978,single,-0.542038
150,1.25,quasi,0.08784351374054501,0.02040081603264191,-0.004200168006721177,-0.0519521083536501,0.3083749350303937,-0.0572567401731439,0.6725069002760169,0.22680907236289694,-0.779911196447869,0.0032401296051841467,0.003120124804988687,-0.01812072482899313,-2.9218181900251063,-5.7162775954370915,3.48460014472512,-1.185468485688742,-2.545432140217046,-1.7247617362807253,-1.0511113010450468,1.1951971257359981,-1.8865854810553464,0.47823800000000005,0.12427099999999996,-0.548502,-0.040798,0.016361999999999988,-0.927763,0.519036,0.10790899999999998,0.37926099999999996,0.0,0.9688822002087594,single,-0.548502
151,1.258333,quasi,0.13320532821313638,0.08520340813632485,-0.06516260650425598,-0.18767317375178721,-0.01381188059201873,-0.1214058556816759,0.66854674186968,0.2074882995319875,-0.7751110044401838,0.01368054722189602,-0.010440417616705213,-0.0037201488059522454,5.4436354821303,7.776622117326717,-7.3157852511142885,-0.4752380182811636,-2.318585483128479,0.5760460827655426,1.2529002300146368,-1.6273301838106353,1.7281382482948535,0.482699,0.12529,-0.5544180000000001,-0.041794,0.015564999999999996,-0.927251,0.524493,0.10972500000000002,0.37283299999999997,0.0,0.9706553431212122,single,-0.5544180000000001
152,1.266667,quasi,0.12910967122629682,0.08267338612910846,-0.02843772498200635,0.38657978191489145,-0.4087958038854451,0.01856641934510714,0.656587473002152,0.1863450923926037,-0.8009359251259822,0.012359011279093286,-0.011399088072955485,-0.005279577633789125,-0.49143952325888246,-0.3035783545975963,4.406633252009762,-1.4349974643062,-2.5369818981741834,-3.098742582889159,-0.15857162740613437,-0.11503125224985176,-0.18711649002122244,0.487095,0.126154,-0.560856,-0.042767,0.014780999999999989,-0.9270579999999999,0.529862,0.111373,0.3662019999999999,0.0,0.9706288922823164,single,-0.560856
153,1.275,quasi,0.09252370094804803,0.02496099843993614,-0.016200648025920732,-0.22901399673535006,0.2881101174226018,0.09834715213406268,0.6529461178447232,0.14688587543501908,-0.8205928237129573,0.010200408016320954,-0.006840273610941349,-0.0002400096003842576,-4.390492053072018,-6.925763553242872,1.4685079750492893,-0.4369800980953844,-4.735295446728066,-2.3589221873245214,-0.2590427532428119,0.5470796186264465,0.6047723549027858,0.49176499999999995,0.12717,-0.5675589999999999,-0.043453000000000075,0.014516000000000029,-0.926925,0.535218,0.11265399999999998,0.3593660000000001,0.0,0.9795267605979956,single,-0.5675589999999999
154,1.283333,quasi,0.13284531381254647,0.06960278411136622,-0.022680907236288423,-0.039142888893391174,-0.017410654703786946,-0.06623806821056101,0.644185767430684,0.15456618264730454,-0.8232329293171555,0.009960398415943093,-0.005280211208446865,-0.0018000720028802186,4.838787095223537,5.357228569714304,-0.7776622117325785,-1.05128410104873,0.9216737324235366,-0.3168253455176052,-0.02880230413750836,0.18721497689841074,-0.18721497689858801,0.49602599999999997,0.127878,-0.57423,-0.04447699999999999,0.013892000000000015,-0.926751,0.540503,0.11398599999999998,0.352521,0.0,0.9809729413272044,single,-0.57423
155,1.291667,quasi,0.14506839452844236,0.06371490280777703,-0.02315814734821243,0.1567528358083036,-0.44822936966411864,0.0013069871416215091,0.6258699304055793,0.13870890328773847,-0.82817374610033,0.006839452843769477,-0.0045596352291863125,-0.0027597792176624852,1.4666523537192377,-0.7064892372917333,-0.05726423229229873,-2.197724625042609,-1.9027213054435295,-0.5928505859340747,-0.3744835099800426,0.08646220053522509,-0.11515565332160844,0.500033,0.12850299999999998,-0.580939,-0.04562900000000003,0.013322999999999974,-0.926581,0.545662,0.11518,0.345642,0.0,0.9855484747099115,single,-0.580939
156,1.3,quasi,0.09900396015840036,0.050402016080639454,-0.04512180487219925,-0.20975959618496953,0.6777996522595313,0.08265248505617222,0.6163446537861442,0.1356054242169687,-0.8387135485419298,0.00516020640825807,-0.004920196807867157,-0.002400096003840014,-5.527953242534644,-1.5976103116689477,-2.6357443326516785,-1.1430789174888831,-0.3724323857877975,-1.2648268860673966,-0.20151763296668398,-0.04326912020650881,0.0431637122071841,0.504344,0.12921300000000002,-0.587552,-0.04641099999999998,0.01286200000000004,-0.926225,0.550755,0.11635099999999998,0.338673,0.0,0.9874615560473197,single,-0.587552
157,1.308333,quasi,0.15600624024960755,0.1034441377655151,0.024000960038412435,0.5148286623928655,-1.1985101893016525,0.2640919924832281,0.6014640585623433,0.12024480979239315,-0.8249129965198673,0.003960158406330258,-0.003360134405379606,-0.0025201008040322066,6.840547232834238,6.365309214553718,8.29506359181715,-1.7857428565703894,-1.8433474648476769,1.6561324879470378,-0.1440115206921665,0.1872149768975837,-0.014401152069146038,0.5080560000000001,0.129353,-0.5946260000000001,-0.047678,0.011971999999999983,-0.926446,0.555734,0.11738100000000001,0.3318199999999999,0.0,0.9903788043755339,single,-0.5946260000000001
158,1.316667,quasi,0.041996640268786876,0.10235181185504993,-0.1491480681545458,-0.42960335589267046,1.2089002928966437,0.3122813161727704,0.5735541156707428,0.10955123590112673,-0.8814494840412723,0.003839692824577845,-0.005879529637631494,-0.0031197504199665846,-13.680057593090927,-0.13106862376591774,-20.776221285451992,-3.348925232973401,-1.2831262168546123,-6.783835795704898,-0.01445471343321478,-0.3023032436107354,-0.0719521977363059,0.512486,0.129413,-0.6007290000000001,-0.04799600000000004,0.011069999999999969,-0.9252290000000001,0.5604819999999999,0.11834300000000003,0.3245,0.0,0.9871932144255712,single,-0.6007290000000001
159,1.325,quasi,0.20352814112563727,-0.007920316812673838,0.035881435257403206,0.5599774982182623,-0.4775649771918743,-0.036395953578518714,0.5630625225009087,0.1088443537741509,-0.8713548541941711,-0.02820112804512029,-0.03648145925836718,0.0033601344053762754,19.384555485041627,-13.233184767517676,22.204428586577546,-1.25904154204178,-0.08482924840703601,1.2114040378136663,-3.845052306456069,-3.6723784496263012,0.7776172837324996,0.515482,0.130386,-0.608289,-0.049926999999999944,0.010832000000000008,-0.9255,0.565409,0.119554,0.317211,0.0,0.9229449872591131,single,-0.608289
160,1.333333,quasi,0.14484579383175902,0.055682227289092986,-0.08736349453977417,0.0677077569629605,0.5925479338364801,0.06379426535507937,0.5345013800551944,0.11808472338893168,-0.8605544221768766,0.006840273610941167,-0.005760230409215367,0.00792031681267238,-7.042163361799739,7.632610596635751,-14.789983174988027,-3.427474192453352,1.1088887093220472,1.2961036862227693,4.2051364041834685,3.686694929695341,0.547243778626668,0.518729,0.13090599999999997,-0.6147320000000001,-0.05107700000000004,0.010319999999999996,-0.924706,0.569806,0.12058599999999997,0.30997399999999997,0.0,0.9800904115888232,single,-0.6147320000000001
161,1.341667,quasi,0.17026637868970182,0.08579313654907358,-0.08567314614830886,0.5101555291877204,0.10150653587523091,0.3942049745860039,0.5261579073674173,0.0965922726181924,-0.8736501079913751,0.0015598752099881214,-0.002999760019198191,0.0029997600191986073,3.0502261648600046,3.613020069592173,0.20282558092936703,-1.0011366316027466,-2.5788877814662445,-1.571356589212712,-0.6335971203447499,0.33122994840619496,-0.5904195816503319,0.521695,0.130996,-0.621299,-0.052482999999999946,0.009580000000000033,-0.923967,0.574178,0.12141599999999997,0.30266799999999994,0.0,0.9924666793849115,single,-0.621299
162,1.35,quasi,0.12060482419296964,0.06300252010080265,-0.08244329773190702,-0.27222804662484346,0.7488864915712734,0.16216847944960433,0.4999399975998956,0.11148445937837476,-0.8868354734189221,0.0008400336013415484,0.000360014400573046,0.0025201008040321394,-5.959624924604741,-2.734983373127389,0.3875973138607681,-3.1462750231034726,1.7871338965777137,-1.5823071435913563,-0.08638444841552387,0.4031890579348588,-0.05756140827630619,0.524856,0.13140000000000002,-0.6280020000000001,-0.053481,0.00905800000000001,-0.923259,0.578337,0.122342,0.295257,0.0,0.9955321597056526,single,-0.6280020000000001
163,1.358333,quasi,0.14412576503060345,0.0901236049441988,-0.07104284171367363,0.30872323109952104,0.3284808855040113,0.45828607959402246,0.4718588743549774,0.10500420016800945,-0.8724348973959036,0.00108004320173249,0.0002400096003842576,0.0025201008040322066,2.8226258055483053,3.2546603676222725,1.368109446565882,-3.3698695841735797,-0.7776622117323136,1.7281382482921643,0.028802304139078822,-0.01440115206873749,8.066786834765618e-15,0.527587,0.13152400000000003,-0.63468,-0.05467299999999997,0.00830900000000001,-0.922646,0.58226,0.12321500000000002,0.28796599999999994,0.0,0.9954128785386667,single,-0.63468
164,1.366667,quasi,0.1673866090712639,0.11411087113031292,-0.08231341492680096,0.3492511249910637,0.30145484450997223,0.41197376127505314,0.44816414686824574,0.10703143748500085,-0.8598512119030419,0.0017998560115175344,0.0005999520038436186,0.0017998560115191995,2.7910779986393415,2.878241682999032,-1.3523605967275307,-2.8431398472200025,0.24324901811751753,1.5099214654261592,0.08637062752400275,0.043189633244463434,-0.08642246130465582,0.529927,0.131465,-0.6411600000000001,-0.05605299999999991,0.007363000000000008,-0.921945,0.58598,0.12410199999999999,0.28078499999999995,0.0,0.9956414497404802,single,-0.6411600000000001
165,1.375,quasi,0.06504260170407385,0.09936397455898272,0.43777751110044616,1.4906584399787233,-5.061720844449663,0.7752102366254158,0.4240969638785635,0.1206048241929662,-0.8487939517580776,0.0032401296051841467,0.0009600384015303687,0.00024000960038384123,-12.281772154949117,-1.7696983764947,62.41340765957661,-2.8881774858613305,1.628871559818249,1.3269242943675066,0.17283974482978826,0.043212096206258654,-0.18718905689852064,0.532919,0.13164199999999998,-0.651881,-0.05656799999999995,0.0065429999999999655,-0.925591,0.589487,0.12509900000000002,0.27371,0.0,0.9943535364560638,single,-0.651881
166,1.383333,quasi,0.15600624024960755,0.08976359054361907,-0.09732389295571986,0.003182839448973343,0.6559800499842576,0.22194061505860554,0.399735989439578,0.1263650546021884,-0.8313932557302356,0.002520100804024712,0.001560062402501005,0.0004800192007680988,10.91607326839488,-1.1520921655302692,-64.21473707622356,-2.9234338700330875,0.6912552993186417,2.08816705002306,-0.08640691241562956,0.07200576034689089,0.028802304138276703,0.53495,0.13194700000000004,-0.6579980000000001,-0.05784699999999998,0.005808000000000035,-0.924776,0.592797,0.126139,0.26677799999999996,0.0,0.9949958014307847,single,-0.6579980000000001
167,1.391667,quasi,0.1388288936885128,0.06995440364770768,-0.036237101031920106,0.06734819592705922,0.24224235455106574,0.2049349733667517,0.37425005999519545,0.12970962323014043,-0.8131749460043107,0.0019198464122889224,-0.003359731221505614,0.001679865610751142,-2.061116697995513,-2.376912274527387,7.3298286445643495,-3.0580668879748445,0.4013161300638371,2.1860222853281406,-0.07202476502709206,-0.5903280086400986,0.14397005159383658,0.536912,0.13244500000000003,-0.664473,-0.05898800000000004,0.005197000000000007,-0.92446,0.5959,0.12724800000000003,0.25998699999999997,0.0,0.9929692041311649,single,-0.664473
168,1.4,quasi,0.12816512660506033,-0.13464538581542862,0.25693027721108463,-0.17072278073509242,-1.0232919525344182,-0.3367778268805839,0.3618144725789119,0.12684507380295024,-0.8249129965198673,0.025801032041277712,0.020880835233410427,-0.0044401776071041855,-1.2797032381438358,-24.552956853850734,35.18149264886685,-1.492330183161364,-0.3437596816500924,-1.4086224067630684,2.8658569097550712,2.90898433396331,-0.7344345635251871,0.538859,0.13462399999999997,-0.6734879999999999,-0.05984100000000003,0.006492999999999971,-0.926638,0.5987,0.128131,0.2531500000000001,0.0,0.9441873741976656,single,-0.6734879999999999
169,1.408333,quasi,0.16284651386055787,0.1575663026520977,-0.22596903876154267,-1.096889979115947,1.6558080008502174,-0.01640185455597124,0.3052922116884611,0.15192607704307778,-0.79695187807511,0.023640945637825428,0.022680907236288423,-0.013440537621504744,4.161932947977552,35.06680528831408,-57.95023592615131,-6.782942624558961,3.0098407824465507,3.3554684321080943,-0.2592207372437593,0.21601728103659723,-1.0800864051842556,0.540046,0.134577,-0.6782459999999999,-0.06100100000000008,0.005369000000000013,-0.924867,0.6010470000000001,0.129208,0.2466210000000001,0.0,0.9409810314092244,single,-0.6782459999999999
170,1.416667,quasi,0.1579073674106082,0.03587712982961356,-0.01607871370290017,0.8103128318581586,-0.08154405433851336,0.21116360013229551,0.2804175665946751,0.13774898008160064,-0.801295896328311,-0.0005999520038303131,-0.009839212862967668,0.0,-0.5926501619810127,-14.601532616089088,25.18482422109989,-2.9847186337636766,-1.7011155461335994,-0.5212404911448342,-2.9086750229969045,-3.9021022437313064,1.6127354957409408,0.541067,0.13542600000000005,-0.68479,-0.06232199999999999,0.004988000000000048,-0.924733,0.603389,0.130438,0.23994300000000002,0.0,0.9835708548127887,single,-0.68479
171,1.425,quasi,0.15108604344173623,0.047281891275650856,-0.07788311532461291,0.13660243483395595,0.44636063281263,0.06734819663595223,0.25165006600263756,0.13848553942157305,-0.7839913596543738,0.003960158406330152,0.00756030241209392,0.0006000240009597953,-0.8185916199294196,1.3686261185691944,-7.416824867600103,-3.4522381605708663,0.08839065642294446,2.0766274659710624,0.5472351386247911,2.088025354021515,0.07200576034558799,0.541905,0.13618600000000003,-0.690674,-0.06354800000000005,0.004657000000000022,-0.924079,0.605453,0.131529,0.23340499999999997,0.0,0.9857403973906793,single,-0.690674
172,1.433333,quasi,0.16164646585863426,0.08580343213728882,-0.07728309132365101,0.35482622896524413,0.1943127101767424,0.025273504679303734,0.22956918276731256,0.13968558742349801,-0.7875915036601518,0.0021600864034516565,0.0020400816032628585,0.003600144005760533,1.2673013820830585,4.622769814189165,0.0720057603458427,-2.6498119807182534,0.1440115206918253,-0.43203456207584895,-0.2160172810366629,-0.6624529951795407,0.36002880172816093,0.5424709999999999,0.136635,-0.696593,-0.06487700000000007,0.00395899999999999,-0.923405,0.607348,0.13267600000000002,0.226812,0.0,0.9922202286736402,single,-0.696593
173,1.441667,quasi,0.17410607151427515,0.08915286777057692,-0.13234941204704437,-0.4657279482065139,0.9918241647166289,-0.11206822022298887,0.19378449724021662,0.12994960403167655,-0.7980561555075522,0.00311975041997616,0.0004799616030722306,0.0020398368130548987,1.4950330760308126,0.4019001239846502,-6.60742989241576,-4.293818757750859,-1.1682245490546428,-1.255657769066502,0.1151504699453439,-0.1871994240689484,-0.1872218853738448,0.542635,0.136975,-0.7021409999999999,-0.06630199999999997,0.0032200000000000006,-0.9222849999999999,0.608937,0.133755,0.220144,0.0,0.993736317189265,single,-0.7021409999999999
174,1.45,quasi,0.20856834273371333,0.14112564502580358,0.01176047041882196,-0.09599361316006523,0.04790393001963313,0.4165146967732704,0.17748709948398195,0.1270850834033345,-0.7721108844353872,0.003120124804988687,0.0009600384015370304,0.0028801152046081767,4.1356379718514935,6.236982749937253,17.29387765101016,-1.9557659613866347,-0.3437562256500757,3.113557070942658,4.492799862319761e-05,0.057611520276587565,0.10083744048401364,0.542376,0.13685799999999998,-0.708673,-0.06801400000000002,0.0020519999999999983,-0.922359,0.61039,0.13480599999999998,0.21368600000000004,0.0,0.9927443669157936,single,-0.708673
175,1.458333,quasi,0.1412456498259886,0.05076203048121916,-0.06972278891154836,-0.20097145118825338,0.6958548099531117,-0.2578370512742639,0.1543261730469203,0.11556462258490037,-0.7953918156726124,0.002760110404415558,-0.0006000240009572972,0.0019200768030719277,-8.079046310779257,-10.844067508050262,-9.778382254934463,-2.779422349341321,-1.382510598636016,-2.79382350140703,-0.043203456207023004,-0.18721497689839195,-0.11520921655300999,0.542485,0.13739799999999996,-0.71472,-0.06916800000000001,0.0016240000000000143,-0.9217620000000001,0.611653,0.13577399999999995,0.20704200000000006,0.0,0.9943076725185995,single,-0.71472
176,1.466667,quasi,0.18550515958724223,0.07967362610991248,-0.05759539236861592,-0.22595676720273797,0.593000315474732,0.00836005813831598,0.11459083273338154,0.11195104391649087,-0.7691384689225007,0.0035997120230351646,-0.0002399808015361217,0.0022798176145910746,5.310716314045411,3.4691139463275578,1.4551711714582038,-4.767859408872034,-0.433594752628938,3.150149598045621,0.10074413470357843,0.04320172779231849,0.04316544414676671,0.5418939999999999,0.13766699999999998,-0.72065,-0.07068400000000008,0.0009580000000000144,-0.921263,0.6125780000000001,0.13670899999999997,0.20061300000000004,0.0,0.9928872013263863,single,-0.72065
177,1.475,quasi,0.21192847713907398,0.15072602904115653,-0.07896315852634536,-0.2723787028454364,0.4470013737269186,0.21691175211731706,0.07320292811712334,0.10848433937357495,-0.7319092763710412,0.004080163206525609,-0.0009600384015370048,0.000480019200768086,3.170924943217483,8.526629416925815,-2.5642345083078206,-4.9667472238398505,-0.4160211859973432,4.467681813447601,0.05765644827678334,-0.08641036841484105,-0.21598444903671632,0.5407379999999999,0.13731500000000002,-0.7260909999999999,-0.07241600000000004,-0.00030599999999997296,-0.920601,0.613154,0.137621,0.19451000000000007,0.0,0.9929683604019213,single,-0.7260909999999999
178,1.483333,quasi,0.21912876515060734,0.12780511220449392,-0.06600264010559756,0.19615448505687325,0.14172208899086347,0.3073227728709985,0.0718828753150152,0.06528261130445144,-0.8138725549022048,-0.003840153606134798,-0.001560062402501005,0.0016800672026881377,0.8640691241489766,-2.7506200452013467,1.5553244234666892,-0.15841267275988935,-5.184414744884664,-9.835986863214249,-0.9504760365607199,-0.07200576034609453,0.14401152069123518,0.5395110000000001,0.13679399999999997,-0.7323230000000001,-0.07427399999999995,-0.0013840000000000519,-0.920037,0.613785,0.13817800000000002,0.18771399999999994,0.0,0.9925458437723278,single,-0.7323230000000001
179,1.491667,quasi,0.18754499640028427,0.13486921046315692,-0.12514998800096092,0.16549467932664258,0.5326906705946901,0.003566368723993431,0.02543796496280158,0.07931365490760951,-0.7643388528917613,0.0025197984161192196,-0.00035997120230084253,0.0014398848092150266,-3.78974907011313,0.8476239811210636,-7.097113978325282,-5.572943406793048,1.683590545135345,5.943568755752714,0.7631331920151151,0.1439994240700928,-0.028819581650241094,0.53816,0.13633100000000004,-0.73765,-0.075816,-0.0025109999999999855,-0.918982,0.6139760000000001,0.13884200000000002,0.18133199999999994,0.0,0.9951259668798795,single,-0.73765
180,1.5,quasi,0.21396855874236245,0.12192487699508295,-0.16080643225729271,-0.2532246027738875,0.9499782028235617,-0.0120681057342119,-0.0020400816032628585,0.0486019440777622,-0.7214688587543588,0.002880115204611091,0.0003600144005730556,0.0032401296051841467,3.17095431922218,-1.5533821514549488,-4.2789444685385964,-3.297497487827276,-3.685552721690579,5.144605080691568,0.043239744208793326,0.08640172841400513,0.21603801703697786,0.53636,0.13572,-0.742322,-0.07757500000000006,-0.003524000000000027,-0.917615,0.613935,0.13924400000000003,0.17529299999999992,0.0,0.9927498824111369,single,-0.742322
181,1.508333,quasi,0.17232689307572374,0.12096483859354591,-0.11124444977799347,0.1754361072535461,0.9872819141736281,-0.174110601025441,-0.03108124324973138,0.029761190447614633,-0.8075123004920253,0.0022800912036471162,0.0019200768030740608,0.0022800912036483652,-4.997199767987411,-0.11520921655310751,5.947675804548146,-3.4850788007282834,-2.2609808748527227,-10.325626033561408,-0.07200576034609148,0.1872149768991983,-0.11520921655295695,0.534665,0.13495999999999997,-0.748124,-0.07899200000000006,-0.00451600000000002,-0.916669,0.613657,0.139476,0.16854499999999994,0.0,0.9937451514976143,single,-0.748124
182,1.516667,quasi,0.2543796496280291,0.1649868010559161,-0.07535397168226028,0.4965222548085682,0.1604528208524567,0.14557652061450552,-0.0676745860331179,0.010439164866811025,-0.7336213102951717,-0.002399808015361153,0.006479481641468453,0.006479481641468453,9.845543142825143,5.282212918450905,4.306512850459913,-4.390849866017068,-2.318457593088968,8.866209526860207,-0.5615429828423607,0.5470848138222171,0.5038865416150774,0.5319809999999999,0.13367199999999996,-0.75361,-0.08113200000000009,-0.005837000000000037,-0.915987,0.613113,0.139509,0.162377,0.0,0.984212659502447,single,-0.75361
183,1.525,quasi,0.2427697107884334,0.1428057122284867,-0.06504260170407385,0.35393363570844577,0.19434711262291515,0.3531420161195493,-0.09780391215648171,-0.03432137285491553,-0.664466578663151,0.002400096003842576,-0.0008400336013415707,0.003480139205568404,-1.3932483906871258,-2.661837132776862,1.2374138939381412,-3.615663761354144,-5.371479385782667,8.298899751832645,0.5760115227653634,-0.8783769642157795,-0.3599354897275982,0.5291429999999999,0.13219599999999998,-0.758605,-0.08313500000000007,-0.007033999999999985,-0.915416,0.6122780000000001,0.13922999999999996,0.15681100000000003,0.0,0.9928163986575174,single,-0.758605
184,1.533333,quasi,0.2278891155646167,0.14232569302772105,-0.09120364814592219,0.38471021780678055,0.30066483664848653,0.10260398121800632,-0.11256450258010722,-0.021000840033598665,-0.7233889355574104,0.0022800912036470555,-0.0002400096003842512,0.002400096003840014,-1.785742856572237,-0.057604608276208315,-3.1394511510677887,-1.7713417045032107,1.5985278796731828,-7.070965665937641,-0.014401152069544986,0.0720057603452909,-0.12961036862214945,0.5263059999999999,0.13083499999999998,-0.763873,-0.08501500000000006,-0.008222000000000007,-0.914636,0.611321,0.139057,0.15076299999999998,0.0,0.9944680520477076,single,-0.763873
185,1.541667,quasi,0.23614110871130395,0.1319894408447337,-0.10103191744660732,0.14410736435206903,0.4700007380222605,0.06724494162966627,-0.10751139908806928,-0.03743700503959502,-0.7396208303335877,-0.0031197504199629213,0.006479481641468625,-0.0002399808015357054,0.9901599648053054,-1.240251041875154,-1.1792979722444585,0.606323913131514,-1.9721820261575072,-1.947671559416568,-0.6479291605003695,0.8062744470665951,-0.3167838739351775,0.523442,0.129423,-0.769195,-0.087009,-0.009267999999999998,-0.9137959999999999,0.6104510000000001,0.138691,0.14460099999999998,0.0,0.988007627909318,single,-0.769195
186,1.55,quasi,0.2012480499219981,0.11676467058682162,-0.10296411856474384,0.08792985342514778,0.7287532678772731,0.04442501706175651,-0.14244569782791652,-0.039721588863556936,-0.7363494539781466,0.0001200048001954564,-0.0078003120124781715,-0.0007200288011519209,-4.187334548098552,-1.8270455127699299,-0.2318734091127432,-4.1922835401232,-0.27416102531643816,0.3925808658875689,0.38878617786611314,-1.7136437842249546,-0.05760806427651591,0.520578,0.12811899999999998,-0.774473,-0.08868500000000001,-0.010305999999999982,-0.912944,0.6092629999999999,0.13842499999999996,0.138471,0.0,0.9869426787119927,single,-0.774473
187,1.558333,quasi,0.2235689427577061,0.1206048241929662,-0.1044041761670388,-0.006794166644426999,0.6547256649065012,0.06564572550835776,-0.1562462498499918,-0.05052202088083626,-0.7506300252010162,-0.0019200768030740608,-0.009600384015363643,-0.0028801152046081767,2.6786142848563803,0.46083686621200204,-0.17281382482838972,-1.6561324879485666,-1.2961036862209794,-1.7137370962282206,-0.24481958517575134,-0.2160172810375,-0.2592207372442428,0.517413,0.126693,-0.779858,-0.09056399999999998,-0.011390999999999984,-0.9120980000000001,0.607977,0.13808399999999998,0.13224000000000002,0.0,0.9829910863430729,single,-0.779858
