frame_id,timestamp,gait_type,root_linear_velocity_x,root_linear_velocity_y,root_linear_velocity_z,root_angular_velocity_x,root_angular_velocity_y,root_angular_velocity_z,left_linear_velocity_x,left_linear_velocity_y,left_linear_velocity_z,right_linear_velocity_x,right_linear_velocity_y,right_linear_velocity_z,root_acceleration_x,root_acceleration_y,root_acceleration_z,left_acceleration_x,left_acceleration_y,left_acceleration_z,right_acceleration_x,right_acceleration_y,right_acceleration_z,left_pos_rel_x,left_pos_rel_y,left_pos_rel_z,right_pos_rel_x,right_pos_rel_y,right_pos_rel_z,step_length,step_width,step_height,left_contact_prob,right_contact_prob,support_type,max_foot_height
1,0.008333,stair_decsent,0.0,0.0,0.0,0.0,0.0,0.0,0.00024000960036427057,0.0007200288011527661,0.0020400816032561785,0.0030001200047932,-0.00108004320173248,-0.003240129605184117,0.0,0.0,0.0,0.0,0.0,0.0,0.0,0.0,0.0,-0.022055000000000158,-0.027920999999999974,-0.8912570000000001,0.21767399999999992,-0.027922000000000002,-0.8878870000000001,0.23972900000000008,1.0000000000287557e-06,0.003369999999999984,0.9963721834579106,0.9587234181667825,double,-0.8878870000000001
2,0.016667,stair_decsent,0.0,0.0,0.0,0.0,0.0,0.0,0.00251979841613256,-0.00491960643148707,-0.0037197024238064848,-0.0013198944084453137,-0.0008399328053730795,-0.002519798416119238,0.0,0.0,0.0,0.27355277367030106,-0.6767020917494403,-0.69111879374402,-0.5183602607677601,0.02881094268771305,0.0864328280615405,-0.02203400000000011,-0.027961999999999987,-0.8912880000000001,0.21766299999999994,-0.02792899999999998,-0.887908,0.23969700000000005,3.300000000000525e-05,0.0033800000000000496,0.9888959344757146,0.9612567126252793,double,-0.887908
3,0.025,stair_decsent,0.0,0.0,0.0,0.0,0.0,0.0,-0.0007200288011461046,0.0013200528021100738,0.0016800672026964494,-0.0015600624025009907,-0.0016800672026897876,0.006240249609977317,0.0,0.0,0.0,-0.3887948178661544,0.7487890595940411,0.6479982751113565,-0.028821312139166815,-0.10082016048442435,1.0512478130441083,-0.02204000000000006,-0.027951000000000004,-0.891274,0.2176499999999999,-0.027942999999999996,-0.8878560000000001,0.23968999999999996,8.000000000008e-06,0.003417999999999921,0.9962421908420173,0.9547398456062619,double,-0.8878560000000001
4,0.033333,stair_decsent,0.0,0.0,0.0,0.0,0.0,0.0,0.0019200768030740432,-0.0030001200047998617,-0.0007200288011594278,0.001080043201719157,-0.0007200288011527661,0.0006000240009639692,0.0,0.0,0.0,0.3168253455202385,-0.5184414744881718,-0.28802304138436063,0.3168253455202385,0.1152092165531047,-0.6768541472474916,-0.022024000000000044,-0.027976,-0.8912800000000001,0.21765899999999982,-0.027949,-0.8878510000000001,0.23968299999999987,2.6999999999999247e-05,0.0034290000000000154,0.9939433561623521,0.9633266296076295,double,-0.8878510000000001
5,0.041667,stair_decsent,0.0,0.0,0.0,0.0,0.0,0.0,0.0013198944084453137,-0.0005999520038369624,0.0019198464122889367,0.00023998080154277791,-0.00011999040076472815,-0.0026397888168906273,0.0,0.0,0.0,-0.07201612606536231,0.2879971203459202,0.3167596848390166,-0.10079942406724009,0.07199884813871346,-0.3887464384274773,-0.02201300000000006,-0.027980999999999978,-0.8912640000000001,0.21766099999999988,-0.027949999999999975,-0.887873,0.23967399999999994,3.100000000000325e-05,0.003391000000000033,0.9959903332421884,0.9616676849077137,double,-0.887873
6,0.05,stair_decsent,0.0,0.0,0.0,0.0,0.0,0.0,0.0012000480019279385,-0.0010800432017258185,-0.0007200288011461046,0.00048001920078183396,0.0022800912036470954,-0.0033601344053795753,0.0,0.0,0.0,-0.014382144067847732,-0.057613248276593795,-0.3167976975201057,0.02880576013909229,0.28802131338195414,-0.08644492841581039,-0.022002999999999995,-0.02798999999999996,-0.89127,0.217665,-0.027930999999999984,-0.887901,0.239668,5.899999999997574e-05,0.0033689999999999554,0.9970536981753932,0.9594950373865292,double,-0.887901
7,0.058333,stair_decsent,0.0,0.0,0.0,0.0,0.0,0.0,0.0003600144005730523,-0.00012000480019545849,0.0004800192007685108,0.0014400576022922092,-0.00204008160326284,0.0019200768030740432,0.0,0.0,0.0,-0.10080806448516576,0.1152092165523053,0.14401152069058146,0.11520921654990701,-0.5184414744881718,0.6336506910420759,-0.02200000000000002,-0.027990999999999988,-0.891266,0.2176769999999999,-0.027947999999999973,-0.887885,0.23967699999999992,4.300000000001525e-05,0.0033809999999999674,0.9989801553034947,0.9609400281017701,double,-0.887885
8,0.066667,stair_decsent,0.0,0.0,0.0,0.0,0.0,0.0,0.0015598752099880916,-0.0016798656107528196,0.00035997120230084524,0.00047996160308555583,-0.0016798656107528196,-0.0007199424046150121,0.0,0.0,0.0,0.1439717793874537,-0.18716832380097922,-0.014404607447524063,-0.11520230372050075,0.04322246130429808,-0.3167769627656653,-0.02198699999999998,-0.028005000000000002,-0.891263,0.217681,-0.027961999999999987,-0.8878910000000001,0.239668,4.300000000001525e-05,0.0033719999999999306,0.9961324934793522,0.9631306487984791,double,-0.8878910000000001
9,0.075,stair_decsent,0.0,0.0,0.0,0.0,0.0,0.0,0.002520100804011368,-0.003120124804988661,-0.00264010560422015,0.0008400336013282406,0.0007200288011527668,0.0009600384015370224,0.0,0.0,0.0,0.11523168055001524,-0.17283801682897426,-0.3600236177272288,0.04321036820385036,0.2879988493826459,0.20160576096868305,-0.021966000000000152,-0.028030999999999973,-0.891285,0.21768799999999988,-0.02795599999999998,-0.8878830000000001,0.23965400000000003,7.499999999999174e-05,0.003401999999999905,0.9919971802777399,0.9635385912205165,double,-0.8878830000000001
10,0.083333,stair_decsent,0.0,0.0,0.0,0.0,0.0,0.0,-0.03324132965316938,0.07872314892595576,0.008040321612855894,0.005520220808831208,-0.00048001920076851036,-0.0022800912036470937,0.0,0.0,0.0,-4.29154331659435,9.821585711141768,1.2817025341504902,0.5616449306975836,-0.1440115206913808,-0.38883110586632824,-0.022243000000000013,-0.027374999999999983,-0.8912180000000001,0.21773399999999987,-0.027959999999999985,-0.8879020000000001,0.23997699999999988,0.0005850000000000022,0.0033159999999999856,0.8569482713455738,0.9568536103581609,double,-0.8879020000000001
11,0.091667,stair_decsent,0.0,0.0,0.0,0.0,0.0,0.0,-0.012718982481420877,-0.021478281737459186,0.02363810895128424,-0.0009599232061444692,0.0004799616030722346,-0.002399808015361173,0.0,0.0,0.0,2.462484661836875,-12.023209822823976,1.8715847538310963,-0.7775550773908906,0.11518848138237889,-0.014364868216232236,-0.022349000000000174,-0.027553999999999967,-0.8910210000000001,0.21772599999999986,-0.02795599999999998,-0.8879220000000001,0.24007500000000004,0.00040200000000001346,0.003098999999999963,0.942703274852427,0.9646285700543503,double,-0.8879220000000001
12,0.1,stair_decsent,0.0,0.0,0.0,0.0,0.0,0.0,0.007440297611905249,0.02856114244569306,-0.020520820832837166,0.0006000240009639688,0.00024000960038425518,0.0018000720028919063,0.0,0.0,0.0,2.419210379614318,6.004971100822297,-5.299283545436381,0.18720115289912836,-0.028795392138243038,0.5040057624208659,-0.022287000000000168,-0.027316000000000007,-0.8911920000000001,0.2177309999999999,-0.02795399999999998,-0.887907,0.24001800000000006,0.0006379999999999719,0.0032850000000000934,0.9400880049570322,0.9639623970057569,double,-0.887907
13,0.108333,stair_decsent,0.0,0.0,0.0,0.0,0.0,0.0,0.009600384015370224,0.011760470418821863,-0.003360134405366255,0.002280091203647097,0.0015600624024943305,-0.001080043201732481,0.0,0.0,0.0,0.25922073724528705,-2.0161612896761323,2.0593647458863464,0.20161612896713427,0.15841267276011958,-0.3456276496609132,-0.022207000000000088,-0.027217999999999964,-0.89122,0.2177499999999999,-0.027940999999999994,-0.887916,0.23995699999999998,0.0007230000000000292,0.0033039999999999736,0.9740852604716133,0.9620161194070534,double,-0.887916
14,0.116667,stair_decsent,0.0,0.0,0.0,0.0,0.0,0.0,0.0013198944084453126,-0.0011999040076805846,0.00035997120230084497,0.001079913606929178,0.0,-0.0007199424046150115,0.0,0.0,0.0,-0.9935792664896692,-1.5551205215385693,0.44637696276303057,-0.14400979082288434,-0.18719251289828762,0.043208638962979246,-0.022196000000000105,-0.027227999999999974,-0.891217,0.21775900000000004,-0.027940999999999994,-0.8879220000000001,0.23995500000000014,0.0007130000000000192,0.003294999999999937,0.996967092454985,0.9648868422873078,double,-0.8879220000000001
15,0.125,stair_decsent,0.0,0.0,0.0,0.0,0.0,0.0,0.000840033601354887,-0.0014400576023055336,-0.0014400576023055336,0.0034801392055483905,0.0016800672026897891,0.0004800192007685112,0.0,0.0,0.0,-0.057585600274862106,-0.028819584138359437,-0.21601209703664706,0.2880385933780409,0.20161612896793357,0.1440011526921305,-0.022189000000000014,-0.027239999999999986,-0.891229,0.21778799999999987,-0.02792699999999998,-0.8879180000000001,0.23997699999999988,0.0006869999999999932,0.003310999999999953,0.9963283411835002,0.9603997480941173,double,-0.8879180000000001
16,0.133333,stair_decsent,0.0,0.0,0.0,0.0,0.0,0.0,-0.0022800912036470937,-0.006000240009599718,0.011400456018235467,0.006240249610003958,0.002040081603262838,-0.003480139205561708,0.0,0.0,0.0,-0.3744299537983893,-0.5472437786264468,1.5409232713957746,0.33122649759457157,0.04320345620701412,-0.47523801828035717,-0.022208000000000006,-0.02728999999999998,-0.8911340000000001,0.21784000000000003,-0.02790999999999999,-0.887947,0.24004800000000004,0.0006200000000000094,0.003187000000000051,0.9781945411082027,0.955745644161414,double,-0.887947
17,0.141667,stair_decsent,0.0,0.0,0.0,0.0,0.0,0.0,0.004919606431480422,0.0031197504199628693,-0.010319174466033079,0.0019198464122622983,-0.0009599232061444707,0.0005999520038436247,0.0,0.0,0.0,0.8638946046469321,1.0943113066429817,-2.6061471663389244,-0.5184069111761063,-0.359971779386527,0.48957177938629015,-0.022167000000000048,-0.02726400000000001,-0.89122,0.21785599999999983,-0.027918,-0.887942,0.24002299999999988,0.0006539999999999879,0.003278000000000003,0.9802501243475117,0.9635054620388686,double,-0.887942
18,0.15,stair_decsent,0.0,0.0,0.0,0.0,0.0,0.0,0.002040081603256177,-0.0054002160086357495,0.009240369614783831,0.003240129605184114,0.0019200768030740415,-0.0013200528021100728,0.0,0.0,0.0,-0.34555680165897545,-1.0224368689065897,2.347239179265198,0.1584403207634483,0.34561382565924753,-0.23040979310616774,-0.022150000000000114,-0.027308999999999972,-0.891143,0.21788299999999983,-0.027901999999999982,-0.887953,0.24003299999999994,0.0005930000000000102,0.003190000000000026,0.9818410799004326,0.9614484182774041,double,-0.887953
19,0.158333,stair_decsent,0.0,0.0,0.0,0.0,0.0,0.0,0.00588023520940426,0.0016800672026897863,-0.0052802112084536145,0.006480259210368228,0.0037201488059526245,-0.004920196807880562,0.0,0.0,0.0,0.46083686621241804,0.8496679720779466,-1.7425394003645065,0.388831105866328,0.21601728103667125,-0.43203456207494134,-0.02210100000000015,-0.027294999999999958,-0.8911870000000001,0.21793699999999983,-0.02787099999999998,-0.8879940000000001,0.24003799999999997,0.0005760000000000209,0.0031930000000000014,0.9865339498563825,0.95315900450448,double,-0.8879940000000001
20,0.166667,stair_decsent,0.0,0.0,0.0,0.0,0.0,0.0,0.001799856011530868,-0.0014398848092167015,0.0005999520038436226,0.00035997120232748815,0.0008399328053730787,-0.0005999520038436226,0.0,0.0,0.0,-0.48960633523798747,-0.3743642922853953,0.7055631404244338,-0.7343758109000161,-0.3455982722077685,0.5183879054519961,-0.02208600000000005,-0.02730699999999997,-0.891182,0.21794000000000002,-0.027864,-0.8879990000000001,0.24002600000000007,0.0005570000000000297,0.003182999999999936,0.9960304309172529,0.9663480590394352,double,-0.8879990000000001
21,0.175,stair_decsent,0.0,0.0,0.0,0.0,0.0,0.0,0.004440177607112066,-0.0001200048001954588,-0.001800072002878589,0.002400096003829237,0.0018000720028852506,0.004440177607112066,0.0,0.0,0.0,0.3168512655203654,0.1583919367600199,-0.28801440138272144,0.24482476917097729,0.11522131255396308,0.6048397469045603,-0.022048999999999985,-0.027308,-0.891197,0.21795999999999993,-0.027848999999999957,-0.887962,0.24000899999999992,0.0005409999999999582,0.003234999999999988,0.9920121902685132,0.9587187973271813,double,-0.887962
22,0.183333,stair_decsent,0.0,0.0,0.0,0.0,0.0,0.0,0.0024000960038292286,-0.0012000480019212759,-0.0010800432017324792,0.005400216008649072,0.00036001440057305197,-0.0002400096003909168,0.0,0.0,0.0,-0.24481958517734742,-0.1296103686218428,0.08640691241402967,0.36002880173044916,-0.1728138248304569,-0.5616449306975854,-0.022029000000000076,-0.02731800000000001,-0.891206,0.218005,-0.027845999999999982,-0.8879640000000001,0.24003400000000008,0.0005279999999999729,0.003241999999999967,0.9951790188434877,0.9585507961595955,double,-0.8879640000000001
23,0.191667,stair_decsent,0.0,0.0,0.0,0.0,0.0,0.0,0.0011999040076872453,0.00035997120230750576,-0.0014398848092167015,0.00011999040075806724,0.0011999040076805846,-0.002639788816890625,0.0,0.0,0.0,-0.14401151861554862,0.18718732952109193,-0.04317753869501103,-0.6335763868359732,0.1007786905576592,-0.28795046994236934,-0.02201900000000001,-0.027314999999999978,-0.8912180000000001,0.21800599999999992,-0.027835999999999972,-0.887986,0.24002499999999993,0.0005209999999999937,0.0032320000000000126,0.9968190597310929,0.962843032308442,double,-0.887986
24,0.2,stair_decsent,0.0,0.0,0.0,0.0,0.0,0.0,0.002760110404402281,-0.0022800912036470937,0.0026401056042201455,0.00012000480018213519,-0.0001200048001954584,0.003480139205575031,0.0,0.0,0.0,0.18723225689607995,-0.3168201615210125,0.4896184343497952,1.7280000081540817e-06,-0.15839539276083547,0.7344207395254592,-0.021996000000000127,-0.02733399999999997,-0.8911960000000001,0.21800699999999984,-0.027837,-0.887957,0.24000299999999997,0.0005030000000000312,0.003239000000000103,0.992586202250969,0.9618028752586152,double,-0.887957
25,0.208333,stair_decsent,0.0,0.0,0.0,0.0,0.0,0.0,0.0018000720028919124,-0.000960038401537024,-0.0014400576022922126,0.004200168006721149,0.000960038401537024,-0.0016800672026964535,0.0,0.0,0.0,-0.1152092165499065,0.15841267276011917,-0.4896391703482981,0.4896391703514969,0.1296103686226431,-0.6192495389741387,-0.02198100000000003,-0.027341999999999977,-0.891208,0.21804199999999985,-0.027828999999999993,-0.8879710000000001,0.24002299999999988,0.0004870000000000152,0.0032369999999999344,0.9958381031147843,0.9599225521548811,double,-0.8879710000000001
26,0.216667,stair_decsent,0.0,0.0,0.0,0.0,0.0,0.0,0.0011999040076872453,-0.0007199424046083507,-0.0002399808015427777,0.005879529637651516,0.0034797216222703644,-0.004919606431480405,0.0,0.0,0.0,-0.07201439827269818,0.028809214894249223,0.14399769627423012,0.20150727512963357,0.30233779946404343,-0.3887136103652446,-0.021970999999999963,-0.027347999999999983,-0.8912100000000001,0.21809100000000003,-0.02779999999999999,-0.888012,0.240062,0.00045200000000000795,0.003198000000000034,0.9976337573861556,0.9539883038594377,double,-0.888012
27,0.225,stair_decsent,0.0,0.0,0.0,0.0,0.0,0.0,0.0022800912036470937,-0.0016800672026897863,-0.00036001440057305197,0.00024000960036427038,-0.0015600624024943279,0.0014400576023055312,0.0,0.0,0.0,0.12962764862112655,-0.1152195845531543,-0.014404608067955618,-0.6767694752534791,-0.6047982749027587,0.7631902116627783,-0.02195199999999997,-0.027361999999999997,-0.891213,0.21809299999999987,-0.027812999999999977,-0.888,0.24004499999999984,0.0004509999999999792,0.0032130000000000214,0.9952416587650028,0.9643089587954028,double,-0.888
28,0.233333,stair_decsent,0.0,0.0,0.0,0.0,0.0,0.0,0.0016800672026831248,-0.0012000480019212759,0.0007200288011461039,0.003960158406356865,0.0012000480019212759,-0.0002400096003909168,0.0,0.0,0.0,-0.07200576034609005,0.05760460827655227,0.12961036862104344,0.4464357141476769,0.3312264975897758,-0.20161612896873235,-0.021938000000000013,-0.027372000000000007,-0.8912070000000001,0.21812600000000004,-0.027802999999999967,-0.8880020000000001,0.24006400000000006,0.0004309999999999592,0.0032050000000000134,0.9963556807955827,0.9610417572545877,double,-0.8880020000000001
29,0.241667,stair_decsent,0.0,0.0,0.0,0.0,0.0,0.0,0.002159827213805077,-0.0011999040076739276,-0.0034797216222637152,0.004319654427636797,0.00203983681305367,-0.0038396928245645616,0.0,0.0,0.0,0.057566596006953845,1.7277927447596848e-05,-0.5039297364302651,0.04313607166785848,0.1007665960082069,-0.4319274327062219,-0.02192000000000016,-0.027381999999999962,-0.891236,0.21816199999999997,-0.027785999999999977,-0.888034,0.24008200000000013,0.00040400000000001546,0.003202000000000038,0.9928872013264088,0.9577651429572864,double,-0.888034
30,0.25,stair_decsent,0.0,0.0,0.0,0.0,0.0,0.0,0.0033601344053928958,-0.0007200288011527656,-0.0016800672026964479,0.00588023520940426,0.0026401056042201455,-0.0026401056042334686,0.0,0.0,0.0,0.14404262469552595,0.05758732827567042,0.2159671690348333,0.18727718489949138,0.0720351363454308,0.14395622468871858,-0.021892000000000023,-0.027387999999999968,-0.8912500000000001,0.21821099999999993,-0.02776400000000001,-0.8880560000000001,0.24010299999999996,0.00037600000000004297,0.00319400000000003,0.993624794011526,0.956450918147983,double,-0.8880560000000001
31,0.258333,stair_decsent,0.0,0.0,0.0,0.0,0.0,0.0,0.003840153606148096,-0.0013200528021167386,-0.002280091203647101,0.0016800672026831304,-0.0007200288011461063,0.001920076803074048,0.0,0.0,0.0,0.05760460827495516,-0.07200576034609078,-0.07200576034449234,-0.5040403224194335,-0.4032322579342686,0.5472437786280485,-0.02185999999999999,-0.027399000000000007,-0.8912690000000001,0.2182249999999999,-0.02776999999999996,-0.88804,0.24008499999999988,0.0003709999999999547,0.0032290000000000374,0.9922382463650751,0.9632916788602848,double,-0.88804
32,0.266667,stair_decsent,0.0,0.0,0.0,0.0,0.0,0.0,0.00299976001919147,-0.0011999040076739237,-0.003119750419962859,0.0031197504199761807,0.0010799136069091957,-0.0009599232061444676,0.0,0.0,0.0,-0.10083916330173084,0.014416701996978023,-0.1007510458742209,0.17274816622186812,0.21597581090176388,-0.3455723553177961,-0.02183500000000005,-0.02740899999999996,-0.8912950000000001,0.21825099999999997,-0.02776099999999998,-0.8880480000000001,0.24008600000000002,0.00035200000000001896,0.003247,0.9925146119221754,0.9617998389001161,double,-0.8880480000000001
33,0.275,stair_decsent,0.0,0.0,0.0,0.0,0.0,0.0,0.0034801392055750194,0.0,-0.0007200288011461016,0.005040201608049358,0.001200048001921272,-0.0034801392055616963,0.0,0.0,0.0,0.0576478082783568,0.14399424069049785,0.287978113382545,0.2304633611032244,0.014416704069611874,-0.3024380174507642,-0.021805999999999992,-0.02740899999999996,-0.891301,0.21829299999999985,-0.02775099999999997,-0.888077,0.24009899999999984,0.00034200000000000896,0.0032240000000000046,0.9940769259190434,0.9573576610073093,double,-0.888077
34,0.283333,stair_decsent,0.0,0.0,0.0,0.0,0.0,0.0,0.003840153606148096,0.0,-0.0026401056042334773,0.004680187207502984,0.002280091203647101,-0.0013200528021234004,0.0,0.0,0.0,0.04320345620701757,0.0,-0.23041843310781,-0.04320345620381308,0.1296103686218447,0.25922073724208583,-0.02177399999999996,-0.02740899999999996,-0.8913230000000001,0.21833199999999997,-0.02773199999999998,-0.8880880000000001,0.24010599999999993,0.0003230000000000177,0.003234999999999988,0.9922330941881744,0.9586986643463087,double,-0.8880880000000001
35,0.291667,stair_decsent,0.0,0.0,0.0,0.0,0.0,0.0,0.001919846412262292,-0.0008399328053797395,0.0009599232061444676,0.002519798416132558,0.0002399808015361169,0.001679865610759479,0.0,0.0,0.0,-0.2304184297919129,-0.10078387393565379,0.43196889973337427,-0.25922591689109964,-0.24479366476013706,0.3599614126329346,-0.021758000000000166,-0.027415999999999996,-0.8913150000000001,0.21835300000000002,-0.027729999999999977,-0.888074,0.24011100000000019,0.00031399999999998096,0.0032410000000000494,0.9961584327829488,0.9625268094947552,double,-0.888074
36,0.3,stair_decsent,0.0,0.0,0.0,0.0,0.0,0.0,0.002400096003855883,-0.0006000240009573092,0.0001200048001954588,0.002520100804011372,0.002040081603262845,-0.001800072002878589,0.0,0.0,0.0,0.05763225628148233,0.028790208139017268,-0.10079424048350065,3.628799697759981e-05,0.2160207370366894,-0.41760921800528944,-0.021738000000000035,-0.027420999999999973,-0.891314,0.21837399999999985,-0.027712999999999988,-0.888089,0.24011199999999988,0.00029200000000001447,0.0032250000000000334,0.9958718813871208,0.961569137909397,double,-0.888089
37,0.308333,stair_decsent,0.0,0.0,0.0,0.0,0.0,0.0,0.000240009600390916,-0.0004800192007685088,0.0009600384015370176,0.0010800432017457988,0.0003600144005797124,0.002160086403451628,0.0,0.0,0.0,-0.25922073724528477,0.014401152068738739,0.10080806448356598,-0.17281382482486107,-0.20161612896713377,0.4752380182803553,-0.021735999999999978,-0.027424999999999977,-0.891306,0.218383,-0.027709999999999957,-0.888071,0.24011899999999997,0.0002849999999999797,0.003234999999999988,0.9981668963978694,0.9635804392276868,double,-0.888071
38,0.316667,stair_decsent,0.0,0.0,0.0,0.0,0.0,0.0,0.00299976001919149,0.0007199424046083555,-0.0010799136069158635,0.0045596352291795905,0.0022798176145897952,-0.0016798656107461687,0.0,0.0,0.0,0.3311435587713691,0.1439838739353097,-0.2447746590416238,0.4175176418807069,0.2303579570446477,-0.46075738111324915,-0.021711000000000036,-0.02741899999999997,-0.8913150000000001,0.21842099999999998,-0.027690999999999966,-0.888085,0.240132,0.00027199999999999447,0.003230000000000066,0.9945525004112246,0.9587542079648304,double,-0.888085
39,0.325,stair_decsent,0.0,0.0,0.0,0.0,0.0,0.0,0.0007200288011461016,0.002400096003835882,0.0004800192007685088,0.0007200288011461016,0.0004800192007685088,-0.0006000240009639668,0.0,0.0,0.0,-0.27357868931301804,0.20162649696718105,0.18719942489911987,-0.46077120221210527,-0.21598444903651492,0.12958617662092853,-0.021705000000000085,-0.027399000000000007,-0.8913110000000001,0.21842699999999993,-0.02768699999999996,-0.88809,0.240132,0.00028799999999995496,0.0032210000000000294,0.995747771585779,0.9660349369200008,double,-0.88809
40,0.333333,stair_decsent,0.0,0.0,0.0,0.0,0.0,0.0,0.0006000240009639708,0.000960038401537024,0.0008400336013415652,0.003840153606148096,0.001560062402494333,-0.0007200288011461063,0.0,0.0,0.0,-0.014401152067938447,-0.17281382482885657,0.043203456207015156,0.3744299537983922,0.1296103686218441,-0.014401152067939502,-0.021700000000000053,-0.027391,-0.8913040000000001,0.21845899999999996,-0.027673999999999976,-0.888096,0.240159,0.0002829999999999777,0.0032080000000000997,0.9976504379926241,0.9609083002748237,double,-0.888096
41,0.341667,stair_decsent,0.0,0.0,0.0,0.0,0.0,0.0,-0.00035997120230084497,0.00227981761458978,0.001679865610759479,0.0007199424046016899,0.0011999040076805846,-0.0021598272138317128,0.0,0.0,0.0,-0.11519020917504377,0.15836083669939463,0.10077177938779854,-0.374395392554164,-0.043215550133639084,-0.17276198856318756,-0.021703000000000028,-0.027372000000000007,-0.89129,0.2184649999999999,-0.027663999999999966,-0.8881140000000001,0.24016799999999994,0.00029199999999995896,0.0031759999999999566,0.9952422297202681,0.9639508210164032,double,-0.8881140000000001
42,0.35,stair_decsent,0.0,0.0,0.0,0.0,0.0,0.0,0.00036001440057305316,0.001680067202689792,0.00024000960037759439,0.00480019200768512,0.001080043201725821,-0.00036001440057305316,0.0,0.0,0.0,0.08640172841400455,-0.07197292834513255,-0.17278963283113982,0.48964953835154684,-0.014383872069454432,0.21598617703812123,-0.021700000000000053,-0.027357999999999993,-0.8912880000000001,0.21850499999999995,-0.027654999999999985,-0.888117,0.240205,0.0002969999999999917,0.003171000000000035,0.9971085178817549,0.960067749193523,double,-0.888117
43,0.358333,stair_decsent,0.0,0.0,0.0,0.0,0.0,0.0,0.0013200528021100684,0.0008400336013482211,0.0015600624025009842,-0.0013200528021100684,-0.0006000240009573052,0.0036001440057571543,0.0,0.0,0.0,0.11520921655310348,-0.10080806448356742,0.15841267276171658,-0.7344587555256405,-0.201616128967133,0.4752380182803541,-0.02168900000000007,-0.02735099999999996,-0.891275,0.21849399999999997,-0.027659999999999962,-0.8880870000000001,0.24018300000000004,0.0003090000000000037,0.0031879999999999686,0.996317462170576,0.9616513566027525,double,-0.8880870000000001
44,0.366667,stair_decsent,0.0,0.0,0.0,0.0,0.0,0.0,-0.0008399328053864003,0.0019198464122822743,0.0005999520038436226,0.0007199424046016899,0.0019198464122822743,-0.0008399328053730787,0.0,0.0,0.0,-0.25917753869648025,0.1295671719383312,-0.11520403151636197,0.24477984241801728,0.3023602607678878,-0.5327665960079467,-0.02169600000000016,-0.027334999999999998,-0.89127,0.21849999999999992,-0.027644000000000002,-0.888094,0.24019600000000008,0.0003090000000000037,0.0031759999999999566,0.9963671102062648,0.9645470583728184,double,-0.888094
45,0.375,stair_decsent,0.0,0.0,0.0,0.0,0.0,0.0,0.002280091203647101,0.0010800432017324826,-0.0003600144005863764,0.0004800192007818352,-0.000240009600384256,-0.001320052802110077,0.0,0.0,0.0,0.37441785779833303,-0.10078041648263455,-0.11520057655466236,-0.02879193613582807,-0.259193089243554,-0.05761670427661101,-0.02167700000000017,-0.02732599999999996,-0.8912730000000001,0.21850400000000003,-0.027646000000000004,-0.888105,0.2401810000000002,0.00032000000000004247,0.0031680000000000597,0.9957524779827962,0.9659450365840505,double,-0.888105
46,0.383333,stair_decsent,0.0,0.0,0.0,0.0,0.0,0.0,0.000960038401537024,0.0012000480019146184,-0.0012000480019146184,0.002400096003829237,0.0013200528021167386,-0.0012000480019279415,0.0,0.0,0.0,-0.15841267276012005,0.014401152067939045,-0.10080806448196857,0.2304184331030129,0.18721497689919578,0.01440115206793902,-0.02166900000000016,-0.027316000000000007,-0.891283,0.21852399999999994,-0.027634999999999965,-0.8881150000000001,0.2401930000000001,0.0003189999999999582,0.0031679999999999486,0.996750254648342,0.9633358263153082,double,-0.8881150000000001
47,0.391667,stair_decsent,0.0,0.0,0.0,0.0,0.0,0.0,0.001079913606929178,0.0002399808015361169,0.00011999040077138885,-0.0019198464122889352,-0.0016798656107528183,0.002519798416132558,0.0,0.0,0.0,0.014383873937143495,-0.11519884813756907,0.15839193696736334,-0.5183516218044358,-0.35996141263133596,0.4463458624982596,-0.021660000000000013,-0.027314000000000005,-0.891282,0.21850799999999992,-0.02764899999999998,-0.888094,0.24016799999999994,0.0003349999999999742,0.0031879999999999686,0.9981454246668982,0.9621438569724391,double,-0.888094
48,0.4,stair_decsent,0.0,0.0,0.0,0.0,0.0,0.0,0.0006000240009639668,0.001200048001921272,-0.0003600144005730508,-0.0006000240009639668,0.0003600144005730508,0.0010800432017324755,0.0,0.0,0.0,-0.05758905627807623,0.11521267255312025,-0.057602880276543575,0.15838502475998595,0.24479539317483026,-0.17277753682948235,-0.02165499999999998,-0.027303999999999995,-0.891285,0.2185029999999999,-0.027646000000000004,-0.888085,0.24015799999999987,0.00034200000000000896,0.0031999999999999806,0.9976847400090391,0.9658551531471655,double,-0.888085
49,0.408333,stair_decsent,0.0,0.0,0.0,0.0,0.0,0.0,0.000840033601328242,0.001680067202689792,-0.0031201248050019893,-0.00048001920075518877,-0.00012000480018879719,-0.001800072002878589,0.0,0.0,0.0,0.028802304135878535,0.05760460827655361,-0.33122649759137707,0.01440115207113624,-0.05760460827575293,-0.345627649659315,-0.02164800000000011,-0.02728999999999998,-0.8913110000000001,0.218499,-0.027646999999999977,-0.8881,0.2401470000000001,0.0003569999999999962,0.003211000000000075,0.9939301608442271,0.964778605707015,double,-0.8881
50,0.416667,stair_decsent,0.0,0.0,0.0,0.0,0.0,0.0,0.0013198944084453126,-0.0002399808015361169,-0.00035997120230084497,0.0005999520038436226,-0.0008399328053730787,0.0013198944084453126,0.0,0.0,0.0,0.057578690558803707,-0.23038732952074717,0.3311919369691794,0.12958617765764463,-0.08638444986612441,0.37436602007726166,-0.02163700000000013,-0.027291999999999983,-0.891314,0.21850400000000003,-0.027653999999999956,-0.888089,0.24014100000000016,0.00036199999999997345,0.0032250000000000334,0.997685017818021,0.9649573754012162,double,-0.888089
51,0.425,stair_decsent,0.0,0.0,0.0,0.0,0.0,0.0,0.002280091203647101,-0.001440057602305536,0.0002400096003909176,-0.004320172806929931,-0.0010800432017324826,0.004200168006721149,0.0,0.0,0.0,0.11522822455319703,-0.14401497669139832,0.07200057634606553,-0.5904385948366213,-0.028814400139134107,0.34564665765940755,-0.021618000000000137,-0.027303999999999995,-0.891312,0.21846799999999988,-0.027662999999999993,-0.888054,0.24008600000000002,0.0003589999999999982,0.003257999999999983,0.9954876138354811,0.957217631309344,double,-0.888054
52,0.433333,stair_decsent,0.0,0.0,0.0,0.0,0.0,0.0,0.0016800672027097656,0.0014400576023055264,-0.0031201248050019685,-0.005040201608049358,-0.002280091203647086,-0.0014400576023055264,0.0,0.0,0.0,-0.07200576034289367,0.3456276496593124,-0.40323225793746215,-0.08640691241082732,-0.1440115206905794,-0.6768541472490881,-0.021603999999999957,-0.027291999999999983,-0.8913380000000001,0.218426,-0.027681999999999984,-0.888066,0.24002999999999997,0.00039000000000000146,0.0032720000000000526,0.9936247940115268,0.9577528146215548,double,-0.888066
53,0.441667,stair_decsent,0.0,0.0,0.0,0.0,0.0,0.0,0.0026397888168906425,-0.00035997120230084735,-0.001559875209974779,0.00035997120230084735,-0.0021598272138250666,0.006959443244540776,0.0,0.0,0.0,0.11515738111121698,-0.21598617765855338,0.18721497420532737,0.6479688997300499,0.01443052433669546,1.007859472863733,-0.02158199999999999,-0.027294999999999958,-0.891351,0.21842899999999998,-0.027700000000000002,-0.888008,0.24001099999999997,0.0004050000000000442,0.003342999999999985,0.9948545395047456,0.9544103806786963,double,-0.888008
54,0.45,stair_decsent,0.0,0.0,0.0,0.0,0.0,0.0,0.0018000720028652538,0.0001200048001887964,0.0003600144005730508,0.002520100804038002,0.0014400576023055264,-0.00504020160806268,0.0,0.0,0.0,-0.10077004848498562,0.05759942427572804,0.23039596910450277,0.2592259212453073,0.4320034580739923,-1.4400149829117252,-0.021567000000000114,-0.027293999999999985,-0.891348,0.21845000000000003,-0.02768799999999999,-0.88805,0.24001700000000015,0.00039400000000000546,0.003298000000000023,0.9969339354140909,0.9573263155997792,double,-0.88805
55,0.458333,stair_decsent,0.0,0.0,0.0,0.0,0.0,0.0,0.006000240009613062,0.001560062402494333,-0.012360494419772529,-0.005760230409222144,-0.003240129605184125,0.002640105604220154,0.0,0.0,0.0,0.5040403224226351,0.172813824829658,-1.5265221193262464,-0.9936794927709308,-0.5616449306959873,0.9216737324232394,-0.02151700000000001,-0.027281,-0.891451,0.21840199999999999,-0.02771499999999999,-0.888028,0.239919,0.00043399999999998995,0.003422999999999954,0.9769530372467514,0.9539086655440707,double,-0.888028
56,0.466667,stair_decsent,0.0,0.0,0.0,0.0,0.0,0.0,0.00755939524837103,0.008999280057594393,-0.01679865610751486,-0.007559395248397674,-0.004319654427643443,0.002639788816890625,0.0,0.0,0.0,0.18708366195799941,0.8926347078353795,-0.5325367995851125,-0.2158825101002554,-0.1295326160858312,-3.8011438628393886e-05,-0.021454000000000084,-0.027206000000000008,-0.891591,0.21833899999999984,-0.02775099999999997,-0.8880060000000001,0.23979299999999992,0.0005449999999999622,0.0035849999999999493,0.9658302300151362,0.9489867809876871,double,-0.8880060000000001
57,0.475,stair_decsent,0.0,0.0,0.0,0.0,0.0,0.0,-0.00924036961477054,0.02232089283571582,-0.025921036841473,-0.006840273610941304,-0.003360134405379584,0.0001200048001954588,0.0,0.0,0.0,-2.01605242567402,1.5986574796737623,-1.0947294772540697,0.08629804841670131,0.11514700855200548,-0.3023861774505187,-0.021530999999999967,-0.02701999999999999,-0.891807,0.21828199999999987,-0.027778999999999998,-0.888005,0.23981299999999983,0.0007590000000000097,0.003801999999999972,0.940944780112685,0.9492767362628927,double,-0.888005
58,0.483333,stair_decsent,0.0,0.0,0.0,0.0,0.0,0.0,-0.01116044641787116,0.009840393615747768,-0.036121444857793644,-0.007680307212269494,-0.0036001440057571543,0.002160086403451628,0.0,0.0,0.0,-0.23041843310939786,-1.4977198151887676,-1.2240979258755071,-0.10080806448196165,-0.028802304137473825,0.24481958517414623,-0.021624000000000088,-0.026937999999999962,-0.892108,0.21821800000000002,-0.027808999999999973,-0.8879870000000001,0.2398420000000001,0.0008710000000000107,0.00412099999999993,0.9348900995458522,0.9442017504470019,double,-0.8879870000000001
59,0.491667,stair_decsent,0.0,0.0,0.0,0.0,0.0,0.0,-0.004919606431480405,0.012359011279093368,0.017878569714417397,-0.007559395248397674,-0.0016798656107528183,0.0017998560115175463,0.0,0.0,0.0,0.7488408910956023,0.3022099428060472,6.479483389994119,0.01450827500261813,0.2304149742025839,-0.04322418909696199,-0.021665000000000045,-0.026834999999999998,-0.8919590000000001,0.21815499999999988,-0.027822999999999987,-0.8879720000000001,0.23981999999999992,0.0009879999999999889,0.003986999999999963,0.9628594657539059,0.9468796450095898,double,-0.8879720000000001
60,0.5,stair_decsent,0.0,0.0,0.0,0.0,0.0,0.0,-0.010080403216125428,0.000240009600384256,0.008280331213246839,-0.00444017760708542,-0.003240129605184125,0.003000120004806531,0.0,0.0,0.0,-0.6193203869728832,-1.4543383749800962,-1.151834693528211,0.37432108980106343,-0.18723916889851322,0.1440374406923062,-0.02174900000000002,-0.026832999999999996,-0.8918900000000001,0.21811800000000003,-0.027849999999999986,-0.887947,0.23986700000000005,0.0010169999999999901,0.00394300000000003,0.9782542457139447,0.9501331080238182,double,-0.887947
61,0.508333,stair_decsent,0.0,0.0,0.0,0.0,0.0,0.0,-0.0019200768030740352,-0.0002400096003842544,0.0004800192007685088,-0.0037201488059659354,-0.004560182407294172,0.005400216008635731,0.0,0.0,0.0,0.979278340699791,-0.05760460827655207,-0.9360748844927754,0.08640691241083424,-0.15841267276011536,0.2880230413811581,-0.021765000000000034,-0.026834999999999998,-0.8918860000000001,0.21808699999999992,-0.02788799999999997,-0.8879020000000001,0.23985199999999995,0.0010529999999999706,0.0039839999999999876,0.9966772175435312,0.9468478184789009,double,-0.8879020000000001
62,0.516667,stair_decsent,0.0,0.0,0.0,0.0,0.0,0.0,0.0016798656107461687,-0.0016798656107461687,-0.0013198944084453212,-0.0034797216222770488,-0.005879529637631573,0.008279337652986097,0.0,0.0,0.0,0.43195853297578884,-0.17276889973145218,-0.21597235531723544,0.028848954126336458,-0.15830900292025543,0.3454669599652486,-0.021751000000000076,-0.026848999999999956,-0.891897,0.21805799999999986,-0.02793699999999999,-0.8878330000000001,0.23980899999999994,0.0010880000000000334,0.0040639999999999565,0.9954704617019132,0.9414695336297296,double,-0.8878330000000001
63,0.525,stair_decsent,0.0,0.0,0.0,0.0,0.0,0.0,0.007200288011514309,-0.002760110404422256,-0.006120244809795156,-0.005040201608049358,-0.0061202448097884945,0.0085203408136377,0.0,0.0,0.0,0.6624771871796612,-0.12963456062355488,-0.5760650907656084,-0.18726508889623214,-0.02888697613787596,0.028921536139637848,-0.021691000000000127,-0.026872000000000007,-0.8919480000000001,0.218016,-0.027987999999999957,-0.887762,0.23970700000000011,0.0011159999999999504,0.004186000000000023,0.9835920282395365,0.9387423171227657,double,-0.887762
64,0.533333,stair_decsent,0.0,0.0,0.0,0.0,0.0,0.0,0.0033601344053929296,-0.006000240009599778,0.00108004320173249,-0.00432017280692996,-0.007560302412100783,0.011520460818431041,0.0,0.0,0.0,-0.46083686620921804,-0.3888311058655408,0.8640691241482914,0.08640691241082493,-0.1728138248304694,0.36002880172727336,-0.021662999999999988,-0.026922,-0.891939,0.21797999999999984,-0.028050999999999993,-0.8876660000000001,0.23964299999999983,0.0011289999999999911,0.004272999999999971,0.9883978119026439,0.9332016319211089,double,-0.8876660000000001
65,0.541667,stair_decsent,0.0,0.0,0.0,0.0,0.0,0.0,0.012958963282936905,-0.008039356851449872,-0.00959923206143129,-0.003719702423793135,-0.008039356851449872,0.011279097672190758,0.0,0.0,0.0,1.1517673239193547,-0.24467444706624408,-1.2814105187381446,0.07205068192186469,-0.05748193416715685,-0.028961260647981952,-0.02155499999999999,-0.026988999999999985,-0.892019,0.21794899999999995,-0.028117999999999976,-0.887572,0.23950399999999994,0.0011289999999999911,0.004446999999999979,0.9699670900824024,0.9316271010007071,double,-0.887572
66,0.55,stair_decsent,0.0,0.0,0.0,0.0,0.0,0.0,0.009360374414979259,-0.005400216008642393,-0.014640585623432857,-0.009240369614797125,-0.011160446417857836,0.013680547221882515,0.0,0.0,0.0,-0.43184793807243865,0.31670956951967694,-0.6049866269052617,-0.6625065631830033,-0.3745457297981461,0.28818547338194495,-0.02147699999999997,-0.027034000000000002,-0.8921410000000001,0.21787199999999984,-0.028210999999999986,-0.8874580000000001,0.2393489999999998,0.0011769999999999836,0.004682999999999993,0.9696719011143835,0.9199578299098852,double,-0.8874580000000001
67,0.558333,stair_decsent,0.0,0.0,0.0,0.0,0.0,0.0,0.006840273610941349,-0.007080283211325606,0.006360254410186157,-0.009600384015343657,-0.016080643225731935,0.019200768030727285,0.0,0.0,0.0,-0.30242419345229005,-0.20161612896714615,2.5202016120987887,-0.04320345620383242,-0.5904472348342906,0.6624529951811857,-0.021419999999999995,-0.027092999999999978,-0.892088,0.21779199999999999,-0.02834500000000001,-0.887298,0.23921199999999998,0.0012520000000000309,0.004789999999999961,0.9804656577630139,0.9073965340405017,double,-0.887298
68,0.566667,stair_decsent,0.0,0.0,0.0,0.0,0.0,0.0,0.009599232061417969,-0.0027597792176619956,-0.00155987520998808,-0.010799136069131849,-0.019438444924405357,0.020038396928248974,0.0,0.0,0.0,0.3310485301747779,0.5184190057191718,-0.9503395272587204,-0.14383873935543348,-0.4029039715230857,0.10050742710843323,-0.021340000000000137,-0.027115999999999973,-0.892101,0.21770199999999984,-0.028507000000000005,-0.887131,0.23904199999999998,0.001391000000000031,0.00497000000000003,0.9831514220704001,0.9004109054342414,double,-0.887131
69,0.575,stair_decsent,0.0,0.0,0.0,0.0,0.0,0.0,0.009240369614797248,-0.0015600624024943435,-0.008280331213246894,-0.010800432017271606,-0.01944077763110488,0.01920076803071396,0.0,0.0,0.0,-0.04306521620313504,0.14397177669118721,-0.80648697987026,-0.0001555199975708395,-0.00027993600138276277,-0.10051948848374208,-0.021263000000000032,-0.02712899999999996,-0.89217,0.21761199999999992,-0.028669,-0.8869710000000001,0.23887499999999995,0.0015400000000000413,0.005198999999999954,0.9791578611729602,0.8990411136300971,double,-0.8869710000000001
70,0.583333,stair_decsent,0.0,0.0,0.0,0.0,0.0,0.0,0.005280211208440274,-0.0038401536061480703,-0.0014400576023055264,-0.012960518420736413,-0.023880955238209996,0.026521060842436793,0.0,0.0,0.0,-0.47523801828356627,-0.27362188931401865,0.8208656679396783,-0.25922073724526556,-0.532842626557674,0.8784702762177851,-0.0212190000000001,-0.02716099999999999,-0.892182,0.21750399999999992,-0.028868000000000005,-0.88675,0.23872300000000002,0.001707000000000014,0.005431999999999992,0.9888568436520052,0.8823984042677347,double,-0.88675
71,0.591667,stair_decsent,0.0,0.0,0.0,0.0,0.0,0.0,0.003839692824577845,0.0003599712023075034,-0.006719462443011228,-0.010559155267589073,-0.020998320134386777,0.020998320134393438,0.0,0.0,0.0,-0.17284837819323468,0.5039746590419416,-0.6334779026524672,0.2881405271355078,0.3458885413754736,-0.6626758708955259,-0.021187000000000067,-0.02715799999999996,-0.8922380000000001,0.21741599999999983,-0.029042999999999985,-0.886575,0.2386029999999999,0.0018850000000000255,0.005663000000000085,0.9870874742361617,0.8908407844016052,double,-0.886575
72,0.6,stair_decsent,0.0,0.0,0.0,0.0,0.0,0.0,0.002640105604220172,0.001440057602298884,-0.00972038881555244,-0.01680067202685806,-0.02436097443897883,0.02916116644665732,0.0,0.0,0.0,-0.14395622469190975,0.1296155526210717,-0.3601255697277378,-0.749011971591149,-0.4035346579373675,0.979580740701303,-0.0211650000000001,-0.027146000000000003,-0.8923190000000001,0.21727600000000002,-0.029245999999999994,-0.886332,0.23844100000000013,0.0020999999999999908,0.005987000000000076,0.9830417275001181,0.8708862019483911,double,-0.886332
73,0.608333,stair_decsent,0.0,0.0,0.0,0.0,0.0,0.0,0.0016800672026831191,0.00132005280211673,-0.007320292811709766,-0.018240729629203332,-0.022920916836672977,0.031081243249730967,0.0,0.0,0.0,-0.11520921655310798,-0.014401152067941136,0.28802304138277496,-0.17281382483442534,0.17281382482969476,0.23041843310616075,-0.021151000000000142,-0.027134999999999965,-0.8923800000000001,0.21712399999999987,-0.02943699999999999,-0.886073,0.23827500000000001,0.0023020000000000262,0.0063070000000000626,0.98729043972534,0.8657468183099182,double,-0.886073
74,0.616667,stair_decsent,0.0,0.0,0.0,0.0,0.0,0.0,0.0032397408207342692,-0.000479961603072237,-0.0017998560115175582,-0.011759059275249823,-0.02075833933285094,0.03431725461963164,0.0,0.0,0.0,0.1871458624971393,-0.21598444986668794,0.6623994240691432,0.7777382234165522,0.25948854137533606,0.38829030116399027,-0.021124000000000143,-0.02713899999999997,-0.892395,0.21702599999999994,-0.02960999999999997,-0.885787,0.23815000000000008,0.002471000000000001,0.006608000000000058,0.9937715336763482,0.8642609475547489,double,-0.885787
75,0.625,stair_decsent,0.0,0.0,0.0,0.0,0.0,0.0,0.0019200768030740352,-0.0007200288011527632,-0.004920196807867223,-0.018600744029749736,-0.030241209648389406,0.05628225129004437,0.0,0.0,0.0,-0.1583660167598978,-0.028809216138308558,-0.37445587379691003,-0.8210350119404637,-1.13798995746291,2.635905036650982,-0.021108000000000127,-0.027144999999999975,-0.892436,0.21687100000000004,-0.029862,-0.885318,0.23797900000000016,0.002717000000000025,0.007117999999999958,0.9911159517122698,0.8179120019699289,double,-0.885318
76,0.633333,stair_decsent,0.0,0.0,0.0,0.0,0.0,0.0,0.005400216008649055,0.0002400096003842544,-0.005640225609026647,-0.029041161646474797,-0.040321612864514765,0.07368294731789282,0.0,0.0,0.0,0.41763341000540083,0.11520921655310375,-0.08640691241562722,-1.2529002300162027,-1.2096967738059903,2.0881670500238068,-0.021063000000000054,-0.027142999999999973,-0.892483,0.21662899999999996,-0.030198000000000003,-0.884704,0.23769200000000001,0.00305500000000003,0.00777899999999998,0.9869794945407611,0.7740884446324214,double,-0.884704
77,0.641667,stair_decsent,0.0,0.0,0.0,0.0,0.0,0.0,0.0067194624430113176,-0.0010799136069158635,-0.00815934725222803,-0.03611711063116252,-0.04979601631869463,0.09587233021358275,0.0,0.0,0.0,0.15829690837080276,-0.15837811462684492,-0.3022704155509235,-0.8490459544861726,-1.1368374675041901,2.6625129464470914,-0.021006999999999998,-0.02715200000000001,-0.8925510000000001,0.21632799999999985,-0.030613,-0.883905,0.23733499999999985,0.003460999999999992,0.008646000000000043,0.9822915324315769,0.7236892353471516,double,-0.883905
78,0.65,stair_decsent,0.0,0.0,0.0,0.0,0.0,0.0,0.00552022080883119,-0.0016800672026831191,-0.00552022080883119,-0.0424816992679664,-0.05676227049081954,0.10836433457338095,0.0,0.0,0.0,-0.1439147526917224,-0.07202131234456416,0.3167078415212803,-0.7637811876639687,-0.8359839400125861,1.4991004871952647,-0.020961000000000007,-0.027165999999999968,-0.8925970000000001,0.2159739999999999,-0.031086000000000003,-0.8830020000000001,0.2369349999999999,0.003920000000000035,0.00959500000000002,0.9866908238252661,0.6882216272674397,double,-0.8830020000000001
79,0.658333,stair_decsent,0.0,0.0,0.0,0.0,0.0,0.0,0.008040321612869298,-0.0031201248049953488,-0.006720268810745889,-0.039121564862600676,-0.06888275531020865,0.14124564982599236,0.0,0.0,0.0,0.3024241934523139,-0.17281382483046234,-0.14401152069059292,0.4032322579342076,-1.4545163589810661,3.945915666940083,-0.020893999999999968,-0.027191999999999994,-0.892653,0.21564799999999984,-0.031659999999999966,-0.8818250000000001,0.2365419999999998,0.004467999999999972,0.010827999999999949,0.9817773063244233,0.6218143353523953,double,-0.8818250000000001
80,0.666667,stair_decsent,0.0,0.0,0.0,0.0,0.0,0.0,0.005039596832238439,-0.0029997600191981107,-0.0008399328053730732,-0.025677945764331033,-0.07031437485001517,0.15886729061674848,0.0,0.0,0.0,-0.3600581690221786,0.01444261888615756,0.7055838739348178,1.613105243372875,-0.17178060232859407,2.1144277406714647,-0.020852000000000093,-0.02721699999999999,-0.89266,0.2154339999999999,-0.032246,-0.8805010000000001,0.236286,0.005029000000000006,0.01215899999999992,0.9901255684380443,0.5857104752825737,double,-0.8805010000000001
81,0.675,stair_decsent,0.0,0.0,0.0,0.0,0.0,0.0,0.009120364814588344,-0.0057602304092154435,0.005280211208440274,-0.025441017640690997,-0.08340333613344512,0.18408736349454324,0.0,0.0,0.0,0.48971174635184056,-0.33126969758998215,0.7344466595239796,0.02843251213728976,-1.5707381835389298,3.0265298065276203,-0.020776000000000128,-0.027264999999999984,-0.8926160000000001,0.21522200000000002,-0.032941,-0.878967,0.23599800000000015,0.005676000000000014,0.013649000000000022,0.979983205723126,0.5240188805974344,double,-0.878967
82,0.683333,stair_decsent,0.0,0.0,0.0,0.0,0.0,0.0,0.011160446417871308,-0.007200288011521066,0.006600264010563753,-0.048121924877007005,-0.1171246849873978,0.22740909636385423,0.0,0.0,0.0,0.24481958517736507,-0.1728138248296695,0.1584126727617294,-2.721817741067589,-4.046723731423614,5.198815896953244,-0.020683000000000007,-0.027324999999999988,-0.892561,0.21482099999999993,-0.033916999999999975,-0.8770720000000001,0.23550399999999994,0.006591999999999987,0.015488999999999975,0.975281406194247,0.4112999782281479,single,-0.8770720000000001
83,0.691667,stair_decsent,0.0,0.0,0.0,0.0,0.0,0.0,0.015478761699069445,-0.006959443244540683,0.00863930885528683,-0.020038396928248974,-0.13030957523398073,0.23302135829133483,0.0,0.0,0.0,0.5181563812332739,0.02889906011283675,0.24466580810211913,3.369753773549054,-1.5820602647687592,0.6734175578930354,-0.02055399999999996,-0.02738299999999999,-0.8924890000000001,0.2146539999999999,-0.03500299999999998,-0.8751300000000001,0.23520799999999986,0.007619999999999988,0.017359000000000013,0.968260453535954,0.38018796953804235,single,-0.8751300000000001
84,0.7,stair_decsent,0.0,0.0,0.0,0.0,0.0,0.0,0.013920556822273616,-0.005640225609026723,0.005880235209417641,-0.06972278891155022,-0.16296651866074768,0.24348973958959283,0.0,0.0,0.0,-0.18699206489809714,0.15831244875962705,-0.3311020815875691,-5.9623655326175085,-3.918989970810902,1.2562560060312127,-0.020437999999999956,-0.02743000000000001,-0.89244,0.21407299999999996,-0.03636099999999998,-0.873101,0.23451099999999991,0.008930999999999967,0.019338999999999995,0.9731169604644622,0.30661000000000005,single,-0.873101
85,0.708333,stair_decsent,0.0,0.0,0.0,0.0,0.0,0.0,0.01380055202206465,-0.007200288011514309,0.002400096003842544,-0.0837633505340315,-0.19656786271450782,0.26581063242529196,0.0,0.0,0.0,-0.014401152071158795,-0.18721497689758543,-0.41763341000541016,-1.6849347920894304,-4.032322579354374,2.6786142848552785,-0.02032300000000009,-0.02748999999999996,-0.89242,0.21337499999999987,-0.03799899999999998,-0.870886,0.23369799999999996,0.010509000000000018,0.021533999999999942,0.9737501405088347,0.2846600000000006,single,-0.870886
86,0.716667,stair_decsent,0.0,0.0,0.0,0.0,0.0,0.0,0.005999520038409543,-0.008159347252221259,0.011759059275249667,-0.08075353971681287,-0.22282217422605993,0.2604991600671967,0.0,0.0,0.0,-0.9360489541222758,-0.11507790265262091,1.1229857537085497,0.36114840619373706,-3.1502653601574164,-0.637325696915673,-0.020272999999999985,-0.02755799999999997,-0.8923220000000001,0.21270199999999995,-0.039855999999999975,-0.868715,0.23297499999999993,0.012298000000000003,0.023607000000000045,0.974134715280019,0.26392999999999955,single,-0.868715
87,0.725,stair_decsent,0.0,0.0,0.0,0.0,0.0,0.0,-0.02868114724590213,0.04104164166566808,-0.07776311052441952,-0.09120364814593794,-0.2595703828153148,0.2779311172446905,0.0,0.0,0.0,-4.161846547979358,5.904354844340548,-10.743090099564384,-1.2540631740219805,-4.409961429167792,2.091918538040796,-0.020512000000000086,-0.027215999999999962,-0.89297,0.21194199999999985,-0.04201899999999997,-0.866399,0.23245399999999994,0.01480300000000001,0.02657100000000001,0.8458524704095014,0.2342899999999999,single,-0.866399
88,0.733333,stair_decsent,0.0,0.0,0.0,0.0,0.0,0.0,0.004920196807867223,-0.002880115204611053,-0.0003600144005730508,-0.08448337933515096,-0.2714508580343219,0.27529101164046665,0.0,0.0,0.0,4.03232257935548,-5.2708216572997655,9.28874308458492,0.8064645158750693,-1.4257140548430387,-0.3168253455206805,-0.020471000000000128,-0.027239999999999986,-0.892973,0.21123800000000004,-0.04428099999999999,-0.864105,0.23170900000000016,0.017041,0.028868000000000005,0.9904791149762747,0.21131999999999995,single,-0.864105
89,0.741667,stair_decsent,0.0,0.0,0.0,0.0,0.0,0.0,0.000959923206144474,0.0007199424046083555,-0.00791936645068525,-0.10871130309576177,-0.35361171106311756,0.29949604031676946,0.0,0.0,0.0,-0.4751948166214028,0.431972355317906,-0.9070496820389059,-2.9071182818107686,-9.858513682360947,2.904371091469036,-0.02046300000000012,-0.02723399999999998,-0.893039,0.21033199999999996,-0.04722799999999999,-0.8616090000000001,0.23079500000000008,0.019994000000000012,0.03142999999999996,0.9866504125523705,0.18570000000000042,single,-0.8616090000000001
90,0.75,stair_decsent,16.588983559342307,-14.953678147125819,-107.95355814232525,363.1523064968695,1.8158840967122287,-70.12120124072875,-0.049321972878907654,0.026881075243009846,-0.060242409696387896,-0.07836313452538245,-0.25381015240609256,0.205208208328331,1990.7576574273655,-1794.513158181418,-12954.945174885972,-6.034068892961948,3.1394615190689286,-6.2790163501382965,3.6419259054817226,11.976666105487169,-11.3149924383101,-0.15911000000000008,0.09759899999999999,0.006036000000000041,0.07144299999999992,0.075266,0.03967799999999999,0.230553,0.022332999999999992,0.03364199999999995,0.862720913414846,0.1635800000000005,single,0.03967799999999999
91,0.758333,stair_decsent,-0.05688227529102166,-0.2460098403936176,0.23772950918036748,-1.4399097562806848,-1.1247599893100684,-1.2723390271897952,-0.022320892835715672,0.022200888035520214,-0.014040561622468889,0.03252130085202317,-0.3009720388815552,0.21240849633985862,-1997.5838035081313,1764.9907964397146,12983.473857134906,3.2402592155516463,-0.5616449306959813,5.544443546612122,13.306664511869092,-5.659652763166021,0.8640691241482756,-0.15882200000000002,0.099834,0.003937999999999997,0.07218799999999992,0.07480800000000001,0.03946700000000003,0.23100999999999994,0.025025999999999993,0.03552900000000003,0.9425485940307532,0.14470999999999967,single,0.03946700000000003
92,0.766667,stair_decsent,0.0,0.0,0.0,0.0,0.0,0.0,0.0563954883609279,-0.03167746580273434,0.06839452843773383,-0.09407247420205188,-0.49736021118310936,0.2752579793616548,6.8253270087619375,29.518819341686942,-28.525259080917785,9.445210126787138,-6.464885269769002,9.89141949366489,-15.190037803464815,-23.564695500546588,7.541334655843118,-0.15835200000000005,0.09957000000000002,0.0045080000000000675,0.07140400000000002,0.070663,0.04176100000000005,0.22975600000000007,0.028907000000000016,0.03725299999999998,0.843105445288077,0.1274700000000002,single,0.04176100000000005
93,0.775,stair_decsent,0.0,0.0,0.0,0.0,0.0,0.0,-0.0027601104044022713,-0.0020400816032628316,0.007440297611891901,-0.09408376335054779,-0.33817352694107466,0.16908676347053733,0.0,0.0,0.0,-7.098955810071994,3.556628369071329,-7.314800291112645,-0.0013547520095892988,19.10316623569351,-12.741055549156009,-0.15837499999999993,0.09955300000000003,0.004569999999999963,0.0706199999999999,0.06784500000000002,0.04317000000000004,0.22899499999999984,0.031708000000000014,0.03860000000000008,0.9863436857353676,0.11399999999999921,single,0.04317000000000004
94,0.783333,stair_decsent,0.0,0.0,0.0,0.0,0.0,0.0,0.010080403216125496,-0.02208088323533171,0.00216008640346498,-0.33493339733589506,-0.5921036841473706,0.3549741989679639,0.0,0.0,0.0,1.540923271394202,-2.4049923955441095,-0.633650691038878,-28.903112202730043,-30.472837778266918,22.307384555073593,-0.15829099999999996,0.09936900000000001,0.0045880000000000365,0.06782899999999992,0.06291100000000002,0.04612800000000006,0.22611999999999988,0.03645799999999999,0.04154000000000002,0.9593850770883663,0.08459999999999979,single,0.04612800000000006
95,0.791667,stair_decsent,0.0,0.0,0.0,0.0,0.0,0.0,0.011039116870647982,-0.005039596832251761,0.00035997120230084253,-0.37077033837290513,-0.5077993760499138,0.2050635949124007,0.0,0.0,0.0,0.11503643562784727,2.04479078510677,-0.21599654441614158,-4.300088917327789,10.115707715077534,-17.987833459990647,-0.15819899999999998,0.09932700000000003,0.004591000000000012,0.0647390000000001,0.05867900000000001,0.04783700000000002,0.22293800000000008,0.04064800000000002,0.04324600000000001,0.9797660065468781,0.06753999999999993,single,0.04783700000000002
96,0.8,stair_decsent,0.0,0.0,0.0,0.0,0.0,0.0,0.013320532821309464,-0.0007200288011527632,-0.0032401296051841034,-0.2115684627385304,-0.5421816872674877,0.09504380175207147,0.0,0.0,0.0,0.27378086531398926,0.5183688984878171,-0.43202937807331465,19.104989275695917,-4.12604238780437,-13.202903295371266,-0.158088,0.09932100000000002,0.0045640000000000125,0.06297599999999992,0.054161000000000015,0.04862900000000003,0.22106399999999993,0.045160000000000006,0.04406500000000002,0.9771202736530264,0.05934999999999979,single,0.04862900000000003
97,0.808333,stair_decsent,0.0,0.0,0.0,0.0,0.0,0.0,0.022800912036471162,-0.0038401536061481215,-0.001800072002878601,-0.3192127685107295,-0.5929437177487155,0.0584423376935101,0.0,0.0,0.0,1.1376910134599525,-0.3744299537975983,0.17281382482965504,-12.91783340600025,-6.091687325240394,-4.392351381082648,-0.1578980000000001,0.09928899999999999,0.004549000000000025,0.060316000000000036,0.049220000000000014,0.04911600000000005,0.21821400000000013,0.050068999999999975,0.04456700000000002,0.9613466751239929,0.05432999999999977,single,0.04911600000000005
98,0.816667,stair_decsent,0.0,0.0,0.0,0.0,0.0,0.0,0.0008399328053863948,0.01271898248140079,-0.022678185745139582,-0.34953203743699557,-0.7393808495320319,0.05387568994479461,0.0,0.0,0.0,-2.6351066991942167,1.9869373755158128,-2.5051732352124816,-3.638021229453545,-17.571050129987437,-0.5479538935343722,-0.157891,0.09939499999999998,0.0043600000000000305,0.05740300000000009,0.04305800000000001,0.04956499999999997,0.2152940000000001,0.05633699999999997,0.04520499999999994,0.956641734378591,0.0479500000000006,single,0.04956499999999997
99,0.825,stair_decsent,0.0,0.0,0.0,0.0,0.0,0.0,-0.009240369614797248,0.0331213248530009,-0.018000720028799336,-0.35845433817353894,-0.765030601224055,-0.0064802592103682935,0.0,0.0,0.0,-1.2096846778091606,2.4483790197528257,0.5613183386943824,-1.0707189171419005,-3.0780933267758717,-7.243003618764365,-0.1579680000000001,0.09967100000000004,0.004210000000000047,0.05441600000000002,0.03668300000000002,0.04951099999999997,0.21238400000000013,0.06298800000000002,0.045300999999999925,0.9353120200030411,0.04699000000000075,single,0.04951099999999997
100,0.833333,stair_decsent,0.0,0.0,0.0,0.0,0.0,0.0,-0.02316092643704391,0.03924156966278229,-0.01788071522861696,-0.4696987879515129,-0.8439937597503878,0.004920196807880545,0.0,0.0,0.0,-1.670533640015193,0.7344587555239849,0.014401152067967679,-13.34986796807554,-9.47595806148236,1.3681094465677177,-0.158161,0.099998,0.004060999999999981,0.05050200000000005,0.02965000000000001,0.04955200000000004,0.20866300000000004,0.070348,0.04549100000000006,0.9184175726964159,0.04508999999999941,single,0.04955200000000004
101,0.841667,stair_decsent,0.0,0.0,0.0,0.0,0.0,0.0,-0.029757619390451653,0.033717302615794226,-0.012718982481394128,-0.3858891288697004,-0.7936165106791406,-0.14974802015838942,0.0,0.0,0.0,-0.7915398312224253,-0.6628590169172094,0.6193583809962555,10.056354581450906,6.0447863056451645,-18.55870133984507,-0.15840900000000002,0.10027900000000003,0.003955000000000042,0.04728599999999994,0.023036,0.048304000000000014,0.20569499999999996,0.07724300000000003,0.04434899999999997,0.9221086061872394,0.05651000000000028,single,0.048304000000000014
102,0.85,stair_decsent,0.0,0.0,0.0,0.0,0.0,0.0,-0.015960638425529815,0.055082203288130495,-0.04416176647066342,-0.37417496699867786,-0.8898355934237423,-0.11196447857913959,0.0,0.0,0.0,1.6557039439483936,2.563890636305828,-3.773285010112754,1.4057556547489067,-11.546751799424284,4.534206357764332,-0.15854199999999996,0.10073800000000002,0.003587000000000007,0.044167999999999985,0.015621000000000024,0.04737100000000005,0.20270999999999995,0.085117,0.043784000000000045,0.8793644985476814,0.06215999999999955,single,0.04737100000000005
103,0.858333,stair_decsent,0.0,0.0,0.0,0.0,0.0,0.0,-0.03204128165126798,0.07044281771270872,0.01476059042361499,-0.410416416656662,-0.8559942397695872,-0.1924876995079855,0.0,0.0,0.0,-1.9297543772636625,1.8433474648479728,7.070965665940017,-4.349147924875075,4.061124883493933,-9.663173038383004,-0.15880899999999998,0.10132500000000003,0.003709999999999991,0.040748000000000006,0.008488000000000023,0.045767,0.19955699999999998,0.092837,0.04205700000000001,0.8686955475196892,0.07942999999999989,single,0.045767
104,0.866667,stair_decsent,0.0,0.0,0.0,0.0,0.0,0.0,-0.05711543076552959,0.03779697624190203,0.03455723542117442,-0.4092872570194471,-0.8668106551475941,-0.22618190544756855,0.0,0.0,0.0,-3.0086572011353194,-3.9171876014887057,2.375407367117776,0.13548831740039466,-1.2978660160795523,-4.04298127424805,-0.1592849999999999,0.10164000000000004,0.003998000000000057,0.037336999999999954,0.0012640000000000151,0.04388199999999998,0.19662199999999985,0.10037600000000002,0.03988399999999992,0.8721438920274764,0.1011600000000008,single,0.04388199999999998
105,0.875,stair_decsent,0.0,0.0,0.0,0.0,0.0,0.0,-0.04068162726510114,0.03984159366374626,0.01008040321612536,-0.38701548061922714,-0.9135965438617517,-0.19680787231488875,0.0,0.0,0.0,1.9721353054636246,0.24536390517751389,-2.9373373581001987,2.6727200768294606,-5.614531226947962,3.5250249769206388,-0.159624,0.10197200000000003,0.00408200000000003,0.03411199999999992,-0.0063489999999999935,0.042242,0.1937359999999999,0.10832100000000003,0.03815999999999997,0.9036216669173662,0.11840000000000028,single,0.042242
106,0.883333,stair_decsent,0.0,0.0,0.0,0.0,0.0,0.0,-0.020400816032641638,-0.040081603264130516,0.08004320172806557,-0.3261730469218753,-0.8378735149405927,-0.31621264850593206,0.0,0.0,0.0,2.4337946996831175,-9.591167278036295,8.395871656299043,7.30138409904615,9.087126955617268,-14.329146308777489,-0.159794,0.10163800000000003,0.004749000000000003,0.03139399999999992,-0.013330999999999982,0.03960700000000006,0.1911879999999999,0.11496900000000002,0.034858000000000056,0.8469781936572742,0.15141999999999944,single,0.03960700000000006
107,0.891667,stair_decsent,0.0,0.0,0.0,0.0,0.0,0.0,-0.010919126469890062,-0.0021598272138250666,0.0045596352291795905,-0.4131269498439984,-0.9242860571154379,-0.22990160787137506,0.0,0.0,0.0,1.1377117305917483,4.5502491061081916,-9.057303395594722,-10.43363365996203,-10.368675566936124,10.356496356438383,-0.15988500000000005,0.10162000000000002,0.004786999999999986,0.02795100000000006,-0.021033999999999997,0.03769100000000003,0.18783600000000011,0.12265400000000001,0.032904000000000044,0.9799526636652834,0.17095999999999956,single,0.03769100000000003
108,0.9,stair_decsent,0.0,0.0,0.0,0.0,0.0,0.0,-0.008160326413051327,-0.00552022080883119,0.00552022080883119,-0.39205568222730314,-0.9282371294851746,-0.24972998919956688,0.0,0.0,0.0,0.3310692495906305,-0.4032633619352105,0.11527488055341356,2.5286532601338254,-0.47414765027441125,-2.3795009394205846,-0.159953,0.10157400000000003,0.004832999999999976,0.024683999999999928,-0.02876899999999999,0.03561000000000003,0.18463699999999994,0.13034300000000001,0.030777000000000054,0.9811779825496805,0.19222999999999946,single,0.03561000000000003
109,0.908333,stair_decsent,0.0,0.0,0.0,0.0,0.0,0.0,-0.004200168006721177,-0.00036001440057971716,0.015960638425543138,-0.3271330853234167,-0.8581543261730553,-0.3610944437777591,0.0,0.0,0.0,0.4752380182803535,0.6192495389717412,1.252900230014646,7.791023269397223,8.410272808366722,-13.364269120147998,-0.15998800000000002,0.101571,0.004966000000000026,0.021957999999999922,-0.035919999999999994,0.03260099999999999,0.18194599999999994,0.13749099999999997,0.027634999999999965,0.9724867203475489,0.22365000000000035,single,0.03260099999999999
110,0.916667,stair_decsent,0.0,0.0,0.0,0.0,0.0,0.0,0.02591792656587381,-0.010919126469883255,0.016558675305971972,-0.22714182865369667,-0.8516918646508206,-0.35925125989919826,0.0,0.0,0.0,3.6138822381323203,-1.266992088949299,0.07175868495666296,11.997990961089421,0.7754333480003217,0.22116437227751945,-0.15977200000000003,0.10147999999999999,0.005103999999999997,0.020065,-0.04301799999999999,0.02960700000000005,0.17983700000000002,0.14449799999999996,0.024503000000000053,0.945605454516,0.2549699999999995,single,0.02960700000000005
111,0.925,stair_decsent,0.0,0.0,0.0,0.0,0.0,0.0,0.0982839313572689,-0.11688467538701197,0.020640825633032555,-0.24156966278651557,-0.8564742589703558,-0.37609504380176023,0.0,0.0,0.0,8.684267945685201,-12.716374525036393,0.48987763435264203,-1.7314093523123526,-0.5739102747552117,-2.0213349217042964,-0.1589529999999999,0.10050600000000001,0.005276000000000058,0.018051999999999957,-0.05015499999999999,0.02647299999999997,0.17700499999999986,0.150661,0.02119699999999991,0.7431613012339545,0.2880300000000009,single,0.02647299999999997
112,0.933333,stair_decsent,0.0,0.0,0.0,0.0,0.0,0.0,0.02196087843511627,-0.1087243489739621,-0.1135245409816406,-0.3398535941437623,-0.7585503420136867,-0.6035041401656062,0.0,0.0,0.0,-9.159132715967038,0.979278340699621,-16.100488013281456,-11.794543544611502,11.75134008840394,-27.290183170988602,-0.15877000000000008,0.0996,0.004330000000000056,0.015220000000000011,-0.056475999999999985,0.02144400000000002,0.1739900000000001,0.156076,0.017113999999999963,0.7354716689897425,0.3288600000000004,single,0.02144400000000002
113,0.941667,stair_decsent,0.0,0.0,0.0,0.0,0.0,0.0,0.04667626589872447,-0.04559635229181528,-0.020998320134393438,-0.2050635949124007,-0.7732181425485909,-0.4619630429565624,0.0,0.0,0.0,2.96560924689321,7.574753621567837,11.102258321003893,16.17350602728109,-1.75999526456733,16.983572979246784,-0.1583810000000001,0.09922,0.00415500000000002,0.01351100000000005,-0.06291999999999999,0.017594,0.17189200000000016,0.16214,0.013438999999999979,0.8857557369658932,0.3656100000000002,single,0.017594
114,0.95,stair_decsent,0.0,0.0,0.0,0.0,0.0,0.0,0.04512180487221378,-0.021000840033599224,-0.017160686427457765,-0.14664586583464148,-0.7476299051962146,-0.4566182647305871,0.0,0.0,0.0,-0.18654278489268014,2.9515795341673203,0.4605344662109334,7.010407905647396,3.070711310737608,0.6413990430787636,-0.15800499999999995,0.09904500000000002,0.0040120000000000156,0.012288999999999994,-0.06914999999999999,0.013789000000000051,0.17029399999999995,0.168195,0.009777000000000036,0.9122582432535288,0.40222999999999964,single,0.013789000000000051
115,0.958333,stair_decsent,0.0,0.0,0.0,0.0,0.0,0.0,0.07236289451576942,-0.08496339853593946,-0.0484819392775661,-0.11844473778951962,-0.7163086523460911,-0.46405856234249954,0.0,0.0,0.0,3.269061519687451,-7.675814052842909,-3.7587006900405857,3.3842707362440585,3.758700690042412,-0.8928714282866217,-0.15740200000000004,0.09833700000000004,0.0036080000000000556,0.011301999999999923,-0.07511899999999999,0.009921999999999986,0.16870399999999997,0.17345600000000003,0.006313999999999931,0.7972024406404337,0.4368600000000007,single,0.009921999999999986
116,0.966667,stair_decsent,0.0,0.0,0.0,0.0,0.0,0.0,0.028917686585065258,-0.016198704103677793,-0.017998560115201987,-0.07355411567074274,-0.6813054955603502,-0.4727621790256676,0.0,0.0,0.0,-5.213007911051576,8.251103243611848,3.657712882453069,5.386443738754084,4.200042810864,-1.0443504539438422,-0.1571610000000001,0.09820199999999998,0.003457999999999961,0.010688999999999949,-0.080797,0.005982000000000043,0.16785000000000005,0.17899899999999996,0.0025240000000000817,0.9371381855378378,0.4747599999999992,single,0.005982000000000043
117,0.975,stair_decsent,0.0,0.0,0.0,0.0,0.0,0.0,-0.007680307212269596,0.023640945637826056,0.0349213968558795,-0.056762270490813636,-0.6541461658466395,-0.44713788551542555,0.0,0.0,0.0,-4.391934933077546,4.780949206948784,6.350648862484335,2.015102025672538,3.2592499356427407,3.075038222757983,-0.15722499999999995,0.09839899999999999,0.0037490000000000023,0.010216000000000003,-0.08624799999999999,0.0022560000000000358,0.16744099999999995,0.18464699999999998,0.0014929999999999666,0.9136287773082091,0.5,single,0.0037490000000000023
118,0.983333,stair_decsent,-13.815432617304635,-17.15996639865587,4.082803312132468,109.05775268761715,298.7936069964104,23.863675849345526,-0.010440417616698412,-0.06000240009600364,0.07728309132364998,-0.10824432977318549,-0.5557422296891847,-0.5879035161406416,-1657.9182308057816,-2059.278338972255,489.95599569572187,-0.33122649759136014,-10.03760299217921,5.083606680399653,-6.178094237654102,11.808944696682394,-16.89255137708094,-0.04218799999999989,0.24089299999999997,-0.029629000000000016,0.12443800000000005,0.052115,-0.03666499999999995,0.16662599999999994,0.18877799999999997,0.007035999999999931,0.7656450259761369,0.5,single,-0.029629000000000016
119,0.991667,stair_decsent,-0.25641948644109286,0.7063834893208584,1.5687544996400413,-25.910980587563685,15.861223566387492,-11.20351747864745,-0.013318934485264567,-0.04475641948643615,0.07175425965922616,-0.015358771298311584,-0.6015118790496798,-0.43844492440605554,1626.9514195900672,2143.7904833185544,-301.661724561128,-0.34539439267652655,1.8293713234422342,-0.6634067271926867,11.145375386953974,-5.491918569773862,17.933596320444796,-0.04016200000000003,0.234633,-0.04210500000000006,0.12644699999999998,0.041215,-0.053393000000000024,0.166609,0.19341800000000003,0.011287999999999965,0.7444353741802863,0.5,single,-0.04210500000000006
120,1.0,stair_decsent,1.2476899075962975,-1.856354254170159,-9.293291731669227,84.7867410536554,-21.917110176443867,15.786084477654324,0.002400096003855867,-0.003960158406336867,-0.002160086403451628,0.018240729629203332,-0.5755430217208666,-0.4406576263050514,180.50034729837802,-307.5408308521549,-1303.4976876646133,1.8863591130589665,4.895747159498273,-8.87007633057452,4.0321013953575875,3.116387534958977,-0.2655348492734732,-0.05053899999999989,0.250069,0.03531799999999996,0.11620200000000014,0.051888,0.02037599999999995,0.16674100000000003,0.19818100000000002,0.01494200000000001,0.8420637918092448,0.5,single,0.03531799999999996
121,1.008333,stair_decsent,-0.4996999879995047,-0.4591383655346256,1.2672506900276144,-7.263506326673203,-2.0787922902832303,-4.045455302741573,0.0002400096003909192,-0.0008400336013482324,-0.004680187207489692,0.046081843273724166,-0.47221888875555385,-0.45013800552021876,-209.69517527850934,167.67261354080716,1267.3157832349618,-0.25922073724528594,0.37442995379679145,-0.30242419345230853,3.341067280033732,12.399391931514902,-1.1376910134606328,-0.046373,0.253888,0.024718999999999935,0.12074999999999991,0.051779000000000006,0.006064999999999987,0.1671229999999999,0.20210899999999998,0.01865399999999995,0.8055249488279985,0.5,single,0.024718999999999935
122,1.016667,stair_decsent,0.054115670746337385,-0.1912646988240926,-0.9174466042716563,8.228868971308392,-2.329697749161416,-0.08970676783309489,0.006599472042226519,0.003959683225342572,-0.0059995200383962215,0.08507319414447627,-0.5074394048476087,-0.4353251739860869,66.45256284447298,32.142268623773816,-262.14270389959853,0.7630744470645009,0.5759199456072436,-0.1583072751267722,4.67858781746482,-4.226123841139264,1.7773975922884284,-0.04676900000000006,0.255515,0.03231499999999998,0.121008,0.049144,0.010082999999999953,0.16777700000000006,0.20637099999999997,0.02223200000000003,0.761416000630883,0.5,single,0.03231499999999998
123,1.025,stair_decsent,12.841233649346083,19.691827673107106,6.81195247809919,304.6883858567975,-207.71279216879594,62.81476907199041,0.043441737669503995,0.09492379695188394,-0.17076683067322274,0.11724468978759325,-0.48121924876995514,-0.4322572902916149,1534.5155380535057,2386.0665272928572,927.5649924842095,4.4212487252223465,10.91613029239676,-19.772868190907,3.8607339065303345,3.146544591102105,0.3681607697674309,-0.15341300000000002,0.09221400000000002,-0.025872000000000006,0.014979000000000076,-0.11895800000000001,-0.05028300000000008,0.1683920000000001,0.21117200000000003,0.02441100000000007,0.4223108312455573,0.5,flight,-0.025872000000000006
124,1.033333,stair_decsent,10.27301092043663,15.753510140405341,5.449657986319358,82.15211577889932,-56.004944031545406,16.93669980546349,0.006960278411149946,0.04992199687987096,0.0006000240009506356,0.22860914436574944,-0.5371414856594171,-0.24144965798631687,-308.1990554313464,-472.6170086045477,-163.48187828870857,-4.37795022901157,-5.4004320259225,20.56484515470663,13.364269120143314,-6.710936864209886,22.89783178990696,-0.23895999999999984,-0.03864400000000001,-0.07127900000000009,-0.06872100000000003,-0.254708,-0.0977070000000001,0.1702389999999998,0.216064,0.026428000000000007,0.651705925834545,0.5,single,-0.07127900000000009
125,1.041667,stair_decsent,0.0,0.0,0.0,0.0,0.0,0.0,-0.030597552195838863,0.044036477081835036,0.0159587233021421,0.18538516918648415,-0.5133189344852506,-0.46844252459803,-1232.662697436624,-1890.269995249057,-653.9066458266692,-4.506579146507022,-0.7062058792939804,1.8428964844242568,-5.186462104543571,2.8584774627030227,-27.236965036203195,-0.23921499999999996,-0.038277000000000005,-0.07114600000000004,-0.0671759999999999,-0.258986,-0.101611,0.17203900000000005,0.220709,0.030464999999999964,0.602104470414121,0.5,single,-0.07114600000000004
126,1.05,stair_decsent,0.0,0.0,0.0,0.0,0.0,0.0,-0.0022800912036470555,-0.015360614424578752,0.002040081603269466,0.19404776191047057,-0.4011760470418745,-0.43753750150005694,0.0,0.0,0.0,3.39823124831289,-7.127936098213458,-1.6703038160173276,1.039552708986712,13.457684800596919,3.708751121801573,-0.23923399999999995,-0.03840500000000002,-0.071129,-0.06555899999999992,-0.26232900000000003,-0.10525700000000004,0.17367500000000002,0.22392399999999998,0.03412800000000005,0.6326160824382445,0.5,single,-0.071129
127,1.058333,stair_decsent,0.0,0.0,0.0,0.0,0.0,0.0,-0.0003600144005730556,-0.01248049921996807,0.00012000480018213638,0.18264730589224015,-0.32365294611784784,-0.3937357494299782,0.0,0.0,0.0,0.23041843310620633,0.34562764965927134,-0.23041843310780596,-1.3681094465655257,9.303144236652749,5.256420505229707,-0.23923699999999992,-0.038509000000000015,-0.07112800000000008,-0.0640369999999999,-0.265026,-0.10853800000000002,0.17520000000000002,0.226517,0.03740999999999994,0.6050895544190276,0.5,single,-0.07112800000000008
128,1.066667,stair_decsent,0.0,0.0,0.0,0.0,0.0,0.0,-0.0014398848092300135,-0.0032397408207342263,-0.0013198944084453037,0.22546196304295052,-0.3640508759299231,-0.4520038396928302,0.0,0.0,0.0,-0.12957408311218496,1.1088023037237549,-0.1727740831086428,5.137347870255584,-4.847363788345924,-6.9916115026219785,-0.23924900000000004,-0.038536000000000015,-0.07113900000000006,-0.062157999999999936,-0.26806,-0.1123050000000001,0.1770910000000001,0.229524,0.041166000000000036,0.5820349512957141,0.5,single,-0.07113900000000006
129,1.075,stair_decsent,0.0,0.0,0.0,0.0,0.0,0.0,0.004560182407320879,-0.012120484819395016,0.0007200288011594343,0.25645025801032945,-0.3262930517220718,-0.46309852394095535,0.0,0.0,0.0,0.7200368674608121,-1.0657319091156692,0.2448005771756578,3.718744145851339,4.531120149748186,-1.3314153663896862,-0.23921099999999984,-0.03863700000000003,-0.071133,-0.06002099999999988,-0.270779,-0.11616400000000004,0.17918999999999996,0.232142,0.04503100000000004,0.5280734003265154,0.5,single,-0.071133
130,1.083333,stair_decsent,0.0,0.0,0.0,0.0,0.0,0.0,0.033001320052777915,-0.046441857674302645,-0.013080523220931697,0.2844113764550512,-0.3012120484819342,-0.46381855274210243,0.0,0.0,0.0,3.4130730403764,-4.118729491768514,-1.656132487950425,3.3554684321038373,3.0098407824477533,-0.08640691241414426,-0.23893600000000004,-0.039024,-0.07124200000000003,-0.0576509999999999,-0.273289,-0.12002900000000005,0.18128500000000014,0.234265,0.048787000000000025,0.414704339491313,0.5,flight,-0.07124200000000003
131,1.091667,stair_decsent,0.0,0.0,0.0,0.0,0.0,0.0,0.035637149028077436,-0.04235661147108218,-0.01703863690904466,0.33825293976481385,-0.259059275257984,-0.4764818814494867,0.0,0.0,0.0,0.31627417510194045,0.49019032916013194,-0.4749356477217467,6.460470759510879,5.057928152621913,-1.5194778866552114,-0.23863900000000005,-0.039376999999999995,-0.071384,-0.05483199999999999,-0.275448,-0.124,0.18380700000000005,0.236071,0.052615999999999996,0.4034713042970602,0.5,flight,-0.071384
132,1.1,stair_decsent,0.0,0.0,0.0,0.0,0.0,0.0,0.013080523220945021,-0.0454818192727723,0.000360014400573046,0.3589343573742846,-0.2551302052082038,-0.4674186967478729,0.0,0.0,0.0,-2.706903372990762,-0.37503993780031925,2.087921674021049,2.481869387911961,0.47150726626426803,1.0876256692204087,-0.2385299999999999,-0.039756000000000014,-0.07138100000000003,-0.051841000000000026,-0.277574,-0.1278950000000001,0.18668899999999988,0.237818,0.056514000000000064,0.421122007321021,0.5,flight,-0.07138100000000003
133,1.108333,stair_decsent,0.0,0.0,0.0,0.0,0.0,0.0,0.0002400096003909192,-0.029761190447614633,0.004080163206525717,0.3901356054242343,-0.20700828033121524,-0.48169926797071866,0.0,0.0,0.0,-1.5409232713973622,1.8865509210557792,0.4464357141428903,3.7442995379755204,5.774861979717867,-1.713737096225356,-0.23852799999999985,-0.040003999999999984,-0.07134700000000005,-0.04858999999999991,-0.279299,-0.13190900000000005,0.18993799999999994,0.23929500000000004,0.060562000000000005,0.44993244027484924,0.5,flight,-0.07134700000000005
134,1.116667,stair_decsent,0.0,0.0,0.0,0.0,0.0,0.0,0.006599472042226519,-0.02987760979121638,-0.007079433645312071,0.2742980561555067,-0.18730501559875065,-0.5815934725221993,0.0,0.0,0.0,0.7630744470645009,-0.013969203695913895,-1.3390444986606316,-13.899393960730352,2.3642026316851976,-11.986345638526501,-0.23847299999999994,-0.04025299999999998,-0.07140600000000008,-0.0463039999999999,-0.28086,-0.1367560000000001,0.19216900000000003,0.24060700000000002,0.06535000000000002,0.44765650367230436,0.5,flight,-0.07140600000000008
135,1.125,stair_decsent,0.0,0.0,0.0,0.0,0.0,0.0,0.006360254410186157,-0.08088323532941487,0.03108124324973138,0.45829833193328356,-0.1680067202688123,-0.43525741029640813,0.0,0.0,0.0,-0.028707264135409093,-6.12091990137993,4.579464405981494,22.08091632998663,2.3158880751156277,17.56102990829143,-0.23841999999999985,-0.04092699999999999,-0.07114700000000007,-0.042484999999999884,-0.28226,-0.14038300000000004,0.19593499999999997,0.24133300000000002,0.06923599999999996,0.35519558904561443,0.5,flight,-0.07114700000000007
136,1.133333,stair_decsent,0.0,0.0,0.0,0.0,0.0,0.0,-0.008280331213260217,-0.024720988839558547,-0.006840273610941349,0.40009600384015104,-0.1305652226089056,-0.49321972878916304,0.0,0.0,0.0,-1.7569405524356783,6.739739168349554,-4.550764053842923,-6.984558753526108,4.493159445566668,-6.955756449388628,-0.23848899999999995,-0.04113300000000003,-0.07120400000000005,-0.039150999999999936,-0.283348,-0.1444930000000001,0.19933800000000002,0.24221499999999999,0.07328900000000005,0.45507782911649025,0.5,flight,-0.07120400000000005
137,1.141667,stair_decsent,0.0,0.0,0.0,0.0,0.0,0.0,-0.011639068874491601,-0.019078473722097852,-0.01415886729061082,0.3904487640988799,-0.0999520038396921,-0.5003599712023008,0.0,0.0,0.0,-0.4030162780455194,0.6770476502832555,-0.8781609886812354,-1.157576162859498,3.6732923889144784,-0.8567605487326266,-0.23858599999999996,-0.041291999999999995,-0.071322,-0.035896999999999846,-0.284181,-0.1486630000000001,0.20268900000000012,0.24288900000000002,0.0773410000000001,0.45590636204926227,0.5,flight,-0.071322
138,1.15,stair_decsent,0.0,0.0,0.0,0.0,0.0,0.0,-0.05544221768870355,0.026641065642625944,0.028321132845302424,0.3685347413896378,-0.06720268810752489,-0.5070202808112279,0.0,0.0,0.0,-5.256588121230331,5.486564186334359,5.097803928466774,-2.6297879166257396,3.9300750908637365,-0.7992691238362069,-0.23904799999999993,-0.041069999999999995,-0.0710860000000001,-0.03282600000000002,-0.284741,-0.15288800000000002,0.2062219999999999,0.24367100000000003,0.08180199999999993,0.38713734444938097,0.5,flight,-0.0710860000000001
139,1.158333,stair_decsent,0.0,0.0,0.0,0.0,0.0,0.0,-0.015120604824201163,-0.013080523220931697,0.006600264010563577,0.4170166806672334,-0.03720148805952167,-0.5138605544221688,0.0,0.0,0.0,4.838787095224011,-4.766781334880229,-2.6066085245095967,5.818065435928806,3.6002880172810143,-0.8208656679396199,-0.239174,-0.04117900000000002,-0.07103100000000007,-0.029350999999999905,-0.285051,-0.15717000000000003,0.2098230000000001,0.24387199999999998,0.08613899999999997,0.4649089967611145,0.5,flight,-0.07103100000000007
140,1.166667,stair_decsent,0.0,0.0,0.0,0.0,0.0,0.0,-0.010559155267562712,-0.005159587233023286,-0.0034797216222637734,0.35049196064314936,0.008999280057595612,-0.5093592512599154,0.0,0.0,0.0,0.5473301603837938,0.9504362836463358,-1.2095015158180396,-7.982327816664904,5.543648682159607,0.5401131704167836,-0.23926199999999986,-0.041222000000000036,-0.07106000000000001,-0.026429999999999954,-0.284976,-0.1614150000000001,0.2128319999999999,0.24375399999999997,0.09035500000000007,0.4795722436275675,0.5,flight,-0.07106000000000001
141,1.175,stair_decsent,0.0,0.0,0.0,0.0,0.0,0.0,-0.01680067202688426,-0.0008400336013415484,0.008760350414015176,0.32137285491418593,0.04308172326893,-0.5090603624144838,0.0,0.0,0.0,-0.7490119715974367,0.518367170488619,1.4688673990494103,-3.4944324647741407,4.09005678763156,0.03586809617563969,-0.2394019999999999,-0.041229000000000016,-0.07098700000000002,-0.023751999999999995,-0.284617,-0.16565700000000005,0.2156499999999999,0.243388,0.09467000000000003,0.468389876077493,0.5,flight,-0.07098700000000002
142,1.183333,stair_decsent,0.0,0.0,0.0,0.0,0.0,0.0,-0.02208088323532505,0.0001200048001954596,0.01932077283090942,0.2822512900516205,0.06516260650426077,-0.5094203768150705,0.0,0.0,0.0,-0.6336506910405421,0.11520921655310415,1.2673013820826042,-4.69477557453088,2.6498119807189457,-0.04320345620864542,-0.23958599999999985,-0.04122799999999999,-0.07082600000000006,-0.021399999999999864,-0.284074,-0.169902,0.218186,0.24284600000000003,0.09907599999999994,0.45109896421263607,0.5,flight,-0.07082600000000006
143,1.191667,stair_decsent,0.0,0.0,0.0,0.0,0.0,0.0,-0.01535877129831138,-0.008519318454528763,0.008159347252214599,0.231941444684419,0.08363330933525251,-0.5175185985121165,0.0,0.0,0.0,0.806588905329208,-1.036635859698123,-1.3392639283291021,-6.036698508183477,2.2163070351561793,-0.9717088669361569,-0.23971399999999998,-0.04129900000000003,-0.0707580000000001,-0.0194669999999999,-0.283377,-0.174215,0.22024700000000008,0.242078,0.10345699999999991,0.46772317694684307,0.5,flight,-0.0707580000000001
144,1.2,stair_decsent,0.0,0.0,0.0,0.0,0.0,0.0,-0.006840273610941349,-0.010920436817467067,0.01068042721708947,0.13884555382213645,0.1231249249970009,-0.5565822632905404,0.0,0.0,0.0,1.0222606129089293,-0.2881457293817743,0.3025416974528855,-11.171953781625271,4.739183446747719,-4.687827286502375,-0.23977099999999996,-0.04138999999999998,-0.07066900000000009,-0.01831000000000005,-0.282351,-0.17885300000000004,0.2214609999999999,0.24096100000000004,0.10818399999999995,0.4721055158331548,0.5,flight,-0.07066900000000009
145,1.208333,stair_decsent,0.0,0.0,0.0,0.0,0.0,0.0,-0.01860074402974949,0.047281891275644194,-0.004560182407294111,0.09120364814593551,0.12252490099603783,-0.5791431657266186,0.0,0.0,0.0,-1.411312902773063,6.98455875352337,-1.8289463127785088,-5.717257371438871,-0.07200576034598068,-2.707416588992899,-0.23992599999999986,-0.04099600000000003,-0.07070700000000008,-0.017549999999999955,-0.28133,-0.18367900000000004,0.2223759999999999,0.24033399999999996,0.11297199999999996,0.41497777766551763,0.5,flight,-0.07070700000000008
146,1.216667,stair_decsent,0.0,0.0,0.0,0.0,0.0,0.0,-0.007319414446855042,-0.005999520038396382,0.01415886729062452,0.01727861771057412,0.19378449724022448,-0.555315574754026,0.0,0.0,0.0,1.3536512578467317,-6.393257897053227,2.2461062752482586,-8.870294028721238,8.550467511901608,2.859082190135952,-0.23998699999999995,-0.04104600000000003,-0.07058900000000001,-0.017406000000000033,-0.279715,-0.188307,0.22258099999999992,0.238669,0.11771799999999999,0.47161565418279394,0.5,flight,-0.07058900000000001
147,1.225,stair_decsent,0.0,0.0,0.0,0.0,0.0,0.0,-0.0016800672026830968,0.0018000720028852146,0.021720868834751418,-0.11820472818912714,0.22788911556461836,-0.5889835593423662,0.0,0.0,0.0,0.6767487392501916,0.9359884844931549,0.9074764843545862,-16.25865185403803,4.092717907643499,-4.040319763391288,-0.2400009999999999,-0.041030999999999984,-0.07040800000000003,-0.018391000000000046,-0.277816,-0.19321500000000003,0.22160999999999986,0.23678500000000002,0.122807,0.46356668847371885,0.5,flight,-0.07040800000000003
148,1.233333,stair_decsent,0.0,0.0,0.0,0.0,0.0,0.0,0.008880355214197546,0.016080643225725274,0.015720628825152218,-0.21984879395174012,0.13824552982119415,-0.5441017640705723,0.0,0.0,0.0,1.267301382080972,1.7137370962246719,-0.7200576034560489,-12.19777580254577,-10.757660595634828,5.386030873850274,-0.239927,-0.04089700000000002,-0.07027700000000003,-0.02022299999999988,-0.276664,-0.19774900000000006,0.21970400000000012,0.235767,0.12747200000000003,0.459702978951375,0.5,flight,-0.07027700000000003
149,1.241667,stair_decsent,0.0,0.0,0.0,0.0,0.0,0.0,-0.028677705783522484,0.005759539236860106,0.044036477081833864,-0.11459083273338515,0.19606431485481013,-0.3152147828173644,0.0,0.0,0.0,-4.506606791183074,-1.2384334039914915,3.397629980403339,12.629944950606452,6.937699188098817,27.464240611135846,-0.24016599999999988,-0.040849000000000024,-0.06991000000000003,-0.02117799999999992,-0.27503,-0.200376,0.21898799999999996,0.23418099999999997,0.13046599999999997,0.4118903080276559,0.5,flight,-0.06991000000000003
150,1.25,stair_decsent,0.0,0.0,0.0,0.0,0.0,0.0,-0.059642385695424724,-0.0028801152046044293,0.07380295211808927,-0.07968318732749358,0.23040921636865705,-0.24036961478460414,0.0,0.0,0.0,-3.7159102258373364,-1.0368000049759527,3.5721198891462467,4.189085012107511,4.121553043783419,8.98177943510872,-0.24066299999999985,-0.04087299999999999,-0.069295,-0.021841999999999917,-0.27311,-0.2023790000000001,0.21882099999999993,0.23223700000000003,0.1330840000000001,0.34177736346475984,0.5,flight,-0.069295
151,1.258333,stair_decsent,0.0,0.0,0.0,0.0,0.0,0.0,-0.03768150726030846,-0.016680667226689247,0.08352334093362838,-0.13932557302291831,0.22200888035521635,-0.3458538341533621,0.0,0.0,0.0,2.635410828647122,-1.6561324879497112,1.1664933175974088,-7.157372578354168,-1.008080644838687,-12.658612668757824,-0.240977,-0.04101199999999999,-0.06859900000000008,-0.023002999999999885,-0.27126,-0.20526100000000003,0.2179740000000001,0.230248,0.13666199999999995,0.3447735603022032,0.5,flight,-0.06859900000000008
152,1.266667,stair_decsent,0.0,0.0,0.0,0.0,0.0,0.0,-0.02483801295894464,-0.03227741780657754,0.0944324454043648,-0.1360691144708375,0.14398848092152514,-0.3857691384689157,0.0,0.0,0.0,1.5410960284813682,-1.8714603527583598,1.3089878174629623,0.390743766748355,-9.361698996123184,-4.789453361597464,-0.24118399999999984,-0.04128100000000001,-0.0678120000000001,-0.024136999999999853,-0.27006,-0.208476,0.217047,0.228779,0.1406639999999999,0.32859854359284807,0.5,flight,-0.0678120000000001
153,1.275,stair_decsent,0.0,0.0,0.0,0.0,0.0,0.0,-0.03312132485301422,-0.03228129125165267,0.10104404176167252,-0.18612744509781523,0.302532101284054,-0.2974918996759908,0.0,0.0,0.0,-0.9940371887759102,-0.0004648320022958146,0.7934232998089263,-6.007239964835976,19.02599548332297,10.593692402847195,-0.24146,-0.04155000000000003,-0.06697000000000009,-0.025687999999999933,-0.267539,-0.210955,0.21577200000000007,0.22598899999999997,0.14398499999999992,0.3147898918313196,0.5,flight,-0.06697000000000009
154,1.283333,stair_decsent,0.0,0.0,0.0,0.0,0.0,0.0,-0.0178807152286034,-0.04944197767910245,0.11112444497780838,-0.07656306252248953,0.1810872434897364,-0.2112084483379412,0.0,0.0,0.0,1.8289463127817782,-2.0593647458837734,1.2096967738072344,13.148251839112419,-14.573965893953615,10.354428337699282,-0.24160899999999996,-0.041962,-0.06604399999999999,-0.02632599999999985,-0.26603,-0.2127150000000001,0.2152830000000001,0.22406800000000002,0.1466710000000001,0.2951093014587938,0.5190764066609422,single,-0.06604399999999999
155,1.291667,stair_decsent,0.0,0.0,0.0,0.0,0.0,0.0,-0.006359491240710555,-0.0664746820254391,0.15274778017758492,-0.14830813534917667,0.07067434605231707,-0.2934965202783771,0.0,0.0,0.0,1.3824362836444761,-2.0437610206787826,4.994400671919526,-8.608720041599293,-13.248487813465495,-9.873778730554049,-0.24166200000000004,-0.042516,-0.06477100000000002,-0.027561999999999864,-0.26544100000000004,-0.21516100000000005,0.21410000000000018,0.222925,0.15039000000000002,0.22215506508723792,0.5,flight,-0.06477100000000002
156,1.3,stair_decsent,0.0,0.0,0.0,0.0,0.0,0.0,-0.009000360014379443,-0.08292331693267552,0.19068762750509105,-0.16848673946959777,-0.004080163206528107,-0.31213248529940224,0.0,0.0,0.0,-0.3169169295174417,-1.9739151454741541,4.55296379785257,-2.4215293556247155,-8.970899947059147,-2.236405258733329,-0.24173699999999987,-0.043206999999999995,-0.06318200000000007,-0.028966000000000047,-0.265475,-0.217762,0.21277099999999982,0.22226800000000002,0.15457999999999994,0.15311283352657679,0.5,flight,-0.06318200000000007
157,1.308333,stair_decsent,0.0,0.0,0.0,0.0,0.0,0.0,-0.0060002400096131015,-0.10296411856474658,0.22116884675387685,-0.15444617784709322,0.06132245289811661,-0.25921036841474504,0.0,0.0,0.0,0.3600288017240332,-2.404992395544371,3.657892625559352,1.6849347920922457,7.848627877672545,6.350908062481421,-0.24178699999999997,-0.04406500000000002,-0.06133900000000003,-0.030252999999999863,-0.26496400000000003,-0.21992200000000006,0.2115340000000001,0.22089899999999998,0.15858300000000003,0.09327435070353213,0.5,flight,-0.06133900000000003
158,1.316667,stair_decsent,0.0,0.0,0.0,0.0,0.0,0.0,-0.027477801775861888,-0.10499160067194387,0.23818094552435798,-0.12574994000481785,0.04199664026877813,-0.2537796976241855,0.0,0.0,0.0,-2.5771012438503265,-0.24327839059242554,2.04128854937377,3.4432730792266804,-2.3189120025603946,0.6516283645979711,-0.242016,-0.04494000000000001,-0.05935400000000002,-0.03130100000000002,-0.264614,-0.22203700000000004,0.21071499999999999,0.219674,0.16268300000000002,0.06376475315309871,0.5227948841567662,single,-0.05935400000000002
159,1.325,stair_decsent,0.0,0.0,0.0,0.0,0.0,0.0,-0.024240969638790032,-0.1712468498739979,0.2781711268450681,-0.25177007080282643,0.060842433697348514,-0.2938917556702336,0.0,0.0,0.0,0.3884353938643808,-7.950947942164245,4.799013719034022,-15.123020616585832,2.2615856748554606,-4.813639511106262,-0.24221800000000004,-0.04636700000000002,-0.05703600000000009,-0.033398999999999957,-0.264107,-0.22448600000000007,0.2088190000000001,0.21774,0.16745,0.0,0.5,flight,-0.05703600000000009
160,1.333333,stair_decsent,0.0,0.0,0.0,0.0,0.0,0.0,-0.005640225609013249,-0.21300852034080975,0.280091203648148,-0.16908676347053508,0.04836193447737832,-0.28285131405255026,0.0,0.0,0.0,2.2321785707160036,-5.011600920054136,0.23041843310690502,9.922393775625812,-1.4977198151890045,1.3249059903615945,-0.24226499999999995,-0.04814200000000002,-0.05470200000000003,-0.03480799999999995,-0.263704,-0.22684300000000002,0.207457,0.21556199999999998,0.172141,0.0,0.5,flight,-0.05470200000000003
161,1.341667,stair_decsent,0.0,0.0,0.0,0.0,0.0,0.0,-0.07199424046075657,-0.2375809935205207,0.31077513798896456,-0.053515718742495194,0.07199424046076407,-0.20266378689705827,0.0,0.0,0.0,-7.96184483462258,-2.948460904692995,3.6817775786917624,13.867415974087123,2.835649866017062,9.621733519977623,-0.2428649999999999,-0.050122,-0.05211200000000005,-0.0352539999999999,-0.263104,-0.22853200000000007,0.207611,0.212982,0.17642000000000002,0.0,0.630617206487541,single,-0.05211200000000005
162,1.35,stair_decsent,0.0,0.0,0.0,0.0,0.0,0.0,-0.06960278411136622,-0.2811712468498705,0.3110524420976831,-0.07752310092405318,0.03288131525260994,-0.16632665306611955,0.0,0.0,0.0,0.28698624137649204,-5.231039641107528,0.03327782415919393,-2.881001101830981,-4.693738774529394,4.360630484931968,-0.2434449999999999,-0.05246500000000001,-0.04952000000000001,-0.03590000000000004,-0.26283,-0.22991800000000007,0.20754499999999987,0.210365,0.18039800000000006,0.0,0.689285913893497,single,-0.04952000000000001
163,1.358333,stair_decsent,0.0,0.0,0.0,0.0,0.0,0.0,-0.08808352334093593,-0.30277211088443784,0.334573382935322,-0.044041761670467965,0.04212168486739474,-0.21804872194887484,0.0,0.0,0.0,-2.217777418645131,-2.592207372443003,2.822625805548915,4.017921427287354,1.1088887093225588,-6.206896541792364,-0.24417899999999992,-0.05498800000000001,-0.046731999999999996,-0.03626700000000005,-0.262479,-0.23173500000000002,0.20791199999999987,0.207491,0.18500300000000003,0.0,0.6226585754303753,single,-0.046731999999999996
164,1.366667,stair_decsent,0.0,0.0,0.0,0.0,0.0,0.0,-0.12095032397409554,-0.35073194144468284,0.32661387089032656,-0.03755699544033877,0.020518358531317876,-0.18370530357571976,0.0,0.0,0.0,-3.9437005799327283,-5.754719289686181,-0.9550650401962315,0.7781096988395905,-2.592191784986405,4.120880534335831,-0.24518700000000004,-0.05791100000000002,-0.044009999999999994,-0.036579999999999835,-0.262308,-0.23326600000000008,0.2086070000000002,0.204397,0.1892560000000001,0.0,0.6856259768949453,single,-0.044009999999999994
165,1.375,stair_decsent,0.0,0.0,0.0,0.0,0.0,0.0,-0.1695667826712948,-0.4196567862714547,0.35557422296891456,-0.027721108844365096,-0.000600024000960644,-0.16452658106324536,0.0,0.0,0.0,-5.834208412000445,-8.271312231701966,3.475381264681178,1.180353605661078,-2.534307276164492,2.3015387630474717,-0.24659999999999993,-0.06140800000000002,-0.041047000000000056,-0.03681099999999993,-0.262313,-0.2346370000000001,0.209789,0.200905,0.19359000000000004,0.0,0.7219221942377183,single,-0.041047000000000056
166,1.383333,stair_decsent,0.0,0.0,0.0,0.0,0.0,0.0,-0.08928357134286388,-0.42337693507740737,0.28945157806312155,-0.03960158406335587,-0.0046801872074880265,-0.10896435857433304,0.0,0.0,0.0,9.634370734241168,-0.44643571414289046,-7.935034790086837,-1.4257140548410996,-0.48963917035010435,6.6677334080058595,-0.247344,-0.06493600000000002,-0.038635000000000086,-0.03714099999999987,-0.26235200000000003,-0.235545,0.21020300000000014,0.19741599999999998,0.19690999999999992,0.0,0.8066133618589433,single,-0.038635000000000086
167,1.391667,stair_decsent,0.0,0.0,0.0,0.0,0.0,0.0,-0.08411327093830517,-0.4376049916006666,0.2559395248380172,-0.027957763378947443,-0.014998800095992219,-0.11459083273338515,0.0,0.0,0.0,0.6203864176336296,-1.707230204374748,-4.02112469703673,1.3971467103921693,-1.2381344958608247,-0.6751228892551078,-0.24804499999999985,-0.068583,-0.036502000000000034,-0.03737400000000002,-0.262477,-0.23650000000000004,0.21067099999999983,0.193894,0.199998,0.0,0.8018301830639845,single,-0.036502000000000034
168,1.4,stair_decsent,0.0,0.0,0.0,0.0,0.0,0.0,-0.050882035281435964,-0.47965918636745913,0.22428897155886554,-0.010200408016307632,-0.010320412816513084,-0.11544461778471465,0.0,0.0,0.0,3.987907795136147,-5.046705240224756,-3.798218322231121,2.130967882232086,0.5614289306947291,-0.10245830449172132,-0.24846900000000005,-0.07258,-0.034633000000000025,-0.03745899999999991,-0.262563,-0.23746200000000006,0.21101000000000014,0.189983,0.20282900000000004,0.0,0.8060783447149249,single,-0.034633000000000025
169,1.408333,stair_decsent,0.0,0.0,0.0,0.0,0.0,0.0,-0.024120964838580606,-0.5373814952598022,0.22332893315732258,-0.02304092163686147,-0.005880235209408325,-0.0904836193447761,0.0,0.0,0.0,3.2114569114190434,-6.926954145246852,-0.11520921655381557,-1.5409232713972894,0.532842626557624,2.9954396303777893,-0.24866999999999995,-0.07705800000000002,-0.03277200000000002,-0.03765099999999988,-0.262612,-0.2382160000000001,0.21101900000000007,0.185554,0.20544400000000007,0.0,0.8440731420957223,single,-0.03277200000000002
170,1.416667,stair_decsent,0.0,0.0,0.0,0.0,0.0,0.0,0.009599232061444868,-0.5316774658027448,0.12886969042477078,-0.026397888168960066,0.011759059275258306,-0.07703383729300847,0.0,0.0,0.0,4.046099940007933,0.6844287805444564,-11.334202391715094,-0.4028037595510752,2.1165460144788777,1.613844738633055,-0.24858999999999987,-0.081489,-0.031698000000000004,-0.03787099999999999,-0.262514,-0.23885800000000001,0.21071899999999988,0.181025,0.20716,0.0,0.862873374992859,single,-0.031698000000000004
171,1.425,stair_decsent,0.0,0.0,0.0,0.0,0.0,0.0,-0.0028801152046110143,-0.6281051242049592,0.0938437537501423,-0.024120964838580606,0.013200528021120492,-0.06576263050521822,0.0,0.0,0.0,-1.4975815751896873,-11.571781879540714,-4.203280532176632,0.27324172931470303,0.17298316883021247,1.3525989184915466,-0.2486139999999999,-0.08672300000000002,-0.030916000000000055,-0.038071999999999884,-0.262404,-0.239406,0.210542,0.17568099999999998,0.20848999999999995,0.0,0.8812004669885454,single,-0.030916000000000055
172,1.433333,stair_decsent,0.0,0.0,0.0,0.0,0.0,0.0,-0.05028201128044534,-0.7563902556102283,0.018720748829958767,-0.01680067202688471,0.020160806432257653,-0.047641905676238494,0.0,0.0,0.0,-5.688455067302864,-15.394831561894907,-9.015121195269916,0.8784702762145643,0.8352668200092673,2.1745739624360843,-0.24903299999999984,-0.093026,-0.03076000000000001,-0.03821199999999991,-0.262236,-0.2398030000000001,0.21082099999999993,0.16921000000000003,0.2090430000000001,0.0,0.9093469392405935,single,-0.03076000000000001
173,1.441667,stair_decsent,0.0,0.0,0.0,0.0,0.0,0.0,-0.09359251259899172,-0.8215742740580715,-0.11447084233261376,-0.016918646508272815,0.0015598752099830842,-0.02747780177584857,0.0,0.0,0.0,-5.196844410672672,-7.821456497221342,-15.981712402516381,-0.014155805302148479,-2.2319331920175696,2.4194989081341216,-0.24981299999999984,-0.09987300000000002,-0.03171400000000002,-0.03835299999999986,-0.262223,-0.24003200000000002,0.21145999999999998,0.16235,0.208318,0.0,0.9461560020683353,single,-0.03171400000000002
174,1.45,stair_decsent,-18.916476659066518,-32.60422416896706,-18.06312252490117,-201.25826127722112,-174.2460264247131,-171.20045844612895,-0.03216128645147719,-0.9905196207848385,-0.18552742109685125,-0.03600144005762532,-0.014880595223808982,-0.0043201728069166365,-2270.068001808075,-3912.6634068123553,-2167.661409444538,7.372042019382586,-20.274252577315316,-8.527130536930054,-2.290026826995401,-1.9729353694698448,2.779026637337351,-0.09245000000000014,0.16356400000000001,0.11726000000000003,0.1189779999999998,0.009343999999999998,-0.08954799999999996,0.21142799999999995,0.15422000000000002,0.206808,0.0,0.9346760275940997,single,0.11726000000000003
175,1.458333,stair_decsent,0.09024360974437186,-0.47785911436456613,-0.1772470898835863,0.3747923810162149,-0.20034009086862134,2.162336319307541,-0.07308292331691456,-1.0090003600143829,-0.35773430937237,-0.015600624024956343,-0.02148085923436883,0.0014400576023055071,2280.897668163994,3855.318019273003,2146.3909078383863,-4.910792855566621,-2.2177774186420356,-20.665653219190656,2.448195851754304,-0.7920633638017202,0.691255299318618,-0.09381099999999987,0.159138,0.11575599999999997,0.11809599999999998,0.013146999999999999,-0.088059,0.21190699999999985,0.145991,0.20381499999999997,0.0,0.9556879578283243,single,0.11575599999999997
176,1.466667,stair_decsent,0.0721142308615413,-0.3822894168466597,-0.14182865370770806,0.3001268733744921,-0.1600862894882398,1.729490280273676,-0.13690904727622755,-0.877369810415185,-0.5226781857451401,0.022558195344382116,-0.01811855051595887,0.0007199424046017042,-2.1753514378246828,11.467446306444476,4.249872351317366,-7.658522193342237,15.794402399712064,-19.791681830186377,4.578692028958385,0.40344477062755285,-0.08640691117156427,-0.095553,0.15501199999999998,0.11258200000000007,0.11768299999999998,0.016182000000000002,-0.08687100000000003,0.21323599999999998,0.13883,0.1994530000000001,0.0,0.9517623830783543,single,0.11258200000000007
177,1.475,stair_decsent,0.0,0.0,0.0,0.0,0.0,0.0,-0.11616464658587099,-1.0954038161526265,-0.5948637945517837,-0.007680307212296038,-0.03288131525260994,0.018000720028812176,-8.654053865539426,45.87656508420173,17.020119249694655,2.4894276599491416,-26.165127293584263,-8.662619561579543,-3.628765457419612,-1.7716026325033976,2.0737762659558587,-0.09652100000000008,0.145884,0.10762499999999997,0.11761899999999992,0.015908,-0.08672099999999994,0.21414,0.129976,0.1943459999999999,0.0,0.9362253548036255,single,0.10762499999999997
178,1.483333,stair_decsent,0.0,0.0,0.0,0.0,0.0,0.0,-0.11064442577701618,-1.1360854434177474,-0.7157086283451367,-0.005160206408258207,-0.058802352094083986,0.033241329653183035,0.0,0.0,0.0,0.6624529951823904,-4.881990551436613,-14.501960133607835,0.3024241934522806,-3.110648846930791,1.828946312777031,-0.09744299999999995,0.136417,0.101661,0.1175759999999999,0.015418000000000001,-0.08644399999999997,0.21501899999999985,0.120999,0.18810499999999997,0.0,0.8870923393618086,single,0.101661
179,1.491667,stair_decsent,0.0,0.0,0.0,0.0,0.0,0.0,-0.10139188864890547,-1.159107271418278,-0.8357331413486856,-0.0059995200383829005,-0.008879289656827523,0.003839692824577845,0.0,0.0,0.0,1.1102156381222268,-2.7623983681941886,-14.401789417272374,-0.10070957884865453,5.990288269409177,-3.527914186297692,-0.09828799999999993,0.126757,0.094696,0.11752600000000002,0.015344,-0.08641199999999993,0.21581399999999995,0.111413,0.18110799999999994,0.0,0.981027851810855,single,0.094696
180,1.5,stair_decsent,0.0,0.0,0.0,0.0,0.0,0.0,-0.0807632305292394,-1.2418096723869063,-0.9056762270490867,-0.011520460818444364,0.0012000480019200388,0.0048001920076718285,0.0,0.0,0.0,2.475537995879787,-9.92468510363964,-8.393506024289179,-0.662539395183189,1.2095689018057907,0.11526451255178116,-0.09896100000000008,0.116409,0.08714900000000003,0.11742999999999992,0.015354,-0.086372,0.216391,0.101055,0.17352100000000004,0.0,0.9791032315106737,single,0.08714900000000003
181,1.508333,stair_decsent,0.0,0.0,0.0,0.0,0.0,0.0,-0.053762150486020406,-1.2764910596423966,-1.00564022560904,-0.0024000960038292525,-0.012000480019200805,0.026041041641668632,0.0,0.0,0.0,3.2402592155549303,-4.161932947976793,-11.996159673581449,1.0944875572561137,-1.58412672760362,2.5490039162362894,-0.09940900000000008,0.105772,0.07876899999999998,0.11741000000000001,0.015254,-0.08615499999999998,0.2168190000000001,0.090518,0.16492399999999996,0.0,0.9520443540775566,single,0.07876899999999998
182,1.516667,stair_decsent,0.0,0.0,0.0,0.0,0.0,0.0,-0.02627789776817465,-1.3936885049195957,-1.0440364770818205,-0.005039596832265082,0.08891288696904205,-0.04163666906647271,0.0,0.0,0.0,3.297846498421592,-14.062568427789563,-4.607181602205445,-0.3167147622313186,12.10863534776123,-8.120675630926424,-0.09962800000000005,0.094157,0.07006800000000002,0.11736799999999992,0.015995000000000002,-0.08650199999999997,0.21699599999999997,0.07816200000000001,0.15657,0.0,0.8361529234625538,single,0.07006800000000002
183,1.525,stair_decsent,0.0,0.0,0.0,0.0,0.0,0.0,-0.014280571222846672,-1.4419776791071774,-1.1118444737789575,-0.020160806432250992,-0.038881555262211424,0.03564142565702561,0.0,0.0,0.0,1.439736774910367,-5.794932699817852,-8.137285095060315,-1.814617736707794,-15.335946505610782,9.273742316512545,-0.09974700000000003,0.082141,0.06080300000000005,0.11719999999999997,0.015670999999999997,-0.08620499999999998,0.216947,0.06647,0.14700800000000003,0.0,0.9058879999611518,single,0.06080300000000005
184,1.533333,stair_decsent,0.0,0.0,0.0,0.0,0.0,0.0,-0.06096243849753319,-1.4056162246489614,-1.1929677187087249,-0.000720028801146092,0.010200408016320684,-0.006240249609990531,0.0,0.0,0.0,-5.60204815488848,4.363549076948926,-9.735178798723869,2.332986635197955,5.890071196271601,-5.026002072124735,-0.10025499999999998,0.070428,0.050862000000000074,0.11719400000000002,0.015756,-0.08625700000000003,0.217449,0.054672000000000005,0.1371190000000001,0.0,0.9800342320479885,single,0.050862000000000074
185,1.541667,stair_decsent,0.0,0.0,0.0,0.0,0.0,0.0,-0.04295656347493248,-1.5070794336453373,-1.1964242860571457,-0.0031197504199762427,-0.006599472042236686,0.025317974562044186,0.0,0.0,0.0,2.160532160139315,-12.174611110676478,-0.41475490141839205,-0.28794355877492156,-2.0158243410796364,3.7866839659269638,-0.10061300000000006,0.057868,0.04089100000000001,0.11716799999999994,0.015701,-0.08604599999999996,0.217781,0.042167,0.12693699999999997,0.0,0.9560844968578065,single,0.04089100000000001
186,1.55,stair_decsent,0.0,0.0,0.0,0.0,0.0,0.0,0.019080763230531317,-1.6162246489859313,-1.2142085683427077,-0.02448097923915365,0.06348253930157116,-0.03228129125165847,0.0,0.0,0.0,7.444776995735355,-13.097949758861414,-2.134199242237099,-2.563449996301096,8.410177768367529,-6.912188385179605,-0.10045400000000004,0.0444,0.03077300000000005,0.11696400000000007,0.01623,-0.08631500000000003,0.2174180000000001,0.02817,0.11708800000000008,0.0,0.8744851391538989,single,0.03077300000000005
187,1.558333,stair_decsent,0.0,0.0,0.0,0.0,0.0,0.0,0.014640585623419728,-1.5988239529581332,-1.2883715348614158,-0.01068042721708947,-0.04356174246969945,0.03804152166086819,0.0,0.0,0.0,-0.5328426265584578,2.0881670500177973,-8.899911978724193,1.6561324879472348,-12.845827645658419,8.439075112507776,-0.10033200000000009,0.031077,0.02003699999999997,0.11687500000000006,0.015867,-0.08599800000000002,0.21720700000000015,0.015210000000000001,0.10603499999999999,0.0,0.901979958075313,single,0.02003699999999997
188,1.566667,stair_decsent,1.0494360451163731,4.348572114230828,-6.704703623710047,109.6797506586073,287.22565258672734,-52.29443432399748,0.08819294456445244,-1.2948164146868155,-1.2720182385409036,0.0013198944084453037,0.04355651547876163,-0.008759299256058218,125.92225163383311,521.786910754835,-804.5000748392123,8.825577026761717,36.47798635364955,1.9622385793750978,1.4399234011920665,10.453354685440416,-5.615649258090478,-0.10834299999999986,-0.015955000000000004,0.06531299999999995,0.10814000000000012,-0.020011,-0.030194000000000054,0.21648299999999998,0.004055999999999997,0.09550700000000001,0.0,0.9259197603690913,single,0.06531299999999995
189,1.575,stair_decsent,0.0,0.0,0.0,0.0,0.0,0.0,-0.073562942517725,-1.8247929917196852,-1.2918516740669774,-0.01800072002881266,0.03300132005280211,-0.01656066242649379,-125.93736290848227,-521.8495276888117,804.5966187099614,-19.411482909177835,-63.59973323327428,-2.380107467427582,-2.3185664751299817,-1.2666741180798773,-0.9362010284934168,-0.10895600000000005,-0.031161,0.05454799999999993,0.10799000000000003,-0.019736000000000004,-0.030332000000000026,0.21694600000000008,0.011424999999999998,0.08487999999999996,0.0,0.9315373462148998,single,0.05454799999999993
190,1.583333,stair_decsent,0.0,0.0,0.0,0.0,0.0,0.0,0.07884315372616323,-1.5145805832233024,-1.285731429257148,-0.0021600864034649224,0.015600624024960506,0.007320292811709669,0.0,0.0,0.0,18.28946312779138,37.226978098689244,0.734458755529739,1.90095207312462,-2.0881670500229568,2.8658292617548353,-0.10829899999999992,-0.043782,0.04383399999999993,0.10797199999999996,-0.019606000000000005,-0.030271000000000048,0.21627099999999988,0.024175999999999996,0.07410499999999998,0.0,0.9710540671592431,single,0.04383399999999993
191,1.591667,stair_decsent,0.0,0.0,0.0,0.0,0.0,0.0,0.0011999040076872693,-1.6541876649868326,-1.2390208783297507,-0.0053995680345394256,0.01199904007679443,0.0029997600192048514,0.0,0.0,0.0,-9.31644465064524,-16.751509690848675,5.604817725869712,-0.3887066991930123,-0.4321555013398303,-0.5184224613036836,-0.10828899999999986,-0.057568,0.03350799999999998,0.1079270000000001,-0.019506000000000003,-0.030245999999999995,0.21621599999999996,0.038062,0.06375399999999998,0.0,0.9775073556531524,single,0.03350799999999998
192,1.6,stair_decsent,0.0,0.0,0.0,0.0,0.0,0.0,0.057482299291958215,-1.6649465978638855,-1.2692907716308501,-0.0004800192007818256,-0.001680067202688093,0.006360254410172664,0.0,0.0,0.0,6.754157600416412,-1.2911235901899432,-3.6325324974317637,0.5903694748298948,-1.641558535879309,0.40327545793444786,-0.10780999999999996,-0.071442,0.022930999999999924,0.10792299999999999,-0.019520000000000003,-0.030193000000000025,0.21573299999999995,0.051921999999999996,0.05312399999999995,0.0,0.9890068354064916,single,0.022930999999999924
193,1.608333,stair_decsent,0.0,0.0,0.0,0.0,0.0,0.0,0.07416296651866232,-1.66734669386777,-1.248649945997851,-0.006720268810732566,-0.1320052802112097,0.07320292811712528,0.0,0.0,0.0,2.001760137610015,-0.2880230413877808,2.4769981558861467,-0.7488599075903992,-15.639651147068617,8.021441702502488,-0.10719199999999995,-0.085336,0.012525999999999926,0.10786700000000016,-0.020620000000000003,-0.029583000000000026,0.2150590000000001,0.064716,0.04210899999999995,0.07891000000000048,0.7481776160473776,single,0.012525999999999926
194,1.616667,stair_decsent,0.0,0.0,0.0,0.0,0.0,0.0,0.04007679385649795,-1.6249100071994114,-1.2031437485001117,-0.009599232061444612,-0.07091432685385088,0.06371490280776868,0.0,0.0,0.0,-4.090013518378223,5.091995040599738,5.460306875178662,-0.345447954249103,7.33032797664487,-1.1384719593660348,-0.1068579999999999,-0.098878,0.002498999999999918,0.10778700000000008,-0.021211,-0.029052000000000078,0.21464499999999997,0.077667,0.031550999999999996,0.18449000000000004,0.8403077973698946,single,0.002498999999999918
195,1.625,stair_decsent,0.0,0.0,0.0,0.0,0.0,0.0,0.13092523700947595,-1.4899795991839815,-1.0380415216608683,-0.005280211208440344,0.043321732869314775,-0.025561022440886795,0.0,0.0,0.0,10.902249268328191,16.192296653717882,19.81305974309912,0.5183032344898966,13.708875521800875,-10.713539571421611,-0.10576699999999994,-0.111294,-0.0061510000000000176,0.10774300000000014,-0.020850000000000004,-0.029264999999999985,0.2135100000000001,0.090444,0.023113999999999968,0.2688600000000003,0.9157052288851542,single,-0.0061510000000000176
196,1.633333,stair_decsent,0.0,0.0,0.0,0.0,0.0,0.0,-0.0074402976119053235,-1.520220808832366,-1.1737669506780426,-0.009480379215188166,0.045841833673347814,-0.02040081603264191,0.0,0.0,0.0,-16.60452833569933,-3.6290903214190435,-16.287702990180676,-0.5040403224226402,0.3024241934517055,0.6192495389709508,-0.10582899999999995,-0.12396199999999999,-0.015932000000000057,0.10766399999999998,-0.020468,-0.02943499999999999,0.21349299999999993,0.103494,0.013502999999999932,0.3649700000000007,0.9148931292857758,single,-0.015932000000000057
197,1.641667,stair_decsent,0.0,0.0,0.0,0.0,0.0,0.0,0.12610991120709206,-1.4826013918886383,-1.0689944804415499,0.004079673626120621,0.00659947204223651,0.0035997120230350688,0.0,0.0,0.0,16.024743078833257,4.513968915734047,12.57169069312358,1.6270761748630531,-4.708706699197385,2.8798329800428117,-0.10477800000000004,-0.136318,-0.024841000000000002,0.10769800000000007,-0.020413,-0.029405000000000014,0.2124760000000001,0.11590500000000001,0.0045640000000000125,0.4543599999999999,0.9857449136971406,single,-0.024841000000000002
198,1.65,stair_decsent,0.0,0.0,0.0,0.0,0.0,0.0,0.06348253930157284,-1.4381375255010325,-1.0304812192487807,0.0010800432017191667,0.0001200048001921288,0.006360254410172833,0.0,0.0,0.0,-7.515585252072458,5.335877401608809,4.621776214180914,-0.35997004973016705,-0.7775671717322021,0.3312783375900384,-0.10424900000000004,-0.148302,-0.03342800000000001,0.107707,-0.020412,-0.029352000000000045,0.21195600000000003,0.12789,0.0040759999999999685,0.5,0.9484859657916243,single,-0.029352000000000045
199,1.658333,stair_decsent,0.0,0.0,0.0,0.0,0.0,0.0,0.1002040081603416,-1.3820952838113283,-0.9947197887915331,-0.0012000480019012712,0.002280091203647888,0.0033601344053795167,0.0,0.0,0.0,4.4067525331535,6.7253380162850345,4.291543316602295,-0.2736218893100202,0.2592207372441764,-0.36002880172726076,-0.1034139999999999,-0.159819,-0.041717000000000004,0.10769700000000015,-0.020393,-0.029324000000000017,0.21111100000000005,0.139426,0.012392999999999987,0.5,0.8690128062065021,single,-0.029324000000000017
200,1.666667,stair_decsent,0.0,0.0,0.0,0.0,0.0,0.0,0.06119510439165109,-1.3354931605471818,-0.9418046556275671,-0.0016798656107728342,-0.00011999040076806085,0.005159587233023286,0.0,0.0,0.0,-4.680693996723212,5.591807447101916,6.349308035033239,-0.05757350718401393,-0.2879867535896322,0.21591706595198024,-0.10290399999999988,-0.170949,-0.049566,0.10768299999999997,-0.020394000000000002,-0.029281,0.21058699999999986,0.150555,0.020284999999999997,0.5,0.7881041773634778,single,-0.029281
201,1.675,stair_decsent,0.0,0.0,0.0,0.0,0.0,0.0,0.22260890435616315,-1.4599783991359394,-1.0183607344293586,-0.0028801152046110143,-0.02148085923436883,0.004920196807867157,0.0,0.0,0.0,19.370430812973627,-14.938826183697998,-9.187096940092422,-0.14403571268908666,-2.5634067963039,-0.028728000138740523,-0.10104899999999994,-0.183115,-0.05805199999999999,0.10765899999999995,-0.020573,-0.029240000000000044,0.2087079999999999,0.162542,0.02881199999999995,0.5,0.6748390799225321,single,-0.029240000000000044
202,1.683333,stair_decsent,0.0,0.0,0.0,0.0,0.0,0.0,-0.07296291851673437,-1.3180127205088348,-0.7766710668426848,-0.003600144005757202,0.005280211208447838,-0.0076803072122829195,0.0,0.0,0.0,-35.47003754624988,17.036562897768622,29.003920267211804,-0.08640691241403987,3.211456911414486,-1.5121209672567133,-0.10165699999999989,-0.19409800000000002,-0.06452400000000003,0.10762899999999997,-0.020529000000000006,-0.029303999999999997,0.20928599999999986,0.173569,0.03522000000000003,0.5,0.6311476072671008,single,-0.029303999999999997
203,1.691667,stair_decsent,0.0,0.0,0.0,0.0,0.0,0.0,0.07031437485000852,-1.1781857451403792,-0.8202543796496228,-0.0010799136069025276,0.005159587233021483,-0.005519558435323991,0.0,0.0,0.0,17.191899852020853,16.77789481262953,-5.229579170498874,0.3024034555861117,-0.014473719153630143,0.2592691117061329,-0.10107099999999991,-0.20391700000000001,-0.07136000000000003,0.10762000000000005,-0.020486000000000004,-0.029349999999999987,0.20869099999999996,0.183431,0.04201000000000005,0.5,0.5671793825343687,single,-0.029349999999999987
204,1.7,stair_decsent,0.0,0.0,0.0,0.0,0.0,0.0,0.16836673466939348,-1.2748109924397084,-0.708628345133811,-0.00048001920075519197,0.009120364814592628,-0.00312012480500201,0.0,0.0,0.0,11.766753848480242,-11.595493495659436,13.395659968296266,0.07199020834601479,0.475312322281433,0.2879435533807756,-0.09966799999999987,-0.21454,-0.07726500000000003,0.10761600000000016,-0.020410000000000005,-0.02937600000000007,0.20728400000000002,0.19413,0.04788899999999996,0.5,0.5050245811729366,single,-0.02937600000000007
205,1.708333,stair_decsent,0.0,0.0,0.0,0.0,0.0,0.0,-0.053282131285263795,-1.0988839553581948,-0.711628465138592,-0.002520100804037968,0.0115204608184324,-0.0043201728069031985,0.0,0.0,0.0,-26.598927871673276,21.112088933338594,-0.3600288017257832,-0.24481958517733596,0.2880230413824228,-0.14401152068896764,-0.10011199999999998,-0.223697,-0.08319500000000002,0.10759500000000011,-0.020314000000000006,-0.029411999999999994,0.20770700000000009,0.20338299999999998,0.053783000000000025,0.5,0.4790678464628474,flight,-0.029411999999999994
206,1.716667,stair_decsent,0.0,0.0,0.0,0.0,0.0,0.0,-0.047996160307171055,-1.0721142308615512,-0.6900647948164286,-0.008399328053757598,0.009959203263739893,0.0009599232061444868,0.0,0.0,0.0,0.6342657761090521,3.2121099707996303,2.5874334439841435,-0.7054508338996571,-0.18733591968952926,0.6335608366987984,-0.10051199999999993,-0.232632,-0.08894600000000003,0.10752500000000009,-0.020231,-0.029403999999999986,0.20803700000000003,0.212401,0.05954200000000004,0.5,0.4782274450304453,flight,-0.029403999999999986
207,1.725,stair_decsent,0.0,0.0,0.0,0.0,0.0,0.0,-0.07248289931597725,-0.9996399855994069,-0.6518660746429734,-0.0004800192007818256,0.008040321612864087,-0.01248049921996774,0.0,0.0,0.0,-2.9385262221055757,8.697257321750033,4.584029782005819,0.9503550765601385,-0.23027500910545684,-1.6129152077417486,-0.10111599999999998,-0.240962,-0.09437800000000002,0.10752099999999998,-0.020164,-0.02950799999999998,0.20863699999999996,0.220798,0.06487000000000004,0.5,0.4752434043103311,flight,-0.02950799999999998
208,1.733333,stair_decsent,0.0,0.0,0.0,0.0,0.0,0.0,0.0662426497060018,-1.127085083403348,-0.6116644665786709,0.001680067202709788,0.0032401296051841467,-0.005400216008649127,0.0,0.0,0.0,16.64773179190931,-15.294023497412953,4.824385943154071,0.25922073724848593,-0.5760460827649087,0.8496679720771243,-0.10056399999999988,-0.250354,-0.09947500000000004,0.10753500000000016,-0.020137000000000002,-0.02955300000000005,0.20809900000000003,0.230217,0.06992199999999998,0.5,0.4891367849801776,flight,-0.02955300000000005
209,1.741667,stair_decsent,0.0,0.0,0.0,0.0,0.0,0.0,0.15958723302133684,-1.0382769378449637,-0.7520998320134327,0.0025197984161058977,-0.0007199424046075133,-0.005399568034552603,0.0,0.0,0.0,11.200453961523198,10.656124977007867,-16.850895780508843,0.10075968483274579,-0.47517062752479355,7.775067152908293e-05,-0.09923400000000004,-0.259007,-0.10574300000000003,0.10755599999999998,-0.020143,-0.029598000000000013,0.20679000000000003,0.23886400000000002,0.07614500000000002,0.5,0.48999680105561727,flight,-0.029598000000000013
210,1.75,stair_decsent,0.0,0.0,0.0,0.0,0.0,0.0,-0.14400576023039469,-0.8394335773431015,-0.5168606744269825,0.005400216008649127,-0.007680307212288748,-0.004080163206525717,0.0,0.0,0.0,-36.43261649486791,23.862157746533537,28.229828103498424,0.34566393766269715,-0.8352771880092762,0.1583349127597382,-0.10043399999999991,-0.266002,-0.11005000000000004,0.10760100000000006,-0.020207000000000003,-0.02963199999999999,0.20803499999999997,0.245795,0.08041800000000005,0.5,0.4829382507403996,flight,-0.02963199999999999
211,1.758333,stair_decsent,0.0,0.0,0.0,0.0,0.0,0.0,-0.027721108844365096,-1.167526701068052,-0.21624864994599624,0.005400216008649127,-0.0042001680067203446,-0.005160206408258207,0.0,0.0,0.0,13.954716354977878,-39.37274975698468,36.074885933156004,0.0,0.41763341000461246,-0.1296103686226449,-0.100665,-0.275731,-0.11185200000000001,0.10764600000000013,-0.020242000000000003,-0.029675000000000007,0.20831100000000013,0.25548899999999997,0.082177,0.5,0.4857179722105235,flight,-0.029675000000000007
212,1.766667,stair_decsent,0.0,0.0,0.0,0.0,0.0,0.0,-0.16690664746819167,-0.6360691144708375,-0.5808735301175909,0.0067194624429845855,-0.006839452843772625,-0.00455963522917953,0.0,0.0,0.0,-16.700928560574216,63.76980880696069,-43.751485501750885,0.15829690836758442,-0.3166888453386441,0.07206277646732337,-0.10205599999999992,-0.281032,-0.11669300000000005,0.10770199999999996,-0.020299000000000005,-0.02971299999999999,0.2097579999999999,0.260733,0.08698000000000006,0.5,0.4823050882903803,flight,-0.02971299999999999
213,1.775,stair_decsent,0.0,0.0,0.0,0.0,0.0,0.0,-0.14808592343693372,-0.532941317652711,-0.5924636985479437,0.00624024961000402,-0.00960038401536031,-0.0007200288011594343,0.0,0.0,0.0,2.2585772268400484,12.375830651401342,-1.3908758466762117,-0.05750784027127921,-0.3313249935902689,0.4607712022105041,-0.10328999999999988,-0.285473,-0.12163000000000002,0.10775400000000013,-0.020379,-0.02971900000000005,0.211044,0.265094,0.09191099999999996,0.5,0.4808785656982624,flight,-0.02971900000000005
214,1.783333,stair_decsent,0.0,0.0,0.0,0.0,0.0,0.0,-0.15756630265211768,-0.45805832233288707,-0.5724228969158662,0.005520220808831116,-0.0008400336013440465,-0.005760230409208705,0.0,0.0,0.0,-1.1376910134625944,8.986318891134362,2.4049923955450727,-0.08640691241724369,1.051284101045975,-0.604848386901378,-0.104603,-0.28929,-0.1264,0.10780000000000012,-0.020386,-0.029766999999999988,0.21240300000000012,0.26890400000000003,0.09663300000000002,0.5,0.4866293492432937,flight,-0.029766999999999988
215,1.791667,stair_decsent,0.0,0.0,0.0,0.0,0.0,0.0,-0.1419486441084661,-0.3940484761219155,-0.566354691624681,0.005159587233023286,0.0037197024238057232,-0.0032397408207343126,0.0,0.0,0.0,1.873969107709608,7.680567099948736,0.7281263848314556,-0.043272567291557124,0.5471245530537384,0.30243455585246465,-0.10578599999999994,-0.292574,-0.13112000000000001,0.10784300000000013,-0.020355000000000005,-0.029793999999999987,0.21362900000000007,0.272219,0.10132600000000003,0.5,0.48810305278158683,flight,-0.029793999999999987
216,1.8,stair_decsent,0.0,0.0,0.0,0.0,0.0,0.0,-0.1405256210248425,-0.31585263410535813,-0.5688227529101091,0.0069602784111233,0.010440417616704934,-0.00168006720269642,0.0,0.0,0.0,0.1707696008188622,9.383876397042604,-0.29617920141942256,0.21609158503539933,0.806518083871246,0.18716832089737975,-0.10695699999999997,-0.29520599999999997,-0.13586000000000004,0.10790100000000002,-0.020268,-0.029808000000000057,0.214858,0.274938,0.10605199999999998,0.5,0.47890034088103633,flight,-0.029808000000000057
217,1.808333,stair_decsent,0.0,0.0,0.0,0.0,0.0,0.0,-0.13248529941197695,-0.23724948997960213,-0.5713428537141556,0.009600384015370304,0.004920196807872285,0.0036001440057705256,0.0,0.0,0.0,0.9648771886314205,9.432754605275017,-0.30242419345332344,0.31682534552346436,-0.6624529951797312,0.633650691043681,-0.10806099999999996,-0.297183,-0.14062100000000005,0.1079810000000001,-0.020227000000000002,-0.02977799999999997,0.21604200000000007,0.276956,0.11084300000000008,0.5,0.4810456142034313,flight,-0.02977799999999997
218,1.816667,stair_decsent,0.0,0.0,0.0,0.0,0.0,0.0,-0.12658987281017758,-0.1436285097192218,-0.5844732421406194,0.010199184065261588,0.0005999520038394556,0.0071994240460701376,0.0,0.0,0.0,0.7073946006478671,11.233618941730214,-1.5755205695300751,0.07185025796631621,-0.5183879054514994,0.4318790545115892,-0.10911599999999999,-0.29838,-0.145492,0.108066,-0.020222000000000004,-0.029718000000000022,0.217182,0.278158,0.11577399999999999,0.5,0.4791689998240383,flight,-0.029718000000000022
219,1.825,stair_decsent,0.0,0.0,0.0,0.0,0.0,0.0,-0.09144365774630221,-0.06276251050042007,-0.5941437657506401,0.008880355214224192,0.0003600144005763864,0.010080403216125496,0.0,0.0,0.0,4.217714516245733,9.704308078579441,-1.1605092535726427,-0.15826579275619923,-0.028793664138134098,0.34573132965983255,-0.10987799999999992,-0.298903,-0.15044300000000005,0.10814000000000012,-0.020219,-0.02963400000000005,0.21801800000000005,0.278684,0.120809,0.5,0.4776017828028971,flight,-0.02963400000000005
220,1.833333,stair_decsent,0.0,0.0,0.0,0.0,0.0,0.0,-0.04548181927278562,-0.0034801392055683117,-0.6228249129965057,0.0069602784111233,0.007560302412096418,0.012720508820358651,0.0,0.0,0.0,5.5156412424715935,7.114169122146973,-3.4418753445175887,-0.2304184331094274,0.8640691241473547,0.3168253455217939,-0.11025700000000005,-0.298932,-0.15563300000000002,0.10819800000000002,-0.020156,-0.029528,0.21845500000000007,0.278776,0.12610500000000002,0.5,0.47274528619916656,flight,-0.029528
221,1.841667,stair_decsent,0.0,0.0,0.0,0.0,0.0,0.0,0.0032397408207343126,0.06407487401008122,-0.6603071754259761,0.00695944324455419,0.005879529637629153,0.01595872330212878,0.0,0.0,0.0,5.84611952166077,8.105953109629327,-4.497511690601285,-0.00010021197133542852,-0.201676598808171,0.38855465344014783,-0.11023000000000005,-0.298398,-0.161136,0.10825600000000013,-0.020107,-0.02939500000000006,0.21848600000000018,0.278291,0.13174099999999994,0.5,0.46937305251235995,flight,-0.02939500000000006
222,1.85,stair_decsent,0.0,0.0,0.0,0.0,0.0,0.0,0.02856114244571923,0.12612504500179744,-0.6825873034921309,0.021720868834751418,-0.021120844833793288,0.060722428897155595,0.0,0.0,0.0,3.0386897425878407,7.446318371740686,-2.6737223168312108,1.7714419285007763,-3.2401745435523783,5.371859545784955,-0.10999199999999987,-0.297347,-0.16682400000000003,0.10843700000000012,-0.020283000000000002,-0.028889000000000054,0.21842899999999998,0.277064,0.13793499999999997,0.5,0.38689852638007166,flight,-0.028889000000000054
223,1.858333,stair_decsent,0.0,0.0,0.0,0.0,0.0,0.0,0.053642145685811625,0.1825273010920447,-0.6486259450378066,0.008760350414015409,-0.006240249609984035,0.03576143045722107,0.0,0.0,0.0,3.0098407824424127,6.768541472488633,4.075526035560382,-1.5553244234652739,1.7857428565713895,-2.9954396303773856,-0.109545,-0.295826,-0.17222900000000002,0.1085100000000001,-0.020335,-0.028591000000000033,0.2180550000000001,0.275491,0.143638,0.5,0.4377602225502518,flight,-0.028591000000000033
