frame_id,timestamp,gait_type,root_linear_velocity_x,root_linear_velocity_y,root_linear_velocity_z,root_angular_velocity_x,root_angular_velocity_y,root_angular_velocity_z,left_linear_velocity_x,left_linear_velocity_y,left_linear_velocity_z,right_linear_velocity_x,right_linear_velocity_y,right_linear_velocity_z,root_acceleration_x,root_acceleration_y,root_acceleration_z,left_acceleration_x,left_acceleration_y,left_acceleration_z,right_acceleration_x,right_acceleration_y,right_acceleration_z,left_pos_rel_x,left_pos_rel_y,left_pos_rel_z,right_pos_rel_x,right_pos_rel_y,right_pos_rel_z,step_length,step_width,step_height,left_contact_prob,right_contact_prob,support_type,max_foot_height
1,0.008333,stair_decsent,0.006480259210368234,0.0019200768030721695,0.006960278411136745,-0.09810947444686756,0.008761370718077066,0.02497118471771382,0.005040201608076025,-0.0022800912036481363,0.003600144005757169,-0.0004800192007551876,0.0001200048001921277,-0.0018000720028785845,0.0,0.0,0.0,0.0,0.0,0.0,0.0,0.0,0.0,-0.08424799999999988,-0.008936,-0.05970900000000001,0.14313100000000012,0.031295,-0.052058999999999966,0.227379,0.040231,0.007650000000000046,0.9889995599823872,0.920388605707015,double,-0.052058999999999966
2,0.016667,stair_decsent,0.00503959683226512,0.002879769618430491,0.0041996640268787185,-0.08067543392179963,0.027844576297839988,0.005435201411007963,0.0031197504199495397,-0.004199664026877886,0.00251979841613256,0.0011999040076606032,0.0005999520038394602,-0.0007199424046150121,-0.17286565611988403,0.11515392552895627,-0.33124722633285647,-0.23043570771856067,-0.23033031236258092,-0.12963110026693173,0.2015746590371719,0.05758905731309484,0.1296051833769585,-0.08426400000000012,-0.008995,-0.05972299999999997,0.14309899999999987,0.031276,-0.052100000000000035,0.22736299999999998,0.040271,0.007622999999999935,0.9903219313394533,0.9212324874929303,double,-0.052100000000000035
3,0.025,stair_decsent,0.004800192007685108,0.00300012000480007,0.005520220808831212,-0.06916527644832172,0.013078995982089874,0.01553236059099312,0.003240129605184117,0.0002400096003840472,0.0020400816032561785,-0.0014400576022922092,0.002280091203647928,-0.003600144005757169,-0.02872972813872702,0.014442624069312212,0.15847315276040966,0.01444608007135211,0.5327821465572943,-0.0575683202779769,-0.31680806551695817,0.20162476896777487,-0.34563801765776514,-0.08427700000000016,-0.009017999999999998,-0.05975200000000003,0.14304699999999992,0.03127,-0.052176,0.22732400000000008,0.040288,0.007576000000000027,0.9936059972946407,0.9167430341957816,double,-0.052176
4,0.033333,stair_decsent,0.004920196807867243,0.007080283211328456,0.005640225609026671,-0.1170812200485768,0.008196752493785125,0.012827430086266545,0.003600144005757169,0.0008400336013440611,0.0037201488059526275,0.0003600144005730523,0.0024000960038408885,-0.00108004320173248,0.014401152067938907,0.4896391703502203,0.014401152069537796,0.043203456207014546,0.0720057603456155,0.20161612896873263,0.21601728103507276,0.014401152069238024,0.30242419345070065,-0.08428800000000014,-0.009069999999999998,-0.05976800000000004,0.14300899999999994,0.031231000000000002,-0.052232000000000056,0.22729700000000008,0.040301000000000003,0.007535999999999987,0.9912589410042784,0.9202126341811282,double,-0.052232000000000056
5,0.041667,stair_decsent,0.006359491240683791,0.0007199424046077269,-0.0016798656107594805,0.03260242282318761,0.03251458596429394,0.018199735920570132,0.002039836813073647,-0.00023998080153590895,0.0015598752099880916,-0.0008399328053864011,0.003959683225341769,-0.002519798416119238,0.1727015158167204,-0.7631798424190939,-0.8783406791200083,-0.1872218853711929,-0.12959136103671345,-0.2592120945481804,-0.1439821461434429,0.18713549574044638,-0.1727568051819964,-0.08432399999999984,-0.009078,-0.05974099999999993,0.142949,0.031258,-0.052238999999999924,0.22727299999999984,0.040336000000000004,0.007502000000000009,0.9957015068273833,0.9170333091407501,double,-0.052238999999999924
6,0.05,stair_decsent,0.0027601104044289292,0.0057602304092163005,0.0025201008040380123,-0.03508656562614143,0.009887088530896555,0.010010472691310073,0.0038401536061214397,0.00240009600384016,0.0030001200047932,-0.0014400576022922092,0.004080163206528178,-0.003000120004806523,-0.43194297806970616,0.6048587549032249,0.504016130420916,0.2160466570320164,0.3168218895207091,0.17283628882816612,-0.07201785634295069,0.014458176069411827,-0.05764089627832531,-0.08431500000000014,-0.009106,-0.05973700000000004,0.14291399999999999,0.031244,-0.052285000000000026,0.22722900000000013,0.04035,0.007452000000000014,0.9909464616202931,0.9167046845999913,double,-0.052285000000000026
7,0.058333,stair_decsent,0.00216008640346496,0.008760350414016578,0.007200288011514338,-0.1470411504201147,0.0023651772138574482,0.013687851052825308,0.0014400576023188556,0.0015600624024960988,-0.0002400096003775938,-0.0006000240009639692,0.005400216008639917,-0.006240249609977317,-0.07200576034609014,0.3600288017281024,0.5616449306943868,-0.2880230413779652,-0.10080806448386669,-0.38883110586472985,0.10080806448196807,0.15841267276031915,-0.38883110586472985,-0.08432100000000009,-0.009166,-0.059798999999999936,0.14289099999999988,0.031215999999999997,-0.052396999999999916,0.22721199999999997,0.040381999999999994,0.00740200000000002,0.9964389587953835,0.9121895970431398,double,-0.052396999999999916
8,0.066667,stair_decsent,0.004199664026852076,0.0035997120230382177,-0.0032397408207342506,0.039480845605015,0.010007515811602986,0.013805136015059928,0.0015598752099880916,0.0015598752099832,0.001679865610746159,-0.0008399328053864011,0.005159587233021522,-0.0041996640268787185,0.24472973642753965,-0.619227068751903,-1.2527032436103416,0.01437696276328726,-2.2461304643492728e-05,0.23036659600716972,-0.02878675359040458,-0.02887314322274954,0.24485068191727838,-0.08434299999999983,-0.009183,-0.05975799999999998,0.142849,0.031229,-0.052404999999999924,0.22719199999999984,0.040412,0.007353000000000054,0.9953786817021477,0.9152941324632807,double,-0.052404999999999924
9,0.075,stair_decsent,0.0009600384015370224,0.007680307212288477,0.001560062402500992,-0.04865787579393191,0.022121641937220785,0.00409447220282057,0.0016800672026831276,0.0020400816032640906,-0.0009600384015370224,0.0010800432017458042,0.00600024000960056,-0.004680187207489653,-0.3887706258628413,0.4896910103504455,0.5759994267653002,0.014423616068047047,0.05762707227659799,-0.3168011535201228,0.23040633710934919,0.10088236848422401,-0.05766508827684323,-0.08433699999999988,-0.00923,-0.05977900000000003,0.14285000000000014,0.031215,-0.052456999999999976,0.22718700000000003,0.040445,0.007322000000000051,0.9953136627409701,0.9139701160353504,double,-0.052456999999999976
10,0.083333,stair_decsent,0.004200168006721135,0.003480139205568161,0.004440177607098729,-0.06785161099952508,0.0011536535921203872,0.00806919929283538,0.0015600624025009894,0.0015600624024960975,0.0013200528021100728,0.0021600864034383117,0.005760230409216295,-0.002760110404415604,0.3888311058663278,-0.5040403224193343,0.3456276496577145,-0.014401152067939285,-0.05760460827649018,0.2736218893132237,0.1296103686178455,-0.028802304138277317,0.2304184331062099,-0.08435899999999985,-0.009246,-0.059805,0.142833,0.031233999999999998,-0.052516999999999925,0.22719199999999984,0.04048,0.007288000000000072,0.9957149715417327,0.9158821130542274,double,-0.052516999999999925
11,0.091667,stair_decsent,0.005519558435324037,0.007319414446844292,0.002279817614589784,-0.0462456713825905,0.01416314752485087,0.03226227897909119,0.0017998560115042278,0.001079913606911487,0.0010799136069158583,0.002279817614616427,0.008759299256059956,-0.007199424046083519,0.15831418629744462,0.4606761748591473,-0.25922246130416926,0.02877293124588895,-0.05761324641044046,-0.028814398271444035,0.014366596013692768,0.35985947286341047,-0.5326750229983104,-0.08438999999999997,-0.009298,-0.05981499999999995,0.1428060000000002,0.031246000000000003,-0.052595999999999976,0.22719600000000018,0.040544000000000004,0.0072189999999999754,0.9960658516173049,0.9085346128149242,double,-0.052595999999999976
12,0.1,stair_decsent,0.0028801152046110624,0.006000240009600343,0.0013200528021233959,-0.05090960589458523,0.007622357397224212,0.014671287473720398,0.0024000960038558753,0.002400096003840158,0.0010800432017324792,0.0012000480019012912,0.007440297611904416,-0.004200168006721135,-0.3167458575198575,-0.1583072647598642,-0.11517638455134853,0.07203168034941161,0.15842822476043078,1.5552000074504052e-05,-0.1295775366272813,-0.15828652875981505,0.35992512172835495,-0.08439399999999986,-0.009328,-0.05981700000000001,0.14279200000000003,0.031258,-0.05264200000000008,0.2271859999999999,0.040586000000000004,0.007174999999999931,0.994063433705466,0.9138702732365189,double,-0.05264200000000008
13,0.108333,stair_decsent,0.006720268810759157,0.005400216008640338,0.001320052802110075,-0.007098187091770059,0.01650115873736449,0.029637494056605818,0.0008400336013282406,0.0013200528021120525,-0.0009600384015370224,0.002760110404428932,0.007200288011520174,-0.0021600864034516387,0.46083686621242015,-0.07200576034561447,-1.5985769317203783e-12,-0.1872149769023924,-0.12961036862211764,-0.24481958517574742,0.18721497690239314,-0.02880230413827466,0.24481958517574676,-0.08444300000000005,-0.009361999999999999,-0.059836,0.14275900000000008,0.031273,-0.05267100000000002,0.22720200000000013,0.040635,0.007164999999999977,0.996940465910492,0.9150033056356585,double,-0.05267100000000002
14,0.116667,stair_decsent,0.003959683225335938,0.0077993760499160975,0.004319654427636783,-0.06619083291450756,0.004461827509200376,0.026046674267402748,0.0019198464122889352,0.0031197504199663973,0.0017998560115175463,0.001199904007660602,0.007679385649148248,-0.0032397408207342476,-0.33124377074912603,0.28787617485910216,0.3599234011911093,0.12956717194152792,0.21594643842744696,0.33116083669961194,-0.18720979082893308,0.057487117545965145,-0.1295481662206153,-0.08445999999999998,-0.009401,-0.05985699999999994,0.14273599999999997,0.031272,-0.05273399999999995,0.22719599999999995,0.040673,0.0071229999999999905,0.9931976036510295,0.9147354539160728,double,-0.05273399999999995
15,0.125,stair_decsent,0.005040201608076029,0.009600384015360647,0.003120124805001984,-0.04265781103319529,0.019769236176825297,0.034960026216983756,0.002760110404428932,0.0038401536061442383,0.001560062402500992,0.001560062402500992,0.007920316812672107,-0.001560062402500992,0.12966739262451604,0.21612960103738757,-0.14394931268868352,0.10083571248529909,0.0864518404149576,-0.02877638413735203,0.04322073621029524,0.028912896138708673,0.2015694729669095,-0.08447899999999997,-0.009449,-0.05986999999999998,0.14270699999999992,0.031257999999999994,-0.05277300000000007,0.2271859999999999,0.040707,0.007096999999999909,0.9917002704423048,0.9153268973695248,double,-0.05277300000000007
16,0.133333,stair_decsent,0.004560182407294187,0.00720028801152037,0.002520100804024687,-0.027561488966836873,0.012041176117267125,0.021469286137500942,0.0031201248049753326,0.004080163206528278,0.0012000480019146143,0.0015600624025009894,0.006840273610944611,-0.0026401056042201455,-0.05760460827815207,-0.2880230413824883,-0.07200576034768949,0.043203456203816215,0.028802304138250308,-0.043203456208613635,-3.122627161844724e-16,-0.12961036862204428,-0.12961036862104314,-0.0844910000000001,-0.009475,-0.05988099999999996,0.14268199999999998,0.031255,-0.052815999999999974,0.22717300000000007,0.04073,0.007064999999999988,0.9912087439594427,0.9168563021026914,double,-0.052815999999999974
17,0.141667,stair_decsent,0.007439404847612988,0.006599472042236576,-0.0011999040076739276,0.03116004540553927,0.022096604188303882,0.04000435062591725,0.0011999040076872494,0.0033597312215023173,-0.0007199424046016923,0.0009599232061444707,0.012838972882169808,-0.005399568034552657,0.34547905451389577,-0.07209214894214008,-0.44636486821437765,-0.23040806302952818,-0.08644492260930679,-0.23038041834848946,-0.07201094268736742,0.7197863296406541,-0.3311090029196686,-0.08454300000000003,-0.009502,-0.05987699999999996,0.14262799999999998,0.031307,-0.05285099999999998,0.227171,0.040809000000000005,0.007025999999999977,0.9939341849099635,0.9064712792101508,double,-0.05285099999999998
18,0.15,stair_decsent,0.007680307212296166,0.007920316812672511,0.0016800672026831248,-0.017776982052197937,0.014675726104864029,0.037549839130195196,0.0021600864034649584,0.0034801392055682653,0.0024000960038292286,0.0019200768030740415,0.007320292811712289,-0.003000120004806521,0.028909440139586927,0.15850771276082254,0.3456103696576323,0.1152264965531871,0.01444953606935652,0.374419585795142,0.11522304055317051,-0.6622680991788689,0.28794528138079134,-0.08458900000000003,-0.009538999999999999,-0.05987100000000001,0.14257999999999993,0.031302,-0.05288999999999999,0.22716899999999995,0.040841,0.006981000000000015,0.9920876673287546,0.9166218487890297,double,-0.05288999999999999
19,0.158333,stair_decsent,0.010080403216125395,0.00012000480019212759,-0.004560182407294187,0.11918202179075928,0.035648576152613846,0.051235261363947,0.003840153606148083,0.003360134405376138,0.0007200288011594272,0.0013200528021100728,0.012600504020160906,-0.004560182407294187,0.2880230413811625,-0.9360748844930249,-0.7488599075935806,0.20161612896713346,-0.014401152069138034,-0.20161612896553463,-0.07200576034609003,0.6336506910414751,-0.18721497689759573,-0.08464099999999997,-0.009512,-0.059826999999999964,0.14250699999999994,0.031406,-0.05288999999999999,0.2271479999999999,0.040918,0.006936999999999971,0.9914112922302493,0.9081880684784635,double,-0.05288999999999999
20,0.166667,stair_decsent,0.0074394048476129635,0.0037197024238060654,0.0015598752099880903,-0.00019500241287916367,0.0230230279417775,0.01823429351936321,0.004319654427636783,0.0038396928245740198,0.003959683225335938,-0.00011999040075806724,0.007559395248380189,-0.0021598272138183914,-0.31689445266527827,0.431929160500832,0.734348166220575,0.05753549573898481,0.05754240691119287,0.38872743270656435,-0.17279136103529383,-0.6048846618407382,0.2880195816505632,-0.08466700000000005,-0.009511,-0.059807000000000055,0.14244400000000002,0.031438,-0.052920999999999996,0.22711100000000006,0.040949,0.006886000000000059,0.9883236056499669,0.9180353244337223,double,-0.052920999999999996
21,0.175,stair_decsent,0.013440537621491689,0.00012000480019191982,0.0016800672026831304,0.05839241302503279,0.033507693548434615,0.03222913393605586,0.004080163206539014,0.0018000720028801503,0.001320052802110077,0.0006000240009639708,0.00648025921036825,-0.002880115204611072,0.720164739455027,-0.4319809940734615,0.014423616068047566,-0.028740096135577785,-0.24476428917483192,-0.31676832151996487,0.08640518441402133,-0.12950150462161783,-0.08643801641577852,-0.08474499999999985,-0.009496999999999998,-0.05981000000000003,0.14233700000000016,0.031491000000000005,-0.05295899999999998,0.227082,0.040988000000000004,0.0068510000000000515,0.9922485609923944,0.9196286655440729,double,-0.05295899999999998
22,0.183333,stair_decsent,0.007920316812687083,0.00012000480019212759,-0.0026401056042201455,0.08521764686920011,0.03484622532303082,0.030090905790908597,0.005040201608049374,0.002160086403456111,0.003960158406343541,0.0016800672026831248,0.006960278411136739,-0.002760110404415604,-0.6624529951763592,2.4933852613667427e-14,-0.5184414744873721,0.11520921654990515,0.043203456207363516,0.31682534552183633,0.12961036862104322,0.05760460827654964,0.014401152069538929,-0.0847690000000001,-0.00948,-0.059755,0.142285,0.03154800000000001,-0.05296000000000001,0.2270540000000001,0.041028,0.0067949999999999955,0.988726572526079,0.919260430594227,double,-0.05296000000000001
23,0.191667,stair_decsent,0.0074394048476129635,0.0009599232061434269,0.0004799616030722338,-0.008705679929117211,0.01584038707829156,0.013913729733218421,0.0031197504199761807,0.0015598752099831986,0.0002399808015294561,-0.0009599232061444676,0.00551955843532486,-0.002759779217662014,-0.05770481942334039,0.10078214614246442,0.3743781146259151,-0.230435707712166,-0.07201958165021738,-0.44638560172955144,-0.3167735071787365,-0.17287256729204187,3.9739231292313244e-05,-0.08480500000000002,-0.009475,-0.05975700000000006,0.14221499999999998,0.031586,-0.052987000000000006,0.22702,0.041061,0.006770000000000054,0.9941729452506327,0.9218912217585209,double,-0.052987000000000006
24,0.2,stair_decsent,0.0031201248049753326,0.00048001920076809403,0.0008400336013415624,0.00330299136407451,0.020447250111641137,0.01984796451055005,0.004440177607085405,-0.0007200288011520369,0.003960158406343541,-0.0013200528021100728,0.005040201608064363,-0.003480139205575031,-0.518334338490055,-0.05759078427641095,0.04321036820704768,0.1584576007571371,-0.27359942531324055,0.44643917014449563,-0.04321728020708086,-0.05752512027607067,-0.08644665641581864,-0.08479400000000004,-0.009485,-0.05973099999999998,0.14217800000000014,0.031624,-0.05302300000000004,0.22697200000000017,0.041109,0.006707999999999936,0.9900116076729752,0.922477360308642,double,-0.05302300000000004
25,0.208333,stair_decsent,0.002520100804038019,-0.0070802832113284735,-0.003480139205575043,0.11472105582304193,0.04762154506240189,0.007288754880716684,0.001440057602318859,-0.0004800192007679915,0.0016800672026831304,-0.001440057602318859,0.005400216008639931,-0.0030001200047932073,-0.07200576034289155,-0.9072725803548045,-0.5184414744889735,-0.36002880172405544,0.028802304138251047,-0.2736218893148226,-0.01440115207113724,0.04320345620731656,0.05760460827815013,-0.08480299999999996,-0.009430000000000001,-0.05968799999999996,0.14214499999999997,0.031728,-0.05301899999999993,0.22694799999999993,0.041158,0.006669000000000036,0.9962262565974318,0.9227379168875536,double,-0.05301899999999993
26,0.216667,stair_decsent,0.0008399328053864003,-0.004439644828413791,-0.0038396928245645486,0.07908208983164469,0.015987729192838467,0.0015393366274693671,0.0035997120230350926,-0.002639788816894684,0.0035997120230350926,0.0009599232061444676,0.005639548836093752,-0.005519558435324028,-0.2016040315156728,0.31685125784913365,-0.04314298284011344,0.25913779946199084,-0.2591516218054584,0.23033895132612917,0.2879746590428755,0.02871764188310782,-0.30230842698953897,-0.08478000000000008,-0.009415,-0.05962600000000007,0.14214599999999988,0.03181200000000001,-0.053033,0.22692599999999996,0.041227,0.006593000000000071,0.990442522081961,0.9208211542476183,double,-0.053033
27,0.225,stair_decsent,-0.0002400096003909168,-0.005280211208448201,-0.0015600624025009894,0.06984838641086308,0.039180868093870586,0.003544289815207974,0.0012000480019279376,-0.000960038401536084,0.004320172806916593,-0.0012000480019279376,0.003720148805951792,-0.003480139205575031,-0.12959827262418291,-0.10087200048414852,0.2735665933113593,-0.28797120138091364,0.20157811296755052,0.08645875241587662,-0.2592069132452182,-0.23033721710571925,0.24474009717376632,-0.08476799999999995,-0.009379000000000002,-0.05957699999999999,0.14213799999999988,0.031887,-0.05304900000000001,0.22690599999999983,0.041266,0.006527999999999978,0.9923577050383742,0.9259972660956914,double,-0.05304900000000001
28,0.233333,stair_decsent,0.003240129605184114,-0.005400216008640329,0.0002400096003909168,0.015417401380375593,0.03693476043084515,0.0023251623210031784,0.003600144005757166,-0.0009600384015359799,0.003960158406330218,0.0012000480019279376,0.004080163206528174,-0.004920196807867239,0.4176334100054036,-0.014401152069138086,0.2160172810382701,0.2880230413811624,1.2490508647378895e-14,-0.04320345620861335,0.28802304138436013,0.043203456207414156,-0.17281382482805796,-0.08476499999999998,-0.009342,-0.0595460000000001,0.14212099999999994,0.031965999999999994,-0.05309200000000003,0.22688599999999992,0.041308,0.006454000000000071,0.9909376288977993,0.9246207473060242,double,-0.05309200000000003
29,0.241667,stair_decsent,0.0027597792176487015,-0.006839452843772693,-0.0014398848092167062,0.05412373656618587,0.026909106128265,-0.0008443144810808456,0.002519798416132566,-0.0022798176145908283,0.003839692824577883,0.0008399328053864031,-0.0002399808015361177,0.0,-0.057637435509408905,-0.17269460464751232,-0.2015712034566387,-0.12963110026693095,-0.1583608366996462,-0.014454713433205557,-0.04321036675564379,-0.518375810902844,0.5903763868331234,-0.08476699999999981,-0.009304,-0.059502000000000055,0.14210500000000015,0.032020999999999994,-0.053080000000000016,0.22687199999999996,0.041324999999999994,0.006422000000000039,0.9914543394051494,0.9343240944945665,double,-0.053080000000000016
30,0.25,stair_decsent,0.004800192007685103,-0.005280211208448201,0.003600144005757166,-0.03137584884622405,0.016750646451182297,-0.007961837748716996,0.0009600384015370207,-0.003720148805952312,0.003000120004806521,0.004560182407294187,0.004560182407296685,-0.00636025441017277,0.2448593291775351,0.18711648089817481,0.6048276509029002,-0.18717868889902126,-0.1728466568296511,-0.10075276848330271,0.4464478101413394,0.5760426267650065,-0.7632610596631183,-0.08479899999999985,-0.009291,-0.05950699999999998,0.1421030000000001,0.032103,-0.05316299999999996,0.22690199999999994,0.041394,0.006344000000000016,0.9918756366208219,0.9214637013975705,double,-0.05316299999999996
31,0.258333,stair_decsent,0.0062402496100039785,-0.007320292811712522,-0.0006000240009639708,0.06037105119007121,0.03291696104081569,0.005354673648476621,0.004800192007658474,-0.0025201008040320856,0.003120124804988666,0.002400096003829237,0.0015600624024959984,-0.002040081603269507,0.1728138248312587,-0.24481958517512606,-0.5040403224194344,0.46083686620922387,0.1440115206912552,0.01440115206794019,-0.2592207372452845,-0.36002880172815244,0.5184414744873724,-0.08481100000000019,-0.009250999999999999,-0.05947599999999997,0.14207099999999984,0.032177,-0.05317499999999997,0.22688200000000003,0.041428,0.006301000000000001,0.9895746129606116,0.9311314382511866,double,-0.05317499999999997
32,0.266667,stair_decsent,0.004799616030695695,-0.004919606431485401,0.0033597312215056367,-0.02306236516788216,0.021048201887566287,-0.010917936987445464,0.003359731221518958,-0.005399568034557323,0.006119510439167651,0.002879769618433403,0.0022798176145906127,-0.003959683225335938,-0.1728622005409506,0.28805932088158365,0.4751326160870655,-0.17284146701938016,-0.345508426988869,0.3598974843027336,0.05755622925415954,0.08636371635404531,-0.23033376794653576,-0.08482299999999987,-0.009255000000000001,-0.05945299999999998,0.14205500000000004,0.032236999999999995,-0.05323599999999995,0.2268779999999999,0.041492,0.006217000000000028,0.9852906363103346,0.9288284981722095,double,-0.05323599999999995
33,0.275,stair_decsent,0.008160326413077972,-0.003720148805952404,0.0007200288011461016,0.0024462695468991007,0.021888103803194357,0.021340892123768867,0.004200168006721121,-0.00240009600384015,0.002760110404415595,0.0008400336013548828,0.0003600144005763816,-0.003000120004806511,0.4033013779409892,0.1439406726908667,-0.3167769615216038,0.10085644848219841,0.35995104172772835,-0.40314412993544246,-0.24477811317394838,-0.23038560110575101,0.11515219255123278,-0.08485600000000004,-0.009243999999999999,-0.05943599999999993,0.14199399999999995,0.032271,-0.05326699999999995,0.22685,0.041515,0.00616899999999998,0.990717387586805,0.9330829371793237,double,-0.05326699999999995
34,0.283333,stair_decsent,0.005280211208440308,-0.0036001440057600925,0.002760110404415613,0.002896252207899718,0.03348569256958054,-0.0054782264371944075,0.004320172806903284,-0.003120124804992205,0.004680187207489661,0.000840033601328242,0.0009600384015361912,-0.003000120004806531,-0.345627649662507,0.014401152069160202,0.24481958517574903,0.014401152067942376,-0.08640691241474341,0.2304184331062127,-3.197023753975685e-12,0.07200576034559115,-2.3940141574142962e-15,-0.08486400000000005,-0.009240000000000002,-0.05941999999999992,0.1419569999999999,0.032309000000000004,-0.053315,0.22682099999999994,0.041549,0.006104999999999916,0.9881792056836052,0.9335165515791786,double,-0.053315
35,0.291667,stair_decsent,0.008039356851456585,-0.001679865610751153,0.0015598752099880903,-0.006713625572813123,0.014873332538461192,0.020105692172176476,0.004439644828421493,-0.003599712023038111,0.003119750419962859,0.0008399328053864003,-0.0008399328053755765,-0.0015598752099747685,0.33107099148263425,0.23041497420313625,-0.14401670199514296,0.014335495742525652,-0.05754586249650895,-0.18723743550837535,-1.2094545457365109e-05,-0.21597926648809287,0.17281555013580044,-0.08489400000000002,-0.009256,-0.05940699999999999,0.14189699999999994,0.032316,-0.05334099999999997,0.22679099999999996,0.041572,0.006066000000000016,0.989147297375232,0.9360722344935701,double,-0.05334099999999997
36,0.3,stair_decsent,0.008400336013442297,-0.0009600384015361912,0.003720148805952637,-0.04873534244393064,0.019644072354636187,0.015385749969051404,0.003960158406330232,-0.0030001200048001813,0.00480019200768512,0.0006000240009639708,-0.0007200288011519352,-0.003120124804988666,0.04331923220757387,0.08638272041461222,0.259243201243796,-0.057540672277842646,0.07195392034536556,0.2016610569689506,-0.028790208139017177,0.014389056069079753,-0.18723744089930416,-0.08493100000000009,-0.009273,-0.05939799999999995,0.14183199999999996,0.032318,-0.053397999999999946,0.22676300000000005,0.041591,0.006000000000000005,0.9884860690710636,0.9345702340251661,double,-0.053397999999999946
37,0.308333,stair_decsent,-0.02580103204129069,0.004920196807872427,0.01896075843033611,-0.25246873646330714,0.062218929567990494,-0.09861838651572813,0.002400096003829221,-0.0045601824072962534,0.004920196807867223,0.0006000240009639668,-0.0002400096003842544,-0.0033601344053795614,-4.10432833970153,0.7056564513870868,1.8289463127785204,-0.1872149768991965,-0.1872149768986038,0.014401152067934995,-4.814050207843934e-16,0.057604608276452515,-0.02880230413907287,-0.0846960000000001,-0.009352,-0.059514999999999985,0.14205200000000007,0.032275,-0.053583999999999965,0.22674800000000017,0.041627,0.00593100000000002,0.988125182920291,0.9349871409138764,double,-0.053583999999999965
38,0.316667,stair_decsent,0.009239260859117249,-0.0028797696184305077,-0.0007199424046016947,-0.01235331900319274,0.012154215125213327,0.007570258857741315,0.037317014638849774,0.03155747540196795,0.1279097672186246,0.0005999520038436266,-0.0032397408207342692,-0.0015598752099881005,4.2044987881459255,-0.9359210974685599,-2.3614951805781037,4.189695060597643,4.333772235332902,14.75756784386346,-8.638963323746845e-06,-0.35993895132589776,0.21601382234118924,-0.08446199999999982,-0.009065,-0.05844300000000002,0.14198000000000022,0.032272,-0.053591000000000055,0.22644200000000003,0.041337,0.0048519999999999675,0.771786269857346,0.9454043030433671,double,-0.053591000000000055
39,0.325,stair_decsent,0.008880355214224074,-0.0019200768030721614,0.0010800432017191524,0.010062535238795465,0.01758585291126222,0.024006352704725512,-0.027001080043218627,-0.04260170406816248,-0.11868474738989722,-0.0012000480019279335,-0.0030001200048006818,-0.0016800672026831191,-0.04307040020318894,0.11516774455278318,0.21600691303502215,-7.718480101052217,-8.899457514716202,-29.592525454040658,-0.21600864103822787,0.028755648137955895,-0.014423616068044893,-0.08476100000000009,-0.009404,-0.059440999999999966,0.14189600000000002,0.032263,-0.05361399999999994,0.2266570000000001,0.041666999999999996,0.005827000000000027,0.785070859377023,0.935660160844235,double,-0.05361399999999994
40,0.333333,stair_decsent,0.009840393615734511,-0.0002400096003840478,0.003360134405379584,-0.04220495800966445,0.011014082857026491,0.013682454434608025,0.003840153606148096,-0.0037201488059522207,0.005760230409222144,-0.000960038401537024,0.0,-0.003240129605184125,0.1152092165499148,0.20161612896773284,0.27362188931482506,3.7010960817672864,4.665973270396059,14.933994695682188,0.028802304139074777,0.3600288017281518,-0.18721497689919714,-0.08481099999999997,-0.009433,-0.059420999999999946,0.1418060000000001,0.032264999999999995,-0.05366899999999997,0.22661700000000007,0.041698,0.005751999999999979,0.9869013845913471,0.9368477235728113,double,-0.05366899999999997
41,0.341667,stair_decsent,0.0074394048476129635,-0.0005999520038396678,-0.0004799616030722338,0.04408330737161328,0.023863150047618294,0.04004603923626026,0.004079673626120648,-0.0055195584353251725,0.005519558435324028,-0.0023998080153744905,-0.0013198944084469777,-0.00035997120230084497,-0.28809560452622335,-0.043189633244014834,-0.46077465904149434,0.028740103188451167,-0.2159118825741481,-0.02887832660164579,-0.1727585329778576,-0.15837465904091388,0.3455913610371103,-0.08483899999999989,-0.009474,-0.05937099999999995,0.14172399999999996,0.032258999999999996,-0.05366799999999994,0.22656299999999985,0.041733,0.005703000000000014,0.985320574911198,0.9383660225448859,double,-0.05366799999999994
42,0.35,stair_decsent,0.005520220808831226,0.002400096003840062,0.006960278411136762,-0.051259907966054674,0.02031920730404133,0.007496637068946302,0.002880115204611072,-0.0039601584063362685,0.00576023040920882,-0.003120124804975343,-0.000360014400576384,-0.0003600144005863764,-0.23031129710569329,0.3600201617280376,0.8928645162857332,-0.1439527686918972,0.18713548889822487,0.028881792137860712,-0.08644147241099896,0.11519020855281364,-5.184001623834489e-06,-0.08486099999999985,-0.009526999999999999,-0.05938100000000002,0.1416520000000001,0.032236,-0.05372900000000003,0.22651299999999996,0.041762999999999995,0.00565199999999999,0.9873994959798469,0.9382110132916297,double,-0.05372900000000003
43,0.358333,stair_decsent,0.00804032161286919,0.00612024480979245,0.003000120004806511,-0.0269211137498642,0.02873828745249751,0.0478181821931907,0.004440177607085391,-0.002880115204608242,0.007680307212296141,-0.0016800672026831191,0.0027601104044164275,-0.003960158406330205,0.3024241934522926,0.4464357141428504,-0.47523801828035933,0.1872149768959933,0.1296103686221075,0.2304184331078018,0.17281382482805926,0.37442995379728766,-0.4320345620717405,-0.08489100000000005,-0.009602,-0.059342000000000006,0.1415710000000001,0.032208,-0.05378700000000003,0.22646200000000016,0.04181,0.005554999999999977,0.9844546041427118,0.9359314434821311,double,-0.05378700000000003
44,0.366667,stair_decsent,0.008279337652999364,-0.002399808015358671,0.0021598272138183914,0.05795479407561014,0.025403748382903824,0.02188701319369255,0.0032397408207342476,-0.0023998080153587753,0.007799376049913808,-0.0032397408207342476,0.00035997120230417536,-0.00011999040077138885,0.02867963044518516,-1.0223245530538891,-0.100827068753074,-0.14404089109084978,0.057632252129765596,0.014287117544716451,-0.18714586249713547,-0.28799366476028915,0.4607832980032172,-0.08493300000000015,-0.009602000000000001,-0.05929499999999999,0.14147500000000002,0.032231,-0.05380600000000002,0.22640800000000016,0.041833,0.005488999999999966,0.9853669641389309,0.9396735240304506,double,-0.05380600000000002
45,0.375,stair_decsent,0.009000360014379623,0.004800192007680124,0.005280211208453632,-0.01463991970521532,0.03472124528043237,0.02886511870410395,0.009840393615761157,-0.007440297611904441,0.02352094083763044,-0.0016800672027097766,0.0020400816032636777,-0.000960038401537024,0.08652614441140775,0.8640345641472233,0.3744610577985417,0.7921100198040232,-0.6048829469033575,1.8866632410556432,0.18716832089577282,0.2016213129676595,-0.1008097924835758,-0.08492599999999983,-0.009703999999999999,-0.05914300000000006,0.141386,0.032208,-0.05385800000000007,0.22631199999999985,0.041912,0.005284999999999984,0.9557335707538328,0.9424636627409442,double,-0.05385800000000007
46,0.383333,stair_decsent,0.010560422416907264,0.0027601104044162376,0.00408016320652569,-0.03582207285711426,0.014370314255779405,0.030801416985760506,0.00816032641305138,-0.0074402976119045455,0.010800432017284858,-0.0030001200047932073,-0.0018000720028802544,-0.009240369614783863,0.18721497690239344,-0.24481958517507396,-0.14401152069218107,-0.2016161289703325,-1.2490508647378938e-14,-1.5265221193262468,-0.15841267275692233,-0.4608368662119215,-0.9936794927693339,-0.08494599999999997,-0.009788999999999999,-0.059087,0.14127299999999998,0.03217,-0.053969000000000045,0.22621899999999995,0.041958999999999996,0.005117999999999956,0.9742556215693359,0.9323524047262064,double,-0.053969000000000045
47,0.391667,stair_decsent,0.01091912646988999,-0.0015598752099830946,0.00455963522917956,-0.01061151051993261,0.03892569215523242,0.03458619563410485,0.01319894408447977,-0.011039116870650345,0.009479241660659965,-0.004439644828421493,0.004079673626110657,-0.010559155267575821,0.043041043074481054,-0.5183568051835047,0.05753204015525192,0.6045857537111092,-0.4318237651482837,-0.1585301603821564,-0.17272916050255394,0.7055130344361539,-0.15824161900551445,-0.08492699999999997,-0.009868000000000002,-0.05904600000000004,0.14114499999999985,0.032217,-0.054095000000000004,0.22607199999999983,0.042085000000000004,0.004951000000000039,0.9672581541665082,0.9302244063426256,double,-0.054095000000000004
48,0.4,stair_decsent,0.0134405376214916,-0.0004800192007680924,0.003960158406330205,0.03919665751551718,0.04641664627781296,0.03615316617901986,0.00972038881555231,-0.05568222728909133,0.01824072962919001,-0.007440297611905225,0.0028801152046077218,-0.006840273610941258,0.30258144144985005,0.1295879046219846,-0.07194009634577617,-0.4174433300044936,-5.357387545714724,1.051420613048123,-0.36009273772755535,-0.14395276869109927,0.4462836501421515,-0.08495799999999987,-0.010328,-0.05892699999999995,0.14097099999999996,0.032244999999999996,-0.05418499999999993,0.22592899999999982,0.042573,0.004742000000000024,0.9010089704961333,0.9350647340222182,double,-0.05418499999999993
49,0.408333,stair_decsent,0.05496219848794799,-0.008520340813632553,-0.019080763230518372,0.3117013297757549,0.01234968341543533,0.22128351258720627,0.024840993639727194,-0.018240729629185135,0.023280931237252847,-0.014520580823210848,0.007920316812672953,-0.010080403216125428,4.982798615919417,-0.9648771886312829,-2.7650211972697267,1.8145451607074188,4.493159445566577,0.6048483869030181,-0.84966797207556,0.6048483869033053,-0.38883110586633607,-0.08520900000000009,-0.010409,-0.058574000000000015,0.14039200000000007,0.032382,-0.05410999999999999,0.22560100000000016,0.042791,0.0044640000000000235,0.935626934944124,0.9230768252087791,double,-0.05410999999999999
50,0.416667,stair_decsent,0.01067914566834721,0.0047996160307175505,0.008999280057587732,-0.004882879671611667,0.051841658294136915,0.015209508206015842,0.02615790736741676,-0.014518838492920606,0.02447804175665728,-0.010079193664503588,0.016318694504439298,-0.022798176145911123,-5.3135412550516845,1.5982669599652137,3.3693356477209115,0.158017005962271,0.44659120905501865,0.143641770986853,0.5329238251388596,1.0077247050355576,-1.5260106707206242,-0.08508000000000004,-0.01057,-0.05844499999999997,0.1402190000000001,0.032478,-0.05437499999999995,0.22529900000000014,0.043048,0.004070000000000018,0.9355750368157194,0.9096443308921948,double,-0.05437499999999995
51,0.425,stair_decsent,0.007800312012478328,0.016800672026881056,0.01944077763110475,-0.23974710048147288,0.005129073268724596,0.016078047033576653,0.027721108844364913,-0.017760710428417145,0.026161046441850595,-0.0070802832113322205,0.012120484819392437,-0.004680187207489661,-0.3454738576585731,1.4401843269127008,1.253029830015246,0.18759168090101466,-0.38904019386734023,0.2019686409688369,0.359883649726554,-0.5038053144182013,2.1742456424362784,-0.08491399999999993,-0.010858,-0.058389000000000024,0.14009500000000008,0.032438999999999996,-0.05457599999999996,0.22500900000000001,0.043296999999999995,0.0038130000000000663,0.9299146738013053,0.9372089243438303,double,-0.05457599999999996
52,0.433333,stair_decsent,0.0,0.01356054242169684,0.01104044161766238,-0.09328499931942466,0.03801110270452454,-0.005119376131604926,0.025201008040326725,-0.018480739229569113,0.023160926437057233,-0.005040201608076004,0.0105604224168972,0.0018000720028785772,-0.9360748844927751,-0.3888311058663388,-1.008080644838874,-0.30242419345231936,-0.08640691241473247,-0.36002880172727103,0.24481958517415195,-0.18721497689850347,0.7776622117326546,-0.08470399999999989,-0.011125,-0.058288000000000006,0.14005299999999998,0.032414,-0.05465299999999995,0.22475699999999987,0.043539,0.003635000000000055,0.9351699434816363,0.9439180171429935,double,-0.05465299999999995
53,0.441667,stair_decsent,0.09215262778978957,-0.377369810415169,-0.3304535637148955,8.186287856551107,1.5477280634372674,-0.03341516121958253,0.02807775377967924,-0.018358531317494695,0.024238060955127986,-0.0015598752099881005,0.013558915286776541,-0.001439884809216711,11.057430740315587,-46.90788970924743,-40.9760025597024,0.3451818741723698,0.014663776346822574,0.1292458025042908,0.41760575930980603,0.3597903611566304,-0.3887637163541285,-0.08523800000000015,-0.008133,-0.05533200000000005,0.13927199999999984,0.035671999999999995,-0.05191100000000004,0.22451,0.043805,0.0034210000000000074,0.9310217520535917,0.9429165156732534,double,-0.05191100000000004
54,0.45,stair_decsent,0.012600504020136717,-0.08676347053882115,-0.07044281771270872,1.887560795882361,0.43398578800678717,0.05900819088536797,0.018480739229567604,-0.01596063842553699,0.012960518420736413,-0.0019200768030740352,0.008280331213249283,-0.0014400576023055264,-9.546636717827015,34.87415575139165,31.202537621767153,-1.1516878135259323,0.2877586573812186,-1.353359238496523,-0.04322592020712026,-0.63345542704035,-2.073600009785542e-05,-0.08518899999999996,-0.007543,-0.05463700000000005,0.13915100000000002,0.036464,-0.05133600000000005,0.22433999999999998,0.044007000000000004,0.0033009999999999984,0.9539247373204494,0.9526214052116767,double,-0.05133600000000005
55,0.458333,stair_decsent,0.00372014880596596,-0.09444377775111022,-0.07656306252250439,2.0528140112614737,0.4781016101279771,0.05399908362381879,0.028441137645511018,-0.021000840033601375,0.02184087363494731,0.001920076803074048,0.006600264010560378,0.0002400096003909176,-1.065685253110618,-0.921673732423988,-0.7344587555257035,1.1952956217380821,-0.6048483869032037,1.0656852531154348,0.4608368662124196,-0.20161612896782782,0.20161612896873252,-0.08498300000000003,-0.0069310000000000005,-0.053817000000000004,0.13913599999999993,0.037306000000000006,-0.05069599999999996,0.22411899999999996,0.044237000000000005,0.0031210000000000404,0.9307388726584201,0.957326557557575,double,-0.05069599999999996
56,0.466667,stair_decsent,-0.0011999040076872453,-0.09155267578593701,-0.0724742020638407,2.016788059752871,0.4624393864533419,0.04350167401260188,0.02003839692824911,-0.017398608111351094,0.01547876169906955,-0.0008399328053597571,-0.001199904007679752,0.0074394048476129635,-0.5903591089096712,0.34690448346210817,0.4906240051192328,-1.008248226213331,0.43223325200987245,-0.7633923609164572,-0.33117465903933313,-0.9359452865658894,0.8638583210009646,-0.08480599999999994,-0.006313000000000001,-0.05308399999999991,0.13913900000000012,0.038058999999999996,-0.05002999999999991,0.22394500000000006,0.044372,0.003054000000000001,0.9487966749288514,0.9568229731397667,double,-0.05002999999999991
57,0.475,stair_decsent,-0.002520100804038019,-0.08124324972998946,-0.06720268810752505,1.8526126632575042,0.448405630957027,0.06995786504290866,-0.017880715228603756,0.00048001920076804356,0.01176047041880856,-0.03288131525262308,0.0018000720028802544,-0.0066002640105637085,-0.15842995276020364,1.2371806139382664,0.6326069790370402,-4.550475477841469,2.1455210982982336,-0.44621280214340564,-3.8451196984595466,0.3600115217280708,-1.6848276560874482,-0.08493399999999984,-0.005632,-0.05242599999999997,0.13888600000000006,0.038751,-0.04952499999999993,0.2238199999999999,0.044383,0.0029010000000000424,0.9643216895956537,0.9150141957785157,double,-0.04952499999999993
58,0.483333,stair_decsent,0.021960878435142623,-0.08616344653786114,-0.07380295211807496,1.9821999937512487,0.46876672682096693,0.07935819731298378,0.020280811232432857,-0.030841233649345826,0.03876155046202711,-0.0010800432017191524,0.006720268810752461,0.0037201488059526123,2.937835022102549,-0.5904472348339918,-0.792063363800537,4.579566357978694,-3.75870069004125,3.240259215554835,3.8163052983203887,0.5904472348340557,1.238499077945071,-0.08494800000000002,-0.005171,-0.05148799999999998,0.1386940000000001,0.039525000000000005,-0.048879000000000006,0.22364200000000012,0.044696,0.0026089999999999725,0.9107912748493832,0.9609819927907598,double,-0.048879000000000006
59,0.491667,stair_decsent,0.027357811375104006,-0.06911447084233256,-0.04643628509719532,1.4178338440614506,0.36775414694965014,0.0931854145005626,0.08855291576675386,-0.04691624670026397,0.012479001679864756,-0.0011999040076872453,0.004079673626109824,0.00011999040077138885,0.6475801463836547,2.0457134263893155,3.2837373435180717,8.191997184343766,-1.9288472583295087,-3.1536535615745533,-0.014382146144479574,-0.3168460744711584,-0.4319844498657572,-0.08443800000000001,-0.004986000000000001,-0.05099699999999996,0.1384559999999999,0.040135000000000004,-0.04849099999999995,0.22289399999999993,0.045121,0.0025060000000000082,0.8316874717629277,0.967849728061257,double,-0.04849099999999995
60,0.5,stair_decsent,0.029761190447621096,-0.06444257770310831,-0.041401656066247516,1.277250320583694,0.3555023584373411,0.06995217781245495,0.03648145925835362,-0.038641545661826544,0.028801152046070748,0.0030001200047932073,0.0045601824072958675,-0.003960158406343554,0.28841702538306685,0.5606496026910195,0.6041796508997742,-6.248824733997405,0.9930038447662838,1.9587363934004596,0.5040230424193524,0.05766336027673638,-0.48963744235148843,-0.08438200000000018,-0.004771,-0.05041200000000001,0.13823299999999983,0.040709999999999996,-0.04817899999999997,0.222615,0.045480999999999994,0.0022330000000000405,0.8992586882718522,0.9664303333587507,double,-0.04817899999999997
61,0.508333,stair_decsent,0.040801632065283276,-0.0640825633025318,-0.03888155526220924,1.2394468978745394,0.3594696011492126,0.06839305975652596,0.004080163206538986,-0.02556102244089754,0.041521660866442704,0.00552022080883119,0.0034801392055683576,-0.006600264010563665,1.3249059903590703,0.0432034562074291,0.3024241934523302,-3.888311058660086,1.5697255755344954,1.5265221193294016,0.3024241934522947,-0.12961036862204553,-0.3168253455202328,-0.0846880000000001,-0.004450000000000001,-0.04974199999999995,0.1379389999999998,0.041273,-0.04791000000000001,0.2226269999999999,0.045723,0.0018319999999999448,0.9184514132365125,0.9662107031979901,double,-0.04791000000000001
62,0.516667,stair_decsent,0.04247660187184635,-0.04751619870410401,-0.026397888168946393,0.928727782420258,0.2926838577884643,0.07482234544081309,0.07979361651066948,-0.0559155267578597,0.02819774418046395,0.0015598752099881005,0.000479961603072237,-0.004319654427636811,0.20098029836370065,1.9878047274331518,1.4979202175741442,9.084887605487271,-3.6422491381044315,-1.5987421029492237,-0.47520345558472665,-0.3599925128985046,0.27365125785059596,-0.08437700000000015,-0.00452,-0.04928699999999997,0.1375979999999999,0.041673,-0.047725999999999935,0.22197500000000003,0.046193000000000005,0.0015610000000000346,0.8309447810023174,0.976693863129003,double,-0.047725999999999935
63,0.525,stair_decsent,0.04956198247929857,-0.028801152046081694,-0.008520340813624377,0.5664383721768805,0.21861631418171923,0.07008515464735443,0.20844833793352843,-0.031081243249729846,-0.07176287051481879,0.0009600384015370176,-0.0010800432017283122,-0.002280091203647086,0.8502796840816265,2.2458954347800595,2.1453914982985647,15.439184138108534,2.980233230304782,-11.995753593577621,-0.0719832963459835,-0.18720806489866107,0.24475737717385299,-0.08305300000000004,-0.004539,-0.049814000000000025,0.1371929999999999,0.041904,-0.047673999999999994,0.22024599999999994,0.046443,0.0021400000000000308,0.6289404702831589,0.9741009312855711,double,-0.047673999999999994
64,0.533333,stair_decsent,0.06120244809792573,-0.04332173286931519,-0.037321492859722076,1.0228514464010523,0.2863026504713362,0.05583506823614797,0.018720748829958767,-0.019080763230529405,0.013800552022078158,0.000840033601354894,-0.0019200768030723952,0.0007200288011461112,1.3969117507053002,-1.7425394003640502,-3.4562764965916193,-22.768221421285418,1.4401152069123426,10.268021425284738,-0.014401152067937685,-0.10080806448387024,0.36002880172725604,-0.08340700000000001,-0.004337,-0.04938799999999999,0.13668999999999998,0.042248999999999995,-0.04735699999999998,0.220097,0.046585999999999995,0.002031000000000005,0.9498613810873624,0.9759966152020801,double,-0.04735699999999998
65,0.541667,stair_decsent,0.06323494120469644,-0.03167746580273548,-0.02483801295895796,0.7926349177114207,0.23610095342403412,0.054271482815813205,0.025437964962788256,-0.022198224142068457,0.01271898248140745,0.0010799136069025276,0.0004799616030722306,0.0008399328053730732,0.2438796624394886,1.3972002719677976,1.4978977562711806,0.8060014558230666,-0.374065384153951,-0.12977796264347238,0.028783298001875672,0.287981570211736,0.01438732952087366,-0.08372200000000007,-0.0042580000000000005,-0.04907499999999998,0.13617199999999996,0.042517,-0.047143000000000046,0.21989400000000003,0.046775000000000004,0.0019319999999999338,0.9398699619372983,0.9782635841185655,double,-0.047143000000000046
66,0.55,stair_decsent,0.06552262090482817,-0.03132125285011397,-0.030721228849157914,0.8582893306406582,0.24750804309445099,0.031279613283472514,0.026041041641681608,0.028081123244929673,0.005280211208440274,-0.0009600384015370176,0.0,0.002040081603269493,0.2745325453176193,0.042747264205148516,-0.706014147389887,0.07237209635105601,6.033763036961229,-0.892688260286469,-0.24480403317407137,-0.05759769627651849,0.14402361669223745,-0.08405099999999988,-0.003763,-0.04877500000000001,0.13561800000000002,0.042778000000000004,-0.04686999999999997,0.2196689999999999,0.046541,0.0019050000000000455,0.9355673055108739,0.9771921908420133,double,-0.04686999999999997
67,0.558333,stair_decsent,0.05244209768391032,-0.024960998439937807,-0.024480979239167627,0.6838464042540789,0.19783893305351152,0.025221594206905375,-0.2125285011400436,-0.057242289691588184,0.20184807392296744,-0.035041401656061635,-0.021480859234370236,0.012240489619577152,-1.5697255755331785,0.7632610596635335,0.7488599075951451,-28.629490313419822,-10.239219121147082,23.589087089227046,-4.089927187630497,-2.577806220373267,1.2240979258739653,-0.08625899999999986,-0.004032,-0.04688899999999996,0.13488900000000004,0.042807,-0.04656400000000005,0.2211479999999999,0.046839,0.0003249999999999087,0.5022615354526565,0.9252743489479109,double,-0.04656400000000005
68,0.566667,stair_decsent,0.0,0.0,0.0,0.0,0.0,0.0,0.017518598512116436,-0.022078233741300524,0.022078233741295965,0.0011999040076872372,0.0,-0.0015598752099747583,-6.292548318203734,2.995080206376004,2.9374825100992847,27.60344368276437,4.219349166101199,-21.57065516938686,4.348608790946556,2.577496908371739,-1.6559113066416853,-0.08611299999999988,-0.004216,-0.046704999999999997,0.1348990000000001,0.042807,-0.04657699999999998,0.221012,0.047022999999999995,0.000128000000000017,0.9403296531838019,0.9954400185051513,double,-0.04657699999999998
69,0.575,stair_decsent,0.0,0.0,0.0,0.0,0.0,0.0,0.01800072002878601,-0.019080763230529395,0.015600624024956758,0.001560062402501005,-0.007800312012480044,0.002640105604220172,0.0,0.0,0.0,0.05785689627620042,0.35971084972652784,-0.7773442597311012,0.04322073620710081,-0.9360748844929936,0.504017858417733,-0.08596300000000001,-0.0043749999999999995,-0.04657500000000003,0.13491200000000014,0.042742,-0.04655500000000001,0.22087500000000015,0.047117,2.0000000000020002e-05,0.9491330461732025,0.9858309051640203,double,-0.04655500000000001
70,0.583333,stair_decsent,0.0,0.0,0.0,0.0,0.0,0.0,0.014400576023055263,-0.016200648025920965,0.014160566422664347,-0.000240009600390916,-0.010800432017280622,0.000120004800195458,0.0,0.0,0.0,-0.43203456207017066,0.3456276496589965,-0.17281382482808164,-0.21601728103827117,-0.36002880172813695,-0.3024241934507024,-0.08584299999999989,-0.00451,-0.04645699999999997,0.13491000000000009,0.042652,-0.046553999999999984,0.22075299999999998,0.047162,9.700000000001374e-05,0.9558778393850363,0.9819937250505206,double,-0.04645699999999997
71,0.591667,stair_decsent,0.0,0.0,0.0,0.0,0.0,0.0,0.009239260859117126,-0.012479001679865516,0.012359011279093286,-0.023758099352068754,-0.03227741780657504,-0.05291576673866347,0.0,0.0,0.0,-0.6193082750105708,0.44656183657972404,-0.2161693236826311,-2.821945014600151,-2.577032132144739,-6.363783481984464,-0.08576600000000001,-0.004614,-0.046354000000000006,0.13471199999999994,0.042383000000000004,-0.04699500000000001,0.22047799999999995,0.046997000000000004,0.0006410000000000027,0.9605145566106121,0.8893660018772658,double,-0.046354000000000006
72,0.6,stair_decsent,0.0,0.0,0.0,0.0,0.0,0.0,0.0055202208088312625,-0.00972038881555271,0.013200528021127506,-0.002640105604220172,-0.011640465618624835,-0.00864034561381995,0.0,0.0,0.0,-0.44630265814063325,0.3310467855889633,0.10098604848604668,2.53426062016666,2.4765333238870024,5.313263065503891,-0.08572000000000002,-0.0046949999999999995,-0.04624399999999995,0.13468999999999998,0.042286000000000004,-0.04706699999999997,0.22041,0.046981,0.0008230000000000182,0.9629403886535065,0.9754413304657059,double,-0.04624399999999995
73,0.608333,stair_decsent,0.0,0.0,0.0,0.0,0.0,0.0,0.031201248049939748,-0.01320052802112079,-0.05460218408737457,-0.003480139205548373,-0.008160326413057155,-0.009360374414979259,0.0,0.0,0.0,3.0818465427947173,-0.41763341000456805,-8.136650919056978,-0.100808064481963,0.41763341000452,-0.08640691241561327,-0.08545999999999987,-0.004804999999999999,-0.046699000000000046,0.13466100000000014,0.042218,-0.04714499999999999,0.220121,0.047022999999999995,0.00044599999999994644,0.8884422989272858,0.9785058854795712,double,-0.046699000000000046
74,0.616667,stair_decsent,0.0,0.0,0.0,0.0,0.0,0.0,-0.0007199424046283379,-0.001679865610751148,0.011279097672190909,-0.003839692824577896,-0.007079433645308002,-0.010559155267575893,0.0,0.0,0.0,-3.8302364356333416,1.3823688997323864,7.905121401435788,-0.04314298284491539,0.129696756389388,-0.143842194936002,-0.08546600000000004,-0.0048189999999999995,-0.04660500000000001,0.1346290000000001,0.042159,-0.04723299999999997,0.22009500000000015,0.046978,0.0006279999999999619,0.9746763141234728,0.9778667305667206,double,-0.04660500000000001
75,0.625,stair_decsent,0.0,0.0,0.0,0.0,0.0,0.0,-0.002880115204611053,0.0010800432017280615,0.013080523220931872,-0.004560182407294172,-0.007440297611904392,-0.004560182407294172,0.0,0.0,0.0,-0.2592311052421344,0.33120230558972735,0.21617971303743616,-0.08646220841428931,-0.04330540820789494,0.7199055394553817,-0.08549000000000007,-0.00481,-0.04649599999999998,0.13459100000000013,0.042097,-0.04727099999999995,0.2200810000000002,0.046907000000000004,0.0007749999999999702,0.9698544619620855,0.983589590386206,double,-0.04649599999999998
76,0.633333,stair_decsent,0.0,0.0,0.0,0.0,0.0,0.0,-0.004200168006694475,0.0025201008040321533,0.01440057602304194,-0.0033601344053928845,-0.010200408016320819,-0.0033601344053795614,0.0,0.0,0.0,-0.15841267275692023,0.1728138248294835,0.1584126727601179,0.14401152068898143,-0.33122649758987344,0.14401152069058026,-0.08552499999999985,-0.004789,-0.04637599999999997,0.134563,0.042012,-0.04729899999999998,0.22008799999999984,0.046801,0.0009230000000000071,0.9654186407803385,0.9812450502722954,double,-0.04637599999999997
77,0.641667,stair_decsent,0.0,0.0,0.0,0.0,0.0,0.0,-0.007679385649155792,0.003599712023038177,0.01607871370289996,-0.0002399808015427793,-0.007919366450683585,-0.008399328053757487,0.0,0.0,0.0,-0.41747271927781826,0.1295429828420962,0.20136041274994337,0.37438848138350406,0.27370309162913936,-0.6046548654161212,-0.08558899999999992,-0.004758999999999999,-0.046242000000000005,0.13456099999999993,0.041946000000000004,-0.047368999999999994,0.22014999999999985,0.046705,0.0011269999999999891,0.9584325888098465,0.9807557607811844,double,-0.046242000000000005
78,0.65,stair_decsent,0.0,0.0,0.0,0.0,0.0,0.0,-0.01104044161766238,0.001680067202688099,0.013680547221882515,0.0006000240009639668,-0.0022800912036487512,0.002400096003842544,0.0,0.0,0.0,-0.4033428499347862,-0.23036659310573263,-0.2877914893816672,0.10080460848514851,0.6767400992481472,1.295982726221047,-0.0856809999999999,-0.004745,-0.04612800000000006,0.13456599999999996,0.041927,-0.047348999999999974,0.22024699999999986,0.046672,0.0012209999999999166,0.9583568672520661,0.9943926373979408,double,-0.04612800000000006
79,0.658333,stair_decsent,0.0,0.0,0.0,0.0,0.0,0.0,-0.009600384015370304,0.0015600624024961162,0.020160806432264314,0.0014400576023188686,-0.003000120004799889,0.011880475219004096,0.0,0.0,0.0,0.17281382482804375,-0.014401152069120848,0.7776622117342924,0.10080806448516855,-0.08640691241463391,1.1376910134599352,-0.08576099999999998,-0.004732,-0.04596,0.1345780000000001,0.041902,-0.047250000000000014,0.22033900000000006,0.046634,0.0012900000000000134,0.9497927440799792,0.9794370764231018,double,-0.04596
80,0.666667,stair_decsent,0.0,0.0,0.0,0.0,0.0,0.0,-0.0322774178065842,-0.007199424046076262,0.08927285817134165,-0.00311975041997616,-0.004199664026877855,0.009359251259901835,0.0,0.0,0.0,-2.7210263728358193,-1.0510542894855184,8.292782786066331,-0.5471331920200377,-0.14393376794791896,-0.3025226732784067,-0.08603000000000005,-0.004791999999999999,-0.045216000000000034,0.134552,0.041867,-0.04717199999999999,0.22058200000000006,0.046659,0.0019559999999999578,0.8217709995537841,0.9821296641852446,double,-0.045216000000000034
81,0.675,stair_decsent,0.0,0.0,0.0,0.0,0.0,0.0,0.00552022080883119,-0.015120604824192904,-0.02616104644185042,-0.00408016320651234,-0.004200168006720288,0.01476059042361499,0.0,0.0,0.0,4.535898069772618,-0.9505797165626556,-13.85262265848933,-0.1152541445501231,-6.048000029203638e-05,0.6481866271106604,-0.08598400000000006,-0.004918,-0.045433999999999974,0.13451800000000014,0.041832,-0.04704900000000001,0.2205020000000002,0.04675,0.001615000000000033,0.9326557653267609,0.9735338700342953,double,-0.045433999999999974
82,0.683333,stair_decsent,0.0,0.0,0.0,0.0,0.0,0.0,-0.015720628825138895,-0.005520220808832401,0.03180127205087749,-0.00216008640346498,-0.0026401056042243353,0.006000240009599778,0.0,0.0,0.0,-2.5490039162330826,1.1520921655298921,6.9557564493853885,0.23041843310300938,0.187214976898592,-1.0512841010458769,-0.08611499999999994,-0.004964,-0.045169000000000015,0.13450000000000006,0.04181,-0.04699900000000001,0.220615,0.046773999999999996,0.0018299999999999983,0.9218638368243479,0.9884964967842288,double,-0.045169000000000015
83,0.691667,stair_decsent,0.0,0.0,0.0,0.0,0.0,0.0,-0.01679865610751475,-0.003359731221502258,0.034317254619631185,-0.005519558435323991,-0.01007919366450685,-0.0040796736261072995,0.0,0.0,0.0,-0.12935292565104942,0.2592380114387002,0.3018937567499013,-0.40310439547144056,-0.8926191577012789,-1.2094928768546915,-0.08625499999999997,-0.004992,-0.044883000000000006,0.13445400000000007,0.041726,-0.04703299999999999,0.22070900000000004,0.046717999999999996,0.0021499999999999853,0.914573901053902,0.9796762722727606,double,-0.044883000000000006
84,0.7,stair_decsent,0.0,0.0,0.0,0.0,0.0,0.0,-0.017160686427457765,-0.00360014400576026,0.04416176647066342,-0.012480499219981395,-0.020880835233409594,0.00108004320173249,0.0,0.0,0.0,-0.04344537620821062,-0.02885068813848605,1.181388677670986,-0.8353463080112166,-1.29624883822187,0.6191907869722593,-0.08639799999999997,-0.0050219999999999996,-0.04451499999999997,0.13434999999999997,0.041552,-0.047023999999999955,0.22074799999999994,0.046574,0.0025089999999999835,0.8957176916379931,0.9594161145094933,double,-0.04451499999999997
85,0.708333,stair_decsent,0.0,0.0,0.0,0.0,0.0,0.0,-0.0170406816272754,-0.003960158406336236,0.04776191047641999,0.002520100804038002,0.0030001200048006818,0.01476059042361499,0.0,0.0,0.0,0.01440115206796643,-0.043203456207365196,0.43203456207326935,1.8001440086426659,2.8658292617556915,1.6417313358793284,-0.08654000000000006,-0.005055,-0.04411699999999996,0.13437100000000002,0.041577,-0.04690099999999997,0.22091100000000008,0.046632,0.0027840000000000087,0.8873846796709253,0.9745470664341115,double,-0.04411699999999996
86,0.716667,stair_decsent,0.0,0.0,0.0,0.0,0.0,0.0,-0.014518838492898341,-0.01139908807295408,0.05579553635708353,0.005519558435323991,0.004919606431485368,0.021118310535151504,0.0,0.0,0.0,0.3025969683677754,-0.892600151981976,0.9639579890404939,0.3599061232644548,0.2303199456065121,0.7628653841536435,-0.08666099999999988,-0.00515,-0.043652000000000024,0.134417,0.041618,-0.046725000000000017,0.22107799999999989,0.046768000000000004,0.0030729999999999924,0.8713204983074831,0.9627079434798493,double,-0.043652000000000024
87,0.725,stair_decsent,0.0,0.0,0.0,0.0,0.0,0.0,-0.01380055202209148,-0.023280931237249697,0.06048241929677962,0.012000480019199556,-0.015600624024960923,0.005040201608062748,0.0,0.0,0.0,0.08619782440980048,-1.4258782148440807,0.5624484507015638,0.7777416997330642,-2.4625261558198104,-1.929450249260639,-0.08677599999999996,-0.005344,-0.043147999999999964,0.134517,0.041488000000000004,-0.04668300000000003,0.22129299999999996,0.046832000000000006,0.003535000000000066,0.854214246437383,0.9661377536140372,double,-0.043147999999999964
88,0.733333,stair_decsent,0.0,0.0,0.0,0.0,0.0,0.0,0.02280091203647086,-0.11004440177607058,0.1422056882275275,0.012120484819408178,0.0009600384015353521,0.027241089643582895,0.0,0.0,0.0,4.392351381082706,-10.412032945976302,9.807184559072068,0.014401152071117368,1.9873589855389664,2.6642131327877183,-0.08658600000000005,-0.006260999999999999,-0.04196299999999997,0.13461800000000013,0.041496,-0.04645600000000005,0.22120400000000018,0.047756999999999994,0.00449300000000008,0.652984150740532,0.9502812132824454,double,-0.04196299999999997
89,0.741667,stair_decsent,0.0,0.0,0.0,0.0,0.0,0.0,-0.002159827213805084,-0.04643628509719251,0.08387329013679015,0.00035997120230084735,-0.02231821454283654,0.0392368610511254,0.0,0.0,0.0,-2.9950491061046423,7.63236341239242,-6.999327824662548,-1.4111487421535154,-2.793166899972645,1.439377418711612,-0.0866039999999999,-0.006647999999999999,-0.04126399999999997,0.1346210000000001,0.04131,-0.046128999999999976,0.221225,0.047958,0.004865000000000008,0.7915261192785474,0.9247640093366973,double,-0.04126399999999997
90,0.75,stair_decsent,0.0,0.0,0.0,0.0,0.0,0.0,0.05364214568581091,-0.026881075243009585,0.15156606264250677,0.0067202688107324765,-0.018000720028800758,0.02868114724588842,0.0,0.0,0.0,6.696504608138216,2.346719051263992,8.12345763899152,0.7632662436615387,0.518120066486951,-1.2667363260814755,-0.08615700000000004,-0.006872,-0.04000099999999995,0.13467699999999994,0.04116,-0.045889999999999986,0.22083399999999997,0.048032,0.005889000000000033,0.6694262411054268,0.9424626657005282,double,-0.04000099999999995
91,0.758333,stair_decsent,0.0,0.0,0.0,0.0,0.0,0.0,-0.0134405376214916,-0.0765630625225006,0.11556462258489525,0.00804032161286919,-0.01284051362054512,0.005400216008635731,0.0,0.0,0.0,-8.050244006636532,-5.962076956617161,-4.320345620738194,0.15841267276331558,0.6192495389722329,-2.7938235014103676,-0.08626899999999993,-0.007509999999999999,-0.03903800000000002,0.13474399999999997,0.041053,-0.045845000000000025,0.2210129999999999,0.048562999999999995,0.0068070000000000075,0.6998037616704582,0.9731937043765989,double,-0.03903800000000002
92,0.766667,stair_decsent,0.0,0.0,0.0,0.0,0.0,0.0,0.025557955363573307,-0.047396208303336,0.13450923926086453,0.0035997120230351165,-0.002279817614590628,-0.00299976001919149,0.0,0.0,0.0,4.679444802623606,3.4997425268976206,2.2731721473445385,-0.5328305243381448,1.2671821461428547,-1.0079164900200708,-0.08605599999999991,-0.007904999999999999,-0.03791699999999998,0.13477399999999995,0.041034,-0.045869999999999966,0.22082999999999986,0.048938999999999996,0.007952999999999988,0.6789910781545192,0.9913150744938075,double,-0.03791699999999998
93,0.775,stair_decsent,0.0,0.0,0.0,0.0,0.0,0.0,0.029161166446656932,-0.07356294251770037,0.14556582263290707,0.004920196807893869,0.00048001920076767607,0.013320532821309464,0.0,0.0,0.0,0.43240262607507624,-3.140133711072155,1.3268430783682346,0.15846451276356016,0.3311936655896187,1.9585134813993623,-0.08581299999999992,-0.008518,-0.03670399999999996,0.13481500000000013,0.041038,-0.045758999999999994,0.22062800000000005,0.049555999999999996,0.009055000000000035,0.6333094919892976,0.9763195257587198,double,-0.03670399999999996
94,0.783333,stair_decsent,0.0,0.0,0.0,0.0,0.0,0.0,0.09504380175205941,-0.11880475219008874,0.22572902916115778,0.003120124804975364,-0.0006000240009598112,0.008880355214210869,0.0,0.0,0.0,7.9062324859478075,-5.429234330059855,9.619969582173459,-0.21601728104146425,-0.12961036862204453,-0.5328426265568986,-0.08502100000000001,-0.009507999999999999,-0.03482300000000005,0.134841,0.041033,-0.045684999999999976,0.219862,0.050541,0.010861999999999927,0.4376868584737289,0.9842805926452087,single,-0.03482300000000005
95,0.791667,stair_decsent,0.0,0.0,0.0,0.0,0.0,0.0,0.06215502759779391,-0.09827213822894086,0.17122630189585508,-0.0009599232061444612,0.002879769618430886,-0.002639788816903929,0.0,0.0,0.0,-3.946337191536507,2.463716578011485,-6.539804087509273,-0.4895665960066947,0.417541830980402,-1.3823066991978294,-0.084503,-0.010327,-0.03339599999999998,0.13483299999999998,0.041057,-0.04570700000000005,0.21933599999999998,0.051384,0.012311000000000072,0.5319298289145813,0.9932953145291306,double,-0.03339599999999998
96,0.8,stair_decsent,0.0,0.0,0.0,0.0,0.0,0.0,0.07716308652345452,-0.1382455298211923,0.2049681987279401,-0.017520700828030585,0.034081363254529984,-0.015360614424565634,0.0,0.0,0.0,1.8010391126437713,-4.796998871024992,4.049189587433681,-1.9873728095387082,3.744341009972275,-1.5265601353248113,-0.08386000000000005,-0.011479,-0.03168800000000005,0.134687,0.041341,-0.04583499999999996,0.21854700000000005,0.05282,0.01414699999999991,0.4268732081980705,0.9311914339495124,single,-0.03168800000000005
97,0.808333,stair_decsent,0.0,0.0,0.0,0.0,0.0,0.0,0.08772350894036288,-0.15516620664826733,0.22068882755310834,0.007800312012478379,0.011040441617665023,-0.020760830433228288,0.0,0.0,0.0,1.2673013820842975,-2.0305624417466936,1.88655092105705,3.038643086584567,-2.765021197271712,-0.6480518431132488,-0.08312900000000001,-0.012771999999999999,-0.029849000000000014,0.13475199999999998,0.041433000000000005,-0.04600800000000005,0.217881,0.054205,0.016159000000000034,0.36560652804554183,0.9587100934151664,single,-0.029849000000000014
98,0.816667,stair_decsent,0.0,0.0,0.0,0.0,0.0,0.0,0.08795296376290966,-0.18250539956803313,0.23026157907367284,0.0010799136069291708,0.021238300935924558,-0.023638108951284046,0.0,0.0,0.0,0.0275323761155247,-3.280440715114662,1.1486382914044186,-0.8063832980020587,1.2236452265730091,-0.3452458025024882,-0.08239599999999991,-0.014293,-0.02793000000000001,0.13476100000000013,0.04161,-0.04620500000000005,0.21715700000000004,0.055903,0.01827500000000004,0.3172499999999996,0.9470065036790127,single,-0.02793000000000001
99,0.825,stair_decsent,0.0,0.0,0.0,0.0,0.0,0.0,0.08496339853593392,-0.17796711868474901,0.24012960518421322,-0.018840753630167552,0.03420136805472256,-0.03780151206047727,0.0,0.0,0.0,-0.35876217772420144,0.5446154906137237,1.1842105016849243,-2.3905756914792877,1.5556302794669534,-1.6996763601576088,-0.08168799999999998,-0.015776,-0.02592899999999998,0.13460399999999995,0.041895,-0.046520000000000006,0.21629199999999993,0.057671,0.020591000000000026,0.29408999999999974,0.9094206626421764,single,-0.02592899999999998
100,0.833333,stair_decsent,0.0,0.0,0.0,0.0,0.0,0.0,0.11232449297972447,-0.19920796831873192,0.24900996039840745,-0.002280091203647086,0.0337213488539536,-0.009360374414979259,0.0,0.0,0.0,3.2834626717617224,-2.5490039162345868,1.065685253113427,1.9873589855418692,-0.05760460827660628,3.413073040381363,-0.08075199999999993,-0.017436,-0.023854000000000042,0.13458499999999995,0.042176,-0.04659800000000003,0.2153369999999999,0.059612,0.022743999999999986,0.27256000000000014,0.9415490520556009,single,-0.023854000000000042
101,0.841667,stair_decsent,0.0,0.0,0.0,0.0,0.0,0.0,0.12694984401247844,-0.21874250059995032,0.2353011759059246,0.0004799616030855522,0.03707703383729318,-0.011279097672177437,0.0,0.0,0.0,1.7549017317919202,-2.3439563572376114,-1.6449225452943073,0.3311798424205204,0.4026499860018665,-0.23022837259397214,-0.07969399999999993,-0.019259,-0.02189300000000005,0.13458900000000007,0.042485,-0.046691999999999956,0.214283,0.061744,0.024798999999999904,0.25201000000000096,0.9354039293074361,single,-0.02189300000000005
102,0.85,stair_decsent,0.0,0.0,0.0,0.0,0.0,0.0,0.16212648505938948,-0.21060842433697535,0.2127685107404345,-0.006600264010577076,0.034441377655106825,0.0030001200047932272,0.0,0.0,0.0,4.221365780260574,0.9761281966848722,-2.7040279809780725,-0.8496610600819264,-0.31629139351810637,1.7135746642230643,-0.07834300000000005,-0.021013999999999998,-0.020120000000000027,0.13453399999999993,0.042772000000000004,-0.046667000000000014,0.21287699999999998,0.06378600000000001,0.026546999999999987,0.23453000000000013,0.9413396618035905,single,-0.020120000000000027
103,0.858333,stair_decsent,0.0,0.0,0.0,0.0,0.0,0.0,0.14856594263771358,-0.20796831873274868,0.18912756510260592,0.010440417616725059,0.04092163686547374,-0.034201368054719614,0.0,0.0,0.0,-1.6273301838084533,0.3168253455210202,-2.837026957617724,2.0449635938200004,0.7776622117324957,-4.46435714142718,-0.07710499999999998,-0.022747,-0.018544000000000005,0.1346210000000001,0.043113,-0.046951999999999994,0.21172600000000008,0.06586,0.02840799999999999,0.2159200000000001,0.9094259624429992,single,-0.018544000000000005
104,0.866667,stair_decsent,0.0,0.0,0.0,0.0,0.0,0.0,0.173866090712748,-0.2808975281977457,0.1820254379649627,0.017878569714417515,0.04367650587953027,-0.06959443244540775,0.0,0.0,0.0,3.0357749070115863,-8.750805071393982,-0.8521870815506667,0.8925068511750058,0.33055783705982117,-4.246827980644149,-0.07565599999999995,-0.025088,-0.017027000000000014,0.13477000000000006,0.043477,-0.04753200000000002,0.210426,0.068565,0.030505000000000004,0.19494999999999996,0.8598545849614652,single,-0.017027000000000014
105,0.875,stair_decsent,0.0,0.0,0.0,0.0,0.0,0.0,0.17412696507861336,-0.28009120364814466,0.14808592343693175,0.002160086403464951,0.015720628825152842,-0.01056042241689387,0.0,0.0,0.0,0.03130617615088911,0.09676281646478493,-4.07290465955008,-1.8862934490522618,-3.354839440102882,7.084364578004757,-0.07420499999999985,-0.027422,-0.015793000000000057,0.13478800000000013,0.043608,-0.047619999999999996,0.20899299999999998,0.07103,0.03182699999999994,0.1817300000000006,0.9682314504951177,single,-0.015793000000000057
106,0.883333,stair_decsent,0.0,0.0,0.0,0.0,0.0,0.0,0.2589703588143374,-0.3339733589343561,0.2322092883715363,0.006000240009586375,-0.016680667226689025,0.0031201248049886453,0.0,0.0,0.0,10.181614512867355,-6.4661172790365065,10.09520760045652,0.46083686620921727,-3.8883110586633545,1.6417313358793302,-0.07204699999999997,-0.030205,-0.013858000000000037,0.134838,0.043469,-0.047594000000000025,0.20688499999999999,0.073674,0.03373599999999999,0.16264000000000012,0.970000800098684,single,-0.013858000000000037
107,0.891667,stair_decsent,0.0,0.0,0.0,0.0,0.0,0.0,0.2107031437485122,-0.4812814974802044,0.1039116870650394,0.0067194624430113176,-0.03515718742500639,0.0,0.0,0.0,0.0,-5.791602479700678,-17.675562580495455,-15.394480598331848,0.08629978802795141,-2.217005063393025,-0.37438502579657584,-0.07029099999999988,-0.034216,-0.012992000000000004,0.13489400000000007,0.043176,-0.047594000000000025,0.20518499999999995,0.077392,0.03460200000000002,0.15397999999999978,0.940344065137377,single,-0.012992000000000004
108,0.9,stair_decsent,0.0,0.0,0.0,0.0,0.0,0.0,0.22512900516020412,-0.5663026521060815,0.07452298091923439,0.0018000720028652538,-0.022440897635905302,0.01392055682227343,0.0,0.0,0.0,1.7311726163076748,-10.202946672972137,-3.5267858089289432,-0.5903504668361986,1.5260158153247372,1.6705336400184054,-0.06841499999999989,-0.038935,-0.012371000000000021,0.13490899999999995,0.042989,-0.04747800000000002,0.20332399999999984,0.081924,0.035107,0.14893,0.9558847453895915,single,-0.012371000000000021
109,0.908333,stair_decsent,2.0670826833073566,-9.440537621504946,1.6727469098764145,29.790908082119472,17.91915236870083,-28.285257901756705,0.27805112204487265,-0.6450258010320478,0.11100444017761588,-0.029041161646448536,-0.027601104044162144,0.11016440657626099,248.0598443906607,-1132.9098309738429,200.73765869151924,6.35090806248278,-9.447155757346327,4.37795022901498,-3.701096081760959,-0.6192495389723855,11.54972395943699,-0.08332300000000004,0.034358,-0.02538499999999999,0.11744200000000005,0.12142700000000001,-0.06049900000000008,0.20076500000000008,0.08706900000000001,0.03511400000000009,0.1488599999999991,0.8046270909649706,single,-0.02538499999999999
110,0.916667,stair_decsent,0.23962083033357467,-0.4352051835853088,-0.20398368130549818,1.05766965650345,0.46636547151949365,1.2146862259938633,0.24790016798657397,-0.627909767218617,-0.034917206623474806,-0.011759059275276311,-0.053395728341731535,0.07019438444925045,-219.27788012644203,1080.5534482744863,-225.18965576936625,-3.617825060990935,2.053759756831127,-17.50919688038032,2.073686389629481,-3.0951073071237336,-4.79601897372333,-0.08325399999999994,0.032751999999999996,-0.023975999999999997,0.11534699999999987,0.124609,-0.05821399999999999,0.1986009999999998,0.091857,0.03423799999999999,0.1576200000000001,0.851707581594182,single,-0.023975999999999997
111,0.925,stair_decsent,0.46369854794189985,-0.19188767550701985,-0.08988359534381334,1.3040429045653652,-1.1350338403702145,3.739028358086923,0.2541701668066523,-0.6761070442817685,-0.10152406096243968,0.008640345613833159,-0.005400216008640727,0.005400216008635731,26.89040172906807,29.19926894015216,13.692558017722833,0.7524299556076183,-5.783904603762302,-7.993142246365607,2.448026507753436,5.759691867645579,-7.775611237323227,-0.08499999999999996,0.028717,-0.02407300000000001,0.11155500000000007,0.126163,-0.05742000000000003,0.19655500000000004,0.097446,0.033347000000000016,0.16652999999999984,0.9807804903659508,single,-0.02407300000000001
112,0.933333,stair_decsent,-0.5461418456738285,-1.6528261130445379,-0.4622584903396138,-4.753074451881517,5.948162676665705,-9.512548788280956,0.25393015720629136,-0.6953078123124989,-0.15480619224769293,0.034441377655097666,-0.013560542421697231,-0.056762270490813636,-121.18569466167497,-175.31962528951536,-44.686774870491284,-0.028802304135475257,-2.304184331060918,-6.394111518691196,3.0962476948595636,-0.9792783407004175,-7.459796771804864,-0.07833299999999999,0.036696000000000006,-0.021511000000000058,0.11639299999999997,0.139823,-0.054041000000000006,0.19472599999999995,0.103127,0.03252999999999995,0.17470000000000052,0.8870588629611769,single,-0.021511000000000058
113,0.941667,stair_decsent,0.2538996880249569,-0.6465082793376469,-0.011399088072962147,-2.1952998544431557,-0.7277574282773639,0.15894285046859574,0.27945764338852985,-0.7211423086153055,-0.23326133909286428,0.00767938564915569,-0.007319414446844023,0.002399808015361153,95.99730425951276,120.74848016641269,54.09880036796835,3.063053297604787,-3.0998915650115606,-9.41386451225951,-3.2111821461413212,0.7488754469466234,7.098881510220103,-0.07811999999999997,0.036073999999999995,-0.023359999999999936,0.11434100000000003,0.14515,-0.05392599999999992,0.192461,0.109076,0.030565999999999982,0.19434000000000018,0.9818719163309981,single,-0.023359999999999936
114,0.95,stair_decsent,0.29005160206409886,-0.663266530661233,-0.06288251530060887,-1.8904166998986693,-0.92361217075142,0.4258420451286983,0.2743309732389333,-0.7116284651386127,-0.2494899795991926,0.00432017280692996,0.007080283211328938,0.0021600864034516565,4.33840322082591,-2.011070601654417,-6.17825839765357,-0.6152250269526706,1.1417068854785677,-1.9475147613498713,-0.40312166593372856,1.7280328402943828,-0.028767744138905416,-0.07825100000000007,0.035670999999999994,-0.02491500000000002,0.11196000000000006,0.150736,-0.05338399999999999,0.19021100000000013,0.115065,0.028468999999999967,0.21531000000000033,0.9857151715383126,single,-0.02491500000000002
115,0.958333,stair_decsent,0.26221048841952144,-0.6679467178687122,-0.13404536181447618,-1.5296815089831861,-1.0719941630226193,0.20931521030013925,0.44821792871715205,-0.8757950318012683,0.048841953678152465,0.00408016320651234,0.012840513620544287,0.000120004800195458,-3.341067280040478,-0.5616449306947298,-8.539883176991122,20.86726934816009,-19.700776030559812,35.80126404384301,-0.028802304142280015,0.6912552993178118,-0.24481958517414976,-0.07670099999999991,0.033939,-0.02339099999999994,0.10980900000000005,0.156409,-0.052265999999999924,0.18650999999999995,0.12247,0.028874999999999984,0.21125000000000016,0.9775438128432254,single,-0.02339099999999994
116,0.966667,stair_decsent,0.2828173746100488,-0.6757859371250247,-0.1819054475641889,-0.9813497708055734,-1.512589666799784,0.6405578834220206,0.2859371250299983,-0.7717782577393741,-0.3195344372450278,0.0023998080153744745,0.010439164866811025,-0.003839692824577845,2.472628532580658,-0.9406310602726685,-5.74275086989589,-19.472138671364593,12.4810144062747,-44.201630780318865,-0.20162649281711692,-0.2881387993440418,-0.4751257049163993,-0.07667500000000005,0.033139,-0.02453800000000006,0.10747200000000001,0.162128,-0.050781999999999994,0.18414700000000006,0.128989,0.026243999999999934,0.23756000000000066,0.9810352313036462,single,-0.02453800000000006
117,0.975,stair_decsent,0.2719308772350774,-0.6944677787111548,-0.15816632665307254,-1.8195440292524927,-1.2287918798795499,0.371940804708412,0.2292091683667195,-0.7484699387975595,-0.5295811832473347,0.00024000960036427277,0.012120484819392518,-0.0062402496099906975,-1.3064319422742687,-2.2419106667623123,2.848808461672455,-6.807627104677704,2.797110157424077,-25.206617784988463,-0.2591861772483165,0.2017664649683798,-0.2880783373830403,-0.07703100000000007,0.032688999999999996,-0.02763300000000002,0.10520799999999997,0.168016,-0.049516000000000004,0.18223900000000004,0.135327,0.021882999999999986,0.28117000000000014,0.9772755349616579,single,-0.02763300000000002
118,0.983333,stair_decsent,0.2578903156126182,-0.7074282971318837,-0.20100804032160988,-1.6932858146942869,-1.0847408501159745,0.32977358138020996,0.2733709348373926,-0.7793111724468946,-0.3396135845433802,0.0003600144005730508,0.009240369614784635,-0.00972038881555231,-1.6849347920867808,-1.5553244234643968,-5.141211288676006,5.299623961439208,-3.701096081763468,22.797023725423465,0.014401152071136146,-0.34562764965893095,-0.41763341000379184,-0.07690200000000003,0.03209000000000001,-0.028788000000000036,0.10306199999999999,0.173988,-0.04792200000000002,0.179964,0.141898,0.019133999999999984,0.30866000000000016,0.9776393202428926,single,-0.028788000000000036
119,0.991667,stair_decsent,0.2542596592272611,-0.7173026157907388,-0.24502039836813053,-1.395522019949773,-0.9894559870282863,0.40283594141602724,0.272978161747065,-0.7810175185985166,-0.3580513558915291,0.0,0.005399568034556838,-0.01091912646987674,-0.43564391472967484,-1.1848234531863675,-5.281060480744048,-0.04712900051926973,-0.20474515858195677,-2.212355573332013,-0.04319827220698978,-0.4608593208816677,-0.14383701155800774,-0.07674599999999998,0.03155899999999999,-0.029730000000000034,0.100943,0.18001099999999998,-0.045970999999999984,0.17768899999999999,0.148452,0.01624099999999995,0.3375900000000005,0.9796979299204783,single,-0.029730000000000034
120,1.0,stair_decsent,0.25513020520821594,-0.7124684987399463,-0.16140645625825453,-2.664527335992102,-0.7822630423744984,0.45168938534815245,0.26569062762512313,-0.7926317052682074,-0.363614544581779,-0.00408016320651234,0.0007200288011527632,-0.009240369614783802,0.10446969650243779,0.58011725078513,10.034074416161724,-0.8745390761960704,-1.3937581506889078,-0.6676093472038745,-0.48963917034829263,-0.5615671706953145,0.2014588809663903,-0.07665799999999989,0.030890999999999988,-0.03141499999999997,0.09878300000000007,0.185954,-0.04470299999999994,0.17544099999999996,0.155063,0.013287999999999967,0.36712000000000033,0.983122121325033,single,-0.03141499999999997
121,1.008333,stair_decsent,0.2898115924637079,-0.6565462618504805,-0.18804752190087595,-1.9168492480485637,-1.2435669684530983,1.321585245321888,0.26305052202087986,-0.8143525741029716,-0.3769350774030935,-0.003720148805965985,-0.0015600624024960088,-0.005760230409222182,4.161932947976993,6.710936864210532,-3.1970557593449733,-0.3168253455230162,-2.6066085245127093,-1.598527879672943,0.04320345620381113,-0.2736218893134277,0.4176334100037984,-0.07688099999999998,0.02957599999999999,-0.032988999999999935,0.0963369999999999,0.191412,-0.043184,0.17321799999999987,0.161836,0.010195000000000065,0.39804999999999935,0.9882794629193099,single,-0.032988999999999935
122,1.016667,stair_decsent,0.22822174226059921,-0.7212622990160752,-0.2790976721862157,-1.5529443389902262,-0.7306702480607921,0.4579560733779713,0.24718022558194566,-0.817374610031191,-0.4035277177825749,-0.004199664026878687,-0.0004799616030722306,-0.002159827213818377,-7.390190809108259,-7.765303235612457,-10.925144022718866,-1.9042832300136885,-0.3626153021621618,-3.1908615766116135,-0.05753722353164132,0.12960172779262896,0.4320138223426659,-0.07672299999999987,0.02877500000000001,-0.034026,0.09440000000000004,0.197419,-0.04087600000000002,0.17112299999999991,0.16864400000000002,0.006850000000000023,0.4314999999999998,0.9920886167327225,single,-0.034026
123,1.025,stair_decsent,0.20952838113525035,-0.7136685467418739,-0.2980919236769548,-1.360235638570056,-0.7339574897885772,0.5642264359231549,0.2380895235809437,-0.823112924516987,-0.40837633505341125,-0.013080523220918723,-0.052922116884675505,0.056762270490813636,-2.2432930667645543,0.9112867243731437,-2.2794013549429146,-1.090927877235334,-0.6886252833068564,-0.5818573467942394,-1.0657457331141384,-6.293310366207098,7.070934561938383,-0.07648499999999991,0.027863,-0.034945000000000004,0.0925450000000001,0.202925,-0.037919000000000036,0.16903,0.175062,0.002974000000000032,0.4702599999999997,0.8688321061624481,single,-0.034945000000000004
124,1.033333,stair_decsent,0.23172926917077802,-0.6746669866794572,-0.26329053162126376,-1.5060315867272582,-1.261200504119209,1.3182571389297937,0.22452898115923717,-0.8289931597263742,-0.41185647425896205,0.020760830433214413,-0.011520460818433232,0.024480979239180297,2.6642131327885847,4.680374422466811,4.176334100046855,-1.6273301838121088,-0.7056564513845053,-0.4176334100024878,4.061124883491245,4.968397463847539,-3.873909906592197,-0.07654500000000009,0.026577000000000017,-0.036182999999999965,0.09078699999999995,0.208451,-0.035520999999999914,0.16733200000000004,0.18187399999999998,0.0006620000000000514,0.5,0.9365407666245563,single,-0.035520999999999914
125,1.041667,stair_decsent,0.19510439164866045,-0.7120230381569603,-0.3492920566354754,-0.686277443233873,-0.6798798815814082,0.860736987567723,0.21142308615311672,-0.8172546196304464,-0.41612670986322203,-0.004559635229179651,0.001079913606911715,-0.001799856011530904,-4.3946337319556354,-4.482367587893425,-10.319357453109346,-1.5725815942069465,1.4085121305409178,-0.5123872815286858,-3.0382128224615483,1.5119239771232527,-3.153447954249064,-0.07640899999999995,0.0257,-0.036739999999999995,0.08912300000000006,0.214394,-0.032625000000000015,0.165532,0.188694,0.00411499999999998,0.5,0.9504840690091346,single,-0.032625000000000015
126,1.05,stair_decsent,0.17616704668186717,-0.7028681147245768,-0.34285371414855975,-0.7770946287316854,-0.5974049865989929,0.8126899730836158,0.19116764670585956,-0.7994719788791413,-0.4261370454818083,-0.002520100804037968,0.0015600624024959674,0.0002400096003909128,-2.27257229890711,1.0986347572762984,0.7726320037100141,-2.4307499636693635,2.134002250246583,-1.2012883257633624,0.24475392117384465,0.057620160276520345,0.24479366517722081,-0.07628400000000002,0.024895,-0.03743399999999997,0.08763399999999999,0.22026400000000002,-0.02976599999999996,0.163918,0.19536900000000001,0.007668000000000008,0.5,0.9183639970825286,single,-0.02976599999999996
127,1.058333,stair_decsent,0.14928597143886166,-0.7146285851434109,-0.37369494779790935,-0.42741178029323756,-0.3812797889400771,0.5266192353731699,0.1892475699027906,-0.7889115564622653,-0.42589703588144207,-0.0019200768030740608,-0.00036001440057555366,-0.0009600384015370304,-3.22585806348323,-1.4113129027762161,-3.701096081765256,-0.23041843310560214,1.2673013820804204,0.02880230413611477,0.07200576034608339,-0.23041843310590887,-0.1440115206921822,-0.0759510000000001,0.024275999999999992,-0.03786900000000004,0.08637399999999995,0.226216,-0.026660000000000017,0.16232500000000005,0.20194,0.011209000000000024,0.5,0.8842821834578912,single,-0.026660000000000017
128,1.066667,stair_decsent,0.13570914326853667,-0.6784257259419219,-0.33009359251260356,-0.7415576747490428,-0.37768153290014295,0.56718472368951,0.17290616750660123,-0.7688984881209441,-0.44600431965442067,0.0,-0.0027597792176628283,-0.004319654427650075,-1.629089053314721,4.343995584531887,5.231744094709078,-1.9608114226288984,2.401376090871258,-2.4126810382743518,0.23039078510607705,-0.28794874215109867,-0.4031216733996903,-0.07564100000000007,0.023522000000000015,-0.03883499999999995,0.08524299999999996,0.23184700000000003,-0.023944999999999994,0.16088400000000003,0.20832499999999998,0.014889999999999959,0.5,0.842556679720299,single,-0.023944999999999994
129,1.075,stair_decsent,0.16536661466460026,-0.6737069482779349,-0.40117604704188353,0.07852187257712143,-0.3696050165399896,0.8706120905823173,0.15456618264732866,-0.750510020400824,-0.44509780391215603,0.0,-0.0028801152046077604,-0.001320052802110086,3.5590389290848266,0.566275970717272,-8.530235752943792,-2.2008862185614713,2.2067043945902083,0.10878624052137809,0.0,-0.014440896069234752,0.3599665937285511,-0.07573099999999999,0.022881999999999986,-0.03920099999999993,0.08386499999999986,0.237437,-0.020612999999999992,0.15959599999999985,0.214555,0.018587999999999938,0.5,0.808839637272516,single,-0.020612999999999992
130,1.083333,stair_decsent,0.1716068642745464,-0.6762270490819515,-0.4424576983079241,0.8442173314547318,-0.7289371722518131,1.0677203614939355,0.14244569782788988,-0.7236289451577945,-0.45553822152885576,-0.002760110404402235,0.0012000480019195906,-0.0043201728069031985,0.7488599075898288,-0.3024241934497314,-4.953996311777251,-1.4545163589869878,3.225858063486025,-1.2529002300131458,-0.3312264975881659,0.4896391703500876,-0.3600288017272363,-0.07597399999999999,0.02248699999999998,-0.039309999999999956,0.08241200000000015,0.243082,-0.01696199999999992,0.15838600000000014,0.220595,0.022348000000000035,0.5,0.7677446846000163,single,-0.01696199999999992
131,1.091667,stair_decsent,0.07199424046078322,-0.6581473482121577,-0.37832973362131284,0.5341079651608817,-0.7455866466155362,0.9459902935765319,0.12263018958484495,-0.697024238060966,-0.4563234941204791,0.006719462442984764,0.009119270458363466,-0.017638588912888293,-11.952558652959574,2.16939055313105,7.694740183178842,-2.3776707755033963,3.192309466862131,-0.09422517298096711,1.1374577450668562,0.9502306763191777,-1.5980820861513496,-0.07555200000000006,0.022163000000000016,-0.039959999999999996,0.08186799999999983,0.248643,-0.013955999999999968,0.1574199999999999,0.22648,0.026004000000000027,0.5,0.7050222741290014,single,-0.013955999999999968
132,1.1,stair_decsent,0.10500420016799998,-0.6581063242529572,-0.3993759750389943,0.9718696066951384,-0.7475405000625605,0.8960674174909109,0.15876635065401895,-0.6531861274450868,-0.46597863914555404,-0.019080763230504668,-0.0038401536061438554,0.015720628825151798,3.9613536190107026,0.004923072026937415,-2.5256499961215764,4.336512788812357,5.2607837052536315,-1.1586637495589522,-3.0961509268557523,-1.5551930954646698,4.00326625921511,-0.07510400000000006,0.022204,-0.04051499999999997,0.08083400000000007,0.254095,-0.010496999999999979,0.15593800000000013,0.231891,0.03001799999999999,0.5,0.6581213297628906,single,-0.010496999999999979
133,1.108333,stair_decsent,0.08496339853593392,-0.6722668906756327,-0.46633865354615284,1.5539624023249523,-0.2725941701108052,0.36750901673953207,0.14916596663867954,-0.672626905076209,-0.19440777631106212,-0.014400576023055455,0.010920436817472895,0.002040081603256197,-2.4049923955437715,-1.699335944158841,-8.03584285457328,-1.1520921655273613,-2.3329866352001036,32.58980713242463,0.5616449306911383,1.7713417045022062,-1.6417313358809222,-0.07456899999999989,0.022201,-0.03824899999999998,0.08000600000000002,0.259788,-0.006593999999999989,0.1545749999999999,0.237587,0.03165499999999999,0.5,0.6531370735755924,single,-0.006593999999999989
134,1.116667,stair_decsent,0.02903767698584997,-0.6258699304055626,-0.3188144948403995,0.4863467226204022,-0.6770564221990935,-0.0004767046789770463,0.10139188864890547,-0.6094312455003553,-0.3993280537556962,-0.006479481641468453,0.007199424046075965,0.0035997120230350688,-6.71054974203066,5.567189857219795,17.701482926056183,-5.732430764311699,7.582872519300843,-24.588466216058617,0.9504552893672835,-0.446485813702532,0.18714067911913362,-0.07396599999999998,0.022337999999999997,-0.038920000000000066,0.07970999999999995,0.26506399999999997,-0.003907000000000105,0.15367599999999992,0.242726,0.03501299999999996,0.5,0.6326481376357032,single,-0.003907000000000105
135,1.125,stair_decsent,0.04884195367815312,-0.6114244569782866,-0.3276131045241852,0.8379566747817424,-0.8256548179201735,0.29265128871442736,0.1028441137645378,-0.5552622104884237,-0.25453018120725535,-0.00312012480500201,0.005160206408256542,-0.0014400576022922224,2.3766082674070956,1.733526152319226,-1.0558753970701773,0.17427398483527395,6.500544223200779,17.376439763403596,0.40313894593381416,-0.24471590517454003,-0.6047965469011565,-0.07351600000000014,0.02280600000000002,-0.038311000000000095,0.07927699999999982,0.270202,-0.0011889999999999956,0.15279299999999996,0.247396,0.0371220000000001,0.5,0.6184471136020675,single,-0.0011889999999999956
136,1.133333,stair_decsent,0.035401416056634695,-0.5778231129245206,-0.2541701668066823,0.31809389158647083,-0.901328821852129,0.20755402690292443,0.06876275051003984,-0.7284291371654956,-0.4246969878795141,-0.005160206408231561,0.002280091203647949,-0.004440177607112096,-1.6129290317434952,4.032322579355134,8.813505066303078,-4.089927187627297,-20.780862435746247,-20.4208336340166,-0.2448195851709552,-0.3456276496590207,-0.3600288017304573,-0.07323799999999991,0.021550999999999987,-0.03973199999999999,0.07893900000000009,0.275036,0.0008920000000000039,0.152177,0.253485,0.04062399999999999,0.5,0.5817945725740079,single,0.0008920000000000039
137,1.141667,stair_decsent,0.08795296376290966,-0.5136789056875419,-0.20410367170625623,-0.23807379589004374,-0.8470726790585219,0.5230747864013038,0.07379409647225887,-0.551115910727136,-0.31893448524117085,-0.0011999040076872372,-0.0039596832253417395,-0.0002399808015294545,6.305681270251328,7.696689133306717,6.007498812146111,0.6037132184088067,21.275885101794856,12.69048507779487,0.475198272203539,-0.748713034436002,0.5039832980060727,-0.0733560000000002,0.021239000000000008,-0.040688999999999975,0.07819599999999993,0.279284,0.00259100000000001,0.15155200000000013,0.25804499999999997,0.043279999999999985,0.5,0.5602925861774349,single,0.00259100000000001
138,1.15,stair_decsent,-0.04020160806434649,-0.5269410776431113,-0.20928837153485944,0.027430904153877736,-0.8223675292035191,-0.22522429109239614,0.04632185287411508,-0.5041401656066301,-0.30445217808712766,-0.000840033601354894,-0.007200288011521066,-0.001800072002878601,-15.37916378582231,-1.5915242956401603,-0.6221888669870693,-3.296801103821438,5.637314907057035,1.737946376340253,0.04318617620692987,-0.38888812986671745,-0.18721843289921528,-0.072635,0.021429000000000004,-0.04148200000000002,0.07852400000000004,0.283615,0.0043199999999999905,0.15115900000000004,0.26218600000000003,0.04580200000000001,0.5,0.5295312089926809,single,0.0043199999999999905
139,1.158333,stair_decsent,-0.004440177607085332,-0.4959798391935588,-0.280691227649112,0.4433010490713525,-0.6281111957457637,-0.0383422828675778,0.03600144005762435,-0.4514580583223235,-0.28309132365294115,0.002760110404428881,-0.003600144005759604,-0.005880235209417485,4.291543316603929,3.715497233835583,-8.5686854811294,-1.2384990779419836,6.322105758347017,2.5634050683050678,0.4320345620765285,0.4320345620738508,-0.48963917035147164,-0.07229799999999997,0.021800000000000014,-0.04150199999999993,0.07858399999999999,0.28771800000000003,0.006610000000000005,0.15088199999999996,0.265918,0.04811199999999993,0.5,0.5065021061268138,single,0.006610000000000005
140,1.166667,stair_decsent,0.006719462442984764,-0.45056395488361556,-0.2736981041516704,0.44314700791206363,-0.39352074965071426,-0.14810972230594163,0.019558435325163943,-0.45728341732662364,-0.261819054475649,-0.005279577633807999,-0.0023998080153587193,0.0031197504199762427,1.3390496820338742,5.449470159580528,0.8391076910777191,-1.9730027276770725,-0.6989871615431074,2.552468103826799,-0.9646853897572634,0.14402879654438538,1.0799118825766618,-0.0721909999999999,0.021743999999999986,-0.04140299999999997,0.078484,0.29145299999999996,0.008917000000000064,0.1506749999999999,0.269709,0.05032000000000003,0.5,0.4890245398495695,flight,0.008917000000000064
141,1.175,stair_decsent,-0.015480619224747564,-0.3783751350053956,-0.2145685827433074,-0.2743547815674686,-0.5437807143727564,0.26573380325791807,0.0205208208328235,-0.41929677187086717,-0.2572902916116641,-0.010320412816489493,-0.006960278411136623,0.0070802832113187565,-2.664116364782424,8.663004905582467,7.095826402059518,0.11549088055436692,4.558579797882612,0.5434732826094832,-0.6049244188985247,-0.547278338626884,0.47528294627894446,-0.07189100000000015,0.021403000000000005,-0.04175899999999999,0.07852700000000001,0.29454800000000003,0.010763999999999996,0.15041800000000016,0.27314499999999997,0.052522999999999986,0.5,0.47613191306508384,flight,0.010763999999999996
142,1.183333,stair_decsent,0.01680067202688471,-0.32845313812553006,-0.1923676947077926,-0.48320786725410386,-0.4500830859611253,0.4451989519814343,0.015120604824201566,-0.3770550822032923,-0.25249009960398583,-0.017280691227666546,0.006360254410176165,-0.04200168006719845,3.873909906592172,5.990879260754349,2.6642131327871104,-0.6480518431083624,5.069205528330162,0.5760460827647098,-0.8352668200140545,1.598527879672736,-5.890071196269969,-0.07190500000000011,0.020998000000000017,-0.042259999999999964,0.07824299999999984,0.297338,0.012017000000000055,0.15014799999999995,0.27634000000000003,0.05427700000000002,0.5,0.4235652737818548,flight,0.012017000000000055
143,1.191667,stair_decsent,0.06791456683463404,-0.29793616510678406,-0.29493640508758595,0.16165220871731295,-0.05286094737098226,0.5832097595167923,0.008399328053757375,-0.34737221022318054,-0.2501799856011504,-0.008399328053757375,-0.01139908807295382,-0.008759299256058218,6.13317672279205,3.6617438227436736,-12.30726066472193,-0.8064886933578281,3.5616597048369982,0.2771915050198477,1.0656783266029641,-2.130950621925828,3.988766596009116,-0.07240099999999994,0.020585999999999965,-0.04188700000000001,0.07760699999999998,0.299726,0.014402000000000026,0.15000799999999992,0.27914,0.05628900000000003,0.5,0.472250463261786,flight,0.014402000000000026
144,1.2,stair_decsent,-0.0840033601343969,-0.2707308292331761,-0.21324852994120302,-0.4252738571378718,-0.30507026160663714,0.026960539584666213,-0.005160206408258207,-0.31765270610824514,-0.2577703108124395,-0.0019200768030740608,-0.01632065282611286,-0.01092043681748039,-18.23088047150274,3.264770895668812,9.802937135051442,-1.627209223810837,3.566483153118406,-0.910875460373116,0.777541251732074,-0.5906113948348836,-0.25934688124591276,-0.07174400000000003,0.02019500000000002,-0.04225800000000002,0.07829099999999989,0.301846,0.01608799999999999,0.15003499999999992,0.281651,0.05834600000000001,0.5,0.4671152541321803,flight,0.01608799999999999
145,1.208333,stair_decsent,-0.028801152046083498,-0.2444497779911167,-0.33241329653184815,0.26432038420198023,0.22418255216865554,0.24094412150831826,0.06648265930636431,-0.19980799231968926,-0.28885155406214985,-0.003600144005757106,-0.025561022440897772,-0.013080523220918374,6.624529951795564,3.1538523031391983,-14.30034400463735,8.597487785265962,14.141931331879732,-3.729898385900612,-0.2016161289671206,-1.108888709322543,-0.2592207372420433,-0.07095000000000007,0.02056700000000003,-0.041895000000000016,0.07850099999999993,0.30367,0.018749000000000016,0.149451,0.283103,0.06064400000000003,0.5,0.4517694485708012,flight,0.018749000000000016
146,1.216667,stair_decsent,0.003959683225336017,-0.19234461243100504,-0.3045356371490387,0.07119105937194604,-0.17578644745532385,0.7071864276321745,-0.023998080153585528,-0.242740580753544,-0.2837772978161875,-0.002639788816890678,-0.029637628989681055,-0.01871850251980417,3.93098575371012,6.252119697637707,3.3450515218154524,-10.85682018957902,-5.15149849218329,0.6088620405522507,0.11523340399165423,-0.4891536535617183,-0.6765033955946608,-0.071183,0.020146999999999998,-0.04172200000000004,0.07844600000000002,0.305026,0.02113100000000001,0.149629,0.284879,0.06285300000000005,0.5,0.44141151341508966,flight,0.02113100000000001
147,1.225,stair_decsent,-0.03300132005280456,-0.15048601944077894,-0.30853234129364515,-0.10410273307315303,0.07364610420165343,0.5515478610937324,-0.05976239049560527,-0.1788071522860906,-0.43861754470177605,-0.006120244809795074,-0.02232089283571288,-0.02496099843993548,-4.435497813289324,5.023232088110568,-0.47962368230005825,-4.291888916598958,7.672318308826626,-18.58157288918587,-0.41767142600556045,0.8780434602145744,-0.7491294755947677,-0.07140599999999986,0.019911000000000012,-0.04280600000000001,0.07867000000000002,0.30609400000000003,0.023494000000000015,0.15007599999999988,0.286183,0.06630000000000003,0.5,0.44326643418002826,flight,0.023494000000000015
148,1.233333,stair_decsent,-0.08568342733708004,-0.14436577463098105,-0.3294131765270638,0.1563779831876678,-0.052289506558201394,0.39933362103513637,-0.05952238089524259,-0.1773670946837865,-0.3279731189247582,-0.018960758430323042,-0.010920436817472895,-0.014400576023042132,-6.322105758343449,0.7344587555259748,-2.5058004600286634,0.028802304135687597,0.17281382482948557,13.27786220773057,-1.540923271394226,1.3681094465666732,1.2673013820824963,-0.07118800000000003,0.019635999999999987,-0.042794,0.07922600000000002,0.307206,0.026119000000000003,0.15041400000000005,0.28757,0.068913,0.5,0.45634278440913867,flight,0.026119000000000003
149,1.241667,stair_decsent,0.0009599232061444612,-0.08891288696904746,-0.3884089272858196,0.32325250916375714,0.36570099213609275,0.885334370645591,-0.0861531077513788,-0.1499880009599222,-0.35841132709382517,-0.022078233741295965,0.0011999040076789112,-0.02639788816894604,10.396370355558416,6.653814214294836,-7.07892377714847,-3.195431588209264,3.285228428589403,-3.652292796864257,-0.374067111947792,1.4543245530539615,-1.4395622925250557,-0.07191400000000003,0.019127000000000033,-0.042543999999999915,0.07903400000000005,0.30795700000000004,0.02913600000000005,0.15094800000000008,0.28883,0.07167999999999997,0.5,0.4426091210657825,flight,0.02913600000000005
150,1.25,stair_decsent,-0.03768150726030846,-0.06852274090963559,-0.41533661346453477,0.4996384430317888,0.39016289430104806,0.6559958203697619,-0.0987639505580254,-0.09612384495379857,-0.36757470298812744,-0.02736109444379204,0.006840273610944679,-0.013080523220932045,-4.637157142260084,2.446915403745597,-3.231451599509829,-1.5133616712644573,6.463957279026057,-1.099649093280014,-0.6339686430452567,0.6768714272489883,1.5981477196704807,-0.0724229999999999,0.018897000000000025,-0.04214600000000002,0.07912000000000008,0.308585,0.03248799999999996,0.15154299999999998,0.289688,0.07463399999999998,0.5,0.44818518766135507,flight,0.03248799999999996
151,1.258333,stair_decsent,-0.07368294731788048,-0.06348253930157284,-0.4158166326653166,0.5422270781536022,0.30475065938099505,0.31722739787918364,-0.08652346093843492,-0.07212288491539946,-0.3596543861754536,-0.022200888035533835,0.014520580823233428,-0.009480379215161521,-4.320345620733512,0.6048483869030113,-0.05760460827815171,1.4689175110513135,2.880230413824472,0.9504760365623338,0.6192495389725492,0.9216737324239551,0.43203456207494983,-0.07252999999999998,0.01882500000000001,-0.04167799999999999,0.07954899999999987,0.30923500000000004,0.03587400000000007,0.15207899999999985,0.29041,0.07755200000000007,0.5,0.45304836155167416,flight,0.03587400000000007
152,1.266667,stair_decsent,0.016438684905213906,0.004799616030722306,-0.4232061435085097,0.5014562307198683,-0.11416627731118767,1.1686798740042594,-0.06803455723541875,-0.08627309815214686,-0.37425005999519545,-0.008159347252214599,0.01667866570674336,-0.015478761699069445,10.813730768309778,8.193203183620666,-0.8866703675537627,2.218490965084717,-1.697889757229096,-1.7513407511089212,1.6848501059898162,0.2589494700635849,-0.7197483182034892,-0.07323400000000002,0.01806599999999997,-0.04127000000000003,0.07934399999999986,0.309334,0.039271999999999974,0.15257799999999988,0.291268,0.080542,0.5,0.4597112884201177,flight,0.039271999999999974
153,1.275,stair_decsent,-0.040921636865492605,-0.015240609624390365,-0.4095763830553259,0.4018985360500033,0.18487206353193356,0.38791677096229077,-0.14472578903156744,0.036001440057602,-0.5309012360494448,-0.008400336013442354,0.00984039361574457,-0.0020400816032695203,-6.883513953042966,-2.404923275544564,1.6356366798492668,-9.203315948175854,14.673531526431054,-18.798893082233388,-0.028919808139656503,-0.8206254759389,1.6127061197407955,-0.07409899999999991,0.01849300000000001,-0.04228100000000001,0.07961499999999999,0.309543,0.04266799999999993,0.1537139999999999,0.29105000000000003,0.08494899999999994,0.5,0.4781697887347016,flight,0.04266799999999993
154,1.283333,stair_decsent,-0.044641785671430755,-0.0072002880115208745,-0.43453738149525045,0.5368481314466985,0.115162673359962,0.2348245575459362,-0.06684267370693735,0.0003600144005763768,-0.4048961958478254,0.0002400096003909128,0.002040081603263637,0.0032401296051840604,-0.4464357141411357,0.9648771886318673,-2.995439630376109,9.346347692863162,-4.2771421645295815,15.121209672580973,1.0368829489779332,-0.9360748844930752,0.6336506910420603,-0.0742839999999998,0.018556000000000017,-0.042034000000000016,0.07998900000000009,0.30962,0.04631599999999991,0.15427299999999988,0.291064,0.08834999999999993,0.5,0.4936059972946334,flight,0.04631599999999991
155,1.291667,stair_decsent,-0.031197504199655855,-0.012119030477557493,-0.44384449244061414,0.7167794427151802,-0.03400511617316007,0.1315834604714768,-0.047996160307197694,0.025317974562037528,-0.40580753539717546,0.006839452843769477,-0.005159587233020789,0.0029997600192048514,1.6131847218352717,-0.5902018797740235,-1.116763972325877,2.2614006959131285,2.9947156421240253,-0.10935199776219028,0.7918698396182734,-0.8638911490622225,-0.0288420429540693,-0.07442400000000005,0.018867999999999996,-0.041717000000000004,0.08030599999999999,0.309678,0.05003999999999997,0.15473000000000003,0.29081,0.09175699999999998,0.5,0.48487110786624577,flight,0.05003999999999997
156,1.3,stair_decsent,-0.07320292811712334,-0.03540141605664041,-0.4117364694587799,0.4193118789590563,-0.1396777675835375,-0.4439171665001662,-0.04992199687987096,0.04680187207488235,-0.43573742949717836,0.007080283211332079,-0.009000360014401092,0.008040321612869085,-5.040852504196177,-2.7939980294110778,3.8531168824953412,-0.2311096331061118,2.5781708283744686,-3.5917309612387354,0.028900800139517305,-0.4609111702124368,0.6048915869031735,-0.07423000000000002,0.019552999999999987,-0.04191699999999998,0.08097500000000002,0.30989799999999995,0.053538000000000086,0.15520500000000004,0.29034499999999996,0.09545500000000007,0.5,0.4766795474612787,flight,0.053538000000000086
157,1.308333,stair_decsent,-0.10128405136206343,-0.05640225609024724,-0.4116164646585821,0.43573057834338685,-0.2532904457068093,-0.8367011354629688,-0.012240489619590475,0.016920676827073506,-0.4174966998679997,0.009840393615734576,-0.0064802592103682935,0.003120124804988687,-3.369869584176209,-2.520201612097326,0.01440115206981938,4.521961749703687,-3.5858868652117026,2.18897511450604,0.3312264975882061,0.30242419345167665,-0.5904472348350466,-0.073488,0.020164000000000015,-0.04196600000000006,0.081901,0.310314,0.05699399999999999,0.155389,0.29014999999999996,0.09896000000000005,0.5,0.47968564514486955,flight,0.05699399999999999
158,1.316667,stair_decsent,-0.05495560355169714,-0.028197744180463575,-0.324814014878809,-0.4297709491929328,-0.5719833671705731,-0.4484019110419186,-0.032637389008858396,0.027717782577391343,-0.45596352291815284,0.005519558435350634,-0.008519318454523767,0.011519078473720213,5.558969019722335,3.3842706875190123,10.415460736713753,-2.4474321321415604,1.2955490461144414,-4.615649514057218,-0.5184587449464734,-0.24466753589578333,1.007793816742436,-0.07330199999999998,0.02062999999999998,-0.04305899999999996,0.08240500000000006,0.310478,0.05979699999999999,0.15570700000000004,0.289848,0.10285599999999995,0.5,0.4744106423415165,flight,0.05979699999999999
159,1.325,stair_decsent,-0.07152286091444214,-0.015960638425536477,-0.18288731549261775,-1.8508226219622206,-0.39213964622613245,-0.5987731825503884,-0.02232089283571597,0.014160566422657875,-0.45997839913598,-0.000360014400599702,-0.0024000960038400776,0.012360494419772612,-1.9881504095458002,1.4685114310485072,17.031885201751177,1.23802906193958,-1.6269310158086634,-0.4818044183159945,-0.7055769633925825,0.7343360675247504,0.10097395248438824,-0.07289199999999996,0.020880999999999983,-0.045368000000000075,0.0829979999999999,0.31059099999999995,0.06142399999999992,0.15588999999999986,0.28971,0.106792,0.5,0.47900582795832786,flight,0.06142399999999992
160,1.333333,stair_decsent,-0.24228969158765842,-0.27157086283451043,-0.8863554542181536,5.312091565388923,-0.6796574453279978,-2.4944247605952903,-0.01764070562823913,0.029641185647425045,-0.4666986679467001,0.008160326413077864,0.000960038401536172,-0.001800072002878553,-20.492839394361372,-30.67445390723263,-84.41955342920001,0.5616449306944388,1.8577486169167046,-0.8064645158670364,1.0224817969131665,0.40323225793546036,-1.6993359441558764,-0.07102000000000008,0.023390999999999995,-0.04187099999999999,0.08508500000000008,0.312862,0.06879499999999994,0.15610500000000016,0.289471,0.11066599999999993,0.5,0.4859808801080703,flight,0.06879499999999994
161,1.341667,stair_decsent,-0.15526757859370421,-0.09443244540436731,-0.36537077033838894,-0.04880193375812772,-1.0571283529574453,-1.3906796127398076,-0.012598992080636398,0.011159107271419668,-0.4658027357811526,0.002039836813047043,0.004319654427646027,-0.005759539236853599,10.441818213817598,21.254909698841672,62.51316101269194,0.6049572291340086,-2.2176719913613785,0.10750325960493465,-0.7344000000037123,0.4031216733993183,-0.47509806023219603,-0.0698310000000002,0.024270999999999987,-0.04270799999999997,0.08639599999999992,0.313685,0.07179200000000008,0.15622700000000012,0.289414,0.11450000000000005,0.5,0.487528628247618,flight,0.07179200000000008
162,1.35,stair_decsent,-0.11268450738029602,-0.1051242049682021,-0.4825393015720474,0.937084939025425,-0.5035668325572904,-1.124001733319975,-0.03864154566181781,0.023640945637825428,-0.48961958478337947,-0.002760110404428881,0.008880355214208135,-0.005280211208453526,5.1101729525269945,-1.283062470158959,-14.060786179485946,-3.1252314389992746,1.4978805191894327,-2.8581362057154016,-0.5760167067653714,0.5473059866269084,0.057521664274578777,-0.06921400000000011,0.025344000000000033,-0.042767,0.08731199999999983,0.314635,0.07576899999999998,0.15652599999999994,0.28929099999999996,0.11853599999999997,0.5,0.4821768293301927,flight,0.07576899999999998
163,1.358333,stair_decsent,-0.09024360974440092,-0.08604344173766641,-0.4204968198728063,0.475045244562207,-0.9072270774220491,-0.8841699972259646,-0.001560062402501005,-0.0014400576023055455,-0.47557902316093675,-0.007080283211305621,0.016920676827073506,0.001320052802110086,2.693015436924914,2.2897831789914633,7.445395619733788,4.4499559893576315,-3.0098407824470423,1.6849347920848246,-0.5184414744841929,0.9648771886313986,0.7920633638021928,-0.06847500000000006,0.02604899999999999,-0.04322599999999999,0.08800500000000011,0.31549299999999997,0.07928400000000002,0.15648000000000017,0.289444,0.12251000000000001,0.5,0.4693504461678787,flight,0.07928400000000002
164,1.366667,stair_decsent,-0.07571394288457443,-0.07871370290376589,-0.44684425245979376,0.47542613147054774,-0.6221127564736574,-0.7908719257451728,-0.0031197504199495167,-0.001919846412285592,-0.4655627549795974,-0.0005999520038436186,0.016198704103671965,-0.002279817614589765,1.743420549535202,0.8794983002040394,-3.161438995318846,-0.18714759028659705,-0.05757005159347765,1.201856033278048,0.7775775386923389,-0.08662979642447034,-0.43194989401245776,-0.06786999999999987,0.02668899999999999,-0.04338200000000003,0.08863100000000013,0.316284,0.08298899999999998,0.156501,0.289595,0.126371,0.5,0.4727177547864596,flight,0.08298899999999998
165,1.375,stair_decsent,-0.04488179527179621,-0.06528261130445812,-0.4640585623424924,0.6282490215108771,-0.7264685720968763,-0.5846608852768802,0.01068042721708947,-0.047521900876036374,-0.4842193687747567,0.00540021600862248,0.0126005040201602,0.0020400816032695203,3.700005713761971,1.6117954637354972,-2.0657998179165697,1.6560875599470917,-5.472465434267515,-2.2388832107475616,0.7200489634544766,-0.4318012820726986,0.5184086424888185,-0.067407,0.026837000000000027,-0.04355000000000009,0.08904999999999985,0.316933,0.08687299999999998,0.15645699999999985,0.290096,0.13042300000000007,0.5,0.47690015828277804,flight,0.08687299999999998
166,1.383333,stair_decsent,-0.008520340813651137,-0.0451218048721938,-0.47665906636266925,0.6245316681689949,-0.5825899932224199,-0.3166943187109329,0.039481579263173736,-0.0044401776071054345,-0.4597383895355758,0.007080283211332268,0.003960158406336919,0.0027601104044156313,4.363549076940527,2.419393547613645,-1.512120967259929,3.456276496590007,5.170013592815473,2.9378350221026204,0.2016161289703353,-1.0368829489767624,0.08640691241403067,-0.06700699999999982,0.027176000000000006,-0.04340899999999992,0.08918000000000004,0.317342,0.09086800000000006,0.15618699999999985,0.29016600000000004,0.13427699999999998,0.5,0.4857179722105292,flight,0.09086800000000006
167,1.391667,stair_decsent,-0.0067194624429845855,-0.03575713942884121,-0.3801295896328203,0.487088209451896,-0.4669587683989521,-0.25269914362716567,-0.019078473722104514,0.005639548836092049,-0.6064314854811572,0.011759059275249667,-0.0029997600191989434,-0.0008399328053730732,0.21608811743059012,1.1236699596055333,11.582610598733888,-7.0266442266952005,1.2094704155504448,-17.601763372399848,0.5614082150128826,-0.8351234011922017,-0.43197062752443927,-0.06711,0.027520999999999962,-0.045294999999999974,0.0893339999999998,0.317615,0.09402900000000003,0.1564439999999998,0.290094,0.139324,0.5,0.4797255276593418,flight,0.09402900000000003
168,1.4,stair_decsent,0.0,0.0,0.0,0.0,0.0,0.0,0.04884195367812647,0.008160326413058097,-0.4323772950918104,0.009480379215188166,-0.014040561622464913,0.004320172806903313,0.8063677478680723,4.291028372595888,45.61737545095689,8.150777319120559,0.3025054094523066,20.887338340255422,-0.273452545309195,-1.324949190359543,0.6192374429708908,-0.06670300000000018,0.027588999999999975,-0.048898,0.08941299999999996,0.31749799999999995,0.09406499999999995,0.15611600000000014,0.289909,0.14296299999999995,0.5,0.4708605434629191,flight,0.09406499999999995
169,1.408333,stair_decsent,0.0,0.0,0.0,0.0,0.0,0.0,0.08112324492981028,0.006840273610944497,-0.4297371894875787,0.007200288011514212,-0.01908076323052882,0.01032041281651614,0.0,0.0,0.0,3.873909906598253,-0.15841267276053964,0.3168253455216155,-0.2736218893164424,-0.6048483869031342,0.720057603457665,-0.06602700000000006,0.027645999999999976,-0.05247900000000005,0.08947299999999991,0.317339,0.09415099999999998,0.15549999999999997,0.289693,0.14663000000000004,0.5,0.46190543223285685,flight,0.09415099999999998
170,1.416667,stair_decsent,0.0,0.0,0.0,0.0,0.0,0.0,0.09767218622508829,0.009719222462202937,-0.3806095512359027,0.008639308855300381,-0.021838252939765428,0.009839212862974329,0.0,0.0,0.0,1.9857140983055344,0.3454462264529031,5.894845002601029,0.17266868775932276,-0.33087229532477336,-0.05773937527499646,-0.06521300000000019,0.027726999999999974,-0.055651000000000006,0.08954499999999999,0.31715699999999997,0.09423300000000001,0.15475800000000017,0.28943,0.14988400000000002,0.5,0.45756190591247564,flight,0.09423300000000001
171,1.425,stair_decsent,0.0,0.0,0.0,0.0,0.0,0.0,0.10068402736109679,0.013080523220928366,-0.3164526581063188,0.0026401056042201017,-0.02400096003840097,0.016080643225724844,0.0,0.0,0.0,0.3614353937367628,0.40337222593608185,7.699135140955571,-0.7199331874571192,-0.2595352332455906,0.7490016035941924,-0.06437400000000015,0.027835999999999972,-0.058288000000000006,0.08956699999999995,0.316957,0.09436699999999998,0.1539410000000001,0.289121,0.15265499999999999,0.5,0.45164933279446323,flight,0.09436699999999998
172,1.433333,stair_decsent,0.0,0.0,0.0,0.0,0.0,0.0,0.08160326413056763,0.003000120004799889,-0.19560782431297674,0.0,-0.026041041641666134,0.01944077763110488,0.0,0.0,0.0,-2.2897831789906786,-1.2096967738063806,14.501960133606522,-0.3168253455202359,-0.24481958517522875,0.40323225793592543,-0.06369400000000014,0.02786099999999997,-0.05991800000000003,0.08956699999999995,0.31673999999999997,0.09452899999999997,0.1532610000000001,0.288879,0.154447,0.6467196801984814,0.44583770056874694,single,0.09452899999999997
173,1.441667,stair_decsent,0.0,0.0,0.0,0.0,0.0,0.0,0.04643628509720834,0.10019198464122822,-0.26781857451403823,0.000479961603058909,-0.030717542596591953,0.023638108951284046,0.0,0.0,0.0,-4.219699908010442,11.662090789108182,-8.664596856378802,0.0575907851042603,-0.5611352237731921,0.503639467264115,-0.063307,0.02869599999999997,-0.06215000000000004,0.08957099999999985,0.316484,0.09472599999999998,0.15287799999999985,0.287788,0.15687600000000002,0.5171797228358592,0.43539526201786255,single,0.09472599999999998
174,1.45,stair_decsent,0.0,0.0,0.0,0.0,0.0,0.0,0.05976239049560686,0.16188647545902185,-0.26461058442338087,-0.0010800432017191667,-0.03180127205088165,0.02412096483859457,0.0,0.0,0.0,1.599196615672464,7.403635043537045,0.38497420984728115,-0.1872080648959666,-0.13005273662422995,0.05794502427823459,-0.06280900000000011,0.03004499999999999,-0.06435500000000005,0.08956199999999992,0.316219,0.09492699999999998,0.15237100000000003,0.286174,0.15928200000000003,0.5,0.4334520151795947,flight,0.09492699999999998
175,1.458333,stair_decsent,0.0,0.0,0.0,0.0,0.0,0.0,0.04188167526700187,0.23376935077402416,-0.30613224528980265,0.0026401056042201017,-0.03180127205088164,0.02760110404415558,0.0,0.0,0.0,-2.145771658298893,8.626290089403703,-4.982798615915163,0.44643571414127003,1.665401152983825e-15,0.41763341000371396,-0.06246000000000018,0.031992999999999966,-0.06690600000000002,0.08958399999999989,0.31595399999999996,0.09515699999999994,0.15204400000000007,0.283961,0.16206299999999996,0.5,0.4296810440028216,flight,0.09515699999999994
176,1.466667,stair_decsent,0.0,0.0,0.0,0.0,0.0,0.0,0.07739380849532265,0.25989920806336003,-0.24610031197504967,-0.003959683225336017,-0.03491720662347074,0.04283657307416109,0.0,0.0,0.0,4.26111509819072,3.1353320481565112,7.20325573731151,-0.791911306642218,-0.3738822381316488,1.8281100347979122,-0.061815000000000175,0.03415899999999997,-0.06895700000000005,0.08955099999999994,0.31566299999999997,0.09551399999999999,0.1513660000000001,0.28150400000000003,0.16447100000000003,0.5,0.40765610165183414,flight,0.09551399999999999
177,1.475,stair_decsent,0.0,0.0,0.0,0.0,0.0,0.0,0.12636505460220498,0.2145685827433074,-0.1624864994599715,-0.011520460818444057,-0.042961718468738495,0.05328213128525047,0.0,0.0,0.0,5.876784604209946,-5.439892634111586,10.03405886416377,-0.9073296043571233,-0.9653800366335792,1.2535171260157447,-0.06076199999999998,0.03594699999999998,-0.07031100000000001,0.08945499999999984,0.31530499999999995,0.09595799999999999,0.15021699999999982,0.279358,0.166269,0.504437283283367,0.3843206564877252,single,0.09595799999999999
178,1.483333,stair_decsent,0.0,0.0,0.0,0.0,0.0,0.0,0.12396495859832582,0.19212768510740502,-0.14028561142445534,-0.02628105124204623,-0.04608184327373083,0.06804272170886708,0.0,0.0,0.0,-0.28802304138715795,-2.6930154369257866,2.664213132787277,-1.771341704500457,-0.3744299537972351,1.7713417045021889,-0.05972900000000014,0.03754799999999997,-0.07147999999999999,0.08923599999999987,0.314921,0.09652499999999997,0.14896500000000001,0.277373,0.16800499999999996,0.5529093706163888,0.3562018977925987,single,0.09652499999999997
179,1.491667,stair_decsent,0.0,0.0,0.0,0.0,0.0,0.0,0.08363330933524626,0.0820734341252715,-0.13318934485241743,-0.042956563474904695,-0.03887688984881238,0.07991360691145313,0.0,0.0,0.0,-4.839410758708813,-13.205453681561396,0.8514838699349475,-2.000901395831334,0.8645252489702895,1.4243922729284817,-0.059032000000000195,0.03823199999999999,-0.07259000000000004,0.08887800000000001,0.31459699999999996,0.09719100000000003,0.1479100000000002,0.27636499999999997,0.16978100000000007,0.7043369945656202,0.3354900925012548,single,0.09719100000000003
180,1.5,stair_decsent,0.0,0.0,0.0,0.0,0.0,0.0,0.0706828273131139,-0.012240489619587144,-0.16488659546381843,0.014880595223784,-0.1276851074042968,0.11736469458777539,0.0,0.0,0.0,-1.5541200074561963,-11.318123574326114,-3.8038222262572043,6.940736673309639,-10.657412403154355,4.494310293570455,-0.05844300000000002,0.03812999999999997,-0.07396400000000003,0.0890019999999998,0.31353299999999995,0.09816899999999995,0.14744499999999983,0.275403,0.17213299999999998,0.7003081164357132,0.2098879991052176,single,0.09816899999999995
181,1.508333,stair_decsent,0.0,0.0,0.0,0.0,0.0,0.0,0.11724468978759325,-0.04872194887795433,-0.19320772830913416,-0.04836193447737128,-0.06144245769830915,0.1050042001680161,0.0,0.0,0.0,5.587647002817686,-4.377950229013263,-3.3986718883134515,-7.58940714042432,7.949435942156278,-1.4833186631176523,-0.05746600000000002,0.03772399999999998,-0.07557400000000003,0.08859899999999987,0.313021,0.09904400000000002,0.1460649999999999,0.275297,0.17461800000000005,0.6146813300647863,0.28180071311269106,single,0.09904400000000002
182,1.516667,stair_decsent,0.0,0.0,0.0,0.0,0.0,0.0,0.07643388528917612,0.030117590592752496,-0.3131749460043174,-0.04751619870411086,-0.06995440364770768,0.11039116870649314,0.0,0.0,0.0,-4.896904787427024,9.45998793744975,-14.394914530259458,0.10148017437729875,-1.0213518057833526,0.6463845138561305,-0.05682900000000002,0.03797499999999998,-0.07818400000000003,0.08820299999999981,0.312438,0.09996399999999994,0.14503199999999983,0.274463,0.17814799999999997,0.5,0.2682337273040143,flight,0.09996399999999994
183,1.525,stair_decsent,0.0,0.0,0.0,0.0,0.0,0.0,0.03288131525259666,0.005760230409215521,-0.06288251530060887,-0.06324252970118192,-0.07332293291731658,0.13404536181447796,0.0,0.0,0.0,-5.226517465088187,-2.923000142030145,30.036293136170748,-1.887235209056907,-0.40423968194034926,2.8386167176269095,-0.05655500000000013,0.038022999999999973,-0.078708,0.08767599999999987,0.31182699999999997,0.10108099999999998,0.144231,0.273804,0.17978899999999998,0.8813434943765173,0.22439949867719916,single,0.10108099999999998
184,1.533333,stair_decsent,0.0,0.0,0.0,0.0,0.0,0.0,0.022080883235324464,0.021360854434178372,-0.06696267850714613,-0.013920556822273247,-0.0774030961238444,0.13884555382214608,0.0,0.0,0.0,-1.2961036862200896,1.872149768986269,-0.48963917035127635,5.918873500408954,-0.48963917035014387,0.5760460827634755,-0.05637100000000017,0.038200999999999985,-0.07926600000000006,0.08755999999999986,0.31118199999999996,0.10223799999999994,0.14393100000000003,0.272981,0.181504,0.8772100730305163,0.23404726292911815,single,0.10223799999999994
185,1.541667,stair_decsent,0.0,0.0,0.0,0.0,0.0,0.0,0.009359251259902085,0.04331653467722667,-0.12826973842092715,-0.010079193664503789,-0.07799376049916129,0.15298776097912772,0.0,0.0,0.0,-1.5264737191531823,2.634470871496126,-7.356258688958746,0.46092670479596,-0.07087405511361945,1.6969291045094683,-0.05629300000000015,0.038561999999999985,-0.08033500000000005,0.08747599999999989,0.310532,0.10351299999999997,0.14376900000000004,0.27197,0.183848,0.7738176525015809,0.21330488595056912,single,0.10351299999999997
186,1.55,stair_decsent,0.0,0.0,0.0,0.0,0.0,0.0,0.012600504020163194,0.045601824072961095,-0.13596543861753507,0.006960278411149946,-0.05856234249369817,0.16908676347053508,0.0,0.0,0.0,0.388965889866921,0.2742456973160191,-0.923520964431512,2.044818441816085,2.3318634351929415,1.9319575772719404,-0.05618800000000013,0.03894199999999998,-0.08146799999999998,0.087534,0.310044,0.10492199999999996,0.14372200000000013,0.271102,0.18638999999999994,0.7600642472637371,0.20153947304147107,single,0.10492199999999996
187,1.558333,stair_decsent,0.0,0.0,0.0,0.0,0.0,0.0,0.011160446417871308,0.04560182407296231,-0.11292451698068993,0.018960758430323042,-0.05724228969158881,0.17268690747631013,0.0,0.0,0.0,-0.17281382482802105,1.4572260088608858e-13,2.765021197269333,1.440115206909061,0.15841267276003507,0.43203456207549257,-0.056095000000000006,0.03932199999999997,-0.08240900000000007,0.08769199999999988,0.309567,0.10636100000000004,0.1437869999999999,0.270245,0.1887700000000001,0.796175262798119,0.19514594519526168,single,0.10636100000000004
188,1.566667,stair_decsent,0.0,0.0,0.0,0.0,0.0,0.0,-0.03971682265419711,0.03719702423806124,-0.05087592992560316,0.03635709143267817,-0.04043676505879463,0.18430525557955005,0.0,0.0,0.0,-6.104783905935689,-1.0084953005640755,7.44523482782413,2.087392968845092,2.016501635804422,1.394090245169166,-0.05642600000000009,0.03963199999999997,-0.08283300000000005,0.08799499999999982,0.30923,0.10789700000000002,0.1444209999999999,0.269598,0.19073000000000007,0.8758427871640742,0.17973362952714766,single,0.10789700000000002
189,1.575,stair_decsent,0.0,0.0,0.0,0.0,0.0,0.0,0.01092043681748039,-0.05724228969158881,0.14640585623425056,0.0337213488539782,-0.046681867274691466,0.2002880115204531,0.0,0.0,0.0,6.076714205169562,-11.333170998398046,23.67476132963585,-0.31630176151446027,-0.7494422435973712,1.9180074332057135,-0.056335000000000024,0.03915499999999997,-0.08161300000000005,0.08827600000000002,0.308841,0.10956599999999994,0.14461100000000005,0.269686,0.191179,0.7373711405746357,0.15266245340207057,single,0.10956599999999994
190,1.583333,stair_decsent,0.0,0.0,0.0,0.0,0.0,0.0,-0.038401536061453544,0.018240729629186436,-0.1303252130085085,0.01740069602782157,-0.05988239529581072,0.17844713788551422,0.0,0.0,0.0,-5.918873500411984,9.05832465147893,-33.209056671397356,-1.9585566814060171,-1.584126727603387,-2.621009676579684,-0.05665500000000012,0.03930699999999998,-0.08269899999999997,0.08842099999999986,0.308342,0.11105299999999996,0.14507599999999998,0.269035,0.19375199999999992,0.7715264218108622,0.18495120965093137,single,0.11105299999999996
191,1.591667,stair_decsent,3.5249580033597967,20.65298776097951,2.1057115430765982,-93.11952860453444,312.3879516667243,39.47965621001911,0.07787377009840821,0.002159827213821765,-0.06215502759779557,-0.010439164866804641,-0.09455243580513786,0.21118310535157395,422.9611235133026,2478.160278495309,252.66517195544017,13.951920585536833,-1.929553925529755,8.17976786785628,-3.340516066069924,-4.160072055354908,3.928001855778779,-0.08538299999999999,-0.132797,-0.10076600000000002,0.058956999999999926,0.135432,0.0952639999999999,0.1443399999999999,0.268229,0.19602999999999993,0.8338989900808678,0.11396803793189242,single,0.0952639999999999
