frame_id,timestamp,gait_type,root_linear_velocity_x,root_linear_velocity_y,root_linear_velocity_z,root_angular_velocity_x,root_angular_velocity_y,root_angular_velocity_z,left_linear_velocity_x,left_linear_velocity_y,left_linear_velocity_z,right_linear_velocity_x,right_linear_velocity_y,right_linear_velocity_z,root_acceleration_x,root_acceleration_y,root_acceleration_z,left_acceleration_x,left_acceleration_y,left_acceleration_z,right_acceleration_x,right_acceleration_y,right_acceleration_z,left_pos_rel_x,left_pos_rel_y,left_pos_rel_z,right_pos_rel_x,right_pos_rel_y,right_pos_rel_z,step_length,step_width,step_height,left_contact_prob,right_contact_prob,support_type,max_foot_height
1,0.008333,stair_decsent,-0.037081483259317496,-0.008640345613826532,0.010920436817466966,-0.16895209097616784,0.021084856296300396,-0.013958239092327,-0.003600144005757169,-0.0010800432017258185,0.007440297611905255,-0.025561022440899882,-0.012120484819394905,-0.004320172806916597,0.0,0.0,0.0,0.0,0.0,0.0,0.0,0.0,0.0,-0.12978299999999998,-0.0035319999999999796,0.0020820000000000283,0.108603,0.01868900000000001,0.012732999999999994,0.238386,0.02222099999999999,0.010650999999999966,0.9861070002905634,0.8457949061001093,double,0.012732999999999994
2,0.016667,stair_decsent,-0.033837293016572526,-0.005039596832251798,0.007799376049913815,-0.1295635401511927,0.05960045402724548,0.007143343834745832,-0.0015598752099880916,0.0007199424046083513,-0.0010799136069158573,-0.02159827213823722,-0.009959203263738869,-0.0049196064314804095,0.38927168739440493,0.4320552893658187,-0.37449733231979254,0.24481267047865096,0.2159809942805579,-1.0223435587738314,0.47549199695976274,0.25933304003552143,-0.07192628084518993,-0.1295139999999999,-0.003483999999999987,0.0020080000000000098,0.10870500000000005,0.018647999999999998,0.012627000000000055,0.23821899999999996,0.022131999999999985,0.010619000000000045,0.9966179636578392,0.8533311435010511,double,0.012627000000000055
3,0.025,stair_decsent,-0.027721108844338198,-0.0038401536061414246,0.010080403216138727,-0.13921297737306026,0.09076209132260894,0.014734821195278752,-0.0020400816032561785,0.000840033601341563,0.0006000240009639692,-0.018720748829958597,-0.010080403216125402,-0.007200288011527662,0.7339714595265003,0.14393894469103247,0.2737342093153621,-0.057627072275061426,0.014411520068788163,0.20160057696865794,0.34531660965782085,-0.014544576069426754,-0.27369273731516286,-0.12929999999999997,-0.0034450000000000314,0.0019289999999999585,0.10877999999999988,0.018596,0.01248299999999991,0.23807999999999985,0.022041000000000033,0.010553999999999952,0.9961893357967919,0.857046206004744,double,0.01248299999999991
4,0.033333,stair_decsent,-0.03156126245051293,-0.0002400096003842554,0.0073202928117097965,-0.09052081513487675,0.10409692481622264,0.006180293772182047,-0.0027601104044289292,0.00108004320173248,0.0015600624025009907,-0.015480619224747834,-0.007560302412100714,-0.006360254410172775,-0.46083686621561676,0.43203456207334323,-0.33122649759137524,-0.08640691241722677,0.028802304139075603,0.1152092165531047,0.38883110586952635,0.3024241934507006,0.10080806448516579,-0.12905999999999995,-0.0034339999999999926,0.0018810000000000215,0.10891400000000018,0.018534999999999968,0.012368999999999963,0.23797400000000013,0.02196899999999996,0.010487999999999942,0.9944176624116916,0.8645122404398022,double,0.012368999999999963
5,0.041667,stair_decsent,-0.024118070554343136,0.15610751139908766,-0.2970962323014199,3.790495379267592,-0.07516311736908057,0.16432878727407854,-0.0013198944084453137,0.0010799136069091966,-0.00011999040077138896,-0.00755939524839768,-0.0007199424046083513,-0.007079433645312124,0.8931115786140863,18.760201703800323,-36.52706084870766,0.1728120945504698,-1.5550134783235125e-05,-0.20159020917595144,0.9504708394948589,0.8207775386959878,-0.08629460464834994,-0.12887000000000004,-0.004726000000000008,0.0043560000000000265,0.10905199999999993,0.017227999999999966,0.014785999999999966,0.23792199999999997,0.021953999999999974,0.01042999999999994,0.9971506665769234,0.8783970495189548,double,0.014785999999999966
6,0.05,stair_decsent,-0.009840393615761132,0.01632065282610938,0.025081003240131374,-0.17745134493129386,0.07848692539349252,0.10299301396002662,-0.001680067202683126,0.0037201488059526275,-0.002760110404415606,-0.0019200768030740432,-0.000840033601341563,-0.007800312012478308,1.7133897682205692,-16.775094032518695,38.66281477757725,-0.04322246420710577,0.31684089752111255,-0.31682707352024686,0.6767452832501664,-0.014411520068788163,-0.08650886441451866,-0.12880199999999986,-0.004830999999999974,0.0041240000000000165,0.10911800000000005,0.017085000000000017,0.01451199999999997,0.2379199999999999,0.02191599999999999,0.010387999999999953,0.9917874854323611,0.8826584065998966,double,0.01451199999999997
7,0.058333,stair_decsent,-0.01968078723146897,-0.0039601584063368835,0.018720748829958597,-0.2548800160656772,0.0801013947443768,0.01980960408633121,-0.0022800912036470954,0.0002400096003842554,0.0003600144005730523,-0.05556222248888518,-0.13848553942157546,0.027121084843400874,-1.1808944696637271,-2.4337946996815387,-0.7632610596631197,-0.07200576034609016,-0.4176334100046048,0.3744299537967909,-6.437314974896331,-16.518121423285,4.190735252115586,-0.12865700000000002,-0.004795999999999967,0.003970999999999947,0.108819,0.015964000000000034,0.014581999999999984,0.23747600000000002,0.02076,0.010611000000000037,0.9961320293600141,0.6411222187820074,double,0.014581999999999984
8,0.066667,stair_decsent,-0.015118790496768716,-0.0115190784737203,0.019318454523634114,-0.30018707233527664,0.11458851778820645,0.020466356192851528,-0.00047996160308555583,0.004319654427643447,-0.0022798176145897822,-0.0008399328053864011,0.006839452843769346,-0.008879289656829673,0.5473958164987105,-0.9069978482581491,0.07171894572540398,0.21599827220560827,0.48951821781367777,-0.31675450145942335,6.566149470062247,17.437604063516293,-4.319699364078539,-0.12853500000000007,-0.0046640000000000015,0.003790999999999989,0.10893799999999998,0.016116999999999992,0.014346999999999999,0.23747300000000005,0.020780999999999994,0.01055600000000001,0.9918201898503269,0.8757075721504723,double,0.014346999999999999
9,0.075,stair_decsent,-0.011400456018235486,-0.009240369614783847,0.021240849633983303,-0.39481319447609,0.10976869325175212,-0.005500179538555533,-0.0019200768030740447,0.004920196807873908,-0.003120124804988661,0.0007200288011461051,0.007800312012484976,-0.008640345613819878,0.4462179861434338,0.273456001312427,0.23069664110754712,-0.17282073682809193,0.0720679683463893,-0.10084089648372488,0.18720288089913686,0.11530771255437783,0.02867443213846096,-0.12845600000000013,-0.0045459999999999945,0.0035880000000000356,0.10903899999999989,0.016259000000000023,0.014098000000000055,0.237495,0.020805000000000018,0.01051000000000002,0.9897760887082425,0.8754621445160868,double,0.014098000000000055
10,0.083333,stair_decsent,-0.006120244809795177,-0.012480499219967946,0.0247209888395583,-0.5013475071326872,0.12950305233636655,0.0012560073938016158,-0.00024000960036427038,0.0076803072122895045,-0.004800192007685103,-0.0007200288011461039,0.011880475219003978,-0.008280331213260135,0.6336506910404782,-0.38883110586632613,0.41763341000539966,0.20161612897033154,0.33122649758977485,-0.20161612896873168,-0.17281382482805804,0.48963917034909377,0.04320345620541724,-0.12840699999999994,-0.004377999999999993,0.003341999999999956,0.10908399999999996,0.016461999999999977,0.013822999999999919,0.2374909999999999,0.02083999999999997,0.010480999999999963,0.9848997271185385,0.8710245967051418,double,0.013822999999999919
11,0.091667,stair_decsent,-0.0011999040076872472,-0.004199664026878722,0.021478281737452525,-0.4719932863568843,0.09507638646880619,0.02362295672876583,-0.003239740820734253,0.0076793856491490925,-0.0014398848092167038,-0.0005999520038436236,0.010199184065274994,-0.007799376049913821,0.5903936647597712,0.9936207335120266,-0.38909372475471304,-0.35993895132829196,-0.00011057873055099453,0.40320460744761244,0.014408063031255148,-0.20173879934353076,0.0577100028013337,-0.12842399999999987,-0.004278999999999977,0.003151000000000015,0.10908899999999999,0.016581999999999986,0.013579000000000008,0.23751299999999986,0.020860999999999963,0.010427999999999993,0.9859029009290621,0.8742974285200915,double,0.013579000000000008
12,0.1,stair_decsent,0.003960158406330218,0.0009600384015370207,0.027121084843400853,-0.5801603732919456,0.1089525269933884,0.035621352879767185,-0.0018000720028919063,0.009120364814588375,-0.006480259210368228,0.0009600384015370207,0.012000480019199436,-0.006000240009599718,0.6192322589724542,0.6191890589722475,0.6771634592521689,0.17276716882783458,0.1729244168293869,-0.6048691229030986,0.18720633689915311,0.21616416103737443,0.21590496103613357,-0.12847199999999992,-0.00421100000000002,0.002870999999999957,0.10906400000000005,0.016673999999999967,0.013302999999999954,0.23753599999999997,0.020884999999999987,0.010431999999999997,0.9811132708995958,0.873261253219408,double,0.013302999999999954
13,0.108333,stair_decsent,0.021120844833814493,-0.09600384015360897,0.13320532821312195,-2.197947878449154,0.2565674282807511,-0.016463467272964633,-0.005400216008649082,0.008640345613826539,-0.0033601344053795783,0.07428297131887047,0.18432737309492842,-0.04236169446777115,2.05936474588795,-11.636130871852401,12.730618429103705,-0.43203456207334434,-0.05760460827575139,0.37442995379679017,8.799103914236591,20.680054371262347,-4.363549076943652,-0.12869300000000017,-0.003338999999999981,0.0017329999999999846,0.10950700000000002,0.019010000000000027,0.011840000000000073,0.2382000000000002,0.022349000000000008,0.010107000000000088,0.9821185688734051,0.5602681994353114,double,0.011840000000000073
14,0.116667,stair_decsent,0.001559875209961447,0.01991840652747772,0.0013198944084453126,-0.24989126438567666,0.07818275832822588,0.0387185091288398,-0.004199664026878715,0.006119510439167651,-0.005879529637624873,0.00671946244298463,0.012838972882165602,-0.006959443244540729,-2.3471285845755974,13.909556837183414,-15.824986057676567,0.14405471343536902,-0.3024760228772361,-0.30230324360994626,-8.10697250730571,-20.576961868582032,4.247930312362657,-0.128741,-0.003453999999999957,0.0016730000000000356,0.10955000000000004,0.018950999999999996,0.011771000000000087,0.23829100000000003,0.022404999999999953,0.010098000000000051,0.9842189939489966,0.8722273678004123,double,0.011771000000000087
15,0.125,stair_decsent,-0.002520100804011368,0.027241089643589695,-0.003120124804988661,-0.4169782049889213,0.16300550813616377,0.04371618278325853,-0.00468018720747633,0.004920196807867247,-0.006600264010563698,0.00804032161286923,0.01296051842073648,-0.008400336013442283,-0.489616706344992,0.8787571242184063,-0.5328236185568195,-0.057665088275244865,-0.14392339269175625,-0.08649158441603577,0.1585094407637828,0.014586048070428166,-0.1729140488301399,-0.12875900000000007,-0.003640000000000032,0.0016439999999999788,0.1096379999999999,0.01883199999999996,0.011727000000000043,0.23839699999999997,0.022471999999999992,0.010083000000000064,0.9842171001525284,0.8701495352614281,double,0.011727000000000043
16,0.133333,stair_decsent,-0.00036001440057305197,0.020160806432257452,0.0015600624025009894,-0.18705084628049132,0.053397732201769785,0.010198490303364068,-0.006960278411150062,0.0024000960038425517,-0.0010800432017191559,0.006720268810759145,0.009720388815552343,-0.005160206408258156,0.2592207372420874,-0.8496679720787516,0.5616449306959854,-0.2736218893164203,-0.3024241934507012,0.6624529951811519,-0.1584126727601205,-0.38883110586633074,0.3888311058663296,-0.1288140000000002,-0.0037880000000000136,0.0016220000000000123,0.10969699999999993,0.018744999999999956,0.011670999999999987,0.23851100000000014,0.02253299999999997,0.010048999999999975,0.9875978911172824,0.8780186773460257,double,0.011670999999999987
17,0.141667,stair_decsent,-0.0049196064315070644,0.011639068874485056,0.006359491240697128,-0.06822390358846804,-0.031277801033561155,0.01848619250583627,-0.005039596832238489,0.00011999040076472845,0.0014398848092167062,0.003119750419976191,0.005999520038402943,-0.004559635229179576,-0.5471072751300724,-1.0225267047963063,0.5758853897523578,0.2304633524011972,-0.2735907851065309,0.30236717193854906,-0.4320276446823809,-0.44646853577506707,0.07206277646731243,-0.1288149999999999,-0.0038839999999999986,0.0015810000000000546,0.1097640000000002,0.018698000000000048,0.011580000000000035,0.2385790000000001,0.022582000000000046,0.00999899999999998,0.9912622781077933,0.8864169710679299,double,0.011580000000000035
18,0.15,stair_decsent,-0.0033601344053662495,0.010320412816516312,0.004920196807867239,-0.08010612509262337,0.015331017047102137,0.0028034052916743896,-0.005160206408258156,0.0026401056042268073,-0.0019200768030740415,0.0022800912036470937,0.002520100804031349,-0.003840153606148083,0.1871441289020537,-0.1582450567585195,-0.1727222408292197,-0.014473728071482849,0.3024259214523073,-0.40321152193576676,-0.100763136484951,-0.4175470100049911,0.08634124841371561,-0.12883,-0.003948000000000007,0.0015240000000000808,0.1098110000000001,0.01863300000000001,0.011507000000000045,0.2386410000000001,0.022581000000000018,0.009982999999999964,0.9898231495394092,0.8916233138848638,double,0.011507000000000045
19,0.158333,stair_decsent,-0.002040081603256177,0.005400216008642411,0.003480139205575031,-0.05941497452870947,0.02017399461063135,0.02256408831180928,-0.0033601344053662495,-0.0008400336013415624,0.0013200528021100728,0.00024000960036427038,0.0028801152046044006,-0.00252010080403801,0.158412672760119,-0.5904472348342611,-0.17281382482805796,0.21601728103827014,-0.4176334100046042,0.388831105866328,-0.2448195851773457,0.04320345620701446,0.158412672760119,-0.12884099999999998,-0.0040000000000000036,0.0015060000000000073,0.10982999999999987,0.018611999999999962,0.01145699999999994,0.23867099999999986,0.022611999999999965,0.009950999999999932,0.9938223748104174,0.8940991262415825,double,0.01145699999999994
20,0.166667,stair_decsent,-0.0023998080153744905,0.0033597312214989758,0.00455963522917956,-0.03265379099207056,0.01962821417311389,0.0097204138888974,-0.001799856011530868,-0.00011999040077138885,-0.002039836813060324,-0.003119750419949537,0.0029997600191981307,-0.0011999040076739237,-0.04316371635688906,-0.24483858737022235,0.1295291604997034,0.18721842978586276,0.0863982722066442,-0.4031545014603304,-0.40313895132155075,0.01435622925290736,0.15841094268827516,-0.12883599999999995,-0.004029000000000005,0.00145099999999998,0.10982400000000014,0.018608999999999987,0.011409000000000002,0.2386600000000001,0.02263799999999999,0.009958000000000022,0.9954616407815535,0.8929346119221832,double,0.011409000000000002
21,0.175,stair_decsent,-0.002640105604220154,0.002280091203647101,0.005280211208453632,-0.006676663672831238,0.02030191591693114,0.0011751739796094028,-0.001800072002865266,0.001440057602305536,0.001800072002878589,-0.003600144005757178,0.004920196807873917,0.0001200048001954588,-0.028836864136045148,-0.12956198462161014,0.08647257641594547,-2.5919996927644166e-05,0.18721324889918742,0.46080749021227924,-0.057649536278368205,0.23046163310641918,0.1583953927600367,-0.12882899999999986,-0.004035999999999984,0.0014219999999999233,0.10981600000000014,0.01863100000000001,0.011365999999999987,0.238645,0.022666999999999993,0.009944000000000064,0.995125381972513,0.8903969166639367,double,0.011365999999999987
22,0.183333,stair_decsent,-0.004080163206512354,-0.001800072002878583,0.002040081603256177,-0.002507140464220303,0.01889215598965785,0.007846837556733615,-0.0008400336013548856,0.0,-0.00036001440057305197,-0.005160206408258156,0.0049201968078739005,0.0001200048001954584,-0.1728138248280569,-0.4896391703498957,-0.388831105867929,0.11520921654990754,-0.17281382482965735,-0.25922073724368644,-0.18721497689919317,-1.9776638691683252e-15,-4.879104940382381e-17,-0.12880200000000008,-0.004020999999999997,0.0014020000000000143,0.10980699999999999,0.01868700000000001,0.011350000000000082,0.23860900000000007,0.022708000000000006,0.009948000000000068,0.9984767844501905,0.8886350809898383,double,0.011350000000000082
23,0.191667,stair_decsent,-0.0027597792176753356,-0.002039836813053663,0.0029997600192047916,0.016032511962160344,0.02727244213647731,0.00391688807746103,0.002519798416132558,-0.002879769618433403,-0.0014398848092167015,-0.005759539236866806,0.004679625629950949,0.00011999040075806724,0.15843340398812295,-0.028769475662956557,0.11515219773801462,0.4031475902912695,-0.3455447106351572,-0.12957408311058896,-0.07191418629813405,-0.028866232052190004,-1.7277942633972649e-06,-0.12875799999999993,-0.0040280000000000316,0.0013649999999999496,0.10978200000000005,0.01874300000000001,0.011325999999999947,0.23853999999999997,0.02277100000000004,0.009960999999999998,0.9931858551166202,0.8880200559201641,double,0.011325999999999947
24,0.2,stair_decsent,-0.0013200528021100728,-0.005280211208446952,-0.0010800432017324792,-0.010159431535256575,0.0348663626448045,0.025940262820589994,0.00048001920075518715,0.0006000240009639688,0.00036001440057305197,-0.007560302412114031,0.004320172806909932,-0.00048001920076851036,0.17277408083106463,-0.38886048186646904,-0.48959597035128616,-0.24478329717717137,0.41759193800520444,0.2159965450365717,-0.21610022503866838,-0.0431360642074903,-0.07200403234448302,-0.12874300000000005,-0.00397900000000001,0.0013769999999999616,0.10972999999999988,0.01882299999999998,0.01133099999999998,0.23847299999999994,0.02280199999999999,0.009954000000000018,0.9985857298668311,0.885925320773588,double,0.01133099999999998
25,0.208333,stair_decsent,-0.00012000480018213558,-0.005400216008642429,-0.0008400336013415652,0.006214928043668545,0.012161377635784733,0.009822656318335066,0.002880115204611072,0.0,0.0012000480019279415,-0.003360134405366261,0.004440177607105405,0.002280091203647101,0.1440115206921805,-0.014401152069540017,0.02880230413907531,0.28802304138436224,-0.07200576034609028,0.1008080644851664,0.5040403224226305,0.0144011520695396,0.3312264975897778,-0.1287180000000001,-0.003933999999999993,0.0013940000000000063,0.10970299999999988,0.018905000000000005,0.01135699999999995,0.238421,0.022838999999999998,0.009962999999999944,0.9947997919916702,0.89034163795615,double,0.01135699999999995
26,0.216667,stair_decsent,0.001559875209961447,-0.002759779217662014,-0.0013198944084453126,-0.011493864384564548,0.02624190411534141,0.006059189130108739,0.0023998080153478474,-0.0015598752099880903,0.0021598272138183914,-0.006479481641468495,0.0014398848092167015,0.0007199424046150115,0.20156947565917696,0.31682706875214933,-0.057578690557205055,-0.05763225213141638,-0.1871700515944431,0.11516429228347119,-0.3742917249942682,-0.3600063352398249,-0.1872028796534783,-0.12871100000000002,-0.003924000000000039,0.001422999999999952,0.10963600000000007,0.018940000000000012,0.011373999999999995,0.2383470000000001,0.02286400000000005,0.009951000000000043,0.9940238569724618,0.889362548001563,double,0.011373999999999995
27,0.225,stair_decsent,0.003000120004819844,-0.004560182407300849,-0.0019200768030740415,-0.01380324745403004,0.025151025610652505,0.014406841103614648,0.003960158406356865,-0.0013200528021100728,0.0001200048001954584,-0.002760110404402281,0.0031201248049886558,0.0024000960038425517,0.17283628883456087,-0.21605702503766153,-0.07202476834618125,0.18724953690255805,0.028779840138967647,-0.2447884811739987,0.4463424021440311,0.20163686496723304,0.20162649696718335,-0.128703,-0.003896999999999984,0.0014399999999999968,0.10958800000000002,0.01900400000000002,0.011410000000000031,0.23829100000000003,0.022901000000000005,0.009970000000000034,0.9930398365369077,0.8922871892379802,double,0.011410000000000031
28,0.233333,stair_decsent,0.005400216008622426,-0.002760110404415604,0.00048001920076851036,0.0015507110946830025,0.028671772554385622,0.008304918554170765,0.003840153606148083,-0.0010800432017258176,0.0013200528021100728,-0.0028801152046110624,-0.0009600384015370207,-0.0021600864034649584,0.2880230413779647,0.2160172810374707,0.28802304138276125,-0.014401152071136672,0.02880230413827612,0.1440115206905812,-0.01440115207113662,-0.48963917034989474,-0.5472437786280459,-0.12871599999999983,-0.00388299999999997,0.001446999999999976,0.10951900000000014,0.019019000000000008,0.011387999999999954,0.23823499999999997,0.022901999999999978,0.009940999999999978,0.9929968633145241,0.8943800817247526,double,0.011387999999999954
29,0.241667,stair_decsent,0.005039596832265132,-0.0025197984161259056,-0.001319894408445317,-0.03861757729748906,0.009687835400896698,-0.0018924267024676782,0.0040796736260940185,-0.00203983681305367,-0.0009599232061444707,-0.0005999520038436247,-0.0004799616030722354,0.0007199424046150139,-0.043270839495715696,0.028835131784221132,-0.21597235531723438,0.028740103185257514,-0.11516602007773635,-0.2735752349717481,0.2735976962763911,0.0576046074471786,0.3455758109047251,-0.12872400000000006,-0.003878999999999966,0.0014499999999999513,0.10947200000000001,0.019035999999999997,0.011404999999999998,0.23819600000000007,0.022914999999999963,0.009955000000000047,0.9922314516440702,0.8986951475107077,double,0.011404999999999998
30,0.25,stair_decsent,0.005520220808831208,-0.0009600384015370207,-0.0014400576023055312,-0.025940465974092563,0.011686010649266002,-0.003873639053662086,0.003480139205575031,-0.0012000480019212759,0.0002400096003909168,-0.0018000720028919063,0.0,0.0006000240009506456,0.05767718427530005,0.18717868889822195,-0.014420160069628488,-0.07194700834261213,0.10077868848342657,0.14399769669211404,-0.14402016069222134,0.057597696276519256,-0.014390784071087029,-0.128741,-0.003880999999999968,0.0014640000000000208,0.10941099999999992,0.019044000000000005,0.011421999999999932,0.23815199999999992,0.022924999999999973,0.009957999999999911,0.9938515836037563,0.8972575958436526,double,0.011421999999999932
31,0.258333,stair_decsent,0.004920196807867256,-0.002040081603262845,0.000480019200768512,-0.025982097360930562,0.01620076723633651,-0.005556376199480642,0.003360134405366261,-0.00240009600384256,0.0008400336013415652,-0.003120124804975343,-0.001800072002878589,-0.0006000240009506475,-0.07200576034608829,-0.1296103686218441,0.23041843310621,-0.014401152071135315,-0.1440115206913821,0.07200576034449177,-0.15841267275692308,-0.2160172810366727,-0.1440115206889831,-0.12875400000000004,-0.0038839999999999986,0.001466999999999996,0.10934400000000011,0.019046000000000007,0.011413000000000006,0.23809800000000014,0.022930000000000006,0.00994600000000001,0.9929768991295451,0.8944537069264236,double,0.011413000000000006
32,0.266667,stair_decsent,0.00527957763378125,-0.0017998560115175463,0.0007199424046016899,-0.02412748215687201,-0.005788014582628412,-0.0066164188722036815,0.0023998080153744905,-0.0005999520038369618,-0.0007199424046150115,-0.004199664026878715,-0.00227981761458978,-0.0013198944084453126,0.04312224932973293,0.028824765028233564,0.028788481381470808,-0.11522994840314008,0.2160000000006715,-0.18718214614309756,-0.12953434388089405,-0.05756486821588559,-0.08637753869626402,-0.12877799999999984,-0.0038739999999999886,0.001454999999999984,0.10926500000000017,0.019042000000000003,0.011396000000000073,0.238043,0.022915999999999992,0.009941000000000089,0.9957061613963447,0.8923274896967783,double,0.011396000000000073
33,0.275,stair_decsent,0.000480019200781832,-0.002280091203647086,0.002160086403464951,-0.027442749470818702,0.010872196967928844,-0.018619385386827537,0.0031201248049753222,-0.0015600624024943227,-0.002760110404415595,-0.006960278411150039,-0.0063602544101794105,-0.0018000720028785772,-0.5759700507619583,-0.05763052827667557,0.17282419283130385,0.08644147241099588,-0.11521785655314494,-0.24482995317419595,-0.33128697759166115,-0.4896720023508476,-0.05762361627664257,-0.1287560000000001,-0.0038679999999999826,0.0014139999999999153,0.10920299999999994,0.01900799999999997,0.011363000000000012,0.23795900000000003,0.022875999999999952,0.009949000000000097,0.9925862022509712,0.8845118602697336,double,0.011363000000000012
34,0.283333,stair_decsent,0.0016800672026831304,-0.002040081603262845,0.002880115204597749,0.006186009520365915,-0.02183201037759595,-0.01718774691079955,0.001080043201745806,-0.000960038401537024,0.0002400096003909176,-0.0061202448097951966,0.0018000720028852506,0.0007200288011461063,0.1440115206889837,0.0288023041382745,0.08640691241243245,-0.2448195851709494,0.07200576034528984,0.36002880172885154,0.10080806448516072,0.9792783407013899,0.3024241934507008,-0.1287609999999999,-0.0038590000000000013,0.0013920000000000599,0.10913799999999996,0.01904,0.01134500000000005,0.23789899999999986,0.022899000000000003,0.00995299999999999,0.9975585912204774,0.8897700393014902,double,0.01134500000000005
35,0.291667,stair_decsent,-0.0034797216222770253,-0.0034797216222703644,0.002519798416132558,-0.0043341844139711426,-0.00954664540193805,-0.02304821897186896,0.001559875209961447,-0.003959683225342598,0.0,-0.011159107271406123,-0.007319414446848235,-0.0033597312215056367,-0.6191251289848994,-0.17274298284227477,-0.043234555851354765,0.057575234967079496,-0.35992858456990295,-0.02879884813905896,-0.6046151261832159,-1.094250833901305,-0.48953204015499635,-0.12871900000000003,-0.0038630000000000053,0.001371000000000011,0.10907400000000012,0.01900799999999997,0.011295999999999973,0.23779300000000014,0.022870999999999975,0.009924999999999962,0.9929069083069605,0.8778136571245404,double,0.011295999999999973
36,0.3,stair_decsent,-0.003480139205548396,-0.002640105604226816,0.002520100804038019,0.012527181364800568,-0.01024179595604598,-0.018438222616876436,0.0013200528021367235,-0.002160086403458304,-0.001320052802110077,-0.008880355214224133,-0.013080523220925297,-0.003960158406330232,-5.011199704438081e-05,0.1007579524833254,3.628800017532615e-05,-0.028779840132572183,0.2159602570363973,-0.15841267276012005,0.2734611853092519,-0.6913607073175418,-0.07205414434472537,-0.128679,-0.0038590000000000013,0.001338999999999979,0.10902899999999982,0.01892100000000002,0.011241999999999974,0.2377079999999998,0.022780000000000022,0.009902999999999995,0.9952416587649823,0.873805703014026,double,0.011241999999999974
37,0.308333,stair_decsent,-0.004920196807893869,-0.0038401536061414086,0.004560182407294172,0.009661905356547183,-0.005308939883849974,-0.015164426585123866,0.0009600384015370176,-0.004200168006721121,-0.0004800192007685088,-0.01104044161766238,-0.011280451218053295,-0.004560182407294172,-0.17281382483444938,-0.14401152069057813,0.2448195851741443,-0.04320345621021294,-0.244819585174944,0.10080806448356712,-0.2592207372420782,0.21601728103588086,-0.07200576034608636,-0.1286299999999998,-0.003862000000000032,0.0012969999999999926,0.10897800000000002,0.01885899999999996,0.01116600000000001,0.23760799999999982,0.02272099999999999,0.009869000000000017,0.9927747542428925,0.8739271589421562,double,0.01116600000000001
38,0.316667,stair_decsent,-0.007439404847613013,-0.004439644828414861,0.004079673626107353,0.0015362888278649442,-0.015520987570105555,-0.020289258360224022,0.0009599232061178308,-0.0026397888168906425,-0.0020398368130603375,-0.010199184065261723,-0.009119270458359181,-0.004439644828421523,-0.3022807823037147,-0.07193319201745335,-0.05765644122712038,-1.3822344514851049e-05,0.18723052433771145,-0.18716314042378662,0.10094283086161039,0.2593209454876561,0.014463352396526243,-0.12856,-0.0038469999999999893,0.0012459999999999694,0.10895500000000014,0.018820000000000003,0.011094999999999966,0.23751500000000014,0.022666999999999993,0.009848999999999997,0.9942142724016237,0.8775369308799599,double,0.011094999999999966
39,0.325,stair_decsent,-0.006240249609977291,-0.0038401536061480703,0.005280211208440274,0.018953686674933815,-0.011575256436395513,-0.010700373623526497,-0.0006000240009373203,-0.0021600864034582896,-0.002160086403451628,-0.008520340813624377,-0.008880355214210751,-0.002880115204611053,0.14390438469167374,0.07194182434498843,0.14407027269085748,-0.18720115289273306,0.05756659227557313,-0.014430528068077503,0.2014692489664393,0.028670976136856943,0.18715104089889156,-0.12851299999999988,-0.0038329999999999753,0.0011840000000000739,0.10893600000000014,0.018778000000000017,0.011027000000000009,0.23744900000000002,0.022610999999999992,0.009842999999999935,0.9948113437453308,0.8805044950278966,double,0.011027000000000009
40,0.333333,stair_decsent,-0.008280331213233516,-0.003960158406336893,0.003960158406343554,0.01257640591868581,0.006123447904045621,-0.001230075491775185,-0.00036001440057305316,-0.002640105604226816,-0.002520100804038019,-0.009000360014406268,-0.010920436817473655,-0.005280211208440308,-0.2448195851741546,-0.01440115206874151,-0.15841267275851706,0.028802304135877567,-0.057604608276554364,-0.04320345620861537,-0.05760460827815819,-0.24481958517495608,-0.28802304138116663,-0.12844699999999998,-0.003821999999999992,0.0011299999999999644,0.10892999999999997,0.018720000000000014,0.010950000000000015,0.23737699999999995,0.022542000000000006,0.009820000000000051,0.9938874727829274,0.8766259916294215,double,0.010950000000000015
41,0.341667,stair_decsent,-0.007079433645312118,-0.0029997600191981307,0.0044396448284081715,0.019712004527861593,-0.013443897593886995,-0.00019791601121786002,-0.00035997120232748815,-0.0035997120230350926,-0.0004799616030722338,-0.008999280057601053,-0.00767938564914908,-0.0014398848092167015,0.1440961804561311,0.11523858736966179,0.05753376794631829,5.183374797817382e-06,-0.11514355877229131,0.24479712034626627,0.0001295844498699267,0.38889502859666086,0.4608023037225346,-0.12839100000000014,-0.0038269999999999693,0.0010890000000000066,0.10891399999999996,0.018681000000000003,0.01090100000000005,0.2373050000000001,0.022507999999999972,0.009812000000000043,0.9939177240517787,0.8820170477628357,double,0.01090100000000005
42,0.35,stair_decsent,-0.008400336013442297,-0.0016800672026831304,0.003240129605184125,0.0336638067161298,-0.006647349312848376,0.010034397668603612,-0.00024000960036427117,-0.002160086403458304,-0.003120124804988666,-0.009240369614797187,-0.007440297611905274,-0.002640105604220154,-0.15851462476061226,0.15836947276071087,-0.14394758469027355,0.014395968074309045,0.17276198482860822,-0.3168322575202735,-0.028931904139701814,0.028691712137742333,-0.14403225669068231,-0.12832299999999996,-0.003831000000000029,0.0010360000000000369,0.10890699999999987,0.018632999999999955,0.010852000000000084,0.23722999999999983,0.022463999999999984,0.009816000000000047,0.9936625546950908,0.8815838200943493,double,0.010852000000000084
43,0.358333,stair_decsent,-0.007080283211332174,-0.0021600864034582896,0.005640225609026647,0.021241183634868543,-0.000230452805523376,0.01168298575279553,-0.000240009600390916,-0.002880115204604391,-0.0032401296051841034,-0.01008040321612536,-0.0051602064082514765,-0.0036001440057704774,0.15841267276012455,-0.057604608277349964,0.28802304138275675,-3.197508411733075e-12,-0.08640691241402666,-0.014401152069535185,-0.10080806448195967,0.27362188931402714,-0.1152092165547005,-0.128266,-0.0038369999999999793,0.0009620000000000184,0.10888199999999992,0.018608000000000013,0.010774999999999979,0.23714799999999991,0.022444999999999993,0.00981299999999996,0.9927636895415352,0.8820651678148355,double,0.010774999999999979
44,0.366667,stair_decsent,-0.00863930885530021,-0.0005999520038369618,0.0038396928245778704,0.019476666291503252,-0.008685920807777664,0.011298598755874294,0.0002399808015427777,-0.0051595872330231825,-0.0016798656107461574,-0.007799376049913808,-0.0057595392368601445,-0.0002399808015294561,-0.1870681118272179,0.18720115186241015,-0.21604665040182086,0.05759424069278776,-0.27351476222927634,0.18721670199639362,0.2737013638362792,-0.07191418629813623,0.40318732952256037,-0.12819199999999986,-0.0038750000000000173,0.0009160000000000279,0.10888900000000001,0.018564999999999998,0.010741,0.23708099999999988,0.022440000000000015,0.009824999999999973,0.9909475479579575,0.8855858979891654,double,0.010741
45,0.375,stair_decsent,-0.005640225609013362,0.0008400336013415652,0.004200168006721149,0.040024085225824256,-0.0009453774421188008,0.02082067861089553,-0.002880115204611072,-0.002040081603262845,0.002160086403451642,-0.007680307212269545,-0.0066002640105637085,-0.005520220808831226,0.3599043857298518,0.17280518482881682,0.04325875220728178,-0.37442649779837484,0.3743556497972333,0.46081267421070554,0.014288832070594412,-0.10089100848476733,-0.6336541470420957,-0.12816899999999998,-0.003898999999999986,0.0008989999999999831,0.10887200000000008,0.01850299999999999,0.010660000000000003,0.23704100000000006,0.022401999999999977,0.00976100000000002,0.9931033482741058,0.8831673685419273,double,0.010660000000000003
46,0.383333,stair_decsent,-0.007200288011514356,-0.000960038401537024,0.003720148805952637,-0.015310607007245604,0.00032764451920523917,0.0212739402086549,-0.00012000480020878201,-0.003240129605184125,0.0012000480019146184,-0.005880235209430926,-0.004920196807873917,-0.002040081603269507,-0.18721497689919575,-0.2160172810366727,-0.057604608276552595,0.3312264975881791,-0.14401152069138162,-0.11520921655310526,0.2160172810318761,0.2016161289679342,0.4176334100038075,-0.12811000000000017,-0.003917999999999977,0.0008779999999999344,0.10888299999999984,0.018469999999999986,0.010611999999999955,0.236993,0.022387999999999963,0.00973400000000002,0.994237825396663,0.8894367633296487,double,0.010611999999999955
47,0.391667,stair_decsent,-0.0043196544276634255,-0.0005999520038369618,0.0033597312215056367,0.01839171643976566,0.008524519351221106,0.03794899812501593,0.0007199424046283331,-0.004439644828414832,-0.00035997120230084497,-0.006239500839925718,-0.0074394048476129635,-0.0047996160307090165,0.345648378191856,0.04320691117111373,-0.043246650401607876,0.10078560173231513,-0.14393031236269568,-0.18718732951949385,-0.04310842698521617,-0.3022807823061008,-0.3311176418813903,-0.12806799999999985,-0.003950000000000009,0.0008469999999999311,0.10886700000000005,0.018412999999999957,0.010543999999999998,0.2369349999999999,0.022362999999999966,0.009697000000000067,0.9924799633321413,0.8849781895906095,double,0.010543999999999998
48,0.4,stair_decsent,-0.00408016320651234,0.0015600624024943227,0.002280091203647086,0.02746552764333212,-0.01549618749352266,0.025194094491581782,0.0003600144005730508,-0.0048001920076784265,0.0013200528021100684,-0.00552022080883119,-0.005400216008635731,-0.0038401536061480703,0.028740096141975858,0.2592120972436428,-0.12956198462241045,-0.04319308821016211,-0.043267392207319455,0.20161094496710746,0.08631705641359956,0.24471244917523385,0.1151400965511751,-0.128031,-0.004002999999999979,0.0008389999999999231,0.10885499999999992,0.01835500000000001,0.010492999999999975,0.23688599999999993,0.02235799999999999,0.009654000000000051,0.9916810135033103,0.8890858381464638,double,0.010492999999999975
49,0.408333,stair_decsent,-0.00204008160328283,0.000960038401537024,0.0030001200047932073,0.027912432114706166,0.010437751862458702,0.02825666809269328,0.002160086403438319,-0.003960158406336893,-0.00036001440057305316,-0.005520220808831226,-0.006360254410179453,-0.004320172806916608,0.24481958517094862,-0.07200576034528984,0.08640691241403134,0.21601728103507414,0.10080806448356361,-0.20161612896713377,-4.371678026582628e-15,-0.11520921655390905,-0.05760460827655572,-0.127996,-0.004043999999999992,0.0008110000000000062,0.10882600000000009,0.018293999999999977,0.010431999999999997,0.2368220000000001,0.02233799999999997,0.00962099999999999,0.9924578152586381,0.8880147057588561,double,0.010431999999999997
50,0.416667,stair_decsent,-0.003119750419949537,0.0016798656107528183,0.0015598752099880903,0.013245929407506659,-0.0018191785734375501,0.020405302686776018,0.00227981761458978,-0.004919606431487066,0.002039836813060324,-0.006359491240710428,-0.0021598272138183914,-0.005999520038396261,-0.12954989400848405,0.08637235531746984,-0.17281555013260325,0.014366596010494465,-0.11512455305377631,0.2879591089072924,-0.10070439547386625,0.5040109426879119,-0.20150554733377152,-0.12795100000000015,-0.004099000000000019,0.0008150000000000102,0.10879899999999987,0.018262,0.010368999999999962,0.23675000000000002,0.02236100000000002,0.009553999999999951,0.9903446862614358,0.8894505378801926,double,0.010368999999999962
51,0.425,stair_decsent,-0.0006000240009639708,-0.000480019200768512,0.004800192007671796,0.027069341086954996,0.014831027042802135,0.02260455329563436,0.00372014880596596,-0.005040201608062714,0.000480019200768512,-0.004320172806903284,-0.0056402256090266846,-0.004680187207489661,0.30237926544888666,-0.25919654524437,0.38885356986484026,0.17284665683141529,-0.014472000069080613,-0.18718560089905387,0.24472800117690496,-0.41766451400555643,0.15832627275970287,-0.127915,-0.004137000000000002,0.0007790000000000852,0.10876799999999998,0.018218999999999985,0.010290000000000021,0.23668299999999998,0.022355999999999987,0.009510999999999936,0.9895286690565841,0.8907105753232045,double,0.010290000000000021
52,0.433333,stair_decsent,-0.002640105604220137,-0.0014400576023055264,0.002520100804038002,0.016139884230654353,-0.004748754395860526,0.016129312527687484,0.0034801392055750194,-0.0037201488059526123,-0.000120004800195458,-0.005640225609013324,-0.004560182407294172,-0.004800192007671764,-0.24481958517414587,-0.11520921655310337,-0.2736218893116267,-0.028802304139078333,0.15841267276012197,-0.07200576034608995,-0.15841267276011448,0.1296103686226459,-0.014401152067935099,-0.12786399999999998,-0.004155999999999993,0.0007570000000000077,0.10874300000000003,0.018193000000000015,0.010229000000000044,0.236607,0.022349000000000008,0.009472000000000036,0.9915073107941985,0.8907839036079359,double,0.010229000000000044
53,0.441667,stair_decsent,-0.0007199424046016947,-0.001919846412288948,0.002879769618433422,0.01694304794004224,0.01742574549426361,0.018855540823378106,0.003959683225335964,-0.005879529637631573,0.0013198944084453212,-0.005159587233023217,-0.005159587233023217,-0.0039596832253492855,0.2304011518620654,-0.057570051593883405,0.04315680518303601,0.05754067911698429,-0.2591049714037645,0.17277408311024567,0.05767199135950435,-0.07192282526146494,0.10085298563984683,-0.12782500000000008,-0.004188999999999998,0.0007439999999999669,0.10870599999999997,0.018166000000000015,0.010171999999999959,0.23653100000000005,0.022355000000000014,0.009427999999999992,0.9879826420385807,0.8918834770669691,double,0.010171999999999959
54,0.45,stair_decsent,-0.0006000240009639668,-0.003000120004799849,0.0032401296051841034,0.01148213179328312,0.003583295192383662,0.01193618298560727,0.004320172806903256,-0.00552022080883119,0.0004800192007685088,-0.004080163206538986,-0.002640105604226798,-0.005760230409208782,0.01439078406789001,-0.12963801662197247,0.04324492820720987,0.04326048020728315,0.04311878420741412,-0.10078905648347641,0.12953606462069203,0.30234988945114705,-0.21607430503534011,-0.12778400000000012,-0.0042099999999999915,0.0007209999999999717,0.10867699999999991,0.01816899999999999,0.010097000000000023,0.23646100000000003,0.022378999999999982,0.009376000000000051,0.9882897066536334,0.8936792427952237,double,0.010097000000000023
55,0.458333,stair_decsent,0.00036001440057305316,-0.006000240009599738,0.005400216008635768,0.0005859540974846796,0.010254471276833117,0.012930672847756052,0.005520220808831226,-0.005880235209410941,-0.0001200048001954588,-0.006720268810759168,-0.004560182407294202,-0.005040201608076038,0.11520921655310479,-0.3600288017280567,0.2592207372436901,0.14401152069218448,-0.043203456207818576,-0.07200576034609013,-0.31682534552024344,-0.23041843310541327,0.08640691241242605,-0.1277410000000001,-0.004209000000000018,0.0006749999999999812,0.10861799999999988,0.018181000000000003,0.010009999999999963,0.23635899999999999,0.02239000000000002,0.009334999999999982,0.9865562483484871,0.890719516579255,double,0.010009999999999963
56,0.466667,stair_decsent,-0.0002399808015427777,-0.0034797216222703644,0.004199664026878715,0.016392361362444742,0.014459617526198619,0.007273609822097924,0.005279577633807893,-0.006239500839932378,0.0009599232061444676,-0.00443964482839485,-0.004079673626107326,-0.003959683225335938,-0.07199366476071878,0.30243801143860943,-0.14405471343377146,-0.02887487101311889,-0.043108426988413356,0.12958099428124853,0.27365298564486634,0.05765644122712686,0.1296518337821093,-0.1276949999999999,-0.0042320000000000135,0.0006479999999999819,0.1085830000000001,0.018176000000000025,0.009942000000000006,0.236278,0.02240800000000004,0.009294000000000024,0.9862839547240168,0.895037651095788,double,0.009942000000000006
57,0.475,stair_decsent,-0.0010800432017191595,-0.004440177607105405,0.0010800432017324826,0.03585450867175799,0.009079601471461947,0.007866192149012905,0.003960158406330232,-0.00408016320652569,0.0,-0.004920196807893902,-0.0050402016080693755,-0.005400216008635768,-0.10081152048198536,-0.11525932855334729,-0.3743694737965007,-0.15833664076295026,0.259130881244053,-0.11519539255303853,-0.05766854428165768,-0.11526796855418835,-0.17287084882993323,-0.12765300000000002,-0.004228999999999983,0.0006389999999999452,0.10855099999999984,0.018170999999999993,0.009888000000000008,0.23620399999999986,0.022399999999999975,0.009249000000000063,0.9905233347410141,0.8927175186310441,double,0.009888000000000008
58,0.483333,stair_decsent,0.001200048001901287,-0.0034801392055683576,0.002520100804024679,0.06279620773858899,0.005648163463221366,0.005315569466503029,0.004440177607112037,-0.0016800672026897807,0.002280091203647086,-0.004440177607085391,-0.002280091203647086,-0.0037201488059526123,0.27362188931002485,0.11520921655310733,0.17281382482805593,0.05760460827814751,0.2880230413819632,0.2736218893132217,0.05760460828135236,0.331226497590577,0.2016161289671365,-0.1276259999999998,-0.0042139999999999955,0.0006369999999999987,0.10850400000000016,0.018181000000000003,0.009836000000000067,0.23612999999999995,0.022394999999999998,0.009199000000000068,0.9912224055932161,0.897634615105152,double,0.009836000000000067
59,0.491667,stair_decsent,0.0004799616030855554,-0.004919606431487066,-0.00035997120230084497,0.04789763521270132,0.0025757710862932557,0.01737812281271022,0.004199664026852072,-0.0033597312214989758,-0.00011999040075806724,-0.0032397408207342476,-0.0033597312214989758,-0.002039836813060324,-0.0864034555814412,-0.17272224933029837,-0.34558099427952016,-0.02885932088552488,-0.20154355877240143,-0.28798675358833103,0.14404089109084978,-0.1295464384271525,0.201621309442319,-0.12759500000000012,-0.004200999999999955,0.0006390000000000562,0.10847300000000004,0.018194000000000043,0.009821999999999997,0.23606800000000017,0.022394999999999998,0.009182999999999941,0.9910341125624484,0.8996806850344815,double,0.009821999999999997
60,0.5,stair_decsent,0.00036001440057305316,-0.00408016320652569,0.0010800432017324826,0.05084147087042434,0.016935806417408918,0.004174154624135002,0.08256330253210412,-0.05316212648506274,0.06264250570021754,-0.004680187207502984,-0.001920076803074048,-0.003960158406330232,-0.014394240071103149,0.10073721648402467,0.1728086408296329,9.404012781141514,-5.976526492687373,7.531800804149257,-0.1728604808314821,0.1727654408286249,-0.23044780910475368,-0.12691000000000008,-0.004610000000000003,0.0011519999999999309,0.10843099999999994,0.018212000000000006,0.009780000000000011,0.23534100000000002,0.02282200000000001,0.00862800000000008,0.805870932554429,0.9030125646511133,double,0.009780000000000011
61,0.508333,stair_decsent,0.0009600384015370176,-0.006960278411136715,0.002280091203647086,0.007221964269979434,0.014546725098106464,0.007535654554705188,0.04848193927757942,-0.03852154086163619,0.022680907236288725,-0.00024000960036426957,-0.001080043201725814,-0.004080163206538986,0.07200576034608927,-0.3456276496593079,0.1440115206905794,-4.089927187630452,1.7569405524332753,-4.795583639016998,0.532842626561706,0.10080806448436704,-0.014401152071133294,-0.12651400000000002,-0.004873000000000016,0.0013219999999999343,0.1084210000000001,0.018261000000000027,0.00972699999999993,0.23493500000000012,0.023134000000000043,0.008404999999999996,0.8900905536926631,0.9089041521845496,double,0.00972699999999993
62,0.516667,stair_decsent,0.004079673626120675,-0.00467962562995098,0.0016798656107461687,0.037988111856003905,0.025029344932869603,0.017287136310809813,0.02975761939045205,-0.01415886729061101,0.011159107271419519,-0.0035997120230617597,-0.0020398368130603375,-0.0032397408207342692,0.37432628084757325,0.2736564412269916,-0.072021309443355,-2.246738647363508,2.9232869655657936,-1.3825053953526845,-0.4031320401604883,-0.1151660200785372,0.10084261888705562,-0.12630000000000008,-0.0049519999999999564,0.0014009999999999856,0.10835699999999981,0.018282999999999994,0.009685999999999972,0.2346569999999999,0.02323499999999995,0.008284999999999987,0.9420125705711624,0.9083917052873636,double,0.009685999999999972
63,0.525,stair_decsent,0.004560182407294172,-0.005400216008635731,0.002160086403464951,0.028015602082211672,0.017036466168034115,0.017219242646183696,0.026521060842436793,-0.0050402016080693425,0.0006000240009639668,0.0010800432017457988,-0.0002400096003842544,-0.0018000720028785772,0.05766336027523037,-0.08647430441434636,0.057628800278264766,-0.388402561864304,1.0942836532511255,-1.2671406780817842,0.5615930907005328,0.21598790503733056,0.17276716882943552,-0.12611700000000003,-0.004949000000000037,0.0013879999999999448,0.10832799999999998,0.018325999999999953,0.009652999999999912,0.23444500000000001,0.02327499999999999,0.008264999999999967,0.9549959776717448,0.9138284957674863,double,0.009652999999999912
64,0.533333,stair_decsent,0.0074402976119053235,-0.00588023520941098,0.002520100804024712,0.01984997422067391,0.02734421508465685,0.03390965927858566,0.004200168006721177,-0.0027601104044156313,0.003120124804988687,0.00048001920075519197,0.002880115204611091,-0.003960158406330258,0.34562764965932774,-0.057604608277361476,0.04320345620541996,-2.678614284857293,0.27362188931402043,0.3024241934507072,-0.07200576034928746,0.37442995379759675,-0.25922073724369377,-0.12614400000000003,-0.004923000000000011,0.0013929999999999776,0.10826999999999987,0.018399,0.009599000000000024,0.2344139999999999,0.02332200000000001,0.008206000000000047,0.990140599588893,0.9097396719868863,double,0.009599000000000024
65,0.541667,stair_decsent,0.005519558435323991,-0.0014398848092166917,-0.0040796736261072995,0.06957793087536183,0.007388141312010973,0.028739611695757263,0.002279817614589765,0.011759059275256329,-0.011159107271419371,-0.0007199424046016851,0.005279577633787876,-0.003839692824577845,-0.23047026356867262,0.532799424069385,-0.7919095788495274,-0.2304236131667144,1.7421609886815272,-1.7133707795065933,-0.1439838739329095,0.2879124585045316,0.01445471343321478,-0.12617100000000003,-0.004813000000000012,0.0013339999999999463,0.10821799999999993,0.018455,0.00960099999999997,0.23438899999999996,0.02326800000000001,0.008267000000000024,0.9727155559944137,0.9063837299548794,double,0.00960099999999997
66,0.55,stair_decsent,0.005040201608049358,-0.0048001920076784265,0.002760110404415595,0.015234301965028646,0.03167040279849025,0.012240209688049621,-0.012360494419772447,0.019800792031684333,-0.020520820832823774,0.0015600624025009842,0.006240249609983953,-0.0015600624024876611,-0.0575251202777669,-0.4032529939351639,0.8208069159393815,-1.7569077204322754,0.9650465326326618,-1.1234505653911393,0.27361152131317173,0.11528524855347087,0.27356659331455346,-0.12631599999999987,-0.004608000000000001,0.0011400000000000299,0.10818900000000009,0.01854699999999998,0.009565000000000046,0.23450499999999996,0.02315499999999998,0.008425000000000016,0.9482002446639172,0.9047186929612103,double,0.009565000000000046
67,0.558333,stair_decsent,0.00312012480500201,-0.002880115204611091,0.0019200768030740608,0.021050118281165413,0.042424776494457965,-0.0076217840499983435,-0.021240849633996806,0.00588023520941098,-0.013080523220932045,0.0012000480019279496,0.007560302412100783,-0.0025201008040380353,-0.23041843310300794,0.23041843310540658,-0.10080806448356436,-1.0656852531170573,-1.6705336400184185,0.8928714282841469,-0.04320345620701284,0.1584126727609315,-0.11520921655470814,-0.12651900000000005,-0.004534999999999956,0.0010149999999999881,0.10817300000000007,0.01863400000000004,0.009527999999999981,0.23469200000000012,0.023168999999999995,0.008512999999999993,0.9572848274736079,0.9014381560139242,double,0.009527999999999981
68,0.566667,stair_decsent,0.0026397888168906074,-0.0026397888168906074,-0.00155987520998808,0.01616362289466171,0.0470663619586894,-0.0015140512345771771,-0.02339812814974127,0.004919606431480372,-0.013558915286780522,0.0009599232061444612,0.009839212862967406,-0.003959683225335912,-0.05763570771675055,0.028836859577691606,-0.41756083670051763,-0.25885271367223983,-0.1152662320531078,-0.05740245570536038,-0.028812670480379953,0.27344737831372756,-0.17273607167001023,-0.12673599999999996,-0.0044720000000000315,0.0009149999999999991,0.10815900000000012,0.018737999999999977,0.009508000000000072,0.23489500000000008,0.02321000000000001,0.008593000000000073,0.954188820138576,0.896320926974949,double,0.009508000000000072
69,0.575,stair_decsent,0.001320052802110086,-0.003960158406336919,-0.0014400576023055455,-0.0032398393330716744,0.039063316324390605,-0.013097261656131103,-0.023880955238216976,0.009120364814595126,-0.016320652826116194,0.002040081603256197,0.0064802592103682935,-0.0036001440057705256,-0.15837465675993442,-0.1584506887611093,0.01437868806942704,-0.057941568279816634,0.504111170420592,-0.33142176159074727,0.12962419262111435,-0.40309056193437454,0.043146432205134935,-0.126946,-0.004363000000000006,0.0007909999999999862,0.10816500000000007,0.01882499999999998,0.009489999999999998,0.23511100000000007,0.023187999999999986,0.008699000000000012,0.9494517615948324,0.9001954326335878,double,0.009489999999999998
70,0.583333,stair_decsent,-0.02580103204129069,-0.07812312492499819,0.10056402256090266,-1.546988043181912,0.2658788577239477,-0.2198213425025528,-0.022680907236288725,0.00720028801152097,-0.015360614424565634,0.0036001440057571543,0.005160206408258139,-0.004680187207489629,-3.2546603676227845,-8.899911978718464,12.240979258755283,0.14401152069221726,-0.23041843310622206,0.1152092165547289,0.18721497689919003,-0.1584126727601283,-0.12961036862103675,-0.12691999999999992,-0.0036519999999999886,-0.00017499999999992522,0.10841000000000012,0.01951900000000001,0.008612999999999982,0.23533000000000004,0.023170999999999997,0.008787999999999907,0.9527942983666708,0.8990504298150289,double,0.008612999999999982
71,0.591667,stair_decsent,0.0019198464122889224,-0.00455963522917953,0.016078713702913066,-0.22023275615672275,0.08176694752941857,0.0273024158383232,-0.024598032157428507,0.012479001679864673,-0.01727861771058698,0.002519798416132541,0.005159587233023149,-0.006239500839925676,3.3262393152843055,8.826912610489334,-10.137426068873165,-0.23003658760976328,0.6333949686037512,-0.23014198296392277,-0.12963110026693125,-7.429508459203531e-05,-0.18710266767890987,-0.12714099999999995,-0.003510000000000013,-0.0004530000000000367,0.10841500000000015,0.019600000000000006,0.008426999999999962,0.2355560000000001,0.02311000000000002,0.008879999999999999,0.9457541783756429,0.8970674828061358,double,0.008426999999999962
72,0.6,stair_decsent,0.001560062402501005,-0.0044401776071054345,0.021000840033592563,-0.30112534938802066,0.08222012069876249,0.046732951730525635,-0.021960878435142914,0.005640225609026723,-0.01092043681748039,0.001320052802110086,0.0032401296051841467,-0.005280211208453667,-0.04317580820687875,0.014335488068414299,0.5906787868330183,0.31647110551849467,-0.8206859559387991,0.7630122276619045,-0.1439752326920036,-0.2303441291058466,0.11511936055106424,-0.12733700000000003,-0.0034259999999999846,-0.0007190000000000252,0.10841300000000009,0.019664000000000015,0.008207999999999993,0.23575000000000013,0.02309,0.008927000000000018,0.9580559808644232,0.9001730631462017,double,0.008207999999999993
73,0.608333,stair_decsent,-0.0003600144005730508,-0.002280091203647086,0.01608064322572506,-0.24224319956139054,0.08699169112067404,0.06546775959452031,0.05484219368776549,-0.029161166446656932,0.05928237129485088,0.004200168006721121,0.0020400816032628316,-0.004560182407294172,-0.23041843310621,0.2592207372444905,-0.5904472348334914,9.21673732424194,-4.176334100046023,8.424673960438135,0.3456276496593091,-0.14401152069138487,0.08640691241563564,-0.1268769999999999,-0.0036499999999999866,-0.0003589999999999982,0.10845100000000008,0.019699999999999995,0.008036000000000043,0.23532799999999998,0.023349999999999982,0.008395000000000041,0.856895149323646,0.9051720651698989,double,0.008036000000000043
74,0.616667,stair_decsent,0.0023998080153478634,0.002879769618426761,0.02687784977201863,-0.32897648349494474,0.09991497212424079,0.08496397450518826,0.0158387329013705,-0.03119750419966876,0.02651787856971778,0.0016798656107461687,0.004079673626107353,-0.00467962562995098,0.33115219773469284,0.6191337679474294,1.2955611406639826,-4.680040891096137,-0.24434098308277427,-3.9314246130469503,-0.302412094549432,0.24473146422420605,-0.014332040155604624,-0.1267649999999998,-0.003933999999999993,-0.00036199999999997345,0.10844500000000012,0.019710000000000005,0.00777300000000003,0.23520999999999992,0.023644,0.008135000000000003,0.9268307211543061,0.9079307829107643,double,0.00777300000000003
75,0.625,stair_decsent,-0.001200048001901287,0.002400096003842544,0.02220088803553354,-0.3060405478523055,0.10268832402242326,0.07803069837310068,0.014280571222846481,-0.008160326413057988,0.01440057602304194,0.0009600384015370176,0.004200168006721121,-0.004800192007671764,-0.432000002069979,-0.05756313627555684,-0.561257858692556,-0.1869868808981174,2.764571917269972,-1.4541344709799342,-0.08638272041391433,0.01445990406981484,-0.014468544068256779,-0.12663599999999997,-0.0040220000000000256,-0.0004270000000000662,0.10846299999999998,0.019724999999999993,0.007547999999999999,0.23509899999999995,0.023747000000000018,0.007975000000000065,0.9635650415346495,0.909499686267158,double,0.007547999999999999
76,0.633333,stair_decsent,0.0007200288011461016,-0.0019200768030740352,0.025201008040313402,-0.34099361839718184,0.10541017624955805,0.09862081292789965,-0.005160206408258139,0.030481219248773662,-0.03864154566181833,0.0010800432017191524,0.004080163206532325,-0.0034801392055750194,0.2304184331030098,-0.5184414744889669,0.360028801725651,-2.3329866351979525,4.637170966258429,-6.365309214551788,0.014401152067938834,-0.01440115206873824,0.15841267275851906,-0.12668499999999994,-0.0037519999999999776,-0.0009589999999999321,0.10846599999999995,0.019775000000000043,0.00730900000000001,0.2351509999999999,0.02352700000000002,0.008267999999999942,0.917522705006468,0.908202618248688,double,0.00730900000000001
77,0.641667,stair_decsent,-0.0023998080153478634,-0.0029997600191981506,0.025677945764344696,-0.3293310315773393,0.11596818272125561,0.0839608276738572,0.016678665706730263,-0.005279577633787946,0.002039836813047016,0.0020398368130736593,0.0046796256299443196,-0.0013198944084453212,-0.3743504699416826,-0.12955162180515017,0.05722794864786371,2.6204550173972314,-4.290952349719439,4.881375386952913,0.11516602008093502,0.07192973643052536,0.2592086389644481,-0.12652600000000014,-0.003770999999999969,-0.0011560000000000459,0.10850300000000002,0.019838999999999996,0.007083999999999979,0.23502900000000015,0.023609999999999964,0.008240000000000025,0.9706452368065384,0.908812074016987,double,0.007083999999999979
78,0.65,stair_decsent,-0.0010800432017457988,-0.006240249609983953,0.022800912036484183,-0.3174339489102752,0.1179902231360317,0.10032292515052371,0.017520700828030585,-0.006000240009599698,0.002280091203647086,0.0018000720028652538,0.005640225609026647,-0.002520100804038002,0.15837811275675737,-0.3888743058665293,-0.34525785765756634,0.10104825648629766,-0.08648294441518647,0.028831680139213816,-0.028772928142134228,0.11527660855422102,-0.14403052869226876,-0.126371,-0.003768999999999967,-0.0013270000000000781,0.10852700000000004,0.01993800000000001,0.006872999999999907,0.23489800000000005,0.023706999999999978,0.008199999999999985,0.9689008461362378,0.9072757657358658,double,0.006872999999999907
79,0.658333,stair_decsent,-0.0007200288011461112,-0.00960038401535698,0.027601104044156315,-0.3437370118616407,0.1319463376291447,0.10324104622713244,0.013440537621518424,-0.009480379215174844,0.009360374414979384,0.0022800912036471162,0.0054002160086424646,-0.004320172806903313,0.043203456210211315,-0.40323225793508427,0.5760460827639716,-0.48963917034827775,-0.41763341000542153,0.8496679720787667,0.057604608278155146,-0.028802304138267718,-0.2160172810350807,-0.12625299999999995,-0.003768000000000049,-0.001479000000000008,0.10855199999999998,0.020062999999999998,0.0066070000000000295,0.23480499999999993,0.023831000000000047,0.008086000000000038,0.9684589222508712,0.9070036173796792,double,0.0066070000000000295
80,0.666667,stair_decsent,0.0009599232061444612,-0.014518838492924985,0.02639788816894604,-0.3345557553170989,0.1130296411662156,0.12361483521552233,0.009959203263745454,-0.009719222462202678,0.00611951043916761,0.0009599232061444612,0.0023998080153544922,-0.0029997600192047716,0.2015781146256971,-0.5901673239222424,-0.14437435507682592,-0.41772670479636953,-0.028658896931585416,-0.38887256729202646,-0.15840748710134928,-0.3600201575819474,0.15843685957505774,-0.1261779999999999,-0.003728000000000009,-0.0016479999999999828,0.10855199999999998,0.020204,0.006361999999999979,0.23472999999999988,0.02393200000000001,0.008009999999999962,0.9746635186751141,0.9133005279577597,double,0.006361999999999979
81,0.675,stair_decsent,0.002640105604220137,-0.022560902436093266,0.02952118084722998,-0.3369066825836981,0.14966974954402723,0.1377054638854123,0.009360374414952613,-0.015360614424572296,0.007080283211332174,0.002280091203647086,0.002880115204611053,-0.004320172806916579,0.20162995296719893,-0.965086276631255,0.3748101137986235,-0.07186233634859453,-0.6769941152489611,0.11529734455352929,0.15842649676018472,0.05763916827751814,-0.15845587276032666,-0.12612200000000007,-0.0036680000000000046,-0.00183499999999992,0.108549,0.02041599999999999,0.006079999999999974,0.23467100000000007,0.024083999999999994,0.007914999999999894,0.9677813246426707,0.911398696067268,double,0.006079999999999974
82,0.683333,stair_decsent,0.004680187207503015,-0.02916116644665732,0.029881195247816753,-0.3158947218980265,0.1565234856489066,0.16239249107540957,0.008400336013442354,-0.01548061922476796,0.0032401296051841467,0.0007200288011461112,0.001680067202689803,-0.003960158406330258,0.24481958517735475,-0.7920633638022458,0.04320345620866124,-0.11520921654989412,-0.0144011520695627,-0.46083686621241593,-0.18721497689919464,-0.14401152069137896,0.04320345620860733,-0.12609100000000018,-0.0035540000000000016,-0.0020569999999999755,0.10851599999999983,0.020672999999999997,0.00579799999999997,0.234607,0.024227,0.007854999999999945,0.9701525333022036,0.914180596485715,double,0.00579799999999997
83,0.691667,stair_decsent,0.0032397408207342263,-0.029037676985843308,0.0314374850011978,-0.2929197140831499,0.18810253071169922,0.1505268163023461,0.005999520038409543,-0.015478761699069445,0.005159587233009827,0.0004799616030855522,0.0009599232061378004,-0.00455963522917953,-0.17283973923311471,0.014817549893689937,0.18673983121922672,-0.288074871014254,0.00022288525300157916,0.23031649001987828,-0.02880575930652234,-0.0864103667568991,-0.07193146422477412,-0.12606800000000007,-0.0034410000000000274,-0.0022760000000000558,0.10849299999999995,0.02092299999999997,0.005498000000000003,0.23456100000000002,0.024363999999999997,0.007774000000000059,0.9710264658676379,0.9144529360467415,double,0.005498000000000003
84,0.7,stair_decsent,0.002520100804011389,-0.027361094443778718,0.04080163206528382,-0.33363010945593913,0.2249387013253825,0.12504071937989428,0.01092043681748039,-0.018000720028799336,0.005280211208453667,-0.0007200288011461112,0.001680067202689803,-0.006120244809795237,-0.08636025641699793,0.20119795296587134,1.123742597394228,0.5905336348339003,-0.3026471054518077,0.014475456071503754,-0.14400460869214862,0.08642073641569774,-0.1872806408995226,-0.12599799999999983,-0.003363000000000005,-0.0025720000000000187,0.10846600000000017,0.02116499999999999,0.005106999999999973,0.234464,0.024527999999999994,0.007678999999999991,0.9638228704748091,0.9125643874697578,double,0.005106999999999973
85,0.708333,stair_decsent,0.002640105604246783,-0.01908076323053157,0.04644185767430992,-0.32422768891070225,0.2537405065344729,0.11128514131202022,0.0021600864034383048,-0.018360734429378807,0.005760230409222106,0.0007200288011461016,0.003120124804995307,-0.006480259210368207,0.014401152074330187,0.9936794927693643,0.6768541472490198,-1.0512841010490879,-0.043203456207784666,0.05760460827654352,0.17281382482805793,0.17281382482965296,-0.04320345620700443,-0.12600200000000017,-0.003356999999999999,-0.002910999999999997,0.10844999999999994,0.021350000000000036,0.004665999999999948,0.2344520000000001,0.024707000000000034,0.007576999999999945,0.9677267398083258,0.9121829418405727,double,0.004665999999999948
86,0.716667,stair_decsent,0.004079673626093978,-0.021238300935922893,0.0682745380369482,-0.4006079282660652,0.39110766036016426,0.0888676013495591,-0.005759539236840124,-0.01883849292056174,0.005399568034552603,0.0017998560115042128,0.004199664026878687,-0.005879529637624834,0.1727343438741521,-0.2588838139418414,2.6197120665512497,-0.9502790545090435,-0.05732643282732532,-0.043276022878509665,0.1295688997309939,0.12953434387849436,0.07208178218662929,-0.12608399999999986,-0.003336999999999979,-0.003434999999999966,0.10843099999999994,0.021562000000000026,0.0040480000000000516,0.2345149999999998,0.024899000000000004,0.007483000000000017,0.9659568720142899,0.9127597076361195,double,0.0040480000000000516
87,0.725,stair_decsent,0.0074402976119053235,-0.02148085923436774,0.08832353294132685,-0.4503822345217464,0.49720161869977864,0.09482688110778573,-0.005880235209430965,-0.03180127205088415,-0.006360254410172833,0.0009600384015370304,0.0056402256090200605,-0.006720268810759212,0.4032910099377627,-0.02910816013978733,2.405975627550561,-0.014484096074744025,-1.555595719467482,-1.4112351427727763,-0.10078214448184208,0.17287430482915953,-0.10089273648558576,-0.12619500000000006,-0.0034230000000000094,-0.0042240000000000055,0.10837699999999995,0.021787999999999974,0.0032559999999999256,0.234572,0.025210999999999983,0.007479999999999931,0.945066937037106,0.910490230802671,double,0.0032559999999999256
88,0.733333,stair_decsent,0.010920436817480244,-0.016200648025920517,0.08892355694227631,-0.41892088478681694,0.5244979443071607,0.1419570415116249,-0.012360494419772447,-0.035401416056640884,-0.0152406096243835,0.0010800432017457988,0.007920316812673734,-0.005400216008635731,0.4176334100053889,0.6336506910413056,0.07200576034434955,-0.7776622117294438,-0.43203456207328933,-1.0656852531154002,0.014401152071134998,0.2736218893140122,0.15841267276172752,-0.12638900000000008,-0.003583000000000003,-0.005091999999999985,0.10829500000000003,0.02198899999999998,0.0024699999999999722,0.23468400000000011,0.025571999999999984,0.007561999999999958,0.932539759387896,0.9083020436733775,double,0.0024699999999999722
89,0.741667,stair_decsent,0.018478521718261143,-0.0251979841612658,0.12491000719941979,-0.5668294588449551,0.6899702880723532,0.18488738609175004,-0.017758579313659446,-0.031077513798897373,0.01739860811134528,0.0037197024237931847,0.010079193664510317,-0.005039596832251828,0.9068976362828104,-1.079593968723942,4.318028588570156,-0.6477183697968597,0.5188267647880414,3.916392816862127,0.31673376794425256,0.25904449866049856,0.04327083949890876,-0.1266910000000001,-0.003632000000000024,-0.005987999999999993,0.10817199999999993,0.022282999999999997,0.001387000000000027,0.23486300000000004,0.02591500000000002,0.00737500000000002,0.9336697955643225,0.9064717945932677,double,0.001387000000000027
90,0.75,stair_decsent,0.019680787231495536,-0.029401176047047846,0.14184567382695445,-0.5757624642012835,0.7913974984990546,0.21345903220556084,-0.0030001200047931873,-0.037201488059519464,0.05736229449177684,0.002160086403464951,0.009360374414972597,-0.005760230409222106,0.14427763269343435,-0.5044032024219404,2.0323612897557415,1.7710859605023637,-0.7349063075269489,4.795834199019728,-0.1871614088957431,-0.08626176041494256,-0.08647948841596964,-0.1268800000000001,-0.0036969999999999503,-0.006692000000000031,0.10802599999999996,0.022606000000000015,0.00015699999999996272,0.23490600000000006,0.026302999999999965,0.006848999999999994,0.8859412400065569,0.9128416342420427,double,0.00015699999999996272
91,0.758333,stair_decsent,0.027241089643582895,-0.04476179047161348,0.16368654746190162,-0.6229219785619995,0.9285031832875863,0.3079048338342769,0.02664106564261893,-0.050522020880835586,0.013440537621504923,0.00408016320651234,0.008400336013442242,-0.004320172806903256,0.9072725803536934,-1.8433474648464623,2.621009676580712,3.557084561071882,-1.5985278796731148,-5.2708216572988995,0.2304184331030098,-0.11520921655230429,0.17281382483125451,-0.12688500000000014,-0.0037449999999999983,-0.007944000000000062,0.10783299999999985,0.023048999999999986,-0.0012429999999999941,0.23471799999999998,0.026793999999999984,0.006701000000000068,0.9022067227939323,0.9158405531339584,double,-0.0012429999999999941
92,0.766667,stair_decsent,0.029277657787366494,-0.052435805135591936,0.1792656587473007,-0.6845552273296952,0.9875433127087786,0.353114571429107,-0.013078953683695145,-0.05123590112791134,0.14122870170386254,0.0035997120230617597,0.005999520038396301,-0.002879769618433422,0.24436862776381213,-0.9208080950298175,1.8693438067433599,-4.766021037474718,-0.08565877694693542,15.333353021641269,-0.0576495300516658,-0.28807487101583323,0.17283455585191287,-0.12723799999999996,-0.0037349999999999883,-0.008261000000000074,0.10761900000000013,0.023536,-0.0027610000000000134,0.2348570000000001,0.02727099999999999,0.00550000000000006,0.7486606832122054,0.9323899025914248,double,-0.0027610000000000134
93,0.775,stair_decsent,0.030001200048011815,-0.05136205448217715,0.21084843393735764,-0.8167430874081706,1.1489096063437816,0.3517419814906154,-0.022320892835715672,-0.03756150246009917,0.17064682587303834,0.003480139205548373,0.006000240009599698,-0.0037201488059526123,0.08682854441921503,0.12885523261907852,3.7900846261918657,-1.1090770613249117,1.6409934798766488,3.5303161129455995,-0.014349312074089283,8.64000004076485e-05,-0.10084953648376177,-0.12767400000000007,-0.003620000000000012,-0.008596000000000048,0.10739799999999988,0.02401399999999998,-0.004549000000000025,0.23507199999999995,0.027633999999999992,0.004047000000000023,0.7064138026226057,0.9464115485965136,double,-0.004549000000000025
94,0.783333,stair_decsent,0.0369614784591357,-0.06312252490099979,0.22548901956078019,-0.8594777987736953,1.2651426153050915,0.4365153665175407,0.013920556822273616,-0.07428297131885112,0.13116524660986686,0.0032401296051841467,0.00480019200767849,-0.0027601104044156313,0.8352668200076742,-1.4113129027748406,1.756940552432819,4.34914792487575,-4.406752533151599,-4.73797903074185,-0.028802304135872873,-0.144011520691374,0.1152092165531009,-0.12786600000000004,-0.0037129999999999663,-0.009382000000000001,0.1071169999999999,0.02457999999999999,-0.0064509999999999845,0.23498299999999994,0.028292999999999957,0.002931000000000017,0.7476991233532064,0.9599975191770707,double,-0.0064509999999999845
95,0.791667,stair_decsent,0.051115910727145934,-0.09491240700743701,0.24298056155506695,-0.9165270239115184,1.3488879727195877,0.6334333269264967,0.2338612910967079,-0.16186705063595325,0.3440124790016716,0.006839452843769295,-0.004439644828408142,-0.014278857691382209,1.6983960004811767,-3.8144806943168925,2.09881713394368,26.39077685078385,-10.509248778149924,25.539624717039008,0.4318842378911832,-1.108691724992388,-1.3821391033077142,-0.1263430000000001,-0.004271000000000025,-0.008539999999999992,0.10674799999999984,0.025334000000000023,-0.008594999999999908,0.23309099999999994,0.029605000000000048,5.499999999991623e-05,0.49945000000000084,0.9725948941103983,single,-0.008539999999999992
96,0.8,stair_decsent,0.049681987279480706,-0.08904356174247177,0.2536901476059104,-0.9731160737839881,1.3991551361437373,0.6178225753444407,0.06300252010081682,-0.12048481939277579,0.17832713308532114,0.010440417616725059,0.04488179527180894,-0.0297611904476209,-0.17207769682769974,0.7042896033799613,1.2852017341705768,-20.50387267441382,4.966066391836947,-19.883036831435227,0.4321330580770129,5.918809564408601,-1.8579542489185916,-0.1262319999999999,-0.004533000000000009,-0.009168000000000065,0.1064210000000001,0.02645000000000003,-0.010956999999999995,0.232653,0.03098300000000004,0.0017889999999999295,0.6083658969711091,0.9085744637591797,double,-0.009168000000000065
97,0.808333,stair_decsent,0.06420256810271896,-0.11148445937837106,0.25537021480859695,-0.9851731374404257,1.4194215800916323,0.7772729758683646,0.055682227289094464,-0.11508460338413494,0.16920676827073505,0.015480619224747975,0.044401776071041024,-0.007800312012478379,1.7425394003646208,-2.6930154369254167,0.20161612896754552,-0.8784702762177393,0.6480518431106325,-1.0944875572526302,0.6048483868982314,-0.05760460827648131,2.635410828650272,-0.12630299999999983,-0.004563000000000039,-0.009886000000000061,0.10601499999999997,0.027748999999999968,-0.013149999999999995,0.2323179999999998,0.03231200000000001,0.0032639999999999336,0.6139012691047696,0.9205572855354858,double,-0.009886000000000061
98,0.816667,stair_decsent,0.06959443244540683,-0.1053515718742547,0.269378449724013,-1.051065523346742,1.4937441412284,0.7725185894111346,0.1407487401007751,-0.1753059755219557,0.19918406527477586,0.06287497000242225,0.09407247420206395,-0.034317254619631185,0.6469719633654707,0.7358876294835993,1.6808537215521866,10.20716496420446,-7.225986577612227,3.5969878814543534,5.686867143949353,5.960006975164693,-3.1817785705726664,-0.12571,-0.005145999999999984,-0.010471000000000008,0.10595900000000014,0.02941100000000002,-0.015680999999999945,0.23166900000000012,0.034557000000000004,0.005209999999999937,0.44790000000000063,0.8029342592775751,single,-0.010471000000000008
99,0.825,stair_decsent,0.09900396015841632,-0.12864514580582884,0.28381135245410816,-1.1146233308274967,1.57263957435324,1.0175401030985962,0.06372254890196377,-0.1425657026281091,0.17688707548303131,-0.018960758430349688,-0.005160206408258207,-0.012360494419785935,3.529284496941049,-2.7953406854163383,1.7320176083157697,-9.243512684364818,3.9289899068579017,-2.675745804841564,-9.820680239142286,-11.908398009159134,2.63491662064628,-0.126004,-0.005262000000000044,-0.011361999999999983,0.10497599999999996,0.030439999999999967,-0.01814900000000008,0.23097999999999996,0.03570200000000001,0.0067870000000000985,0.5388723085538868,0.9613089188883613,double,-0.011361999999999983
100,0.833333,stair_decsent,0.10884435377414944,-0.12420496819872841,0.2978519140765599,-1.1431146063834932,1.6512644692794047,1.1173227108150634,0.03144125765030402,-0.16272650906035793,0.2079683187327466,-0.026401056042228012,-0.026161046441857082,0.009240369614783802,1.180894469666756,0.5328426265571116,1.6849347920858881,-3.8739099065954177,-2.419393547611753,3.7298983859012544,-0.8928714282825265,-2.520201612096338,2.5922073724432555,-0.126649,-0.005583000000000005,-0.012110999999999983,0.10384900000000008,0.03125699999999998,-0.020554000000000072,0.2304980000000001,0.036839999999999984,0.00844300000000009,0.47235168462518157,0.9361686131346445,single,-0.012110999999999983
101,0.841667,stair_decsent,0.09947204223661656,-0.12311015118790726,0.29493640508758595,-1.1246508688913879,1.6638655951640822,1.1278386435907906,0.1072714182865303,-0.17590592752579934,0.23758099352051437,-0.01631869450445584,-0.02171826253899512,0.018598512119032285,-1.124587417510537,0.13136753189598502,-0.3498330920295113,9.098891365037883,-1.5814037035566721,3.553236715594858,1.2097866016045231,0.5330914210297488,1.1228872695282472,-0.12658400000000003,-0.006023000000000001,-0.012588999999999961,0.10288399999999998,0.03210200000000002,-0.022857000000000016,0.229468,0.03812500000000002,0.010268000000000055,0.39731999999999945,0.9451292586799499,single,-0.012588999999999961
102,0.85,stair_decsent,0.0746429857194175,-0.1438857554302192,0.2877715108604384,-1.1111290025554632,1.5847040113405648,1.2013676195309764,0.07620304812191851,-0.18888755550221753,0.2199687987519489,-0.013920556822273616,-0.028441137645504547,0.01248049921996807,-2.9796059663025654,-2.493172235966894,-0.8598217001257196,-3.728353553895605,-1.5578576714770564,-2.11354791414444,0.2877880333832048,-0.8067772838724934,-0.7341909155243335,-0.126571,-0.006397999999999959,-0.013153999999999999,0.10214600000000007,0.03306400000000004,-0.025151000000000034,0.22871700000000006,0.039462,0.011997000000000035,0.38038655604596316,0.94327348568222,single,-0.013153999999999999
103,0.858333,stair_decsent,0.05988239529581485,-0.11496459858393794,0.23028921156846227,-0.8890378689027921,1.2673844772918963,0.9609396572454433,0.02880115204608388,-0.2271690867634736,0.22272890915636157,0.03948157926317321,-0.08544341773670797,-0.08676347053881137,-1.7713417045004916,3.4706776486596826,-6.89815184111075,-5.688455067302824,-4.593967510051113,0.33122649758942047,6.408512670760423,-6.840547232833695,-11.90975276116393,-0.12683,-0.007333000000000034,-0.013217000000000034,0.10197600000000007,0.033310000000000006,-0.027792999999999957,0.22880600000000006,0.04064300000000004,0.014575999999999922,0.3542400000000008,0.7866453620300554,single,-0.013217000000000034
104,0.866667,stair_decsent,0.0,0.0,0.0,0.0,0.0,0.0,0.18370530357573553,-0.20002399808015162,0.19234461243100914,0.007919366450698571,-0.013798896088316822,-0.008279337652999418,-7.1853126104889835,13.794648258211975,-27.63249478863254,18.58701122266049,3.2571500699930582,-3.6458239411270212,-3.7871625644918185,8.596654865417753,9.417342558892775,-0.12529899999999983,-0.009000000000000008,-0.011614000000000013,0.10204200000000019,0.033194999999999975,-0.027862000000000053,0.22734100000000002,0.04219499999999998,0.01624800000000004,0.3375199999999996,0.9701079102711385,single,-0.011614000000000013
105,0.875,stair_decsent,0.0,0.0,0.0,0.0,0.0,0.0,0.10692427697107541,-0.26197047881915053,0.17004680187207435,0.05136205448216382,-0.023400936037441488,-0.07476299051961197,0.0,0.0,0.0,-9.214091756229424,-7.433875043681586,-2.675844300844197,5.213331097019688,-1.1522908855303764,-7.9783574782926046,-0.12440799999999985,-0.011182999999999998,-0.010197000000000012,0.10247000000000006,0.032999999999999974,-0.028484999999999983,0.2268779999999999,0.04418299999999997,0.01828799999999997,0.3171200000000003,0.8438735448471623,single,-0.010197000000000012
106,0.883333,stair_decsent,0.0,0.0,0.0,0.0,0.0,0.0,0.16380655226207042,-0.3493339733589325,0.14784591383655415,0.07140285611425906,0.036601464058562155,-0.04560182407296837,0.0,0.0,0.0,6.826146080762602,-10.484038706322046,-2.6642131327877245,2.4049923955472408,7.20057603456179,3.4994799527953293,-0.12304300000000001,-0.014093999999999995,-0.008965,0.10306500000000018,0.033304999999999974,-0.02886500000000003,0.2261080000000002,0.04739899999999997,0.01990000000000003,0.3009999999999997,0.8461822742543255,single,-0.008965
107,0.891667,stair_decsent,0.0,0.0,0.0,0.0,0.0,0.0,0.17662586993042337,-0.43148548116151475,0.1951043916486712,0.09515238780895442,0.015118790496762144,-0.024478041756657444,0.0,0.0,0.0,1.5381950645971953,-9.85739234492233,5.670563692358687,2.8497158260973716,-2.577714610247196,2.5346511058688557,-0.12157099999999987,-0.01769000000000004,-0.007338999999999984,0.103858,0.03343099999999999,-0.02906900000000001,0.22542899999999988,0.05112100000000003,0.021730000000000027,0.28269999999999973,0.834321854354165,single,-0.007338999999999984
108,0.9,stair_decsent,0.0,0.0,0.0,0.0,0.0,0.0,0.2137285491419687,-0.5438617544701742,0.1459258370334801,0.006480259210368207,0.013800552022077974,0.07332293291731977,0.0,0.0,0.0,4.452499605369637,-13.48569222472806,-5.901662620327718,-10.641081075073304,-0.1581949447598901,11.73658642433419,-0.11978999999999984,-0.02222200000000002,-0.0061229999999999896,0.103912,0.033545999999999965,-0.028457999999999983,0.22370199999999985,0.055767999999999984,0.022334999999999994,0.27665000000000006,0.8751812259586655,single,-0.0061229999999999896
109,0.908333,stair_decsent,0.0,0.0,0.0,0.0,0.0,0.0,0.2328093123724767,-0.6240249609984468,0.12024480979238648,0.042121684867393906,-0.06432257290291442,0.07680307212288248,0.0,0.0,0.0,2.2897831789881407,-9.619969582176099,-3.081846542792975,4.277142164529705,-9.375149996999053,0.4176334100039295,-0.11785000000000001,-0.02742200000000003,-0.005121000000000042,0.104263,0.033009999999999984,-0.02781800000000001,0.222113,0.060432000000000013,0.022696999999999967,0.27303000000000033,0.8188743406696191,single,-0.005121000000000042
110,0.916667,stair_decsent,0.0,0.0,0.0,0.0,0.0,0.0,0.23734101271898492,-0.7015838732901304,0.08435325173986127,-0.07847372210222311,-0.0704343652507799,0.08723302135829465,0.0,0.0,0.0,0.5437605407377221,-9.306324969004434,-4.306642434908199,-14.470291213056887,-0.7333564132307933,1.251493788746351,-0.11587199999999998,-0.03326900000000002,-0.004418000000000033,0.10360900000000006,0.03242299999999998,-0.027090999999999976,0.21948100000000004,0.065692,0.022672999999999943,0.27327000000000057,0.771911780687129,single,-0.004418000000000033
111,0.925,stair_decsent,-4.33193327733107,-4.1736469458778185,8.146885875434977,-83.84040551047352,-131.92666612678622,-265.4054741457234,0.291971678867169,-0.6596663866554637,0.19212768510741243,0.18588743549742184,0.2934117364694612,-0.08616344653786072,-519.8527873912219,-500.8576678120486,977.6654116686599,6.555942175469083,5.030299608144303,12.933449342079768,31.724607896273113,43.66327873757825,-20.808408483877912,-0.07734099999999988,-0.003987000000000018,-0.0707049999999999,0.14125600000000005,0.06964700000000001,-0.09569699999999992,0.21859699999999993,0.07363400000000003,0.024992000000000014,0.25007999999999986,0.5,flight,-0.0707049999999999
112,0.933333,stair_decsent,0.4165366614664627,-0.039481579263173736,-0.18648745949837495,-1.8060557480468804,1.4265437910345486,6.017534839777465,0.20124804992199014,-0.8766350654026248,0.07524300972038149,-0.014880595223810647,0.0012000480019146262,0.012840513620541127,569.8391862231581,496.11968878131313,-1000.0448019840908,-10.887270964260136,-26.037282940977207,-14.026722115328454,-24.093127411644588,-35.06680528831744,11.880950457026612,-0.07913499999999996,-0.010963,-0.06852400000000003,0.13766100000000003,0.06998599999999999,-0.09403600000000001,0.216796,0.080949,0.02551199999999998,0.2448800000000002,0.9671810090775217,single,-0.06852400000000003
113,0.941667,stair_decsent,0.19810415166787335,-0.8130549556035427,-0.009839212862974067,4.026444708815071,-1.2632256459572497,2.7960608289631574,0.26577873770099125,-0.8122150227981696,-0.0157187425005989,-0.01583873290137029,-0.012838972882165517,-0.00611951043916761,-26.209804391479203,-92.82137945048753,21.196093908735246,7.743063088433001,7.729786729596199,-10.91453710354928,-0.11496732392124241,-1.6845477422702226,-2.2750208854941913,-0.07857099999999995,-0.010956000000000021,-0.068573,0.13587799999999994,0.076655,-0.094005,0.2144489999999999,0.08761100000000002,0.02543200000000001,0.2456799999999999,0.9645210119849864,single,-0.068573
114,0.95,stair_decsent,0.19464778591143972,1.4352574102964248,-0.021480859234361077,-17.67060321836877,0.31786338893541044,10.014821556704558,0.26017040681626874,-0.7832713308532419,-0.4333373334933474,0.05268210728430124,-0.04200168006720511,-0.05496219848793503,-0.4147804819913187,269.80827623904815,-1.397053446704322,-0.6730266272317968,3.4733819686701075,-50.11623556855302,8.222829735470079,-3.499664848798735,-5.861357020132949,-0.07802500000000001,-0.029443000000000025,-0.0720050000000001,0.134695,0.06434499999999999,-0.09428400000000003,0.21272000000000002,0.09378800000000001,0.022278999999999938,0.2772100000000006,0.8550825060498057,single,-0.0720050000000001
115,0.958333,stair_decsent,0.1614064562582412,-0.3306132245289807,-0.13932557302292978,0.4634819487967295,-0.46318889693666965,5.065742306700667,0.21648865954637098,-0.8702748109924338,-0.1494059762390418,-0.0006000240009639668,0.016440657626304773,-0.021360854434178657,-3.9891191231487304,-211.91295269715567,-14.14193133188146,-5.242019353161837,-10.44083525011299,34.07312579554836,-6.394111518692546,7.013361057663463,4.032322579353922,-0.07756600000000002,-0.03394,-0.07208899999999996,0.13334500000000005,0.06723699999999999,-0.09330099999999997,0.21091100000000007,0.10117699999999999,0.02121200000000001,0.2878799999999999,0.9550635833728096,single,-0.07208899999999996
116,0.966667,stair_decsent,0.1285097192224665,-0.2666186705063577,-0.11243100551955346,0.39731235831861555,-0.3683285677293437,4.043023726852877,0.051235901127904,-1.025917926565867,-0.1073914086873017,-0.08447324214063266,-0.03947684185264767,-0.05519558435325323,-3.947292660880063,7.67873218413997,3.227089933210477,-19.828744710639036,-18.675679814426704,5.041344798624885,-10.063981058275504,-6.709563172420448,-4.059842802864689,-0.07821000000000011,-0.040268,-0.07204699999999997,0.13156999999999996,0.06913000000000002,-0.09282400000000002,0.20978000000000008,0.10939800000000002,0.020777000000000045,0.29222999999999955,0.8194091317330647,single,-0.07204699999999997
117,0.975,stair_decsent,0.0,0.0,0.0,0.0,0.0,0.0,0.1975279011160508,-0.9225969038761636,-0.21708868354735114,0.004320172806903313,-0.08256330253210467,-0.08772350894036288,-15.421783178023244,31.99552028157448,13.492260352760649,17.555742228266908,12.39901868351188,-13.164199551188101,10.65563601914518,-5.17058210481908,-3.903507090736823,-0.07656400000000008,-0.047956,-0.07385600000000003,0.1316059999999999,0.068442,-0.09355500000000005,0.20816999999999997,0.116398,0.019699000000000022,0.3030099999999998,0.7990938801406428,single,-0.07385600000000003
118,0.983333,stair_decsent,0.0,0.0,0.0,0.0,0.0,0.0,0.18288731549262865,-0.931837273490935,-0.2568102724108857,-0.02352094083761696,-0.010200408016320819,-0.013560542421687057,0.0,0.0,0.0,-1.756940552432749,-1.108888709320946,-4.766781334877525,-3.34106728003362,8.683894697681934,8.89991197872021,-0.07504,-0.05572099999999999,-0.07599599999999995,0.13141000000000003,0.068357,-0.09366799999999997,0.20645000000000002,0.124078,0.01767200000000002,0.3232799999999998,0.951661744723124,single,-0.07599599999999995
119,0.991667,stair_decsent,0.0,0.0,0.0,0.0,0.0,0.0,0.1745860331173497,-0.9545236381089588,-0.2838972882169551,-0.03491720662347527,-0.015118790496762144,0.001439884809216711,0.0,0.0,0.0,-0.996074199097554,-2.7221459824842675,-3.2501818821777686,-1.3674424989030929,-0.5901586849581657,1.7999072751264524,-0.07358500000000001,-0.06367600000000001,-0.07836200000000004,0.13111899999999999,0.06823099999999999,-0.09365599999999996,0.204704,0.131907,0.015293999999999919,0.3470600000000008,0.9365382352047211,single,-0.07836200000000004
120,1.0,stair_decsent,0.0,0.0,0.0,0.0,0.0,0.0,0.1689667586703552,-0.9591983679347134,-0.33301332053281657,-0.053042121684873586,-0.03936157446297775,0.042121684867393344,0.0,0.0,0.0,-0.6743399072356238,-0.5609900186912931,-5.894159644289124,-2.1750768104402063,-2.909250445963699,4.882011287432673,-0.07217699999999994,-0.07166900000000001,-0.08113700000000001,0.13067699999999993,0.06790299999999999,-0.09330499999999997,0.20285399999999987,0.139572,0.012167999999999957,0.37832000000000043,0.8694345996880248,single,-0.08113700000000001
121,1.008333,stair_decsent,0.0,0.0,0.0,0.0,0.0,0.0,0.13512540501619713,-0.9656786271450944,-0.3388935557422253,-0.02604104164165531,-0.023520940837630597,-0.0062402496099906975,0.0,0.0,0.0,-4.0611248834943465,-0.7776622117342072,-0.7056564513871089,3.240259215554845,1.9009520731246006,-5.803664283857493,-0.07105099999999998,-0.07971600000000001,-0.08396099999999995,0.13046000000000002,0.06770700000000002,-0.09335700000000002,0.201511,0.14742300000000003,0.009396000000000071,0.4060399999999993,0.9405976239049701,single,-0.08396099999999995
122,1.016667,stair_decsent,0.0,0.0,0.0,0.0,0.0,0.0,0.13090952723781435,-0.9772018238540824,-0.3932085433165419,-0.033837293016572276,-0.025077993760500735,0.021478281737465667,0.0,0.0,0.0,-0.5058648642167926,-1.3826729912392428,-6.517277126747806,-0.9354753269638717,-0.18683140423207653,3.3259576850799317,-0.06996000000000002,-0.08786,-0.08723800000000004,0.1301779999999999,0.067498,-0.09317799999999998,0.20013799999999993,0.155358,0.005939999999999945,0.44060000000000055,0.9212037656685325,single,-0.08723800000000004
123,1.025,stair_decsent,0.0,0.0,0.0,0.0,0.0,0.0,0.07716308652345555,-0.9605184207368396,-0.39181567262690414,-0.024240969638763384,-0.01560062402496342,0.017280691227653223,0.0,0.0,0.0,-6.449830878958274,2.00208845760746,0.16715116880328748,1.1516048695318588,1.1373298614589464,-0.5037310104179146,-0.06931700000000007,-0.095864,-0.090503,0.1299760000000001,0.06736799999999998,-0.09303399999999995,0.19929300000000016,0.163232,0.00253099999999995,0.4746900000000005,0.9439834754464461,single,-0.090503
124,1.033333,stair_decsent,0.0,0.0,0.0,0.0,0.0,0.0,0.08244329773192034,-0.9648385935437238,-0.4370574822992884,-0.02028081123245923,-0.010080403216125227,0.008520340813624263,0.0,0.0,0.0,0.6336506910434059,-0.5184414744850788,-5.429234330059221,0.475238018277221,0.6624529951803788,-1.0512841010474987,-0.06862999999999997,-0.103904,-0.09414500000000003,0.129807,0.06728400000000001,-0.09296300000000002,0.19843699999999997,0.171188,0.0011820000000000164,0.5,0.9478507288262321,single,-0.09296300000000002
125,1.041667,stair_decsent,0.0,0.0,0.0,0.0,0.0,0.0,0.04259659227260498,-0.9278857691384886,-0.47960163186944965,-0.01703863690905798,-0.0069594432445408685,0.009359251259902085,0.0,0.0,0.0,-4.781222157345346,4.433984209891514,-5.104889557254864,0.3890297964244435,0.3744852377711085,0.10066120065728797,-0.06827500000000009,-0.11163700000000001,-0.09814199999999995,0.12966499999999992,0.06722600000000001,-0.092885,0.19794,0.17886300000000002,0.005256999999999956,0.5,0.9130164778620273,single,-0.092885
126,1.05,stair_decsent,0.0,0.0,0.0,0.0,0.0,0.0,0.03852154086163568,-0.9078363134525208,-0.5133805352214004,-0.04644185767429598,-0.06600264010560246,0.08592343693746866,0.0,0.0,0.0,-0.48902573034552166,2.4060309235530397,-4.053630547455914,-3.528527632933816,-7.085467042008947,9.188069804099992,-0.06795400000000007,-0.119202,-0.10241999999999996,0.129278,0.06667600000000001,-0.09216900000000006,0.19723200000000007,0.18587800000000002,0.010250999999999899,0.5,0.70102094914143,single,-0.09216900000000006
127,1.058333,stair_decsent,0.0,0.0,0.0,0.0,0.0,0.0,0.012960518420736587,-0.8670346813872628,-0.512420496819877,-0.019920796831886717,-0.05580223208928327,0.03036121444858527,0.0,0.0,0.0,-3.067445390723548,4.896391703499145,0.1152092165514671,3.182654607273432,1.224097925875349,-6.6677334080023885,-0.06784600000000007,-0.126427,-0.10668999999999995,0.1291119999999999,0.06621100000000002,-0.091916,0.19695799999999997,0.19263800000000003,0.014773999999999954,0.5,0.7412979119378995,single,-0.091916
128,1.066667,stair_decsent,0.0,0.0,0.0,0.0,0.0,0.0,0.02951763858890888,-0.839212862970956,-0.5284377249820064,-0.01367890568753859,-0.007799376049920417,0.01775857931365921,0.0,0.0,0.0,1.9866954845418963,3.3383511418654437,-1.9219136263653993,0.7489670199601727,5.759881934168765,-1.51219524057187,-0.0676000000000001,-0.133421,-0.11109400000000003,0.12899799999999995,0.06614599999999998,-0.09176799999999996,0.19659800000000005,0.199567,0.019326000000000065,0.5,0.7671830836635997,single,-0.09176799999999996
129,1.075,stair_decsent,0.0,0.0,0.0,0.0,0.0,0.0,-0.004200168006721177,-0.7980319212768587,-0.4994599783991404,0.0025201008040380353,-0.023760950438014853,-0.017280691227653223,0.0,0.0,0.0,-4.04629864342138,4.941910679718904,3.477468688691493,1.943958537330706,-1.9154655451931577,-4.204880660183938,-0.06763500000000011,-0.140071,-0.11525600000000003,0.129019,0.065948,-0.091912,0.1966540000000001,0.206019,0.02334400000000003,0.5,0.7174129428063701,single,-0.091912
130,1.083333,stair_decsent,0.0,0.0,0.0,0.0,0.0,0.0,-0.00180007200286523,-0.7733109324372845,-0.4803792151685958,0.0,-0.0063602544101793255,-0.0022800912036470555,0.0,0.0,0.0,0.288023041384364,2.9666373262419,2.2897831789924763,-0.30242419345229704,2.0881670500222276,1.8001440086410543,-0.06764999999999999,-0.146515,-0.119259,0.129019,0.06589499999999998,-0.09193099999999998,0.19666899999999998,0.21241,0.02732800000000002,0.5,0.7154589989517466,single,-0.09193099999999998
131,1.091667,stair_decsent,0.0,0.0,0.0,0.0,0.0,0.0,0.015838732901370712,-0.7572594192464743,-0.4473242140628779,-0.00575953923686692,-0.0005999520038369739,0.011279097672177737,0.0,0.0,0.0,2.116487269526791,1.926027500697207,3.966282830059813,-0.691089421270342,0.6911809942815528,1.6269725072984222,-0.06751799999999997,-0.15282600000000002,-0.12298699999999996,0.12897099999999995,0.06589,-0.09183700000000006,0.1964889999999999,0.21871600000000002,0.0311499999999999,0.5,0.6673687777785238,single,-0.09183700000000006
132,1.1,stair_decsent,0.0,0.0,0.0,0.0,0.0,0.0,0.013080523220918374,-0.7225489019560655,-0.4365774630985199,-0.008760350414015176,-0.01596063842553605,0.024840993639753343,0.0,0.0,0.0,-0.3309984015903384,4.16542869199667,1.2896617021910262,-0.3601117457276135,-1.843356104848051,1.6274926158136767,-0.06740900000000005,-0.15884700000000002,-0.126625,0.12889799999999996,0.06575700000000001,-0.09162999999999999,0.196307,0.22460400000000003,0.034995,0.5,0.5987188127251273,single,-0.09162999999999999
133,1.108333,stair_decsent,0.0,0.0,0.0,0.0,0.0,0.0,0.00216008640346498,-0.6960278411136509,-0.4101764070562899,-0.014160566422664536,0.10932437297491941,-0.03720148805952662,0.0,0.0,0.0,-1.3105048382879507,3.1826546072740682,3.168253455205841,-0.6480518431116536,15.034802760165197,-7.445395619738453,-0.06739099999999998,-0.164647,-0.13004300000000002,0.1287799999999999,0.066668,-0.09194000000000002,0.19617099999999987,0.231315,0.038103,0.5,0.4250607222320686,flight,-0.09194000000000002
134,1.116667,stair_decsent,0.0,0.0,0.0,0.0,0.0,0.0,0.00755939524837098,-0.6706263498920031,-0.385049196064314,-0.0059995200383829005,0.0007199424046083459,-0.005639548836095379,0.0,0.0,0.0,0.6478652321701414,3.047935111788771,3.0150241171077163,0.979247226335682,-13.031489149305283,3.7871297364328047,-0.06732800000000005,-0.170236,-0.13325200000000004,0.12873,0.06667400000000001,-0.09198700000000004,0.19605800000000007,0.23691,0.041264999999999996,0.5,0.5735743099757806,single,-0.09198700000000004
135,1.125,stair_decsent,0.0,0.0,0.0,0.0,0.0,0.0,0.014400576023055455,-0.6360254410176465,-0.3765750630025204,0.004320172806903313,-0.0026401056042268333,-0.026641065642619283,0.0,0.0,0.0,0.8209745319434223,4.152275155929071,1.0169366448810324,1.2384126779414748,-0.40322188993582264,-2.5202828280960152,-0.06720799999999993,-0.175536,-0.13639,0.12876599999999994,0.06665199999999999,-0.09220899999999999,0.19597399999999987,0.242188,0.044181000000000026,0.5,0.5129935021865222,single,-0.09220899999999999
136,1.133333,stair_decsent,0.0,0.0,0.0,0.0,0.0,0.0,-0.01068042721708947,-0.6008640345613885,-0.3631345253810153,0.0006000240009639748,-0.01068042721708947,-0.027721108844351774,0.0,0.0,0.0,-3.0098407824487166,4.219537556253247,1.6129290317418965,-0.4464357141412903,-0.9648771886310705,-0.12961036862264502,-0.06729699999999994,-0.180543,-0.13941599999999998,0.12877099999999997,0.06656299999999998,-0.09243999999999997,0.1960679999999999,0.247106,0.04697600000000002,0.5,0.48071751829551207,flight,-0.09243999999999997
137,1.141667,stair_decsent,0.0,0.0,0.0,0.0,0.0,0.0,-0.00863930885530015,-0.5713942884569194,-0.3749700023998105,0.00923926085914377,0.010079193664510181,-0.004199664026878687,0.0,0.0,0.0,0.24491461024589692,3.536086645604612,-1.4201436307649484,1.0366254929421321,2.4909552293735895,2.8223475902895254,-0.06736900000000001,-0.185305,-0.14254100000000003,0.12884800000000007,0.06664700000000001,-0.09247499999999997,0.19621700000000009,0.251952,0.050066000000000055,0.5,0.47616076622638714,flight,-0.09247499999999997
138,1.15,stair_decsent,6.6733469338774185,-7.918996759870466,-11.261730469218877,191.5302364873972,96.85168373746609,-7.804864119971728,0.025801032041291038,-0.5328213128525189,-0.5585023400936011,0.032641305652205736,0.11028441137645645,-0.212288491539666,800.833665411914,-950.3176238894201,-1351.4617147748686,4.133006227840094,4.628942230217316,-22.024761513715625,2.8083577094758407,12.025107129718851,-24.97165816786142,-0.12276299999999996,-0.123756,-0.053350999999999926,0.07351099999999988,0.133555,-0.00039999999999995595,0.19627399999999984,0.257311,0.05295099999999997,0.5,0.0975957330290324,flight,-0.00039999999999995595
139,1.158333,stair_decsent,-0.03348133925358639,-0.1627265090603591,-0.220568822752907,-4.343260265681797,-3.32432494618193,3.6728490255839015,-0.023160926437070246,-0.4959798391935588,-0.3789751590063529,-0.0078003120124781715,0.015480619224767548,-0.031081243249730554,-804.8515868391801,930.7896616836639,1324.992397271784,-5.875670044205019,4.4211536852225395,21.54412349540922,-4.853188247291875,-11.376910134607852,21.74573962437685,-0.12267699999999992,-0.126533,-0.054670999999999914,0.07372500000000004,0.13504,0.0011790000000000411,0.19640199999999997,0.261573,0.055849999999999955,0.5,0.44068590852683825,flight,0.0011790000000000411
140,1.166667,stair_decsent,-0.02651787856969149,-0.13066954643628836,-0.17590592752579737,-3.447932669162674,-2.6297174520205355,2.937667413053799,-0.07943364530836969,-0.46292296616271583,-0.20770338372931016,-0.028197744180464324,-0.12982961363091527,0.17926565874730307,0.8355484381923481,3.846527792665148,5.359118697757439,-6.7521860896688874,3.966507443105785,20.550968955729065,-2.447496060473547,-17.435833076036186,25.239609070918842,-0.12311800000000006,-0.129302,-0.054935999999999985,0.07371099999999986,0.13504699999999997,0.004139000000000004,0.19682899999999992,0.264349,0.05907499999999999,0.5,0.12811658876543575,flight,0.004139000000000004
141,1.175,stair_decsent,-5.785071402856026,1.7129485179406854,-0.3397335893435712,100.8350348418758,-169.98216428598656,265.65998988899395,-0.07788311532462623,-0.41773670946837116,-0.27325093003719353,-0.08280331213246674,-0.11136445457817931,0.10344413776551234,-691.0540650769511,221.2430174459308,-19.660105822365406,0.18607104089084717,5.422567706029507,-7.866020197753777,-6.552930271451033,2.215907722637182,-9.098946475673756,-0.07556000000000007,-0.147057,-0.05438199999999993,0.12122800000000011,0.11984500000000001,0.007832000000000061,0.19678800000000018,0.266902,0.06221399999999999,0.5,0.21152161701605027,flight,0.007832000000000061
142,1.183333,stair_decsent,-0.020160806432250992,-0.2047281891275652,-0.21156846273850655,0.12629285037655902,-1.1890834048278016,0.6823950972330154,-0.08352334093361505,-0.39541581663266884,-0.370934837393507,0.002760110404402308,0.018840753630147568,-0.015480619224774622,691.8169442486293,-230.13041006459474,15.380430409824289,-0.676854147244554,2.6786142848556973,-11.722537784269097,10.268021425281392,15.625249994999168,-14.271541700502585,-0.07608799999999993,-0.148646,-0.05571000000000004,0.12141899999999994,0.12170800000000001,0.009465999999999974,0.19750699999999988,0.270354,0.06517600000000001,0.5,0.4590989752105134,flight,0.009465999999999974
143,1.191667,stair_decsent,0.4946004319654341,3.6816654667626296,-5.300695944324413,14.970889886401112,-31.0220631884696,-19.94306808056823,-0.06311495080393838,-0.34461243100551686,-0.4990400767938422,0.0034797216222770024,0.0157187425005989,-0.012359011279093286,61.76640729513812,466.32993231223486,-610.6464460746181,2.448810910688327,6.095918601770049,-15.371399016118817,0.08634643842988825,-0.37461136663650635,0.374562988442682,-0.08073599999999992,-0.182201,-0.015692999999999957,0.11732600000000004,0.09115600000000001,0.053539,0.19806199999999996,0.273357,0.06923199999999996,0.5,0.46617313328771576,flight,0.053539
144,1.2,stair_decsent,0.26665066602663706,0.6134645385815495,-0.8394335773430982,2.4551990313307908,-5.222176576667885,-3.1453227763728497,-0.10416416656667453,-0.31909276371055156,-0.3878555142205739,0.0032401296051841467,0.011760470418815299,-0.014160566422664536,-27.355066115300502,-368.1988393353064,535.3728989537208,-4.926102935645809,3.0624825746988518,13.34268121604096,-0.02875219213882849,-0.4750116502800477,-0.21619526503915357,-0.08382599999999996,-0.189972,-0.011929999999999996,0.1151310000000001,0.086142,0.060415999999999914,0.19895700000000005,0.27611399999999997,0.07234599999999991,0.5,0.4688494361678942,flight,0.060415999999999914
145,1.208333,stair_decsent,0.06240249609985202,0.12900516020640512,-0.1974078963158501,0.7614469141470944,-1.1164045168782781,-0.6475867528159801,-0.09216368654744587,-0.2902916116644616,-0.39853594143765275,-0.003720148805965886,-0.0006000240009572972,-0.0043201728069031985,-24.51076082164664,-58.137450903052425,77.04616356981121,1.44011520691569,3.4562764965905983,-1.2817025341508053,-0.8352668200107898,-1.4833186631192103,1.1808944696701267,-0.08511399999999991,-0.193466,-0.013606000000000007,0.1145799999999999,0.08506200000000003,0.062025,0.19969399999999982,0.278528,0.075631,0.5,0.49044556109244386,flight,0.062025
146,1.216667,stair_decsent,0.039956803455714306,0.06287497000240394,-0.11771058315335113,0.45613128040243217,-0.6404970630424008,-0.3605969978483488,-0.1341492680585788,-0.2449004079673674,-0.3903287736981189,0.0,-0.009119270458365964,-0.006359491240710555,-2.6932676558841058,-7.934988025438257,9.562912546496339,-5.037866751995887,5.446508722953572,0.9847813462363804,0.4463821461442233,-1.0222277966653261,-0.24469863616599413,-0.086565,-0.196031,-0.01587800000000006,0.11424699999999999,0.08446199999999998,0.06295299999999993,0.200812,0.280493,0.07883099999999998,0.5,0.4814704273499614,flight,0.06295299999999993
147,1.225,stair_decsent,0.02304092163686147,0.022680907236288423,-0.07176287051481783,0.250957489584298,-0.3446192423770312,-0.19583519710586147,-0.0972038881555218,-0.23208928357133857,-0.42193687747508724,0.0057602304092220285,-0.009000360014399427,-0.007320292811709669,-2.029987017743015,-4.8234804711526245,5.513946074466878,4.433622933284092,1.5373964233803676,-3.7931241782032603,0.6912552993186041,0.014269824068946948,-0.11530080055191376,-0.08756699999999995,-0.198154,-0.018796000000000035,0.11410300000000007,0.084198,0.06348999999999994,0.20167000000000002,0.282352,0.08228599999999997,0.5,0.4784121033392104,flight,0.06348999999999994
148,1.233333,stair_decsent,0.004920196807893935,-0.015960638425539807,-0.025081003240131603,0.0947211649621936,-0.04897390903211449,-0.002001808850195619,-0.09960398415935365,-0.1963278531141266,-0.4190567622705007,0.006960278411150132,0.0,-0.012240489619577152,-2.1745739624346214,-4.63717096625808,5.602048154888595,-0.28802304138147894,4.29154331659814,0.3456276496563731,0.14401152069220138,1.0800864051841486,-0.5904472348334967,-0.08843800000000002,-0.19965699999999997,-0.02207900000000007,0.11412,0.08433100000000002,0.06359700000000001,0.20255800000000002,0.283988,0.08567600000000009,0.5,0.476531637035285,flight,0.06359700000000001
149,1.241667,stair_decsent,0.4773218142548338,0.8838492920566301,-1.1647468202543734,0.7310908194550062,-7.336349138831042,-4.716860829398791,-0.12994960403169653,-0.1604271658267324,-0.3994480441564543,0.0035997120230350688,0.002399808015361153,-0.011159107271419371,56.68365940088027,107.96855417352569,-136.74895812505795,-3.6411830900339153,4.307737855458835,2.352857945049947,-0.4032357077171871,0.28795392552929383,0.1297555013388256,-0.093499,-0.20836,-0.015700999999999965,0.11017200000000016,0.07698500000000003,0.07321100000000003,0.20367100000000016,0.285345,0.08891199999999999,0.5,0.48005266097846494,flight,0.07321100000000003
150,1.25,stair_decsent,0.033361334453378494,0.05904236169446741,-0.07224288971558826,0.25495953784700975,-0.4840339534818538,-0.25295870167072554,-0.11028441137644313,-0.14316572662906643,-0.4308172326893094,0.0060002400095864545,0.010080403216125496,-0.011160446417857985,-53.27738867172199,-98.98079087509544,131.10571589329115,2.3599175153310434,2.0714555619424115,-3.7644532020707273,0.2880748813814242,0.9217082924234264,-0.00016070400079373887,-0.09469599999999989,-0.21004499999999998,-0.018688999999999956,0.10994400000000004,0.076577,0.07372000000000001,0.20463999999999993,0.286622,0.09240899999999996,0.5,0.4730137394310552,flight,0.07372000000000001
151,1.258333,stair_decsent,-0.003360134405366283,-0.006600264010560422,0.005640225609026723,0.009894979527008683,0.02399145186166995,0.10773755399550872,-0.08412336493460568,-0.07248289931597335,-0.5100204008160477,0.010800432017298254,0.01644065762630499,-0.01260050402016353,-4.40675253315074,-7.877430181810683,9.346347692861597,3.1394511510665652,8.482278568713996,-9.504760365623312,0.5760460827687319,0.763261059663933,-0.17281382482966023,-0.09536900000000004,-0.210594,-0.022986000000000062,0.1100620000000001,0.076769,0.07356799999999997,0.20543100000000014,0.287363,0.09655400000000003,0.5,0.4610656800742934,flight,0.07356799999999997
152,1.266667,stair_decsent,-0.040676745860314924,-0.06659467242620538,0.08927285817134165,-0.1928497142877643,0.593760239271034,0.4098104324682068,-0.0818334533237154,-0.06359491240700728,-0.4610031197504179,0.008399328053757375,0.011159107271419371,-0.006959443244540683,-4.4776351637807,-7.19875310962857,10.035113098429841,0.2747674119138777,1.066473111227022,5.881603199619562,-0.28810942687075364,-0.6337353437587689,0.6768731432232787,-0.09571200000000002,-0.210569,-0.02757200000000004,0.11047099999999999,0.07741700000000001,0.072766,0.206183,0.287986,0.10033800000000004,0.5,0.4739920825557302,flight,0.072766
153,1.275,stair_decsent,-0.04884195367815312,-0.09432377295091664,0.12096483859354591,-0.25935029622861266,0.7777256056395646,0.5237177527539683,-0.1023640945637826,-0.05004200168006733,-0.42517700708028267,0.011160446417844663,0.013440537621505102,-0.006360254410172833,-0.9798641327059004,-3.3276251679720996,3.803189778255677,-2.4637754998280803,1.6264143438065608,4.299305492635974,0.33134745758878115,0.2737825933140227,0.07190553634559643,-0.09615799999999997,-0.2102,-0.03212300000000001,0.11097099999999993,0.078315,0.07170500000000002,0.2071289999999999,0.288515,0.10382800000000003,0.5,0.4690136028069126,flight,0.07170500000000002
154,1.283333,stair_decsent,-0.052562102484117704,-0.0999639985599407,0.14268570742829412,-0.27563304976712066,0.9013383998233645,0.5460826732774353,-0.045601824072967756,-0.006360254410176411,-0.4812192487699373,0.014160566422664158,0.006360254410172664,0.0,-0.4464357141443083,-0.676854147248766,2.6066085245107193,6.811744928694811,5.242019353160945,-6.725338016279093,0.3600288017304024,-0.8496679720787608,0.7632610596631132,-0.09609999999999985,-0.20942,-0.037321999999999966,0.11152700000000015,0.07920099999999997,0.07051600000000002,0.207627,0.28862099999999996,0.10783799999999999,0.5,0.4741277455792243,flight,0.07051600000000002
155,1.291667,stair_decsent,-0.0560355171586278,-0.1091912646988288,0.15514758819294613,-0.2922939352481463,0.9981062985445086,0.5648366963740802,0.031677465802741424,0.0185985121190307,-0.5560355171586411,0.01595872330212878,0.007799376049920624,0.0004799616030722434,-0.41677641882771305,-1.1071833619976323,1.4953060672728886,9.272772963248217,2.994812398513029,-8.977234027922387,0.21576156461059,0.17268078230717393,0.05759078510586183,-0.09536899999999982,-0.20835499999999998,-0.04324899999999998,0.11212700000000009,0.08017600000000003,0.06922700000000004,0.2074959999999999,0.28853100000000004,0.11247600000000002,0.5,0.4703848068579653,flight,0.06922700000000004
156,1.3,stair_decsent,-0.044281771270831057,-0.09648385935437238,0.1405256210248425,-0.23124192521867984,0.8887095670242525,0.48527488086897275,0.011640465618626191,0.04836193447737832,-0.5195007800311954,0.01704068162727517,-0.0019200768030740096,0.0032401296051840604,1.4105059267726552,1.5249496393203157,-1.7547062484223415,-2.4045362035419275,3.5717535531437776,4.3843438290465695,0.12984019262526952,-1.1663809975992396,0.33123340958979586,-0.09490299999999996,-0.207148,-0.04874900000000004,0.11263800000000002,0.08096400000000001,0.068083,0.20754099999999998,0.288112,0.11683200000000005,0.5,0.47091344501557814,flight,0.068083
157,1.308333,stair_decsent,-0.06888275531022198,-0.14436577463098438,0.20004800192007552,-0.3984393233037153,1.2930764238298165,0.7271678907733938,0.01800072002878601,0.059162366494660376,-0.5077403096123874,0.017640705628212957,-0.005160206408258207,0.006000240009599778,-2.9522361741739043,-5.746059675580515,7.1429714262850785,0.7632610596615717,1.2961036862213076,1.411312902773085,0.07200576034294866,-0.3888311058663419,0.3312264975897927,-0.09417900000000001,-0.205452,-0.054647,0.11335899999999999,0.08212399999999997,0.06646600000000003,0.207538,0.287576,0.12111300000000003,0.5,0.46777573785820625,flight,0.06646600000000003
158,1.316667,stair_decsent,-0.05639548836092715,-0.1654667626589883,0.2050635949124007,-0.4398312916082047,1.26561727496477,0.8100936062909018,0.08999280057595664,0.12395008399327949,-0.5529157667386502,0.0197984161267062,-0.0023998080153544922,0.003359731221505614,1.4983521657421084,-2.5319160100796445,0.601823013237958,8.638358596972651,7.773904187499235,-5.420621205455059,0.2589045474553908,0.3312213094436878,-0.31683570771468006,-0.09295900000000001,-0.20304,-0.06096399999999991,0.11399399999999993,0.08348300000000003,0.06478500000000009,0.20695299999999994,0.286523,0.125749,0.5,0.46629275739228454,flight,0.06478500000000009
159,1.325,stair_decsent,-0.09372374894994934,-0.26041041641665635,0.33349333973360284,-0.9038246992519131,2.01316091504104,1.2647710118908546,0.0746429857194175,0.1470058802352108,-0.5431417256690353,0.020040801632068856,0.006960278411136808,0.003120124804988687,-4.479570453500844,-11.393694198688218,15.412185865979037,-1.8420514648433066,2.766806221280634,1.1729318456276214,0.029087424140484573,1.123255301391022,-0.028753920138837073,-0.09155600000000019,-0.19964500000000002,-0.06826900000000002,0.11494199999999988,0.08571100000000001,0.062031999999999976,0.20649800000000007,0.285356,0.130301,0.5,0.4642611950545203,flight,0.062031999999999976
160,1.333333,stair_decsent,-0.14268570742830744,-0.3892955718228657,0.522980919236757,-1.5670670970081708,3.0301033893687555,2.006517974547008,0.09048361934478942,0.16308652346093547,-0.5337813512540417,0.02112084483378746,0.0178807152286034,0.006840273610941167,-5.875670044204638,-15.466837322237744,22.73941911714279,1.9009520731275216,1.9297543772620167,1.1232898613936682,0.12961036862097491,1.3105048382894995,0.44643571414285543,-0.08961299999999994,-0.19504200000000002,-0.077075,0.11630699999999994,0.08910399999999996,0.05773099999999998,0.20591999999999988,0.28414599999999995,0.13480599999999998,0.5,0.4524897845297142,flight,0.05773099999999998
161,1.341667,stair_decsent,-0.12946964242861442,-0.2897768178545772,0.3748500119990491,-1.3285585276605327,2.111732918667781,1.3383135939578874,0.09935205183586113,0.2008639308855332,-0.5076793856491559,0.018958483321346954,0.08507319414447188,0.017878569714431074,1.5858009358883218,11.941295172581043,-17.774286925571246,1.064126768787122,4.532926256851265,3.1319853137612497,-0.25946262448290686,8.062452473706475,1.3244895732529538,-0.08770599999999984,-0.190953,-0.08443,0.11754400000000009,0.09222799999999998,0.05475600000000003,0.20524999999999993,0.283181,0.13918600000000003,0.5,0.3517086603747863,flight,0.05475600000000003
162,1.35,stair_decsent,-0.13848553942155972,-0.5007800312012405,0.844953798151907,-2.3645363489264337,4.639238243615091,2.742279927837622,0.14784591383653886,0.21804872194887404,-0.5337813512540417,0.019080763230531317,0.012240489619583487,0.02424096963877606,-1.0819509171901052,-25.32139845753745,56.41471092677903,5.8194962199300235,2.0622574178975803,-3.1323611670329172,0.01467417606916603,-8.740274153952612,0.7635185316626516,-0.08532000000000006,-0.184963,-0.09591899999999998,0.11885699999999999,0.09650299999999998,0.04791699999999999,0.20417700000000005,0.281466,0.14383599999999996,0.5,0.4446844978375363,flight,0.04791699999999999
163,1.358333,stair_decsent,-0.1417256690267742,-0.4572182887315544,0.7638305532221303,-2.0656069283649856,4.422163610922395,2.285316125036915,0.11568462738509225,0.2641305652226115,-0.5042601704068256,0.020520820832824048,0.021840873634947456,0.02028081123244645,-0.38883110586997477,5.227618201090421,-9.735178798725233,-3.85950875452381,5.530042394544331,3.5426834090023256,0.17281382482812244,1.152092165530308,-0.47523801828028883,-0.083175,-0.178952,-0.10648599999999997,0.12020900000000001,0.100495,0.04172100000000001,0.203384,0.279447,0.14820699999999998,0.5,0.4396897108226333,flight,0.04172100000000001
164,1.366667,stair_decsent,-0.0883129349652105,-0.4247660187184978,0.7349412047036238,-1.5287228585470785,4.259474791463014,2.0262376013603456,0.1403887688985009,0.30849532037436733,-0.49016078713702593,0.02807775377970551,0.03803695704343764,0.026037916966645196,6.409015366158301,3.8939608846959888,-3.466444506660227,2.964259840821751,5.323344750630606,1.691790649124015,0.9067594128727385,1.9433745390556827,0.6907974243098994,-0.08126899999999981,-0.17284100000000002,-0.11669600000000002,0.12117900000000015,0.104352,0.035812999999999984,0.20244799999999996,0.277193,0.152509,0.5,0.4100440929244901,flight,0.035812999999999984
165,1.375,stair_decsent,-0.07116284651384244,-0.41545661826473684,0.7497899915996746,-1.5577326097803956,4.332821637621576,2.128435428840401,0.1566062642505582,0.279491179647189,-0.3422536901476049,0.02796111844472937,0.03132125285011564,0.044041761670467965,2.0580929378817014,1.1171727413609776,1.7819257045543002,1.9461772893384672,-3.4806361127059398,17.749561621195532,-0.013996800069139389,-0.8059167398682421,2.160547786370207,-0.07937100000000008,-0.16704999999999998,-0.12579600000000002,0.12200499999999992,0.10807500000000003,0.02993199999999996,0.201376,0.275125,0.15572799999999998,0.5,0.39858608198987233,flight,0.02993199999999996
166,1.383333,stair_decsent,-0.03660146405856264,-0.3187327493099743,0.6255850234009446,-1.1858518226546062,3.567562498860321,1.6451119719468896,0.08940357614304602,0.17376695067802847,-0.13164526581063538,0.028321132845329073,0.05340213608544069,0.055562222488899006,4.147531795905451,11.607328567714319,-14.905192391543405,-8.064645158707885,-12.687414972898296,25.27402188131183,0.04320345621021298,2.649811980718259,1.382510598635683,-0.07832100000000008,-0.16294599999999998,-0.13210600000000006,0.12254600000000004,0.111176,0.025181999999999927,0.20086700000000013,0.274122,0.15728799999999998,0.6072941849401392,0.3631603201630481,single,0.025181999999999927
167,1.391667,stair_decsent,-0.022078233741295965,-0.288816894648425,0.6376289896808123,-1.2095007933756698,3.584644083088695,1.4540252576816823,0.008879289656842928,0.16894648428125617,-0.1210703143748536,0.13102951763857243,0.034317254619631185,0.1277897768178515,1.7426482262138907,3.5896153901546737,1.4451603407568525,-9.662141407031735,-0.5784096948370853,1.2688926608809323,12.324020253568824,-2.290002575691068,8.666613190419001,-0.078063,-0.159131,-0.13842900000000002,0.12382199999999988,0.113869,0.02093299999999998,0.20188499999999987,0.273,0.159362,0.6532701285236879,0.189638940030317,single,0.02093299999999998
168,1.4,stair_decsent,-0.008280331213260217,-0.27973118924757245,0.6833073322932952,-1.077801755423516,3.8426521601012364,1.432530141345605,-0.017040681627275626,0.21804872194887984,-0.22560902436097563,0.05856234249370556,0.031561262450499894,0.09744389775591532,1.6558145359457428,1.090328261232768,5.481620378313135,-3.1105209749332525,5.892504220283706,-12.545147004214927,-8.696408873739053,-0.33073228958734147,-3.6416511534785148,-0.07813599999999998,-0.154983,-0.146003,0.12437900000000002,0.11646300000000001,0.016051000000000037,0.202515,0.271446,0.16205400000000003,0.5,0.3033547013325439,flight,0.016051000000000037
169,1.408333,stair_decsent,0.023280931237252382,-0.28741149645985437,0.6831873274930949,-0.5605563458774306,3.9778041954656427,1.5234813971768555,-0.02520100804032639,0.1735269410776404,-0.26569062762509293,0.05844233769349522,0.0078003120124781715,0.12060482419296964,3.787502994181213,-0.9216737324231102,-0.01440115207012543,-0.9792783406997024,-5.342827417645343,-4.809984791085636,-0.014401152071323687,-2.8514281096869443,2.7794223493404435,-0.07854000000000005,-0.151142,-0.15391,0.1246719999999999,0.118923,0.011363000000000012,0.20321199999999995,0.270065,0.165273,0.5,0.2762573693256415,flight,0.011363000000000012
170,1.416667,stair_decsent,0.049076073914073606,-0.27129829613631246,0.6001919846412342,-0.017468598444035213,3.548640565905249,1.432955520986818,-0.008399328053757598,0.1451883849292079,-0.2936165106791485,0.0662347012239163,0.013678905687545616,0.12251019918406024,3.0951695076579933,1.933429364475908,-9.958644450667409,2.0160403151630804,-3.4003547094352102,-3.3508378994547767,0.9350088229447117,0.7053748110232249,0.2286267087941728,-0.07901899999999995,-0.147671,-0.16135899999999992,0.12481500000000012,0.12129799999999999,0.007382,0.20383400000000007,0.268969,0.16874099999999992,0.5,0.266768492389903,flight,0.007382
171,1.425,stair_decsent,0.08748349933999627,-0.31993279731188706,0.5828633145325711,0.19566755277288753,3.491006804389649,1.6974233556026717,0.06936277451097532,0.20208808352333799,-0.29233169326772485,0.057482299291958215,-0.014280571222846292,0.16020640825633778,4.609075414127204,-5.836373596012691,-2.0795235939832977,9.331825580791017,6.82823696077392,0.15418425674110695,-1.050330245044753,-3.3552714401045742,4.523726037714734,-0.07917000000000018,-0.143321,-0.1686519999999999,0.12456499999999981,0.12384500000000001,0.0038600000000000856,0.203735,0.267166,0.172512,0.5,0.21532551390161125,flight,0.0038600000000000856
172,1.433333,stair_decsent,0.13788551542059943,-0.41329653186127857,0.6212648505940279,0.3956346557559681,3.8549496145621585,2.111281083438394,0.01692067682709349,0.049081963278531544,-0.15972638905557354,0.021480859234387722,-0.03612144485779413,0.187447497899912,6.048483869027195,-11.204096309779475,4.608368662121343,-6.293303454204046,-18.361468888132467,15.913273036379756,-4.320345620733328,-2.6210096765808277,3.2690615196897235,-0.08017799999999986,-0.139468,-0.17515999999999998,0.12359500000000012,0.12698800000000002,0.00024500000000005073,0.20377299999999998,0.266456,0.17540500000000003,0.7200800323490535,0.17983185597686085,single,0.00024500000000005073
173,1.441667,stair_decsent,0.1779457643388663,-0.48380129589632553,0.726421886249095,0.47824340329857673,4.481382982965544,2.468758961285287,0.004799616030695663,0.07031437485001102,-0.19954403647707672,0.00611951043916761,-0.08171346292297066,0.2146628269738453,4.806845322566183,-8.459894892614162,12.617834851819806,-1.4544109426923129,2.547685573731619,-4.777735471742606,-1.8432143982745375,-5.470604519459585,3.265578242612564,-0.08162100000000017,-0.13485,-0.18287699999999996,0.12216300000000002,0.13033899999999998,-0.0040199999999999125,0.2037840000000002,0.265189,0.17885700000000004,0.6472923380862665,0.11704849554457714,single,-0.0040199999999999125
174,1.45,stair_decsent,0.2161286451458008,-0.5157806312252533,0.6775471018840863,0.7762193842149078,4.349806610853542,2.408787644820103,0.023040921636888728,0.026641065642625944,-0.16476659066362295,-0.01260050402016353,-0.13488539541581288,0.2479299171966916,4.582128981991461,-3.8376737464212245,-5.865208732150383,2.1890442345125685,-5.241006745156064,4.173460436031932,-2.246491594783549,-6.3808871346265095,3.9922105151621987,-0.08322999999999992,-0.13033,-0.18989599999999995,0.12025700000000006,0.13351300000000002,-0.00759999999999994,0.20348699999999997,0.26384300000000005,0.182296,0.7191844226811748,0.02911995382404592,single,-0.00759999999999994
175,1.458333,stair_decsent,0.3050522020880835,-0.6307452298091826,0.7542301692067532,0.8839550531944022,4.968710978431934,3.090093271421148,0.021600864034542637,0.0534021360854426,-0.18252730109203982,-0.030001200048011413,-0.1816872674906983,0.27073082923315556,10.671253683221064,-13.796303682218559,9.202336172166758,-0.1728138248345213,3.211456911414399,-2.1313705062302364,-2.0881670500237104,-5.616449306958431,2.736218893131351,-0.08559200000000011,-0.12462899999999999,-0.19770199999999993,0.11746499999999993,0.13725500000000002,-0.011629,0.20305700000000004,0.261884,0.18607299999999993,0.680997208696159,0.0,single,-0.011629
176,1.466667,stair_decsent,0.3275737940964664,-0.6215502759779324,0.6477081833453464,0.9986064363386692,4.45102533458023,2.986831510567219,0.044876409887221455,0.007799376049916462,-0.14014878809696185,-0.03875689944805368,-0.2036237101031961,0.27069834413247884,2.7023748510179226,1.1033061952544163,-12.781615774107133,2.792842074955515,-5.471893452787017,5.085014758228795,-1.0505998800146912,-2.6321625404965467,-0.0038979002491860266,-0.08794799999999992,-0.11938399999999999,-0.204268,0.11441199999999996,0.140738,-0.014770999999999979,0.20235999999999987,0.260122,0.18949700000000003,0.7543918814894739,0.0,single,-0.014770999999999979
177,1.475,stair_decsent,-0.3420136805472182,0.8549141965678467,-0.5064202568102637,4.174394167626779,-4.010478332498567,-4.6917465654096855,0.042721708868356745,0.011640465618624526,-0.09108364334572673,0.021000840033605327,-0.232329293171722,0.303012120484814,-80.35371110568498,177.18282401845113,-138.50095285678506,-0.25857446524237043,0.4609491862124081,5.888052892263802,7.171215586422412,-3.4448077605334673,3.8778082746111378,-0.08474199999999987,-0.126411,-0.20080699999999996,0.11743700000000001,0.13167800000000002,-0.008025999999999978,0.2021789999999999,0.258089,0.19278099999999998,0.8312062819298314,0.0,single,-0.008025999999999978
178,1.483333,stair_decsent,-0.25417016680665566,0.6973478939157642,-0.5372614904596177,3.713481959401604,-3.6562920783456114,-3.898658578964731,0.07116284651384244,0.022920916836673282,-0.13224528981159936,-0.002640105604220172,-0.31801272050882157,0.34705388215529004,10.541643314600185,-18.908712666756742,-3.7010960817657823,3.4130730403799303,1.353708294497643,-4.939595159711149,-2.83702695761739,-10.282422577355138,5.285222809369546,-0.08203100000000019,-0.132031,-0.19743200000000005,0.11953299999999989,0.12321700000000002,-0.0006570000000000187,0.20156400000000008,0.25524800000000003,0.19677500000000003,0.7468074084486263,0.0,single,-0.0006570000000000187
179,1.491667,stair_decsent,0.0,0.0,0.0,0.0,0.0,0.0,0.05399568034557932,0.026637868970482155,-0.09323254139669088,0.12119030477561167,-0.22042236621070543,0.2847372210223111,30.497980178384175,-83.67505326562981,64.46622155742904,-2.0598951485796726,0.44599857617096766,4.681155317363593,14.858460568734209,11.709905723315982,-7.477401143865908,-0.08158100000000013,-0.131809,-0.19820900000000008,0.12054299999999984,0.12137999999999999,0.0017159999999999398,0.20212399999999997,0.253189,0.19992500000000002,0.8150269063518498,0.0,single,0.0017159999999999398
180,1.5,stair_decsent,0.0,0.0,0.0,0.0,0.0,0.0,0.08208328333134948,0.0003600144005763864,-0.06360254410175498,0.017760710428421738,-0.23052922116884958,0.32845313812552673,0.0,0.0,0.0,3.3706471841798176,-3.1534686871362063,3.5557419050685435,-12.412047803575048,-1.2128711098217015,5.2461198971818135,-0.080897,-0.131806,-0.198739,0.12069099999999988,0.11945899999999998,0.004452999999999929,0.20158799999999988,0.25126499999999996,0.20319199999999993,0.8269306607403416,0.0,single,0.004452999999999929
