frame_id,timestamp,gait_type,root_linear_velocity_x,root_linear_velocity_y,root_linear_velocity_z,root_angular_velocity_x,root_angular_velocity_y,root_angular_velocity_z,left_linear_velocity_x,left_linear_velocity_y,left_linear_velocity_z,right_linear_velocity_x,right_linear_velocity_y,right_linear_velocity_z,root_acceleration_x,root_acceleration_y,root_acceleration_z,left_acceleration_x,left_acceleration_y,left_acceleration_z,right_acceleration_x,right_acceleration_y,right_acceleration_z,left_pos_rel_x,left_pos_rel_y,left_pos_rel_z,right_pos_rel_x,right_pos_rel_y,right_pos_rel_z,step_length,step_width,step_height,left_contact_prob,right_contact_prob,support_type,max_foot_height
1,0.008333,stair_decsent,0.0012000480019279385,-0.0007200288011527661,-0.002760110404415606,0.07306583883273886,-0.026602164805428263,0.003667962315322002,0.0010800432017458032,-0.0018000720028785845,-0.0009600384015370216,0.00012000480020878171,-0.0007200288011527661,-0.0003600144005863755,0.0,0.0,0.0,0.0,0.0,0.0,0.0,0.0,0.0,-0.16148799999999985,-0.017628999999999978,0.006533999999999929,0.0919350000000001,0.052090000000000025,0.012625999999999915,0.25342299999999995,0.069719,0.006091999999999986,0.9961527692984251,0.937723479742552,double,0.012625999999999915
2,0.016667,stair_decsent,0.0019198464122889367,-0.0026397888168906273,-0.0021598272138317145,0.05871330067189679,-0.016080895864676748,0.0007115282090783623,0.0029997600191914724,-0.0027597792176653466,-0.0009599232061444684,0.002039836813047004,0.00035997120230084524,-0.00035997120230084524,0.08636889973134126,-0.23035277366664997,0.072028220612418,0.23034759028625737,-0.11515565332214567,1.3822341319082456e-05,0.23036141262757642,0.12958963324377384,5.183379593265451e-06,-0.16147899999999993,-0.017630000000000035,0.006543999999999994,0.09193600000000002,0.05211499999999997,0.012641000000000013,0.25341499999999995,0.069745,0.006097000000000019,0.9930205870063984,0.9355259972266492,double,0.012641000000000013
3,0.025,stair_decsent,0.003600144005757169,0.0014400576022988707,0.0019200768030740432,0.0517192530119027,0.0016716787017156717,0.0004058722747241881,0.0009600384015370216,-0.0015600624024943292,0.00012000480019545849,-0.0009600384015370216,-0.002160086403451637,0.0016800672026964494,0.20164377696726657,0.4896011543489137,0.48960806635134496,-0.244776385173941,0.14397177669158975,0.1295965446225761,-0.3599994257271122,-0.30241900945067585,0.24481440117572237,-0.1615009999999999,-0.017654999999999976,0.006529000000000007,0.09189800000000004,0.05208500000000005,0.012639000000000067,0.25339899999999993,0.06974000000000002,0.00611000000000006,0.996940465910482,0.9340665882740895,double,0.012639000000000067
4,0.033333,stair_decsent,0.0013200528021100738,-0.002160086403451637,-0.0019200768030740432,0.03437035879930544,-0.011641673585632506,0.0024099230796918217,0.0019200768030740432,-0.0007200288011527661,-0.0014400576023055323,-0.0006000240009639692,0.0006000240009573077,0.00012000480018213529,-0.27362188931322395,-0.4320345620725438,-0.46083686621241887,0.11520921655310472,0.10080806448356691,-0.18721497689919486,0.04320345620701456,0.33122649758897693,-0.18721497690079372,-0.16149599999999986,-0.01764300000000002,0.006533000000000011,0.09188200000000002,0.05210799999999999,0.012656,0.2533779999999999,0.06975100000000001,0.0061229999999999896,0.9958237103448454,0.9373416571805797,double,0.012656
5,0.041667,stair_decsent,-0.00011999040075806734,0.00011999040076472815,-0.0007199424046016905,0.027139217429310036,-0.021048701815074344,0.0010944017203176478,0.0007199424046016905,-0.0019198464122856065,0.00011999040077138896,-0.0015598752099880916,-0.0005999520038369624,0.0003599712023141669,-0.17279136103529408,0.27358732951960224,0.14400460744808644,-0.14400460744808644,-0.14396659600826014,0.187190785106422,-0.1151729312483948,-0.14398560172717423,0.028793664762662773,-0.161489,-0.01765999999999998,0.00653999999999999,0.0918699999999999,0.05210200000000004,0.012665000000000037,0.2533589999999999,0.06976200000000002,0.006125000000000047,0.9965768253002566,0.935900666576909,double,0.012665000000000037
6,0.05,stair_decsent,0.0003600144005730523,-0.0010800432017258185,-0.0020400816032695016,0.0424029520842037,-0.02640686370441624,0.014003760248037322,0.0009600384015370216,-0.0008400336013448938,-0.0006000240009639692,0.0030001200048198466,0.0001200048001887969,0.001080043201719157,0.05760288027494535,-0.14400979269057324,-0.1584230407617678,0.0288126721391253,0.1295827206217104,-0.08640518441561962,0.5472213146295377,0.08639827241398768,0.0864120964124553,-0.16148399999999996,-0.017658000000000007,0.006552000000000002,0.09189200000000008,0.05211199999999999,0.012691000000000008,0.25337600000000005,0.06977,0.0061390000000000056,0.9976504379926208,0.9332918929555692,double,0.012691000000000008
7,0.058333,stair_decsent,0.0013200528021100738,0.0002400096003842554,0.0003600144005863755,0.01762910819256571,0.004347869034016122,-0.0037987390891175005,0.0003600144005730523,-0.0007200288011527661,-0.0009600384015370216,-0.0027601104044289292,0.0001200048001887969,0.00108004320173248,0.11520921655310472,0.15841267276011925,0.28802304138436063,-0.07200576034609016,0.014401152069138086,-0.04320345620701456,-0.691255299321826,0.0,1.5988371506505308e-12,-0.16149199999999997,-0.017666000000000015,0.006540999999999908,0.091858,0.05211099999999996,0.012696999999999958,0.25334999999999996,0.06977699999999998,0.00615600000000005,0.9979118551724243,0.9334961194070303,double,0.012696999999999958
8,0.066667,stair_decsent,-0.0009599232061444684,-0.0016798656107528196,-0.0016798656107594805,0.0034343686567477054,-0.006011398329246358,0.0044596839086305665,-0.0005999520038436232,-0.0004799616030722342,-0.0004799616030722342,0.0019198464122889367,0.0009599232061444684,0.0005999520038436232,-0.2735752349717473,-0.23036659600876827,-0.2447660200798963,-0.11518675358971386,0.028805759308919116,0.057604607447178706,0.5615498940146226,0.10078214614298912,-0.057606335239843626,-0.161489,-0.017656000000000005,0.0065509999999999735,0.09188200000000002,0.052132999999999985,0.01271600000000006,0.253371,0.06978899999999999,0.006165000000000087,0.9984901539006286,0.9346354620388295,double,0.01271600000000006
9,0.075,stair_decsent,0.0004800192007818344,-0.0014400576023055336,-0.0012000480019146163,0.0014725325097643231,0.017698478199334133,-0.005142070072994699,0.0002400096003909172,0.0001200048001921278,-0.0007200288011461051,-0.0007200288011461051,0.0,0.0010800432017191578,0.17280000083118974,0.028778112138159874,0.05758041627803488,0.10079942448512434,0.07199884834565733,-0.028809216137510037,-0.3167976975201061,-0.11519539255303841,0.0576132482749952,-0.16149100000000005,-0.017642999999999992,0.0065549999999999775,0.09187199999999995,0.052145,0.01273499999999994,0.253363,0.06978799999999999,0.006179999999999963,0.9987193239254761,0.9360365826980477,double,0.01273499999999994
10,0.083333,stair_decsent,0.0015600624024743432,0.0016800672026897863,0.002040081603256177,-0.02039471917227099,0.01445601672599712,0.0024656187662193654,0.0,-0.00048001920076851036,-0.0014400576023055312,0.0028801152046110624,0.0003600144005797136,0.0002400096003909168,0.12961036861784567,0.37442995379759,0.38883110586472946,-0.028802304139075603,-0.07200576034569034,-0.08640691241562767,0.4320345620733427,0.043203456207813906,-0.10080806448196812,-0.16150399999999987,-0.01766100000000001,0.006526000000000032,0.09188300000000016,0.052134000000000014,0.012720000000000065,0.25338700000000003,0.06979500000000002,0.006194000000000033,0.9974700766749298,0.9332059413978445,double,0.012720000000000065
11,0.091667,stair_decsent,0.0002399808015427781,0.0020398368130536667,0.0011999040076872472,-0.011730695289296007,0.02022303188063726,0.0033319886385015634,0.0,0.0005999520038402933,0.0,0.001559875209988093,-0.00011999040077138905,0.0020398368130470058,-0.15839712034216055,0.04316889973168714,-0.10081324640855893,0.0,0.12958617765884384,0.1727930888295575,-0.15841612606467126,-0.057595968484653585,0.21596198855964605,-0.16150599999999993,-0.017672999999999994,0.006515999999999966,0.09189400000000014,0.052115999999999996,0.012726999999999933,0.25340000000000007,0.06978899999999999,0.0062109999999999665,0.9990000799935995,0.9336054857040236,double,0.012726999999999933
12,0.1,stair_decsent,-0.0012000480019279376,-0.0006000240009573072,-0.0020400816032695,-0.010470546137695892,0.006082104092047317,0.001182839059544768,-0.002040081603256177,-0.00024000960038425518,-0.0012000480019146143,-0.0013200528021367192,-0.00024000960038425518,0.0003600144005863752,-0.172810368831239,-0.3167959695200974,-0.388813825867844,-0.24481958517414798,-0.10079942448392508,-0.1440115206905812,-0.3456051856624036,-0.014402880068746673,-0.2015867529653941,-0.1615129999999998,-0.01767000000000002,0.0065230000000000565,0.091893,0.05211899999999997,0.012747000000000064,0.2534059999999998,0.06978899999999999,0.006224000000000007,0.9960349958795314,0.9354447400089987,double,0.012747000000000064
13,0.108333,stair_decsent,-0.0006000240009373234,-0.00324012960518412,-0.0033601344053795783,-0.005530057050406857,0.0016075751844390363,0.0030285405878975333,-0.0014400576023188567,0.0001200048001921278,-0.000840033601354887,0.000360014400599699,0.0001200048001954586,0.001560062402487669,0.07200576034928774,-0.31682534552103864,-0.15841267276011994,0.07200576034289219,0.04320345620741429,0.043203456205415526,0.2016161289735293,0.043203456207814,0.14401152068898293,-0.1615200000000001,-0.01764200000000002,0.006543999999999994,0.09190100000000001,0.052147,0.012788000000000022,0.2534210000000001,0.06978900000000002,0.006244000000000027,0.9972142109129694,0.9348840753309654,double,0.012788000000000022
14,0.116667,stair_decsent,0.00011999040075806724,-0.002639788816897286,-0.0023998080153478474,-0.001429004819881409,-0.0037629267072527618,0.005777799687602428,-0.0021598272138317128,-0.0017998560115175463,-0.000959923206131146,-0.00011999040078471047,0.0005999520038369618,-0.00035997120230084497,0.08639481661811735,0.07203513178387727,0.11522994840793496,-0.08636544414601097,-0.2303648682157034,-0.014385601725013065,-0.05759596848864999,0.05758905731239534,-0.2303856017264833,-0.1615390000000001,-0.017634999999999984,0.006556000000000006,0.09189899999999995,0.052174,0.012804999999999955,0.25343800000000005,0.06980899999999998,0.006248999999999949,0.9950486287484417,0.9363268786930867,double,0.012804999999999955
15,0.125,stair_decsent,-0.0019200768030740447,-0.0014400576023055336,-0.002280091203647097,0.0030739112459062575,0.005604684837566927,0.008477660042799826,-0.001800072002865263,0.0001200048001921278,-0.001080043201732481,0.0,-0.001320052802110075,0.0012000480019146163,-0.2448178571741406,0.14397350469119807,0.014366592067772747,0.043172352210062416,0.23039251310568531,-0.014414976071203048,0.014399424071128113,-0.23040979310536883,0.1872097928975714,-0.16153799999999996,-0.01762199999999997,0.006565999999999961,0.09191499999999997,0.05217500000000003,0.012833999999999901,0.25345299999999993,0.069797,0.00626799999999994,0.9964955767294995,0.9343466673172383,double,0.012833999999999901
16,0.133333,stair_decsent,0.00036001440057305197,0.0008400336013482239,-0.0003600144005863752,0.0008324153784887667,0.004708402774202112,0.007409656090806951,-0.0030001200047931973,-0.0003600144005763828,-0.00252010080403801,0.0014400576023188543,-0.00024000960038425518,-0.00012000480018213519,0.2736218893132239,0.27362188931402326,0.23041843310461063,-0.14401152069217968,-0.05760460827655228,-0.17281382482965654,0.17281382483125562,0.12961036862184314,-0.15841267275852036,-0.16156599999999988,-0.01763200000000001,0.006547999999999998,0.09192400000000012,0.05216599999999999,0.01283600000000007,0.25349,0.069798,0.006288000000000071,0.9934422991676672,0.9346785912204785,double,0.01283600000000007
17,0.141667,stair_decsent,-0.00299976001919148,-0.003839692824577883,-0.004199664026878729,0.012535078818544366,-0.0016440172727058323,0.007480192809670171,-0.003479721622277037,-0.0007199424046083531,-0.001319894408445317,-0.002399808015374499,-0.00011999040077138925,0.001319894408445317,-0.4031406791174154,-0.5615222493311877,-0.4607210974672861,-0.057547590290837634,-0.04318790545140043,0.1440132464114106,-0.4607470143620545,0.014401151861395034,0.17277408310864595,-0.16157,-0.017605999999999983,0.006572000000000022,0.09192899999999993,0.05219699999999999,0.01288200000000006,0.2534989999999999,0.06980299999999998,0.006310000000000038,0.9936822778181925,0.9323309016643265,double,0.01288200000000006
18,0.15,stair_decsent,-0.0010800432017191559,-0.001800072002878583,-0.0030001200047931973,0.00712852691268397,0.008923042603876552,-0.00039067922895067955,-0.003720148805965948,0.0006000240009606379,-0.0021600864034516352,0.0018000720028919063,-0.0009600384015303592,0.0009600384015370207,0.23037523310600297,0.24476428917548282,0.14395104069189135,-0.028852416139314864,0.1584023047604692,-0.10082707248365746,0.5040057624224651,-0.10080979248277562,-0.043184448206923784,-0.16159200000000018,-0.01758599999999999,0.0065790000000000015,0.09195299999999995,0.05220400000000003,0.01291500000000001,0.25354500000000013,0.06979000000000002,0.006336000000000008,0.9927609260086828,0.9328821908420101,double,0.01291500000000001
19,0.158333,stair_decsent,0.0021600864034383117,0.0037201488059526245,0.004080163206525676,0.006416493961949791,0.015451332517836865,0.014074310071097045,-0.0026401056042201455,0.00012000480019212759,-0.0021600864034649584,0.0008400336013282392,-0.00048001920076851036,-0.0006000240009639688,0.3888311058631303,0.6624529951795516,0.8496679720771472,0.12961036862424116,-0.057604608276552255,-1.5988371506505293e-12,-0.11520921655630222,0.05760460827575284,-0.18721497689919456,-0.161632,-0.017615999999999993,0.0065269999999999495,0.09194199999999997,0.05216900000000002,0.012875999999999999,0.25357399999999997,0.06978500000000001,0.006349000000000049,0.9943111873861601,0.9346125575062144,double,0.012875999999999999
20,0.166667,stair_decsent,-0.0020398368130470023,-0.004679625629950949,-0.0074394048476129635,0.014986512795074932,-0.00684278124787232,-0.008180417411635737,-0.0038396928245778704,0.001439884809213371,-0.0002399808015294561,-0.00011999040075806724,0.0005999520038369618,0.0002399808015427777,-0.5039504699406419,-1.0078923009243537,-1.3822375874896362,-0.1439389513268207,0.15837293124804921,0.2303942406930046,-0.11519366475717609,0.12958617765844385,0.1007925128997775,-0.1616470000000001,-0.017564999999999997,0.0065870000000000095,0.09195799999999998,0.05221300000000001,0.012940000000000063,0.2536050000000001,0.069778,0.006353000000000053,0.9931536506004983,0.935374642513591,double,0.012940000000000063
21,0.175,stair_decsent,0.0014400576022922126,0.002640105604226816,0.001920076803074048,0.0009535730622269549,0.0114436361367557,0.01752206558478039,-0.001320052802110077,-0.00036001440057305316,-0.0012000480019146184,0.000960038401537024,0.0001200048001954588,0.00036001440057305316,0.4176040340020669,0.8784028842167027,1.1231827253914597,0.30236889745203405,-0.21599654503617288,-0.1152126725531219,0.1296086406210361,-0.05759596827571154,0.01440460806795581,-0.16166999999999998,-0.017589999999999995,0.006561000000000039,0.09195400000000009,0.052192000000000016,0.012927000000000022,0.25362400000000007,0.06978200000000001,0.006365999999999983,0.9969667284915285,0.9346194661252363,double,0.012927000000000022
22,0.183333,stair_decsent,-0.0022800912036470937,-0.0037201488059526245,-0.00684027361094128,0.015809955667987968,-0.011880798988986904,-0.004015503510298116,-0.0022800912036470937,0.0007200288011494347,-0.0013200528021233959,0.0015600624025009894,0.00048001920076851036,0.0013200528021100728,-0.446435714141282,-0.7632610596639187,-1.0512841010458804,-0.11520921655310402,0.1296103686214433,-0.014401152071136125,0.07200576034608963,0.043203456207014435,0.11520921655310438,-0.16166999999999998,-0.017553000000000013,0.0066069999999999185,0.09198600000000012,0.05222700000000002,0.012994999999999979,0.2536560000000001,0.06978000000000004,0.00638800000000006,0.9954478952451069,0.9326212889146447,double,0.012994999999999979
23,0.191667,stair_decsent,-0.02135829133669442,-0.027357811375090683,-0.037077033837293424,0.012927417438019497,-0.09314390554898021,-0.05428394233322427,-0.0007199424046016899,-0.00035997120230417536,-0.0007199424046016899,0.0016798656107461574,0.00011999040076472805,0.0007199424046016899,-2.289200879895285,-2.8362926048881736,-3.628120977484055,0.18720287965507587,-0.12958963324377357,0.07200748710363634,0.014375234970622496,-0.0432000000004538,-0.0720074871020377,-0.16149799999999992,-0.01732800000000001,0.006909999999999972,0.0921780000000001,0.052456,0.013309999999999933,0.253676,0.06978400000000001,0.006399999999999961,0.998200143988494,0.9329473767053811,double,0.013309999999999933
24,0.2,stair_decsent,-0.033721348853951214,-0.051962078483141286,-0.07020280811233136,-0.032876365231927156,-0.18567426205218604,-0.1248886870904586,-0.0013200528021100728,0.0003600144005763828,-0.00048001920076851036,0.00036001440057305197,0.0014400576023055312,0.00048001920076851036,-1.4836262471206987,-2.9526301581723966,-3.975251923081472,-0.07201612834613973,0.08640172841480351,0.028791936137427022,-0.15838848076000292,0.1584144007609267,-0.028791936137427022,-0.16122799999999993,-0.01689199999999999,0.007491000000000025,0.09246200000000004,0.05290100000000003,0.013898999999999995,0.25368999999999997,0.06979300000000002,0.006407999999999969,0.9975832941370493,0.9333198959958389,double,0.013898999999999995
25,0.208333,stair_decsent,0.05004200168008074,0.06588263530541498,0.08784351374055775,-0.016606738439682762,0.2506669130879378,0.20347813660098948,0.0002400096003909176,-0.001560062402494333,-0.001320052802110077,-0.00048001920075518877,-0.00036001440057971477,0.001320052802110077,10.052004144249628,14.141931331880063,18.966317275037742,0.18721497689919528,-0.23041843310581073,-0.1008080644835676,-0.10080806448196841,-0.21601728103747156,0.1008080644835676,-0.16164299999999998,-0.017453999999999997,0.006747999999999976,0.09204100000000004,0.05234899999999998,0.013177999999999912,0.253684,0.06980299999999998,0.006429999999999936,0.9965705771831939,0.9332832941370558,double,0.013177999999999912
26,0.216667,stair_decsent,0.014038876889839525,0.010439164866811094,0.02591792656587398,0.008904235918803606,0.12856383065166185,0.033206234467428444,-0.0009599232061444676,0.0,-0.00011999040077138885,0.0017998560115042247,-0.0013198944084453126,0.0005999520038436226,-4.3200293724791425,-6.652684237893428,-7.430476022880215,-0.14398041835077802,0.18719251289828792,0.1439959684831638,0.27356314041989577,-0.11517638683292498,-0.08640518337730427,-0.1617679999999999,-0.017541,0.0065309999999999535,0.09193899999999999,0.05225099999999999,0.01296699999999995,0.2537069999999999,0.06979199999999999,0.006435999999999997,0.9983876774361431,0.9317880361002799,double,0.01296699999999995
27,0.225,stair_decsent,-0.015000600023992634,-0.013560542421700426,-0.030841233649353476,-0.003903041360277138,-0.1316334568138239,-0.02625126832344291,0.0007200288011461039,-0.0010800432017291483,-0.00024000960037759357,0.0002400096003909168,0.001800072002878583,0.00048001920076851036,-3.484876624724845,-2.880080077824493,-6.811371680694517,0.2016023049670671,-0.12961036862224257,-0.014402880067947273,-0.18718905689587265,0.37441094579669904,-0.01439251206949624,-0.16163700000000003,-0.01743699999999998,0.00678600000000007,0.09206599999999998,0.05237900000000001,0.013228000000000018,0.253703,0.06981599999999999,0.006441999999999948,0.9977999119964858,0.9324493796066858,double,0.013228000000000018
28,0.233333,stair_decsent,-0.04632185287411462,-0.061922476899071224,-0.0834033361334454,0.009736828909339124,-0.2083588175483331,-0.15354533774803167,0.00048001920075518715,-0.0003600144005763828,-0.0001200048001954584,0.0012000480019279376,-0.0007200288011527656,0.0016800672026964479,-3.7587006900422364,-5.803664283855845,-6.307704606275276,-0.028802304139075554,0.08640691241482838,0.014401152067938927,0.11520921655310452,-0.3024241934514996,0.14401152069218007,-0.16124700000000014,-0.016924000000000022,0.007480000000000042,0.09246200000000004,0.052888999999999964,0.013937000000000088,0.2537090000000002,0.06981299999999999,0.006457000000000046,0.9989801553035089,0.9317856807955553,double,0.013937000000000088
29,0.241667,stair_decsent,-0.02795776337894772,-0.013918886489081505,-0.032277417806571194,-0.011644117667839996,-0.06975424478597107,-0.08727963365893437,0.0008399328053864031,0.0,-0.00035997120230084616,-0.0007199424046283355,0.0008399328053797423,0.00191984641227562,2.203514458263372,5.759970051594653,6.134619429670546,0.0431861776615331,0.04319827220738945,-0.02879366475946584,-0.23038041835328504,0.18718041835043336,0.028771203453224453,-0.1610069999999999,-0.016808000000000017,0.007746000000000031,0.09268900000000002,0.053012000000000004,0.014221999999999957,0.2536959999999999,0.06982000000000002,0.006475999999999926,0.9984769672214349,0.9315470583728096,double,0.014221999999999957
30,0.25,stair_decsent,-0.031801272050877176,0.016560662426493622,0.004200168006721135,0.07173971268331512,0.2726656147110346,-0.21486074652346948,0.0012000480019279376,-0.00012000480019212759,-0.00048001920076851036,0.0001200048002087816,-0.00024000960038425518,0.0012000480019279376,-0.4612394902111427,3.657692177556114,4.377485397010957,0.043215552207072384,-0.014401152069138064,-0.014406336069562474,0.10079769648831349,-0.1295982726225845,-0.08637926441229829,-0.16073199999999987,-0.01694699999999999,0.007707000000000019,0.09295500000000012,0.05287200000000003,0.014197000000000015,0.253687,0.06981900000000002,0.006489999999999996,0.9978365826980171,0.9330505278679073,double,0.014197000000000015
31,0.258333,stair_decsent,-0.028321132845302237,0.003360134405379584,-0.010440417616711805,-0.0175592111103924,0.13169801168497208,-0.1436967652421066,0.00024000960036427117,0.000720028801152768,-0.000480019200768512,0.0,0.002160086403451642,0.0001200048001954588,0.41763341000539395,-1.5841267276027926,-1.7569405524340544,-0.11520921655630252,0.10080806448396708,-1.951641976152959e-16,-0.014401152071136673,0.28802304138196366,-0.12961036862264266,-0.16049400000000014,-0.016969000000000012,0.007790000000000075,0.09319100000000002,0.052861999999999965,0.014285000000000103,0.25368500000000016,0.06983099999999998,0.0064950000000000285,0.9985032771763849,0.9314443044967228,double,0.014285000000000103
32,0.266667,stair_decsent,-0.015598752099827615,0.0008399328053730787,-0.014158867290610914,-0.05734727120797815,-0.03647292742854173,0.012385153472535137,0.001079913606929178,0.0002399808015361169,-0.0002399808015427777,0.0002399808015427777,0.0015598752099880903,0.00035997120230084497,1.5265635643718034,-0.30240000000078027,-0.4461782666065641,0.10078041835432038,-0.05760115186184913,0.028802303722790263,0.028795392553728996,-0.07201958164909422,0.028793664759465553,-0.16035500000000003,-0.01697399999999999,0.007905999999999969,0.09332300000000004,0.052868000000000026,0.01440600000000003,0.25367800000000007,0.06984200000000002,0.006500000000000061,0.9981133547051815,0.9323020683218788,double,0.01440600000000003
33,0.275,stair_decsent,-0.00588023520940424,0.0019200768030740352,-0.00972038881555231,-0.09619180895827907,-0.061968071125423733,0.08558842389993328,0.00012000480018213478,0.0015600624024976536,-0.0007200288011461016,0.001560062402474338,0.0004800192007685088,0.0003600144005730508,1.166268677597904,0.12962246462269916,0.5326387225559326,-0.11519366455622695,0.15841612876053415,-0.057608064274969624,0.15841612875693684,-0.12958790462253417,5.184000024698052e-06,-0.16030500000000014,-0.016976999999999992,0.007981000000000016,0.09338499999999983,0.052856000000000014,0.014490000000000003,0.25368999999999997,0.069833,0.006508999999999987,0.9971293451549277,0.9321242109130345,double,0.014490000000000003
34,0.283333,stair_decsent,-0.007680307212296192,-0.002640105604226816,-0.013320532821309553,-0.03614376011918038,-0.04752086942706926,0.07914872928309294,0.001080043201745806,0.0002400096003809252,0.00024000960037759439,0.00036001440057305316,0.0016800672026831304,0.0006000240009639708,-0.2160172810382763,-0.5472437786272486,-0.43203456207335317,0.11520921655630308,-0.15841267276091825,0.11520921655150586,-0.1440115206889821,0.1440115206905826,0.028802304139076033,-0.16023199999999993,-0.016952999999999996,0.008093999999999935,0.09345199999999987,0.052891999999999995,0.014606000000000008,0.2536839999999998,0.06984499999999999,0.006512000000000073,0.9981131282986958,0.9318467284915248,double,0.014606000000000008
35,0.291667,stair_decsent,-0.00227981761458978,-0.0005999520038369618,-0.01007919366451691,-0.0764862186787021,-0.06933620257023712,0.10888033122243843,0.0009599232061178244,0.0007199424046083507,-0.0004799616030722338,-0.00011999040075806724,0.002039836813060324,0.00011999040075806724,0.648006911171875,0.24479884813893113,0.38892958444836084,-0.014413246415644522,0.057587329520929334,-0.08638963324331983,-0.05759596848225581,0.04316889973328454,-0.0575994240707827,-0.16020500000000015,-0.016942000000000013,0.008174000000000015,0.09346999999999994,0.05291400000000002,0.01469100000000001,0.2536750000000001,0.06985600000000003,0.006516999999999995,0.9978461063886659,0.9314185284958669,double,0.01469100000000001
36,0.3,stair_decsent,0.001800072002865266,-0.014280571222846577,-0.018360734429372267,-0.15574627339896469,-0.14308728641214252,0.13115683305860046,0.0013200528021367235,0.00120004800192128,-0.00024000960037759439,0.000960038401537024,0.001560062402494333,0.0007200288011594295,0.48960633834814066,-1.6417399758801932,-0.993824644768436,0.04321728021347654,0.05761497627660272,0.028795392139042364,0.1296086406210361,-0.057575232277210155,0.07200748834769756,-0.16020899999999982,-0.016813000000000022,0.008325000000000027,0.09346300000000007,0.05304599999999998,0.01485000000000003,0.2536719999999999,0.069859,0.006525000000000003,0.9969998799951698,0.9314696248916213,double,0.01485000000000003
37,0.308333,stair_decsent,0.0010800432017457988,-0.011160446417857836,-0.01572062882515201,-0.17489390664146798,-0.10891158302774656,0.11679932639251675,0.0013200528021100684,0.0004800192007685088,-0.0007200288011594248,0.001440057602292203,0.0021600864034582896,-0.000240009600390916,-0.08640691241083213,0.3744299537967992,0.3168253455202504,-3.1987411989146785e-12,-0.08640691241482878,-0.05760460827815053,0.05760460827495225,0.07200576034608833,-0.11520921655470318,-0.160207,-0.01671600000000001,0.008449999999999958,0.09346599999999983,0.05315700000000001,0.014978999999999965,0.2536729999999998,0.06987300000000002,0.006529000000000007,0.9973693054846231,0.9303647139920864,double,0.014978999999999965
38,0.316667,stair_decsent,-0.0008399328053864059,-0.006359491240703809,-0.013318934485237924,-0.16099063759072194,-0.10448894025929738,0.10779932232925996,0.00011999040075806804,0.0015598752099814399,-0.00011999040075806804,-0.00023998080151613608,0.0007199424046016947,0.0010799136069158635,-0.23037869056062105,0.5760685357756244,0.28818026636838245,-0.1439959684847621,0.1295723553171271,0.07199884814031199,-0.20158848137849159,-0.17280345558634547,0.15837811462764423,-0.16019899999999998,-0.016649999999999998,0.008560000000000012,0.09347100000000008,0.053215999999999986,0.015098999999999974,0.25367000000000006,0.06986599999999998,0.0065389999999999615,0.9973848698442935,0.9324101759859269,double,0.015098999999999974
39,0.325,stair_decsent,-0.002160086403464951,-0.002760110404415595,-0.009600384015356853,-0.12878280790927374,-0.06586624450985462,0.10244914144782315,0.000480019200781832,0.0007200288011527632,-0.0009600384015370176,-0.0008400336013548828,0.002640105604226798,-0.0009600384015370176,-0.15842476876017517,0.4319429780737069,0.4462439061419723,0.043205184210219905,-0.10078560048346011,-0.10080979248517292,-0.07200921634930327,0.23042880110705574,-0.24480403317567173,-0.1601769999999998,-0.016620999999999997,0.008631999999999973,0.09348200000000007,0.053261,0.015170999999999935,0.25365899999999986,0.069882,0.0065389999999999615,0.9978458479110522,0.9297230878343559,double,0.015170999999999935
40,0.333333,stair_decsent,0.08664346573864314,0.04308172326893065,0.10308412336492803,0.012136880387174795,0.45918802645673,0.15775233569007086,0.003360134405366261,0.001320052802113408,-0.0001200048001954588,-0.0002400096003909176,0.001920076803074048,-0.002280091203647101,10.656852531154243,5.5012400904051795,13.522681792905937,0.34562764965611853,0.07200576034569138,0.10080806448356665,0.07200576034608985,-0.08640691241482683,-0.15841267276012083,-0.160871,-0.016968999999999984,0.007772000000000001,0.0927579999999999,0.05291800000000002,0.014293,0.2536289999999999,0.069887,0.006520999999999999,0.993979792414394,0.9298058263153002,double,0.014293
41,0.341667,stair_decsent,0.0017998560115042247,-0.0005999520038369618,-0.0013198944084453126,0.01633264893231731,-0.008281137828958895,-0.01081843401321083,0.0023998080153478474,-0.00011999040076805845,0.0,0.0016798656107728006,0.0010799136069091957,0.00011999040077138885,-10.180418733757959,-5.241381722194332,-12.527479934410035,-0.11522994840633699,-0.17279136103689285,0.01439942406952948,0.230366596011965,-0.10081151861829271,0.2879867535899313,-0.16086599999999995,-0.016965000000000008,0.007782999999999984,0.0927570000000002,0.05293199999999998,0.014305000000000012,0.25362300000000015,0.06989699999999999,0.006522000000000028,0.9959953234952383,0.9314456003518363,double,0.014305000000000012
42,0.35,stair_decsent,0.003600144005783825,-0.002760110404415613,-0.002160086403451642,0.0549750113265382,-0.009002628060480092,-0.038177668441897065,0.002760110404428936,0.0008400336013415652,0.0008400336013415652,0.000840033601328242,0.00240009600384256,-0.0002400096003909176,0.21604320104159422,-0.25922937724452855,-0.10082707248365914,0.043238016210379177,0.11520748855269723,0.10080806448356741,-0.10078387248824681,0.15842822476099455,-0.043201728208605225,-0.16087300000000004,-0.016935000000000033,0.007807999999999926,0.09273399999999987,0.052974999999999994,0.014320999999999917,0.2536069999999999,0.06991000000000003,0.006512999999999991,0.9949918060620058,0.930613070392061,double,0.014320999999999917
43,0.358333,stair_decsent,0.006840273610941258,-0.002400096003842544,0.0018000720028785772,0.09066488392346618,-0.014717906718457541,-0.03493719370692282,0.002280091203647086,-0.0006000240009573052,-0.0012000480019146104,-0.0019200768030740352,-0.0015600624025009842,-0.0006000240009506435,0.38883110586312486,0.0432034562070164,0.47523801828035556,-0.05760460827815292,-0.17281382482885688,-0.244819585174147,-0.33122649758817535,-0.47523801828195456,-0.043203456205415144,-0.16091100000000003,-0.01691999999999999,0.007782999999999984,0.09266099999999988,0.052981999999999974,0.014301000000000008,0.2535719999999999,0.06990199999999996,0.006518000000000024,0.9955907420926806,0.9305771896004609,double,0.014301000000000008
44,0.366667,stair_decsent,0.010439164866804433,0.0038396928245712095,0.008999280057587732,0.09885185133195276,0.005844131733569745,-0.05425223302245226,0.002879769618433403,-0.0007199424046083507,0.0004799616030722338,0.0002399808015427777,0.0008399328053797395,-0.001679865610759479,0.4318324041112517,0.7487147622286714,0.8638358596963219,0.07195565332209221,-0.014389057313540366,0.2015850257963574,0.2591861776598045,0.2879763868347398,-0.129570627526858,-0.16097399999999995,-0.016957999999999973,0.007712000000000052,0.09257599999999999,0.05295700000000003,0.014212000000000002,0.25354999999999994,0.069915,0.00649999999999995,0.994988415292315,0.9318443056879167,double,0.014212000000000002
45,0.375,stair_decsent,0.011400456018235505,0.010320412816516345,0.016200648025920625,0.12247243375084808,0.017879253185501844,-0.053583496287533415,0.002400096003829237,-0.000960038401537024,0.000480019200768512,0.002280091203647101,0.005400216008642429,-0.006360254410172792,0.11535955255383108,0.7777175077337276,0.8641987241489153,-0.05756313627795119,-0.028812672138326393,6.912000033383996e-06,0.24482304117416637,0.5472558746265092,-0.5616691226945066,-0.161049,-0.01705200000000001,0.00758100000000006,0.09250000000000003,0.05291600000000002,0.014024000000000036,0.253549,0.06996800000000003,0.0064429999999999765,0.995618044261745,0.9211541536843164,double,0.014024000000000036
46,0.383333,stair_decsent,0.01668066722670246,0.01584063362534091,0.02316092643705739,0.1206533756681445,0.029388404467713552,-0.0418113562116008,0.0031201248050019893,-0.000360014400576384,0.00024000960037759439,-0.0010800432017191595,0.0019200768030673862,0.0,0.6336506910436778,0.6624529951787567,0.8352668200092142,0.0864069124172272,0.07200576034569081,-0.028802304139075748,-0.40323225793426964,-0.4176334100054064,0.7632610596631234,-0.16116200000000003,-0.01718699999999998,0.007390000000000008,0.09235199999999999,0.052800000000000014,0.013831000000000038,0.253514,0.069987,0.00644100000000003,0.994750028101746,0.931918341183524,double,0.013831000000000038
47,0.391667,stair_decsent,0.014038876889839525,0.013918886489081458,0.0207583393328508,0.11396596303347648,0.022961273986579486,-0.0396106049399617,0.0014398848092033799,-0.0002399808015361169,0.0007199424046150115,0.003359731221492315,0.004439644828414832,-0.002639788816890625,-0.31698948126505044,-0.2305912090544098,-0.2882873895136293,-0.20161267048219436,0.01440287965445968,0.05758732952212823,0.5327303123603876,0.3023239771235233,-0.3167493180814282,-0.16126700000000005,-0.017304999999999987,0.0072230000000000905,0.09226299999999998,0.05272100000000002,0.013636000000000092,0.25353000000000003,0.070026,0.006413000000000002,0.99728728502396,0.9256004759007643,double,0.013636000000000092
48,0.4,stair_decsent,0.006600264010550342,0.00804032161286919,0.006720268810759123,0.2295377506269867,-0.09795825122843047,0.0034593458480552796,0.003960158406330205,0.0004800192007685088,-0.0006000240009639668,-0.004680187207476307,-0.0001200048001887964,0.002400096003829221,-0.8926692522847898,-0.7054560033856045,-1.6846358480849175,0.3024449294523958,0.08640345641481131,-0.1584023047616672,-0.9648288046284157,-0.5471798426261382,0.604810370901215,-0.16128900000000002,-0.017368000000000022,0.007162000000000002,0.09216900000000017,0.052653000000000005,0.013599999999999945,0.2534580000000002,0.07002100000000003,0.006437999999999944,0.9932766365398817,0.9268515251743206,double,0.013599999999999945
49,0.408333,stair_decsent,0.002880115204611072,0.005040201608062714,0.002040081603269507,0.23467583402366463,-0.12530114733402564,0.019445385014106163,0.003840153606148096,-0.000960038401537024,0.0001200048001954588,-0.003600144005757178,0.003000120004799869,-0.0006000240009506475,-0.44643571414127914,-0.3600288017288472,-0.5616449306959832,-0.014401152067935819,-0.17281382482965754,0.08640691241562791,0.12961036862104058,0.3744299537967926,-0.36002880172565416,-0.161281,-0.017418000000000017,0.007145999999999986,0.09211500000000017,0.052636000000000016,0.013577999999999979,0.2533960000000002,0.07005400000000003,0.006431999999999993,0.9933997359894328,0.9278056771530806,double,0.013577999999999979
50,0.416667,stair_decsent,0.0,0.004919606431487066,0.0010799136069025348,0.21123200195682232,-0.09447759228576814,-0.002593529755626136,0.0023998080153744905,0.0009599232061444676,-0.0008399328053730787,0.005879529637624873,0.0044396448284081715,-0.0032397408207342476,-0.3455861776591156,-0.01447026356799236,-0.11521094268862145,-0.17282764468125797,0.23037696276475758,-0.11518329800438404,1.1374698396186753,0.1727291605001561,-0.3167406791197021,-0.16126099999999988,-0.017451000000000022,0.007130000000000081,0.09216400000000013,0.05263199999999996,0.013542000000000054,0.253425,0.07008299999999998,0.006411999999999973,0.995470461701879,0.9224661560373403,double,0.013542000000000054
51,0.425,stair_decsent,0.001080043201745806,0.001800072002878589,0.0006000240009639708,0.1792475269280146,-0.08936651977526557,0.019407171993272458,0.017040681627248866,-0.001800072002878589,-0.009360374414979321,-0.003600144005757178,-0.001800072002878589,0.001800072002878589,0.129610368624242,-0.37435910579725,-0.05758905627487882,1.7569751124294266,-0.3312126735897112,-1.022493892908468,-1.1376063414595072,-0.7487959715932769,0.6048017309027781,-0.16112800000000016,-0.017480999999999997,0.0070470000000000255,0.09212500000000001,0.05260199999999998,0.013552000000000008,0.2532530000000002,0.07008299999999998,0.006504999999999983,0.9674576473087504,0.9276012368211297,double,0.013552000000000008
52,0.433333,stair_decsent,-0.002520100804038002,-0.000120004800195458,-0.0013200528021100684,0.1520195226409966,-0.07233019801780834,0.0067956772976317656,0.00528021120846692,0.0015600624024943227,-0.0034801392055750194,0.0013200528021100684,0.003000120004799849,-0.0016800672026964422,-0.43203456207653823,-0.23041843310620894,-0.230418433106208,-1.4113129027699383,0.4032322579350651,0.7056564513865687,0.5904472348334605,0.5760460827647207,-0.4176334100054022,-0.16106299999999996,-0.017466999999999983,0.007028999999999952,0.09215700000000004,0.05262800000000001,0.013548999999999922,0.25322,0.07009499999999999,0.00651999999999997,0.9891441523699749,0.9286613507527366,double,0.013548999999999922
53,0.441667,stair_decsent,-0.0002399808015427793,-0.0023998080153545243,-0.0023998080153611848,0.05962463402732872,-0.03534058765534061,-0.004615078922997177,0.007439404847613013,-0.0005999520038402962,-0.000959923206144474,-0.005759539236866844,-0.0027597792176620325,0.001919846412288948,0.2735925128983964,-0.2735545014589728,-0.12956026076927316,0.2590825100967249,-0.25918099428061325,0.3024017277934437,-0.8494830860303519,-0.6911326160861427,0.43195507739205796,-0.1609989999999999,-0.017452000000000023,0.007040999999999964,0.09211100000000005,0.05262499999999998,0.013584999999999958,0.25310999999999995,0.070077,0.006543999999999994,0.9874582763616693,0.9234451346039507,double,0.013584999999999958
54,0.45,stair_decsent,-0.0030001200047931873,-0.0033601344053795614,-0.007200288011514309,-0.010179153323562225,-0.009402064113809361,-0.021759838805999264,0.0073202928116964435,0.0021600864034582896,-0.0034801392055616963,-0.0008400336013548828,-0.0008400336013415596,-0.0002400096003775928,-0.3312299535881911,-0.11524377655406613,-0.576080642764083,-0.014294016070631094,0.3312178575901325,-0.30243801745076343,0.5903642908330662,0.23037868910602005,-0.25919308924355355,-0.16091300000000008,-0.017405999999999977,0.007071999999999967,0.0921289999999999,0.052646000000000026,0.01364299999999996,0.253042,0.070052,0.0065709999999999935,0.9860194550843893,0.9322700182130487,double,0.01364299999999996
55,0.458333,stair_decsent,-0.001440057602318859,-0.00120004800192128,-0.0021600864034649653,0.03595943197955681,-0.017571799462966865,0.01027084907517194,0.007440297611905274,-0.000360014400576384,-0.000480019200768512,0.002280091203647101,0.003240129605184125,-0.002880115204611072,0.1872149768959957,0.2592207372444842,0.6048483869013987,0.014401152071142549,-0.3024241934518997,0.3600288017272521,0.3744299537983909,0.4896391703498974,-0.31682534552183916,-0.16083899999999995,-0.01739899999999997,0.007086000000000037,0.09216000000000002,0.052683000000000035,0.01363700000000001,0.252999,0.070082,0.0065509999999999735,0.9875592451377369,0.926326340800847,double,0.01363700000000001
56,0.466667,stair_decsent,-0.0016798656107461574,-0.0013198944084453126,-0.004199664026878715,0.01669618992013888,-0.024094466161613325,0.023152755671493472,0.007079433645312118,0.0021598272138217216,-0.0017998560115175463,0.0013198944084453126,0.0009599232061444676,-0.00011999040077138885,-0.02877465903855269,-0.014380418349415945,-0.24472973643073528,-0.0433002119742207,0.30235680518335767,-0.15836774787005437,-0.11521439827235272,-0.2736028796543863,0.3311884813822511,-0.16076599999999996,-0.017369999999999997,0.007106000000000057,0.09218499999999996,0.05270200000000003,0.013670999999999989,0.2529509999999999,0.07007200000000002,0.006564999999999932,0.9873045594367573,0.9316225818540566,double,0.013670999999999989
57,0.475,stair_decsent,0.0006000240009639708,-0.002640105604220154,-0.004800192007671796,-0.0673347577794851,0.023791747220713724,-0.006339537024928067,0.005640225609013362,0.002880115204607741,0.0020400816032561833,-0.005280211208440308,-0.003720148805952637,0.0026401056042334773,0.27359769731310857,-0.1584316807602118,-0.07206624034478373,-0.17271187283076445,0.08643801641497911,0.4608109462106971,-0.7920443558005085,-0.5616311066959219,0.3312247695913684,-0.1607240000000001,-0.017324000000000034,0.007162999999999919,0.092136,0.05269299999999999,0.013732999999999995,0.2528600000000001,0.07001700000000002,0.006570000000000076,0.9889108234124531,0.922670261402374,double,0.013732999999999995
58,0.483333,stair_decsent,-0.000240009600390916,-0.0009600384015370176,-0.004200168006721121,-0.058197285574912154,0.016057535706212843,0.004840942717731155,0.00528021120846692,0.002400096003842544,0.004440177607112037,0.0033601344053662383,0.002400096003835882,-0.002880115204611053,-0.1008080644851654,0.20161612896713424,0.07200576034449455,-0.04320345620382102,-0.057604608276154434,0.2880230413843566,1.0368829489747402,0.7344587555248403,-0.6624529951811482,-0.16067799999999988,-0.017296000000000006,0.0072349999999999914,0.09216599999999997,0.05272099999999996,0.013743999999999978,0.25284399999999985,0.07001699999999997,0.006508999999999987,0.9878257707959737,0.926519193582394,double,0.013743999999999978
59,0.491667,stair_decsent,0.0007199424046283331,-0.005639548836095417,-0.007199424046083507,-0.10349685765675984,0.017223472540093168,0.008152106151766288,0.004919606431480405,0.0038396928245712095,0.004319654427636783,-0.0032397408207342476,-0.0034797216222703644,0.0019198464122889352,0.11518502580024577,-0.5614963324404121,-0.3598819341687525,-0.04326911170944496,0.17273779946348264,-0.014461624607061912,-0.7919216733981856,-0.705521673398877,0.5759493180825513,-0.1606430000000001,-0.01721700000000001,0.007330999999999976,0.0921329999999998,0.05273899999999998,0.013820000000000054,0.2527759999999999,0.06995599999999999,0.006489000000000078,0.9873503202936982,0.9265643394051569,double,0.013820000000000054
60,0.5,stair_decsent,-0.000960038401537024,-0.003960158406336893,-0.009240369614783863,-0.10422229753497936,0.01788349493705894,0.003999241816481174,0.004560182407294202,0.0027601104044189437,0.003240129605184125,0.003960158406356878,0.003720148805952637,-0.002880115204611072,-0.20160576097028216,0.20153491296754208,-0.24492326517465027,-0.043132608206672744,-0.12955507262117708,-0.1295481606207441,0.8640224681496632,0.8640190121472482,-0.5760184347653928,-0.1605970000000001,-0.017160999999999982,0.007434999999999969,0.09217399999999998,0.05280299999999999,0.013873000000000024,0.2527710000000001,0.06996399999999997,0.006438000000000055,0.989603431002547,0.9253706876472254,double,0.013873000000000024
61,0.508333,stair_decsent,-0.0010800432017457988,-0.0036001440057571543,-0.007920316812673734,-0.09526207576250373,0.022947449861102184,0.0071052671478798015,0.006240249609977291,0.0020400816032628316,0.0019200768030740352,-0.000480019200781832,0.0015600624025009842,0.0,-0.014401152071135766,0.04320345620781678,0.1584126727601252,0.20161612896712847,-0.0864069124152297,-0.15841267276012053,-0.5328426265617054,-0.259220737243687,0.3456276496593136,-0.160536,-0.017114000000000018,0.007516999999999996,0.09217900000000001,0.052846000000000004,0.013939000000000035,0.252715,0.06996000000000002,0.006422000000000039,0.9885995439817699,0.9330595970821213,double,0.013939000000000035
62,0.516667,stair_decsent,-0.000959923206144474,-0.005039596832258488,-0.007319414446841623,-0.11719703288861015,0.024458024423999875,0.004401641367697345,0.006359491240710471,0.0007199424046083555,0.0025197984161325748,-0.005279577633781285,-0.003479721622270388,0.0032397408207342692,0.014413246412446064,-0.17272052153843798,0.0721025156985978,0.014307851059896896,-0.15840403151601676,0.07196083670008915,-0.5759009398847469,-0.6047257049161747,0.3887377994641574,-0.16047499999999992,-0.01706599999999997,0.007599000000000022,0.09214300000000009,0.052859000000000045,0.014027000000000012,0.252618,0.06992500000000001,0.006427999999999989,0.9885361885865211,0.9238786502335212,double,0.014027000000000012
63,0.525,stair_decsent,-0.002880115204611053,-0.002760110404415595,-0.009120364814588344,-0.08685393387817707,0.024445352333093348,-0.0040606514839621145,0.005640225609013324,0.0026401056042234675,0.0010800432017324755,0.0003600144005730508,-0.0003600144005797124,-0.0006000240009639668,-0.23043225710627274,0.2735493133136786,-0.216122689037167,-0.08631532841679396,0.23042880110585673,-0.17277753682948438,0.6767781152471274,0.37437984179655137,-0.4607902102121949,-0.160404,-0.01702099999999998,0.007684000000000024,0.09217000000000009,0.05287900000000001,0.014097999999999944,0.2525740000000001,0.06989999999999999,0.00641399999999992,0.9894658233671394,0.9345484598335282,double,0.014097999999999944
64,0.533333,stair_decsent,-0.0014400576022922224,-0.0028801152046044293,-0.004080163206525717,-0.09393298159588544,0.05198949498810423,-0.006655725739753613,0.004680187207503015,0.0026401056042235026,0.0032401296051841467,0.00312012480500201,0.0043201728069166365,-0.0032401296051841467,0.1728138248312545,-0.01440115206874301,0.6048483869029968,-0.11520921654990006,4.2155466684904194e-15,0.25922073724369266,0.3312264975913818,0.5616449306967949,-0.3168253455202453,-0.16035299999999997,-0.016975000000000018,0.007745000000000002,0.09220800000000007,0.052939000000000014,0.014104999999999923,0.25256100000000004,0.06991400000000003,0.006359999999999921,0.9895420485120017,0.9260053550460404,double,0.014104999999999923
65,0.541667,stair_decsent,-0.0008399328053863948,-0.004199664026878687,-0.006839452843782617,-0.08679498742460695,0.005552475506536167,0.020881038816875846,0.005519558435323991,0.005039596832255091,-0.00011999040077138805,-0.0004799616030855522,-0.0003599712023075034,-0.0010799136069025276,0.07200921489150744,-0.15833319201754836,-0.3310882694092727,0.10071649001931479,0.28791591409066114,-0.40318214614296966,-0.4319758109056317,-0.5615723553184669,0.25920518337912196,-0.1602999999999999,-0.016897999999999996,0.007801000000000058,0.09221100000000004,0.05297099999999999,0.014153000000000082,0.25251099999999993,0.06986899999999999,0.006352000000000024,0.987541462181287,0.9344210386887095,double,0.014153000000000082
66,0.55,stair_decsent,-0.0031201248049753222,-0.0033601344053795614,-0.006960278411136715,-0.07926266068355843,0.015534110369029252,0.001936701187067764,0.009360374414979259,0.013800552022081304,-0.008760350414015293,-0.004440177607112037,-0.0037201488059526123,0.0016800672026831191,-0.27363398531008254,0.10074758448327402,-0.014499648068414478,0.4609163542127987,1.0513566770462233,-1.0368846769763431,-0.4752449302803874,-0.4032374419350888,0.33121094558809977,-0.160196,-0.016754999999999964,0.007786000000000071,0.09219999999999984,0.052968000000000015,0.014225000000000043,0.25239599999999984,0.06972299999999998,0.0064389999999999725,0.9686057513813301,0.9255577324107859,double,0.014225000000000043
67,0.558333,stair_decsent,-0.0014400576023188686,-0.002520100804031374,-0.004200168006721177,-0.05211006210480928,0.0463251258018614,0.002506240781266528,0.004800192007685152,0.0009600384015336995,0.0006000240009506516,0.003000120004819874,0.0037201488059526618,-0.003360134405379606,0.20161612896393483,0.10080806448436279,0.3312264975897712,-0.5472437786264429,-1.5409232713965824,1.1232898613903792,0.892871428288969,0.8928714282857725,-0.6048483869030087,-0.16014399999999984,-0.01672599999999999,0.007826,0.09223700000000012,0.05302000000000001,0.014232000000000022,0.25238099999999997,0.069746,0.006406000000000023,0.9917801821720679,0.9262030813675235,double,0.014232000000000022
68,0.566667,stair_decsent,-0.00023998080151613289,-0.0008399328053730732,-0.003839692824564523,-0.03516772172039561,0.031150409163869446,0.005837276609397892,0.004319654427636754,-0.002879769618430053,0.00359971202304839,0.002279817614589765,0.0008399328053730732,0.00035997120230084253,0.14399769628062475,0.20160403151647324,0.043253561573872265,-0.057659896814062174,-0.4607401031873918,0.35993376795028986,-0.0864293724778142,-0.3455982722077714,0.44637696276462924,-0.16010600000000008,-0.016743000000000008,0.007888000000000006,0.09225799999999995,0.05303399999999997,0.014266999999999919,0.25236400000000003,0.06977699999999998,0.0063789999999999125,0.9894708850643252,0.9321164295875459,double,0.014266999999999919
69,0.575,stair_decsent,0.0007200288011461112,0.003120124804988687,0.003120124804988687,-0.007204795813838061,0.057717486587433905,0.005820294075057412,0.004800192007685152,-0.003480139205568404,0.0037201488059526618,0.0021600864034383334,0.0018000720028852628,0.0,0.11520576054989233,0.47522592228030686,0.8352115240073531,0.057666816278459404,-0.07204723234589659,0.014452992068195452,-0.01436832007097475,0.11522131255396596,-0.043198272206989775,-0.160072,-0.01679799999999998,0.007893000000000039,0.09226999999999985,0.05302300000000004,0.014240999999999948,0.25234199999999984,0.06982100000000002,0.006347999999999909,0.9883342001108641,0.9318336627409838,double,0.014240999999999948
70,0.583333,stair_decsent,0.0013200528021100684,0.0034801392055683576,0.0015600624025009842,-0.03239028240033747,-0.004119681501000332,0.03534200463299626,0.005040201608049358,-0.001200048001917941,0.002640105604220137,0.0032401296051841034,0.00252010080403134,0.0004800192007685088,0.07200576034608841,0.04320345620780861,-0.18721497689759944,0.02880230413586999,0.27362188931362696,-0.12961036862264735,0.12961036862423683,0.08640691241402548,0.05760460827655187,-0.1600410000000001,-0.016836999999999963,0.007901999999999965,0.09228599999999987,0.053015000000000034,0.014231999999999911,0.25232699999999997,0.069852,0.006329999999999947,0.9903083791835241,0.929812054339086,double,0.014231999999999911
71,0.591667,stair_decsent,0.00011999040075806644,0.0005999520038436186,0.000599952003830297,-0.04347004781325631,-0.011836457178968432,0.015288483341395032,0.00311975041997616,-0.007199424046076798,0.006719462442997906,0.002519798416132541,0.0029997600191981107,0.0,-0.14399596848476034,-0.3455948166216363,-0.11520403151796015,-0.230435707712165,-0.7198675358961857,0.4894836619603718,-0.08643282805994204,0.05755450145989524,-0.05759769627651849,-0.16001599999999994,-0.016902,0.007952999999999988,0.092306,0.053035,0.01422699999999999,0.25232199999999994,0.069937,0.006274000000000002,0.9827827827773549,0.9307305912657671,double,0.01422699999999999
72,0.6,stair_decsent,0.0010800432017458131,0.0006000240009573131,-0.0012000480019146262,-0.04815244695025863,-0.04927494244376584,0.04651831299000207,0.002640105604220172,-0.0001200048001921288,0.003360134405379606,0.0025201008040380353,0.0027601104044156313,0.0007200288011594343,0.11521094455631291,8.639999243308441e-06,-0.21600864103503414,-0.057559680277930195,0.8495642920778512,-0.4031354899337971,3.628800017933377e-05,-0.028759104138063322,0.08640691241562953,-0.16000300000000012,-0.01690799999999998,0.00799099999999997,0.0923179999999999,0.05305300000000002,0.014243000000000006,0.252321,0.069961,0.006252000000000035,0.9928751097521671,0.9311362456389556,double,0.014243000000000006
73,0.608333,stair_decsent,0.0004800192007551856,0.002640105604226798,-0.0008400336013415596,-0.026938974370512608,-0.030282948378058026,0.042484006151157924,0.004080163206538986,-0.00252010080403134,0.004200168006721121,0.004200168006721121,0.003000120004799849,-0.0003600144005730508,-0.07200576034928897,0.24481958517574423,0.0432034562070161,0.1728138248312502,-0.28802304138235946,0.1008080644835607,0.2016161289671281,0.02880230413827155,-0.12961036862264258,-0.15997299999999992,-0.016950999999999994,0.008032999999999957,0.09234900000000001,0.05305599999999999,0.01424700000000001,0.25232199999999994,0.07000699999999999,0.006214000000000053,0.9893750750147541,0.9292364306022991,double,0.01424700000000001
74,0.616667,stair_decsent,0.0037197024237931847,0.003959683225342625,0.0031197504199628797,0.007236324100394133,0.02672699774961326,0.026954934307953277,0.006599472042226607,-0.0008399328053764147,0.003839692824577896,0.0067194624430113176,0.0021598272138250666,-0.000479961603072237,0.38873088829349867,0.15833664760209196,0.47513607167080174,0.30229287685236805,0.20160403151607093,-0.04325356157226145,0.3022911490629003,-0.10082706875147436,-0.01439251289887052,-0.1599489999999999,-0.016991000000000006,0.008039000000000018,0.09237400000000018,0.053041000000000005,0.014217000000000035,0.2523230000000001,0.07003200000000001,0.006178000000000017,0.9871978995494237,0.9264294208679316,double,0.014217000000000035
75,0.625,stair_decsent,0.004800192007685088,0.0037201488059526123,0.005760230409222106,0.01012479475950933,0.019032795682430208,0.043065987814904796,0.007680307212296141,-0.0033601344053762307,0.005400216008635731,0.00408016320651234,0.002400096003835882,0.0010800432017191524,0.12966393662449283,-0.02874528013800693,0.31687027352204666,0.12970540862468846,-0.3024362894515547,0.18727027289785536,-0.31672857752297695,0.028833408137623247,0.18720806489756184,-0.15992499999999987,-0.01705000000000001,0.008035999999999932,0.092368,0.053029999999999966,0.014177999999999913,0.2522929999999999,0.07007999999999998,0.006141999999999981,0.9833800692743315,0.9304877049785709,double,0.014177999999999913
76,0.633333,stair_decsent,0.0008400336013548828,-0.01488059522381045,-0.013680547221895838,-0.08392903054580449,-0.11461515239345278,0.13824985659363917,0.006600264010550342,-0.0044401776071053755,0.007200288011527631,0.00552022080883119,0.003960158406336867,-0.002400096003842544,-0.4752380182803538,-2.2321785707143866,-2.332986635199551,-0.1296103686242403,-0.12961036862224173,0.21601728103826864,0.17281382483125451,0.18721497689919336,-0.41763341000380194,-0.15987700000000005,-0.016963000000000006,0.00821000000000005,0.0924069999999999,0.053186999999999984,0.014271999999999951,0.25228399999999995,0.07014999999999999,0.006061999999999901,0.9821174503402095,0.9273711892057463,double,0.014271999999999951
77,0.641667,stair_decsent,0.0011999040076872533,-0.007199424046076894,-0.001439884809216711,-0.04374775493788254,-0.02249748091954972,0.10709772834009187,0.0050395968322651495,-0.0076793856491491315,0.008759299256058334,0.0026397888168906425,0.0026397888168973034,-0.0009599232061311524,0.04318099428034228,0.9216668079833932,1.4687619885624186,-0.1872650801878091,-0.38867387113556207,0.18706638403296277,-0.3456241890977398,-0.15843167619865264,0.17280691117247415,-0.15984500000000001,-0.01696700000000001,0.008295000000000052,0.0924189999999998,0.05326900000000001,0.014276000000000066,0.2522639999999998,0.07023600000000002,0.005981000000000014,0.9788460784015693,0.9337655625933154,double,0.014276000000000066
78,0.65,stair_decsent,0.0019200768030740352,0.0002400096003842544,0.00816032641306465,-0.0029022706531939228,0.039566401741516745,0.0655816687589255,0.004680187207476307,-0.008760350414015293,0.006960278411136715,0.0031201248050019685,0.0021600864034582896,-0.0007200288011594248,0.08642419241411002,0.8927677482852655,1.1520714295309398,-0.043130880209869354,-0.12972096062236368,-0.21589113703607482,0.05764262427833001,-0.057566592276372466,0.02878848013581263,-0.15982200000000013,-0.017042,0.008284999999999987,0.09242899999999987,0.05328500000000003,0.014201999999999937,0.252251,0.07032700000000003,0.00591699999999995,0.9797863242639833,0.9343923517182793,double,0.014201999999999937
79,0.658333,stair_decsent,0.008400336013415707,0.006000240009599778,0.043921756870272506,0.2124114884113572,0.2362810668906688,0.06809831785890394,0.0016800672026831415,-0.01248049921996807,0.0116404656186265,0.008160326413051434,0.0038401536061414597,-0.001800072002878601,0.777662211729477,0.6912552993178418,4.291543316597646,-0.3600288017272522,-0.4464357141429032,0.5616449306960072,0.6048483869014175,0.20161612896714093,-0.12961036862104716,-0.15987799999999996,-0.01719599999999999,0.008016000000000023,0.09242700000000004,0.05326700000000001,0.013820999999999972,0.252305,0.070463,0.005804999999999949,0.9714184438645994,0.9266222867091221,double,0.013820999999999972
80,0.666667,stair_decsent,0.003839692824577845,-0.009959203263738794,0.03251739860811365,0.37126439262081745,0.03695964462557024,0.16333024989070552,-0.000479961603058909,-0.014398848092153596,0.011159107271406048,0.008399328053757375,0.004199664026878687,-0.0019198464122889224,-0.5472334039882203,-1.9149799944010617,-1.3684135183775819,-0.25918272207127835,-0.2301834499862624,-0.05775838099597406,0.028677902652500444,0.04313779946450982,-0.014371779386887508,-0.1599139999999999,-0.017233,0.0078379999999999,0.09246500000000002,0.053385000000000016,0.013533999999999935,0.2523789999999999,0.07061800000000001,0.005696000000000034,0.9696280984837742,0.9270650456495108,double,0.013533999999999935
81,0.675,stair_decsent,0.005400216008649055,-0.022560902436099928,0.015600624024956551,0.15172811477629455,-0.05147078044458396,0.2123565673705723,-0.0009600384015370176,-0.018720748829951856,0.010320412816516277,0.007800312012478276,0.005400216008635731,-0.00204008160325617,0.18727027289946038,-1.51226439125898,-2.0300941537449937,-0.05761152027818391,-0.5186488344891687,-0.10064736048119133,-0.0718848003455054,0.1440720006908723,-0.014428800068072355,-0.15996699999999997,-0.017200999999999966,0.007793999999999968,0.09248499999999993,0.053618,0.013387000000000038,0.2524519999999999,0.07081899999999997,0.00559300000000007,0.9643357075872067,0.9278965363618286,double,0.013387000000000038
82,0.683333,stair_decsent,0.011160446417844663,-0.03888155526220976,-0.01248049921996807,-0.2542433264622365,0.010992727756875917,0.15503173408978335,0.001320052802110086,-0.024840993639747344,0.01248049921996807,0.0025201008040380353,0.0038401536061481215,-0.0030001200048065508,0.6912552993154519,-1.9585566814004536,-3.3698695841743525,0.27362188931322745,-0.7344587555256863,0.2592207372437073,-0.6336506910404763,-0.18721497689759078,-0.11520921655470895,-0.16004899999999989,-0.017083999999999988,0.008001999999999954,0.09241300000000008,0.05397400000000002,0.013465999999999978,0.25246199999999996,0.07105800000000001,0.005464000000000024,0.953614526783403,0.9362163306926827,double,0.013465999999999978
83,0.691667,stair_decsent,0.0029997600192180934,-0.043316534677225516,-0.0219582433405379,-0.13416509219594747,-0.17751860082562287,0.2817400429512388,0.004199664026878687,-0.028317734581231633,0.018958483321333125,0.008879289656842928,0.004919606431487034,-0.004199664026878687,-0.9792040315126599,-0.5321549574052943,-1.1372383154031385,0.34552570491583623,-0.4171755389349967,0.7772959084911213,0.7630416190070607,0.12952397712249866,-0.14393376794721952,-0.16003900000000004,-0.016958999999999974,0.00834299999999999,0.09246200000000004,0.054376000000000035,0.013614000000000015,0.2525010000000001,0.07133500000000001,0.005271000000000026,0.9427734677017681,0.9289808120978148,double,0.013614000000000015
84,0.7,stair_decsent,-0.006720268810759212,-0.05640225609024058,-0.025801032041277712,-0.2227566145303902,-0.1844719666513985,0.3894852801343037,-0.003600144005757202,-0.05412216488659679,0.07308292331694315,0.006720268810732566,0.00480019200767849,-0.0030001200047932272,-1.1664501176019915,-1.5703493835371631,-0.4611530902123903,-0.936014404492495,-3.0966555028639617,6.495192607177549,-0.2590928652478557,-0.014330304069188154,0.1439510406918842,-0.16001299999999996,-0.01694000000000001,0.009167000000000036,0.09257399999999993,0.05488599999999999,0.013804000000000038,0.2525869999999999,0.071826,0.004637000000000002,0.8483124240656295,0.9389856442194113,double,0.013804000000000038
85,0.708333,stair_decsent,-0.002160086403464951,-0.05616224648986223,0.004680187207489629,-0.015318694922726384,-0.033937527166063394,0.428761802751941,0.04596183847354141,-0.027121084843394098,0.01104044161766238,0.00528021120846692,0.006840273610941258,-0.0013200528021233915,0.5472437786264541,0.02880230413756662,3.657892625557088,5.94767580454799,3.2402592155529315,-7.44539561973845,-0.1728138248248698,0.24481958517493813,0.20161612896553807,-0.15961199999999987,-0.01669799999999999,0.009220000000000006,0.09263600000000016,0.05541099999999999,0.013753999999999933,0.252248,0.07210899999999998,0.004533999999999927,0.909171480401811,0.9400909581571302,double,0.013753999999999933
86,0.716667,stair_decsent,0.005759539236866767,-0.05387568994480127,0.034317254619631185,0.230247749393004,0.15429184529581308,0.35703557432876115,0.023998080153584886,-0.04211663066954494,0.044516438684906096,0.010079193664503522,0.007919366450685144,0.0003599712023141642,0.9502790545154377,0.2743648362204159,3.55616359636925,-2.6354401631817086,-1.7993215534138145,4.016798304204879,0.5758318281781336,0.12948078230668086,0.20158675359221778,-0.15945999999999994,-0.016600000000000004,0.009305000000000008,0.09267200000000009,0.055925999999999976,0.01347100000000001,0.252132,0.07252599999999998,0.004166000000000003,0.8903106438973156,0.9369678940118134,double,0.01347100000000001
87,0.725,stair_decsent,-0.03888155526220976,-0.07992319692787783,-0.027721108844351774,-0.3265529057806412,-0.0970048377210683,0.5933299545699526,0.038521540861636706,-0.0567622704908203,0.06732269290770765,0.02916116644665732,0.007560302412100783,0.006120244809781915,-5.35714562571426,-3.1258258710040563,-7.4449014117344925,1.742885000366249,-1.757547080436276,2.736859981135457,2.2899283309917164,-0.04308940820645203,0.691260483315469,-0.15881499999999993,-0.016407000000000005,0.010096999999999912,0.09323900000000007,0.05665500000000001,0.013752999999999904,0.252054,0.07306200000000002,0.0036559999999999926,0.8398073257156549,0.9122055390054775,double,0.013752999999999904
88,0.733333,stair_decsent,-0.043801752070076465,-0.08496339853593946,-0.023880955238216657,-0.6495793387345773,0.06514535154704736,0.6003200374399648,0.04524180967236867,-0.052802112084482676,0.07980319212768798,0.04332173286929463,0.013560542421693718,0.002280091203647086,-0.5904472348333956,-0.6048483869028684,0.4608368662108605,0.8064645158684668,0.47523801828124385,1.497719815190241,1.6993359441542362,0.7200576034552875,-0.460836866210826,-0.15807300000000013,-0.016139000000000014,0.010960999999999999,0.09396499999999985,0.05747599999999997,0.013970999999999956,0.252038,0.07361499999999999,0.003009999999999957,0.823589542253948,0.8941471183997671,double,0.013970999999999956
89,0.741667,stair_decsent,-0.03971682265419764,-0.08195344372450454,-0.011519078473720367,-0.7191914610408976,0.21912282842336053,0.5414582692533932,0.052075833933291085,-0.05495560355171785,0.09803215742740116,-0.04775617950562763,-0.011999040076792603,-0.007439404847599691,0.49015231772004425,0.3611656841174624,1.483306547215786,0.8200173099259006,-0.2583983042038861,2.187300851897443,-10.928475206974177,-3.0669045474545795,-1.1662462264515037,-0.157308,-0.01591400000000001,0.01187399999999994,0.09389800000000004,0.058059,0.014005000000000045,0.25120600000000004,0.07397300000000001,0.002131000000000105,0.793559836948572,0.8956910979285342,double,0.014005000000000045
90,0.75,stair_decsent,-0.006600264010550342,-0.05988239529581151,0.04404176167046738,-0.6969390223903674,0.6258023356908319,0.39857839966393876,0.05388215528622847,-0.047521900876035736,0.11064442577704135,-0.002760110404428918,-0.0036001440057638156,-0.008400336013442242,3.9741460030777827,2.6486317567134208,6.667567520003302,0.21676723304180723,0.8920800042820213,1.5135327432665469,5.3997442819151,1.0079078448372436,-0.1153163525552078,-0.15680399999999994,-0.01581100000000002,0.012429000000000023,0.09392999999999985,0.05852799999999997,0.013568000000000024,0.2507339999999998,0.07433899999999999,0.0011390000000000011,0.7801275200593395,0.9726983610518721,double,0.013568000000000024
91,0.758333,stair_decsent,0.11724468978759169,0.010320412816512947,0.1899675987039475,-0.5541469815491514,1.8738136831301988,-0.2523460758702961,-0.035521420856843004,-0.05592223688947465,0.15348613944556747,0.03396135845434202,0.011760470418821804,-0.02760110404416927,14.861988935334395,8.424673960437318,17.51180091605418,-10.728858291500194,-1.0080806448384587,5.1412112886746595,4.40675253315382,1.8433474648488606,-2.304184331060476,-0.15807700000000002,-0.016363000000000016,0.012124999999999941,0.09323599999999987,0.05854000000000001,0.01175499999999996,0.2513129999999999,0.07490300000000003,0.00036999999999998145,0.717677082180575,0.9244740023238255,double,0.012124999999999941
92,0.766667,stair_decsent,0.09359251259899297,0.00803935685144998,0.15214782817373926,-0.4400749012540793,1.4980258907380117,-0.20112645245881028,0.1317494600432025,-0.19330453563715028,-0.025677945764331377,-0.0563954883609279,-0.04763618910487623,-0.10043196544276235,-2.8380342198942707,-0.2737048194220039,-4.538009422871185,20.070900036002698,-16.484557085154357,-21.49797038755698,-10.841954261491534,-7.127028980525362,-8.73900424749142,-0.15775899999999998,-0.018041,0.010643000000000069,0.0919859999999999,0.05807599999999999,0.009650000000000047,0.24974499999999988,0.07611699999999999,0.0009930000000000216,0.5978401898891781,0.7922592607853662,double,0.010643000000000069
93,0.775,stair_decsent,0.0,0.0,0.0,0.0,0.0,0.0,0.0799231969278568,-0.06108244329772946,0.16980679227168344,-0.017160686427457536,0.013560542421700381,-0.012480499219967906,-11.231550773910065,-0.9647614126304986,-18.25846971963742,-6.219400349855454,15.867285772161317,23.459106928598825,4.708364566599088,7.343901539250732,10.554598130660516,-0.15709300000000015,-0.018549999999999983,0.012058000000000013,0.0918429999999999,0.05818900000000002,0.009546000000000054,0.24893600000000005,0.076739,0.0025119999999999587,0.6459375489880577,0.9580297615296837,double,0.012058000000000013
94,0.783333,stair_decsent,-6.814712588503619,10.188407536301545,-0.06696267850713458,-28.036642721609134,2.7853804413876753,88.80019756330856,0.18396735869435024,-0.027601104044162977,0.1634465378615262,0.07176287051483306,0.11016440657626099,0.033361334453378494,-817.7982225493438,1222.6578106686234,-8.035842854570406,12.485798843933086,4.017921427285106,-0.7632610596612636,10.671253683222298,11.592927415644006,5.5012400904052345,-0.098773,-0.10368,0.013978000000000046,0.14922800000000014,-0.02579300000000001,0.010382000000000002,0.24800100000000014,0.07788699999999998,0.0035960000000000436,0.5513234549921706,0.7739279570497086,double,0.013978000000000046
95,0.791667,stair_decsent,0.1923446124310066,0.4118070554355609,1.1275497960163088,5.94603802353804,6.244292320349367,-2.917221070370407,0.1733861291096868,-0.04823614110871255,0.22690184785216722,0.00455963522917953,0.008999280057594332,-0.0052795776337945365,840.7796017440091,-1173.0982098471213,143.33003054036888,-1.2696459784813263,-2.476006367236551,7.614028076630735,-8.063743134827575,-12.13884407471393,-4.636538527378538,-0.09893099999999988,-0.107514,0.006472000000000033,0.1476630000000001,-0.02915000000000001,0.0009409999999999696,0.24659399999999998,0.07836399999999999,0.005531000000000064,0.4620067485715662,0.9810225825014269,single,0.006472000000000033
96,0.8,stair_decsent,0.21684867394697066,-0.23196927877114537,0.44677787111484657,6.970886408704859,5.868825343924693,0.06902889564858351,0.20604824192967255,-0.12660506420256762,0.1776071042841617,-0.0075603024120873595,0.00132005280211673,-0.0003600144005730508,2.940605006115921,-77.25625035481862,-81.6958988241281,3.919610322811188,-9.404646957140855,-5.915605852394732,-1.45445069497982,-0.9215441324226052,0.5903712028346892,-0.09902100000000003,-0.10663600000000004,0.004228999999999927,0.14579300000000006,-0.027206000000000008,-0.0027850000000000374,0.2448140000000001,0.07943000000000003,0.007013999999999965,0.42986000000000035,0.9871948011500526,single,0.004228999999999927
97,0.808333,stair_decsent,0.12276491059642451,-0.13272530901236787,0.18960758430337696,1.4811370883548616,1.5347330199269442,0.1665775052452459,0.2248889955598162,-0.17892715708628418,0.20256810272411355,0.019080763230505178,0.027961118444736033,0.03216128645146387,-11.290503222194529,11.909752761163855,-30.861668884131998,2.2609808748522524,-6.27890230213813,2.995439630379463,3.197055759341507,3.1970557593447193,3.9027122107328958,-0.09817000000000009,-0.10702099999999998,0.004336999999999924,0.14492899999999986,-0.025866999999999973,-0.004097000000000017,0.24309899999999995,0.081154,0.008433999999999942,0.4156600000000006,0.9221781233208334,single,0.004336999999999924
98,0.816667,stair_decsent,0.10187185025196438,-0.05447564194863823,0.22210223182144492,-5.913333171840971,-1.057057007036298,1.1918783851567194,0.2975761939044899,-0.22558195344372192,0.2037437005039554,0.02291816654668236,0.007439404847612913,-0.0034797216222770024,-2.5069666840004765,9.389208910934611,3.8990457785058457,8.721766060075973,-5.598127712675472,0.1410604487451223,0.4604515618163129,-2.4624086389636384,-4.276578842541469,-0.09653899999999993,-0.10844700000000002,0.0041839999999999655,0.14427100000000004,-0.025351000000000012,-0.00597700000000001,0.24080999999999997,0.083096,0.010160999999999976,0.39839000000000024,0.9594244338398951,single,0.0041839999999999655
99,0.825,stair_decsent,0.12960518420736586,-0.09396375855034692,0.17136685467418672,-0.47451740322299935,0.5412249466675276,0.8551270584559996,0.29749189967600415,-0.26149045961838885,0.19260770430818352,0.030721228849158323,0.013200528021120844,0.0008400336013415707,3.328133199976207,-4.738763542746796,-6.088488797222929,-0.010115712046774437,-4.3091931086844175,-1.3363729984125743,0.936404932494424,0.6913624353183708,0.5183913624887331,-0.09513999999999978,-0.109843,0.004361000000000059,0.1434470000000001,-0.02445799999999998,-0.007398000000000016,0.23858699999999988,0.08538500000000002,0.011759000000000075,0.38240999999999925,0.9442537121691763,single,0.004361000000000059
100,0.833333,stair_decsent,0.13692547701908722,-0.09312372494899744,0.2132485299412002,-0.06325312658202643,1.1531910538976664,0.5038020508756308,0.25429017160686107,-0.3458538341533642,0.22032881315251904,0.013560542421700381,0.006360254410172749,0.01824072962919001,0.8784702762176085,0.10080806448451586,5.026002072124481,-5.184414744886943,-10.124009904593182,3.326666127965366,-2.0593647458847797,-0.8208656679404855,2.088167050023805,-0.09416199999999986,-0.11194899999999999,0.0044199999999999795,0.14241900000000007,-0.02362900000000001,-0.009023000000000003,0.23658099999999993,0.08831999999999998,0.013442999999999983,0.3655700000000002,0.960662946350445,single,0.0044199999999999795
101,0.841667,stair_decsent,0.10955123590112006,-0.07439404847612248,0.17062634989201145,-0.05066495425722935,0.9226007837280228,0.402920486617709,0.2365010799135985,-0.38204943604511254,0.06599472042237176,0.01871850251980367,-0.04223662107030967,-0.012598992080636062,-3.2846461624630368,2.2473813862340797,-5.114252465705354,-2.1345202415721656,-4.343124777027608,-18.518609638846424,0.6189056993164447,-5.831158564972648,-3.700470567533698,-0.09310399999999985,-0.11451299999999998,0.0035479999999999956,0.14166200000000018,-0.023360999999999965,-0.01055000000000006,0.23476600000000003,0.09115200000000001,0.014098000000000055,0.35901999999999945,0.9201903462837854,single,0.0035479999999999956
102,0.85,stair_decsent,0.0,0.0,0.0,0.0,0.0,0.0,0.3900156006240255,-0.3218528741149663,0.12972518900756133,0.024240969638790032,-0.0006000240009639748,0.012240489619590475,-13.146674175101532,8.927642922851692,-20.47598102628261,18.422479384426786,7.223876386673079,7.647962148708768,0.6627225631808967,4.996591511982008,2.980857038308744,-0.08985399999999988,-0.11719499999999997,0.004628999999999994,0.1418640000000002,-0.023365999999999998,-0.010448000000000013,0.2317180000000001,0.09382899999999997,0.015077000000000007,0.34922999999999993,0.9547287734268414,single,0.004628999999999994
103,0.858333,stair_decsent,0.0,0.0,0.0,0.0,0.0,0.0,0.2788911556462238,-0.39397575903036053,0.09180367214688737,0.019320772830895838,-0.006720268810752461,0.009480379215161394,0.0,0.0,0.0,-13.335466816008791,-8.65509239354301,-4.55076405384301,-0.5904472348366943,-0.7344587555248363,-0.3312264975913919,-0.08752999999999989,-0.12047799999999997,0.00539400000000001,0.14202500000000007,-0.023422,-0.010369000000000073,0.22955499999999995,0.09705599999999998,0.015763000000000083,0.3423699999999992,0.9624229729705058,single,0.00539400000000001
104,0.866667,stair_decsent,0.0,0.0,0.0,0.0,0.0,0.0,0.3530117590592773,-0.5173986081113553,0.19846412287016352,0.013678905687538772,-0.017398608111351938,0.016078713702913278,0.0,0.0,0.0,8.893760908693773,-14.809557125149444,12.79823022837494,-0.6769698996108829,-1.2812982122149672,0.7917367995862635,-0.08458799999999989,-0.12478999999999998,0.007047999999999943,0.14213900000000002,-0.023567000000000005,-0.010234999999999994,0.2267269999999999,0.10122299999999998,0.017282999999999937,0.3271700000000006,0.9544067177413762,single,0.007047999999999943
105,0.875,stair_decsent,0.0,0.0,0.0,0.0,0.0,0.0,0.252370094803787,-0.4142565702628067,0.01488059522381045,0.019320772830922487,-0.027721108844351406,0.012720508820345498,0.0,0.0,0.0,-12.07748280997118,12.377539643411515,-22.030904553744428,0.677051139251613,-1.2387496379454488,-0.4030007059363693,-0.08248499999999992,-0.12824199999999997,0.007171999999999956,0.1423000000000001,-0.023797999999999986,-0.010129000000000055,0.224785,0.10444399999999998,0.01730100000000001,0.3269899999999999,0.9398251740760266,single,0.007171999999999956
106,0.883333,stair_decsent,0.0,0.0,0.0,0.0,0.0,0.0,0.253930157206288,-0.5029401176047021,0.013560542421700381,0.00588023520940424,-0.006840273610941258,0.005640225609026647,0.0,0.0,0.0,0.1872149768991892,-10.642451379082571,-0.1584126727601179,-1.6129290317434526,2.5058004600276087,-0.8496679720771416,-0.08036899999999991,-0.13243299999999997,0.007284999999999986,0.14234900000000006,-0.02385499999999996,-0.010082000000000035,0.22271799999999997,0.10857800000000001,0.01736700000000002,0.3263299999999998,0.982269090539151,single,0.007284999999999986
107,0.891667,stair_decsent,0.0,0.0,0.0,0.0,0.0,0.0,0.21706263498919603,-0.5409167266618715,-0.0017998560115175582,-0.012718982481394298,0.008399328053750826,0.0005999520038436266,0.0,0.0,0.0,-4.4237487661497665,-4.556828540577105,-1.8431003639570467,-2.2317275846890623,1.8286059112901574,-0.6047844498659767,-0.07855999999999996,-0.13694099999999998,0.007269999999999999,0.14224300000000012,-0.023785,-0.010077000000000003,0.22080300000000008,0.11315599999999998,0.017347,0.32653,0.974576849486942,single,0.007269999999999999
108,0.9,stair_decsent,0.0,0.0,0.0,0.0,0.0,0.0,0.197047881915293,-0.5705028201128031,-0.02244089763591113,-0.012240489619590312,-0.006960278411136715,0.007200288011514309,0.0,0.0,0.0,-2.401866443526097,-3.550473233041093,-2.477024075890254,0.05742144027408908,-1.8432265048466911,0.7920720038006306,-0.07691799999999982,-0.141695,0.0070829999999999504,0.14214100000000007,-0.023843000000000003,-0.010017000000000054,0.2190589999999999,0.11785199999999998,0.017100000000000004,0.32899999999999996,0.973641404040902,single,0.0070829999999999504
109,0.908333,stair_decsent,0.0,0.0,0.0,0.0,0.0,0.0,0.1912876515060468,-0.5826233049322024,-0.06120244809792573,-0.012000480019199556,-0.006000240009599778,0.0019200768030740608,0.0,0.0,0.0,-0.6912552993215229,-1.4545163589822903,-4.651572118326527,0.028802304139056493,0.11520921655309564,-0.6336506910404771,-0.07532399999999995,-0.14654999999999999,0.00657299999999994,0.14204100000000008,-0.023892999999999998,-0.010001000000000038,0.21736500000000003,0.12265699999999999,0.016573999999999978,0.3342600000000002,0.9774106037785601,single,0.00657299999999994
110,0.916667,stair_decsent,0.0,0.0,0.0,0.0,0.0,0.0,0.1749460043196482,-0.6159107271418238,-0.09095272378208778,-0.015718742500585577,-0.005279577633787876,0.0005999520038436186,0.0,0.0,0.0,-1.960840795104206,-3.9941711314640256,-3.569747502299235,-0.446155805301895,0.08647256729204421,-0.15840230372335395,-0.07386599999999999,-0.15168299999999998,0.005815000000000015,0.1419100000000002,-0.023936999999999986,-0.009996000000000005,0.2157760000000002,0.127746,0.01581100000000002,0.3418899999999998,0.9723457483579315,single,0.005815000000000015
111,0.925,stair_decsent,0.0,0.0,0.0,0.0,0.0,0.0,0.14520580823234733,-0.6356654266170616,-0.09096363854554582,-0.013680547221909162,0.0015600624024943227,-0.004200168006721121,0.0,0.0,0.0,-3.5689662891276566,-2.370658763379059,-0.0013098240079243509,0.24459321716985555,0.820789635939298,-0.576037442765477,-0.07265599999999983,-0.15697999999999998,0.005056999999999978,0.14179600000000003,-0.023924,-0.010031000000000012,0.21445199999999986,0.13305599999999998,0.01508799999999999,0.3491200000000001,0.976007375075566,single,0.005056999999999978
112,0.933333,stair_decsent,0.0,0.0,0.0,0.0,0.0,0.0,0.08952358094322815,-0.6309852394095803,-0.17100684027361365,-0.04188167526700299,-0.04236169446777816,0.02808112324492483,0.0,0.0,0.0,-6.682134560076765,0.5616449306949904,-9.605568430105432,-3.38427073624074,-5.270821657299038,3.873909906593813,-0.07190999999999992,-0.16223799999999997,0.0036319999999999686,0.1414470000000001,-0.024276999999999993,-0.009797000000000056,0.21335700000000002,0.13796099999999997,0.013429000000000024,0.36570999999999976,0.8902384229840685,single,0.0036319999999999686
113,0.941667,stair_decsent,0.0,0.0,0.0,0.0,0.0,0.0,0.12826973842092373,-0.6571874250059957,-0.17950563954884105,-0.015478761699069445,-0.006119510439160949,-0.0032397408207342263,0.0,0.0,0.0,4.649166963966317,-3.144010750709768,-1.0197743310807934,3.1680961804575647,4.348714186299129,-3.7582030316365276,-0.07084099999999993,-0.16771499999999998,0.0021359999999999157,0.14131800000000005,-0.02432799999999996,-0.009824000000000055,0.212159,0.14338700000000001,0.01195999999999997,0.3804000000000003,0.9717385032077843,single,0.0021359999999999157
114,0.95,stair_decsent,0.0,0.0,0.0,0.0,0.0,0.0,0.10704428177128562,-0.6833073322932985,-0.1969278771150735,-0.01260050402016353,-0.0032401296051841467,-0.0021600864034516565,0.0,0.0,0.0,-2.5471566842239657,-3.134514255046572,-2.090752138033435,0.3454047376582192,0.3455395216580857,0.12956371262241445,-0.06994899999999982,-0.17340899999999998,0.0004950000000000232,0.14121300000000003,-0.02435499999999996,-0.009842000000000017,0.21116199999999985,0.14905400000000002,0.01033700000000004,0.3966299999999996,0.9780191298643744,single,0.0004950000000000232
115,0.958333,stair_decsent,0.0,0.0,0.0,0.0,0.0,0.0,0.08880355214208085,-0.6762270490819606,-0.2679707188287569,-0.00996039841591658,-0.004320172806916579,-0.0038401536061480703,0.0,0.0,0.0,-2.1889751145091436,0.8496679720794291,-8.525482024922967,0.31682534552345376,-0.12961036862263628,-0.20161612896872758,-0.06920899999999985,-0.17904399999999998,-0.0017380000000000173,0.1411300000000002,-0.024390999999999996,-0.00987400000000005,0.21033900000000005,0.15465299999999998,0.008136000000000032,0.4186399999999997,0.9808065253128232,single,-0.0017380000000000173
116,0.966667,stair_decsent,0.0,0.0,0.0,0.0,0.0,0.0,0.10763138948883115,-0.7027837772978109,-0.2656587473002199,-0.008759299256058218,-0.0032397408207342263,-0.0028797696184333834,0.0,0.0,0.0,2.2591597488301116,-3.1865524617050767,0.2774143902732179,0.14412036955343802,0.1296414670245194,0.11523685957699539,-0.06831199999999993,-0.18490099999999998,-0.003952000000000067,0.1410570000000002,-0.024417999999999995,-0.009898000000000073,0.20936900000000014,0.160483,0.005946000000000007,0.44053999999999993,0.9837114289302484,single,-0.003952000000000067
117,0.975,stair_decsent,0.0,0.0,0.0,0.0,0.0,0.0,0.09660386415456042,-0.6967478699148036,-0.2943717748709888,-0.0074402976119053235,-0.0032401296051841467,-0.0024000960038292525,0.0,0.0,0.0,-1.323355974351474,0.7243378594752616,-3.445701136537765,0.15828652875949917,-4.665600023046046e-05,0.05756313627794736,-0.06750699999999998,-0.190707,-0.006404999999999994,0.1409950000000002,-0.024444999999999995,-0.009917999999999982,0.2085020000000002,0.166262,0.0035129999999999884,0.4648700000000001,0.9858955356516188,single,-0.006404999999999994
118,0.983333,stair_decsent,1.3897755910236427,-26.759870394815678,2.9231969278771053,-61.747606605198015,-108.09215661130881,-300.78232899983277,0.2090483619344924,-0.7424696987879482,-0.08088323532942045,-0.00528021120846692,-0.006840273610941258,0.06276251050041258,166.77974211252092,-3211.3128998938637,350.7976632517812,13.49387948877133,-5.486838938334859,25.619649530969337,0.25922073724209704,-0.43203456207333446,7.8198255735319275,-0.07734599999999991,0.026095999999999994,-0.03143800000000008,0.12936999999999999,0.198488,-0.03375400000000006,0.2067159999999999,0.17239200000000002,0.0023159999999999847,0.47684000000000015,0.8944090347694758,single,-0.03143800000000008
119,0.991667,stair_decsent,0.44288456923447705,-0.3922486201103927,-0.15082793376530726,-0.08763347494585963,-0.7274788729811914,3.463684444527604,0.12239020878330054,-0.7029037676985883,-0.33645308375329175,-0.00947924166066003,-0.0033597312215056588,0.005759539236866844,-113.61783318804548,3163.8615040443287,-368.8534751190821,-10.398146526420968,4.7475319281689625,-30.665928536581806,-0.5038433467954324,0.41763167619817837,-6.839809366876177,-0.080017,0.023506999999999986,-0.03298499999999993,0.12559999999999993,0.201729,-0.03244899999999995,0.20561699999999994,0.178222,0.0005359999999999809,0.5,0.97532419554966,single,-0.03244899999999995
120,1.0,stair_decsent,0.23328933157325546,-0.5478219128765127,-0.19932797311892675,0.6989516436530742,-1.1970037435429914,2.0980088879307934,0.13572542901715928,-0.6176647065882591,-0.4778591143645775,-0.004920196807867223,-0.009960398415936565,0.020760830433214687,-25.152434616731156,-18.66954191361087,-5.820237531935592,1.6002904396806301,10.229096497099345,-16.969402449452197,0.5471072666257996,-0.7921117478016175,1.8002269526398393,-0.08082999999999996,0.022925,-0.03530599999999995,0.12361500000000003,0.20621099999999998,-0.030614999999999948,0.204445,0.18328599999999998,0.004691000000000001,0.5,0.9138461061540556,single,-0.030614999999999948
121,1.008333,stair_decsent,0.33937357494300713,-0.4591383655346268,-0.39949597983918705,2.5571856428967945,-1.1049394634759782,3.179500130200033,0.13656546261848934,-0.7093483739349639,-0.3424936997479958,0.03456138245530645,-0.04824192967718248,-0.019200768030727285,12.730618429107482,10.642451379081573,-24.02112165129751,0.1008080644821873,-11.002480180811903,16.24449953397131,4.737979030742113,-4.5939675100499535,-4.795583639018641,-0.08252000000000015,0.02084000000000001,-0.034831000000000056,0.12107500000000004,0.20963500000000002,-0.02744600000000008,0.2035950000000002,0.18879500000000002,0.007384999999999975,0.5,0.8221943146072707,single,-0.02744600000000008
122,1.016667,stair_decsent,0.3389728821694065,-0.45044396448283713,-0.36393088552916253,2.1852032936025023,-1.1881211017418334,3.1188389129621923,0.14530837532998128,-0.7043436525077941,-0.33897288216941984,-0.0028797696184333834,-0.0011999040076805766,-0.0007199424046016851,-0.048079286489153494,1.0432446666414184,4.267469919609342,1.0490656001310144,0.6005185297779879,0.42246431228413095,-4.492578842541342,5.644591513019144,2.217521673401183,-0.08413399999999993,0.018724000000000005,-0.03462299999999996,0.11822600000000016,0.213379,-0.02441899999999997,0.2023600000000001,0.19465500000000002,0.01020399999999999,0.5,0.8926237612734449,single,-0.02441899999999997
123,1.025,stair_decsent,0.33505340213610385,-0.45061802472099227,-0.29881195247810094,1.4587794163934686,-1.2561621141031227,2.990160444435755,0.15672626905076698,-0.6967478699148036,-0.3589343573743075,0.01044041761669855,-0.044041761670467965,0.001800072002878601,-0.47035641825305474,-0.02088806410118082,7.814584549509442,1.3702020545764788,0.9115303723737549,-2.3954728435002823,1.5984864076721534,-5.141228568677281,0.30241382545065515,-0.08562000000000003,0.016672999999999993,-0.035124000000000044,0.11552099999999998,0.216767,-0.02191399999999999,0.20114100000000001,0.200094,0.013210000000000055,0.5,0.7924031393171995,single,-0.02191399999999999
124,1.033333,stair_decsent,0.3141725669026717,-0.4143765750629967,-0.3601344053762125,2.2919606168380646,-1.0967283861987756,3.1022406693118345,0.15972638905555595,-0.678867154686175,-0.3705748229929108,0.005880235209404162,-0.014640585623426,0.000360014400573046,-2.505800460030215,4.349147924876389,-7.358988707321551,0.3600288017267391,2.145771658301734,-1.3969117507023958,-0.5472437786264621,3.5282822569352517,-0.17281382482965676,-0.08690700000000007,0.01446900000000001,-0.03521099999999999,0.11295199999999994,0.22009800000000002,-0.018909999999999982,0.199859,0.205629,0.01630100000000001,0.5,0.8106876171398755,single,-0.018909999999999982
125,1.041667,stair_decsent,0.24274058075353067,-0.36897048236141744,-0.40124790016799583,2.8404587768186014,-1.0977712587033726,3.4780532527864563,0.1738660907127503,-0.6665466762659119,-0.39116870650347874,-0.002159827213831756,0.0038396928245712863,-0.0008399328053730955,-8.571152645685432,5.448295260568768,-4.9332247170367305,1.6966284685858686,1.4783391433001325,-2.4710683358013377,-0.9647303123633394,2.217456017278334,-0.14398214614184837,-0.08748099999999992,0.011989,-0.03512699999999991,0.11091099999999998,0.223205,-0.015572999999999948,0.1983919999999999,0.21121599999999996,0.01955399999999996,0.5,0.7969853053391586,single,-0.015572999999999948
126,1.05,stair_decsent,0.278771150846038,-0.41413656546261074,-0.08880355214207968,-0.38751370735944407,-1.6500773373102098,3.0634826729868974,0.1806072242889525,-0.6965078603144008,-0.3484939397575863,0.009720388815552181,-0.001920076803067348,-0.0030001200048064705,4.323841364755393,-5.420146778014222,37.49482155597152,0.8089683878797659,-3.5954859052548165,5.121176856581266,1.4256829508440811,-0.6912000033167567,-0.2592328332453303,-0.08829900000000013,0.009635999999999992,-0.03729099999999996,0.1086689999999999,0.22664,-0.014858000000000038,0.19696800000000003,0.21700400000000003,0.022432999999999925,0.5,0.7584159043752231,single,-0.014858000000000038
127,1.058333,stair_decsent,0.25453018120725535,-0.5166206648265982,-0.014880595223810647,-1.2998627856907732,-2.0706933748374095,1.9059595773848357,0.1746069842793975,-0.6500660026401105,-0.3753750150006058,0.019080763230531823,-0.009600384015363643,0.0001200048001954596,-2.9090327179626616,-12.298583867033287,8.871109674579348,-0.7200576034507462,5.573245850748919,-3.225858063484912,1.123289861392023,-0.9216737324248607,0.374429953798387,-0.08896499999999996,0.008524000000000004,-0.04029499999999997,0.10670699999999989,0.230865,-0.014732999999999996,0.19567199999999985,0.22234099999999998,0.025561999999999974,0.5,0.7087796996012156,single,-0.014732999999999996
128,1.066667,stair_decsent,-0.02339812814974127,-0.8807295416366623,-0.19990400767937755,1.0837022881127014,-2.0500342735929564,-1.717287896040993,0.18430525557955005,-0.6232301415886686,-0.37532997360211134,0.02027837772979175,-0.01667866570674336,0.003119750419962838,-33.34872922450138,-43.68957005160323,-22.2010334119949,1.1636994600614923,3.220045722515198,0.005404535456501408,0.14370224373169174,-0.8493258568970079,0.35994067911775324,-0.08723400000000003,0.010669999999999999,-0.041757000000000044,0.10707099999999992,0.238066,-0.01304100000000008,0.19430499999999995,0.227396,0.028715999999999964,0.5,0.6687717657933789,single,-0.01304100000000008
129,1.075,stair_decsent,-0.10536421456860248,-1.2089283571342964,-0.4855394215768668,3.812359323663655,-0.7726311788259136,-5.837625250193902,0.16584663386535545,-0.6008640345613877,-0.3610944437777458,0.007920316812660515,-0.018600744029756647,0.0072002880115277276,-9.836323823216365,-39.38543327704753,-34.27762077252993,-2.2151232106317975,2.6840402048819305,1.708331912200369,-1.4830266311210067,-0.23065862510660082,0.48968409835172527,-0.08497399999999988,0.015737,-0.04071999999999998,0.10801499999999997,0.247985,-0.008935000000000026,0.19298899999999986,0.232248,0.03178499999999995,0.5,0.6463821045441595,single,-0.008935000000000026
130,1.083333,stair_decsent,0.6323052922116735,0.15960638425536716,-0.2618504740189582,0.9086738337305539,-0.7389088942716899,7.538618147307474,0.21084843393735483,-0.516260650426008,-0.36097443897755405,0.0,-0.019680787231495276,0.009600384015356725,88.52388176890233,164.23073819628462,26.843747456846835,5.4004320259208685,10.152812208733737,0.014401152069092881,-0.9504760365607077,-0.1296103686233781,0.28802304138112983,-0.08848599999999984,0.010105000000000003,-0.04154599999999997,0.102746,0.24649099999999996,-0.00667300000000004,0.19123199999999985,0.23638599999999999,0.03487299999999993,0.5,0.6147741570368135,single,-0.00667300000000004
131,1.091667,stair_decsent,0.8448524118070805,0.6941444684425376,0.022438204943597405,-2.029548168018456,-1.4640170306743931,11.951536898601569,0.14182865370770806,-0.5392368610511259,-0.2878569714422949,0.0009599232061444868,-0.01739860811134551,0.0043196544276501905,25.503614062324335,64.1394389473459,34.11191252250552,-8.281711090670518,-2.7569247210365173,8.77339423269265,0.11518157021172366,0.2738395872509972,-0.6336368595760301,-0.0943449999999999,-0.0001739999999999936,-0.04413199999999995,0.09571299999999994,0.24056100000000002,-0.006823999999999941,0.19005799999999984,0.24073500000000003,0.03730800000000001,0.5,0.5969991585481053,single,-0.006823999999999941
132,1.1,stair_decsent,-3.3264130565222088,-4.900276011040355,-0.07308292331692788,4.415340784374638,-7.660194447704769,-43.055340717983576,0.12252490099603033,-0.5232209288371447,-0.26857074282970395,-0.022560902436079642,0.079563182527296,-0.02496099843993548,-500.5718790746689,-671.3573118304087,-11.462993911019273,-2.316542987120771,1.9219887452275233,2.3144400111113166,-2.822611981546108,11.63588031184925,-3.513818896866093,-0.06560499999999991,0.0363,-0.04576099999999994,0.12324400000000013,0.282058,-0.0064229999999999565,0.18884900000000004,0.24575799999999998,0.039337999999999984,0.5,0.4626452165624464,flight,-0.0064229999999999565
133,1.108333,stair_decsent,0.07440297611905324,-0.4903396135845478,-0.19824792991719692,0.4011166310742526,-1.441923480139131,0.5070230850516719,0.08436337453496995,-0.5205808232329343,-0.25189007560303517,0.0008400336013282475,-0.02904116164646852,0.003960158406330258,408.11424848689467,529.2135362361511,-15.020401608096744,-4.579566357981608,0.31682534551906594,2.0017601376057756,2.8082246534751114,-13.033042622556763,3.4706776486578663,-0.06552200000000008,0.036048,-0.04620800000000003,0.12263099999999993,0.285902,-0.00473800000000002,0.18815300000000001,0.24985399999999997,0.04147000000000001,0.5,0.5364300597722524,single,-0.00473800000000002
134,1.116667,stair_decsent,0.09815214782817125,-0.41996640268778174,-0.1581473482121468,-0.17273938269620512,-1.2373022667665399,0.9061773198092378,0.0917926565874875,-0.4779217662586957,-0.23566114710822544,0.005999520038409543,-0.023158147348211814,0.002399808015361153,2.8496726312836373,8.444109778829558,4.811684869816393,0.8914425308996279,5.118677342721176,1.947315634126422,0.6190888453421234,0.7059052433713296,-0.18722706875079106,-0.06557499999999994,0.035565,-0.04685399999999995,0.12186300000000005,0.289209,-0.0033999999999999586,0.187438,0.253644,0.04345399999999999,0.5,0.5253887749472075,single,-0.0033999999999999586
135,1.125,stair_decsent,0.09768390735630623,-0.381255250210012,-0.19404776191047574,-0.028616767642372986,-0.8531479514052923,1.1449966023161582,-0.0349213968558795,-0.6865474618984827,-0.03300132005280544,0.003120124804975364,-0.017280691227646562,0.00108004320173249,-0.05619110426797292,4.645524118297143,-4.308221972678419,-15.206294664990779,-25.036084920171476,24.320152052732734,-0.34554124966209115,0.7053229473857321,-0.15837811275995142,-0.06668000000000007,0.033020999999999995,-0.045512,0.12107499999999982,0.292242,-0.0017739999999999423,0.1877549999999999,0.259221,0.043738000000000055,0.5,0.5332978448655901,single,-0.0017739999999999423
136,1.133333,stair_decsent,0.1346453858154153,-0.3123724948997988,-0.16584663386535545,-0.4470398211076962,-0.5526643255486533,1.6101609673891777,0.055082203288130495,-0.42289691587663886,-0.23748949957997972,-0.003120124804975364,-0.011520460818431041,0.002880115204611091,4.435554837286619,8.266261287677168,3.3842707362439155,10.800864051843371,31.639331095865387,-24.53956312578617,-0.7488599075903978,0.6912552993178415,0.21601728103667556,-0.06734299999999993,0.0321,-0.046108999999999956,0.11992700000000012,0.29474900000000004,-0.00036799999999992394,0.18727000000000005,0.262649,0.04574100000000003,0.5,0.5221265325614249,single,-0.00036799999999992394
137,1.141667,stair_decsent,0.10955123590114671,-0.2888168946484261,-0.26745860331172405,0.25994132242826484,-0.10089375928599585,1.5841588103373458,0.05015598752100147,-0.38696904247659875,-0.23818094552435798,-0.005399568034565924,-0.0044396448284148024,0.005159587233009827,-3.011057105143796,2.8264459144915444,-12.192460936689205,-0.5910986041671451,4.310999928010539,-0.08296687597531194,-0.27351130664633344,0.8496299484060698,0.27351476222686805,-0.06783800000000006,0.031282,-0.045865000000000045,0.11896899999999988,0.297119,0.0019039999999999058,0.18680699999999995,0.265837,0.04776899999999995,0.5,0.5078294458384309,single,0.0019039999999999058
138,1.15,stair_decsent,0.10500420016800278,-0.25237009480379446,-0.2794911796471915,0.20804081430818364,0.026353238175268832,1.6496032858197902,0.03420136805470674,-0.3706948277931153,-0.254170166806669,-0.002640105604220172,-0.008640345613826612,-0.0010800432017191667,-0.5456661146218609,4.3737909329931535,-1.4439669189328643,-1.9146309211922325,1.9529838813732863,-1.9187833052095467,0.33114873759099694,-0.5041042584197585,-0.7487856035916297,-0.06842800000000016,0.030295999999999997,-0.04565399999999997,0.11807199999999995,0.29914999999999997,0.0042240000000000055,0.1865000000000001,0.268854,0.04987799999999998,0.5,0.4860549613286399,flight,0.0042240000000000055
139,1.158333,stair_decsent,0.08580343213728653,-0.22152886115444226,-0.30997239889595063,0.21485795898763968,0.3759875357126514,1.4567058725536253,0.04620184807393172,-0.33349333973358314,-0.2646105844233738,-0.003840153606148019,-0.0026401056042201017,-0.0037201488059525624,-2.3041843310591528,3.7010960817654706,-3.6578926255560535,1.4401152069152485,4.4643571414294385,-1.2529002300137586,-0.14401152069216683,0.720057603456907,-0.31682534552182284,-0.0687580000000001,0.029363,-0.04527599999999998,0.1173249999999999,0.300974,0.006776000000000004,0.186083,0.27161100000000005,0.05205199999999999,0.5,0.49006179587278964,flight,0.006776000000000004
140,1.166667,stair_decsent,0.0633549316054562,-0.17302615790737072,-0.3052555795536404,-0.006151314606374831,0.704190871314236,1.147017252125479,0.04883609311255747,-0.2962562994960458,-0.2793376529877659,0.005159587233023286,-0.00719942404607699,-0.004559635229179651,-2.693604575453654,5.81985880094462,0.5659730432337783,0.31608411790566343,4.468087381514042,-1.7671068591783512,1.079882510099769,-0.5470744470670715,-0.10073031236226358,-0.06887899999999991,0.028336,-0.04505999999999999,0.11684000000000005,0.302356,0.009282000000000012,0.18571899999999997,0.27402000000000004,0.054342,0.5,0.4833965097014727,flight,0.009282000000000012
141,1.175,stair_decsent,0.047761910476432676,-0.1399255970238785,-0.3120124804992201,-0.09935960865657477,0.8902701922490518,1.033450607192706,0.033361334453377606,-0.2845313812552454,-0.2905316212648463,0.0043201728069031985,-0.006000240009599618,-0.011160446417857689,-1.8712373849781896,3.9722261950668,-0.8108605478914631,-1.8570453209143876,1.4070464707548545,-1.3433299264466771,-0.1007337604848281,0.14390784069090967,-0.7921290278024627,-0.06899900000000003,0.027131,-0.04488099999999995,0.11647799999999986,0.303472,0.01178900000000005,0.1854769999999999,0.276341,0.05667,0.5,0.47768767545975127,flight,0.01178900000000005
142,1.183333,stair_decsent,-0.021240849633996806,-0.13512540501620188,-0.32221288851553603,-0.12059841934529997,1.0982221515168622,0.2789849504450901,0.037801512060490594,-0.2366494659786415,-0.28705148205929226,0.0020400816032828434,-0.012360494419779273,-0.014040561622469076,-8.280662439749204,0.57604608276451,-1.2240979258749594,0.5328426265586258,5.746059675579544,0.4176334100028853,-0.2736218893100175,-0.7632610596639522,-0.34562764965935605,-0.06850699999999987,0.026285,-0.04458800000000007,0.11667200000000011,0.304495,0.014356999999999953,0.18517899999999998,0.27821,0.058945000000000025,0.5,0.46863826084029037,flight,0.014356999999999953
143,1.191667,stair_decsent,-0.0197984161267062,-0.1226301895848323,-0.32733381329494154,-0.23076362144661272,0.8806813931047337,0.24489475570895688,0.03287736981040117,-0.20218382529397483,-0.3196544276457859,0.0013198944084453037,-0.01823854091672478,-0.012838972882165517,0.17307817462090164,1.4993059072917552,-0.61446181658333,-0.5908498020265639,4.135546038476892,-3.912040507138634,-0.08641555013649319,-0.7053091549010634,0.14417911450726548,-0.06806800000000002,0.025622,-0.04452400000000001,0.11684800000000006,0.305365,0.01697800000000005,0.18491600000000008,0.279743,0.06150200000000006,0.5,0.4627610672410405,flight,0.01697800000000005
144,1.2,stair_decsent,-0.07800312012481043,-0.1477259090363628,-0.3823352934117426,0.03956631913972922,1.3207925595487022,-0.5901193282580331,0.08544341773671577,-0.2337693507740329,-0.1737669506780293,-0.0002400096003909192,-0.018000720028805997,-0.008880355214210869,-6.984843873527513,-3.011606798455625,-6.600441631681455,6.30817807828094,-3.790414674193972,17.507197524031913,-0.18719596889910442,0.028539648136179707,0.47505312227945323,-0.06670599999999993,0.024905,-0.04278599999999999,0.11749600000000004,0.306446,0.020090000000000052,0.18420199999999998,0.281541,0.06287600000000004,0.5,0.4665442151284258,flight,0.020090000000000052
145,1.208333,stair_decsent,-0.03780151206048959,-0.14112564502579855,-0.39217568702746675,0.23863738464672588,0.4640334329108338,-0.17750737036419417,0.040921636865464864,-0.1292451698067902,-0.36325453018120113,-0.005520220808831116,-0.000360014400573046,-0.007680307212296038,4.824385943156144,0.7920633638022468,-1.180894469665663,-5.3428274176467205,12.543403452206993,-22.73941911714491,-0.6336506910404541,2.1169693541620838,0.1440115206906048,-0.06604999999999994,0.025004,-0.042545000000000055,0.11776500000000012,0.307619,0.023293999999999926,0.18381500000000006,0.282615,0.06583899999999998,0.5,0.48422470575885274,flight,0.023293999999999926
146,1.216667,stair_decsent,0.013798896088323668,-0.12179025677946,-0.3824094072474336,0.22480751950676736,-0.04658084104219208,0.12343398039472708,0.041276697864186286,-0.1102711783057376,-0.3746100311975063,-0.012718982481394468,0.013678905687545616,-0.0011999040076739477,6.191553653565423,2.3200609846818963,1.1718598248180134,0.0426039115336488,2.2766968443788063,-1.362551117867217,-0.8637822981237687,1.6845356477224536,0.7775861776604529,-0.06582099999999991,0.0251,-0.04247999999999996,0.11754400000000009,0.308748,0.026471000000000022,0.183365,0.283648,0.06895099999999998,0.5,0.46880505980315884,flight,0.026471000000000022
147,1.225,stair_decsent,0.03792151686067172,-0.12972518900755797,-0.40429617184686145,0.46516201840424176,-0.41115215381960785,0.18945861108137366,0.021360854434178372,-0.10188407536301262,-0.4262570502820038,-0.009120364814588222,0.019920796831872863,-0.0014400576023055071,2.894830285893151,-0.9522299565700033,-2.6265168126037994,-2.3899968114733667,1.0064926128314926,-6.197890205747819,0.43185139407250484,0.7490568995952404,-0.02881958413915219,-0.06595899999999988,0.025332,-0.042663000000000006,0.11715200000000014,0.309995,0.029827999999999966,0.18311100000000002,0.284663,0.07249099999999997,0.5,0.463405640740307,flight,0.029827999999999966
148,1.233333,stair_decsent,0.017400696027848682,-0.14064562582503431,-0.40369614784592156,0.4988250339235341,-0.49223511064607545,-0.2774558702456741,0.036361454458171724,-0.07332293291731741,-0.41149645985839994,-0.007920316812687163,0.0135605424216939,0.002880115204611091,-2.4625970038189395,-1.3105048382907047,0.07200576034320139,1.8001440086395644,3.427474192451155,1.7713417045006565,0.14401152068895604,-0.763261059663869,0.5184414744889762,-0.065801,0.025893,-0.04272799999999999,0.11694099999999996,0.31128,0.03321600000000002,0.18274199999999996,0.285387,0.07594400000000001,0.5,0.473389914569862,flight,0.03321600000000002
149,1.241667,stair_decsent,-0.0002399808015427761,-0.14062874970002295,-0.3179745620350397,-0.04638184307713934,-1.2077362729966254,-0.4187867295358035,0.0197984161267062,-0.05195584353251693,-0.43196544276458126,-0.0019198464122889224,0.007799376049920417,-0.0008399328053730732,-2.116711882576353,0.002024973003523068,10.28576743591087,-1.9874056073272615,2.5638456185265563,-2.4560814622247618,0.7199988481399321,-0.6912846618398656,-0.4463700515939688,-0.06563399999999997,0.026632000000000003,-0.043677999999999995,0.116927,0.312517,0.035859000000000085,0.18256099999999997,0.285885,0.07953700000000008,0.5,0.48654002186187256,flight,0.035859000000000085
150,1.25,stair_decsent,0.01656066242649379,-0.1564862594503794,-0.30337213488539516,-0.008670495281277089,-1.7441740871435427,-0.2163795115006718,0.02256090243610689,-0.03156126245049823,-0.44149765990639883,0.003960158406330258,-0.0018000720028852628,-0.0036001440057705256,2.0161578336777533,-1.902977289134355,1.7523613524114583,0.33151161759278963,2.4474476277473762,-1.143911813490658,0.7056288033864436,-1.1519798455305132,-0.331238593591441,-0.06558399999999986,0.027673000000000003,-0.04482900000000001,0.11682199999999998,0.313806,0.038356999999999974,0.18240599999999985,0.28613299999999997,0.08318599999999998,0.5,0.49058899127482947,flight,0.038356999999999974
151,1.258333,stair_decsent,-0.11784471378855722,-0.20556822272891115,-0.29173166926676863,-0.18441022364443552,-1.308552577723391,-1.6000903251120562,0.03180127205087749,-0.07008280331213326,-0.4174966998679997,0.007920316812687163,-0.010800432017278268,-0.009240369614783925,-16.129290317418963,-5.890071196271716,1.3969117507052242,1.1088887093208546,-4.622769814188814,2.880230413824475,0.47523801828356427,-1.0800864051833778,-0.676854147247504,-0.06433699999999987,0.028802,-0.04587700000000006,0.11787000000000014,0.315429,0.04071099999999994,0.182207,0.28662699999999997,0.086588,0.5,0.4728806556950472,flight,0.04071099999999994
152,1.266667,stair_decsent,0.13510919126471968,0.1298296136309087,-0.7371010319174421,0.8163889969301505,3.4386274867035405,0.8170679737856239,0.04367650587953302,-0.07691384689224794,-0.39884809215262396,0.00851931845451544,-0.022078233741302626,-0.009359251259888514,30.352040443157545,40.24452080151395,-53.440048314215275,1.424914066313348,-0.8196596568412072,2.2376539135319895,0.07187444706362774,-1.353227948647021,-0.014264656240051372,-0.06509900000000002,0.027079,-0.04305800000000004,0.11681499999999989,0.31416299999999997,0.04677600000000004,0.1819139999999999,0.28708399999999995,0.08983400000000008,0.5,0.4575859438848273,flight,0.04677600000000004
153,1.275,stair_decsent,0.014280571222846672,-0.0847233889355582,-0.4190567622705007,0.06333686507592219,-0.2522016911193358,-0.507283153110472,0.0826833073322868,-0.0826833073322943,-0.3795751830073137,0.005880235209404319,-0.01764070562821962,-0.006720268810759212,-14.500014405601117,-25.747390203584406,38.16683903119457,4.681003414467076,-0.692362947323463,2.3128416111016974,-0.31670265751963833,0.5325246745569481,0.31669056151797986,-0.06452900000000006,0.027096,-0.042728999999999906,0.11674499999999988,0.314722,0.050212000000000034,0.18127399999999994,0.28762600000000005,0.09294099999999994,0.5,0.4670465954351923,flight,0.050212000000000034
154,1.283333,stair_decsent,0.036241449657988624,-0.0620424816992669,-0.4297371894875654,0.0848690827520657,-0.3329563722870896,-0.40052858350327936,0.03396135845434157,-0.02748109924396928,-0.4784591383655351,0.0031201248050019273,-0.013080523220931697,-0.003840153606148019,2.635410828650134,2.7218177410645508,-1.2817025341491066,-5.846867740062929,6.624529951796958,-11.86654930495856,-0.3312264975881847,0.5472437786256861,0.34562764965932347,-0.06454800000000005,0.027384,-0.043135000000000034,0.11646899999999993,0.31513,0.05376099999999995,0.18101699999999998,0.287746,0.09689599999999998,0.5,0.47669155814284986,flight,0.05376099999999995
155,1.291667,stair_decsent,0.008039356851430103,-0.06299496040316908,-0.41516678665707757,-0.060824221103302864,-0.406788576867645,-0.6672739870062743,0.021478281737452917,-0.14326853851692145,-0.38144948404127577,0.0022798176145898256,-0.005639548836095529,0.00011999040077139125,-3.383980418353618,-0.11428830140415218,1.7483084749805742,-1.4978493780764206,-13.893381242255144,11.640227300727284,-0.10082879654573046,0.8928454985404739,0.4751792664890191,-0.06443599999999994,0.026715,-0.04285399999999995,0.11642100000000011,0.315608,0.057221999999999995,0.18085700000000005,0.28889299999999996,0.10007599999999994,0.5,0.48985980534829915,flight,0.057221999999999995
156,1.3,stair_decsent,0.11352454098165089,-0.03216128645145739,-0.4383775351013985,0.16928992304673554,-1.0607086159497747,0.4710623878012727,0.04260170406817461,-0.052562102484098136,-0.4148565942637685,-0.006960278411149946,0.011640465618626191,0.0004800192007685024,12.658728444764064,3.7001888817606092,-2.785401229367636,2.5349120761696056,10.885207732247897,-4.009013587242545,-1.1088558773238462,2.0736846819538486,0.043205184207020866,-0.06502699999999995,0.026545,-0.042657999999999974,0.11541699999999988,0.315973,0.060879000000000016,0.18044399999999983,0.289428,0.10353699999999999,0.5,0.47738140306614407,flight,0.060879000000000016
157,1.308333,stair_decsent,0.17100684027361365,-0.025321012840513777,-0.4506180247209873,0.49041746550732446,-1.633159998327591,0.9573960159335537,0.01044041761669855,0.18072722908916528,-0.7548301932077374,-0.003600144005757202,0.016080643225731935,0.002640105604220172,6.898151841109239,0.8208656679399586,-1.4689175110511103,-3.8595087545273437,27.995839622376764,-40.798463811829116,0.4032322579374505,0.5328426265577565,0.25922073724369243,-0.06636500000000001,0.028262000000000002,-0.04519300000000004,0.1139619999999999,0.316318,0.06465599999999994,0.1803269999999999,0.28805600000000003,0.10984899999999997,0.5,0.4721852217029576,flight,0.06465599999999994
158,1.316667,stair_decsent,0.24586033117350034,-0.022918166546676114,-0.42572594192464225,0.34998940827984715,-1.9791530961124246,1.501370722467269,0.08963282937365581,0.005999520038396638,-0.45320374370050415,0.0014398848092300135,0.02231821454283208,0.0032397408207342263,8.981700371956578,0.28831848978133484,2.986810990682126,9.50232922449684,-20.965647834265337,36.19227855858303,0.6047550773922699,0.7484486821574392,0.07195046994409045,-0.06766699999999992,0.028503,-0.04542200000000007,0.11192500000000005,0.316695,0.06823099999999993,0.17959199999999997,0.288192,0.113653,0.5,0.46233658239568737,flight,0.06823099999999993
159,1.325,stair_decsent,0.11160446417857986,-0.027961118444738114,-0.48949957998321036,0.5875274534851881,-0.5622553371744446,-0.19990655655405307,0.09240369614783925,0.058442337693508435,-0.47341893675747176,0.003120124804975364,0.016680667226689247,0.0062402496099906975,-16.11134849333034,-0.6051784349048418,-7.653142692735953,0.3325173135945592,6.293389854207642,-2.425920203644282,0.20163686496404246,-0.6765327392467161,0.360075457729089,-0.06782700000000008,0.029223,-0.045287999999999995,0.11102099999999981,0.317067,0.07236200000000004,0.1788479999999999,0.287844,0.11765000000000003,0.5,0.46986509254106185,flight,0.07236200000000004
160,1.333333,stair_decsent,-0.34309372374896396,-0.05988239529581072,-0.5929437177486964,1.4814597655937662,1.4596363816588307,-5.115644119427016,0.09300372014880075,0.08664346573862808,-0.49165966638664893,0.009240369614797002,-0.0007200288011527536,0.00516020640825807,-54.5659651899119,-3.830706450386661,-12.413793083581446,0.0720057603457925,3.3842707362437476,-2.188975114505802,0.7344587555288048,-2.0881670500230043,-0.1296103686226579,-0.06419299999999994,0.030444,-0.04444400000000004,0.11395700000000009,0.31755999999999995,0.07734600000000003,0.17815000000000003,0.287116,0.12179000000000006,0.5,0.48231992629254455,flight,0.07734600000000003
161,1.341667,stair_decsent,-0.20158387329012908,0.07019438444924524,-0.23686105111591899,-2.0552350456669757,0.34447810526769357,-4.143906243796128,0.10991120710342384,0.12395008399328279,-0.5073194144468417,0.011039116870648276,-0.020038396928242847,0.0025197984161192868,16.979823669166976,15.607964932212436,42.72650187578404,2.028736135663956,4.476436075672597,-1.8790194456675147,0.2158324041098282,-2.3180187337521554,-0.31682361316760665,-0.061597000000000124,0.030892000000000003,-0.046697999999999906,0.11572899999999997,0.316808,0.079341,0.1773260000000001,0.285916,0.1260389999999999,0.5,0.46163954449365563,flight,0.079341
162,1.35,stair_decsent,0.2508100324012827,0.08508340333613211,-0.46645865834632255,0.24874024386208032,-1.8965491131815193,0.18571914968256234,0.11868474738990896,0.1694467778711119,-0.5157806312252429,0.0078003120124781715,-0.03936157446297722,0.006720268810759033,54.28944026057889,1.7867537365758566,-27.552814980247156,1.0528669490561586,5.459821658205725,-1.0153866288732776,-0.3886721298656003,-2.3188740591304495,0.5040766104211776,-0.06269799999999992,0.031595,-0.047108999999999956,0.11370400000000003,0.315771,0.08328400000000002,0.17640199999999995,0.284176,0.13039299999999998,0.5,0.43219020833190475,flight,0.08328400000000002
163,1.358333,stair_decsent,0.19620784831394072,0.1176047041881686,-0.4617784711388453,0.10582600240081914,-1.5357327536765597,-0.10071424024612789,0.1124444977799081,0.17436697467898868,-0.5101404056162299,0.008400336013442354,-0.04476179047162074,0.010920436817467067,-6.552524191448754,3.9027122107328434,0.561644930694504,-0.7488599075964137,0.5904472348346125,0.6768541472474567,0.07200576034611646,-0.6480518431109522,0.5040403224178653,-0.06339600000000001,0.032068,-0.047512,0.11213899999999999,0.314418,0.08722299999999994,0.175535,0.28235,0.13473499999999994,0.5,0.4219430501412892,flight,0.08722299999999994
164,1.366667,stair_decsent,0.11591072714183046,0.1244300455963513,-0.5352771778257757,0.8124313903617448,-0.8621526334084989,-0.7141653932976996,0.14146868250540343,0.19054475641948487,-0.5029997600191914,-0.0016798656107461464,-0.036357091432684834,0.006839452843782617,-9.634883749953163,0.8189754509458431,-8.819139271289874,3.4826235571748385,1.9411785145783622,0.8568089269304494,-1.2095274327079941,1.0084832060158195,-0.48967890252992785,-0.06318299999999999,0.032618999999999995,-0.047242999999999924,0.11115900000000001,0.31307799999999997,0.09174100000000007,0.174342,0.280459,0.138984,0.5,0.4382784442228852,flight,0.09174100000000007
165,1.375,stair_decsent,0.03792151686067273,0.1878075123004937,-0.5100204008160344,0.48474773268476584,-0.20963979483772957,-1.3724420521343166,0.15096603864154481,0.2347293891755691,-0.5373814952598265,-0.006600264010577076,-0.03936157446297828,0.006960278411136808,-9.35907959692289,7.6056002285062965,3.0309344785481223,1.139728325469996,5.302368025451173,-4.1259732678069545,-0.5904714268367904,-0.36055238573064574,0.014499648068425809,-0.06224099999999999,0.03301,-0.04747100000000004,0.11078799999999989,0.311185,0.09604900000000005,0.17302899999999988,0.278175,0.1435200000000001,0.5,0.4324775242198232,flight,0.09604900000000005
166,1.383333,stair_decsent,0.007320292811723187,0.19308772350894216,-0.5873034921396855,1.2588709884509137,0.3445261323329761,-1.7070145172237172,0.17148685947436884,0.281411256450261,-0.46465858634345636,-0.01680067202685806,-0.02412096483859457,0.0045601824072942325,-3.6722937776250837,0.6336506910414627,-9.274341932515515,2.4625970038190585,5.602048154889275,8.72709815389065,-1.2240979258707643,1.8289463127785726,-0.288023041382767,-0.06087300000000018,0.033746,-0.046449000000000074,0.11058699999999999,0.309375,0.10098099999999999,0.17146000000000017,0.275629,0.14743000000000006,0.5,0.4504218129032938,flight,0.10098099999999999
167,1.391667,stair_decsent,0.06731461483079042,0.2696184305255559,-0.53191744660427,0.6703791198259946,-0.18480507019284528,-1.026643304601278,0.16666666666667554,0.27501799856011294,-0.4364050875929894,-0.021598272138237055,-0.0034797216222703414,0.005759539236853446,7.198742742868583,9.1829502059771,6.645793800745748,-0.5783768667738499,-0.7671295764516443,3.3901486381649555,-0.575665960088668,2.4767510458752184,0.1439113066425731,-0.060044999999999904,0.033791,-0.045653000000000055,0.10984600000000011,0.307099,0.10546199999999994,0.16989100000000001,0.273308,0.151115,0.5,0.46229625298068666,flight,0.10546199999999994
168,1.4,stair_decsent,0.2913716548662089,0.30589223568943036,-0.3860554422176953,-0.9418347996851077,-1.21642362986801,1.2358885546088434,0.14388575543021254,0.2816512660506444,-0.29929197167886945,-0.018960758430349688,0.0021600864034583183,0.014880595223810647,26.887920321063305,4.353030740894611,17.504140692016804,-2.73381870112363,0.7960239398213738,16.454232078977704,0.3165143055187078,0.6768040352488554,1.0945705012549243,-0.06127400000000005,0.033589,-0.044930000000000025,0.10725999999999991,0.304568,0.10880299999999998,0.16853399999999996,0.270979,0.153733,0.5,0.45966775319165337,flight,0.10880299999999998
169,1.408333,stair_decsent,0.28669146765869824,0.3512540501620004,-0.044521780871235296,-4.75555983668949,0.3417050950266474,1.403400362269426,0.09660386415455785,0.12936517460698232,-0.08544341773670017,-0.021960878435115683,-0.004800192007678362,0.019920796831872863,-0.5616449306984994,5.443635482127594,40.98567878872603,-5.674053915235072,-18.275061975718156,25.662852987179352,-0.36002880172398205,-0.8352668200091874,0.6048483869029315,-0.06285800000000008,0.031740000000000004,-0.04527099999999995,0.10468800000000011,0.301601,0.10933999999999999,0.1675460000000002,0.269861,0.15461099999999994,0.6955504392933246,0.44994003120230963,single,0.10933999999999999
170,1.416667,stair_decsent,0.15082793376530929,0.32085433165347377,-0.10175185985120902,-4.52904969809528,1.6304658720334926,-0.09454445640999089,0.09671226301897046,0.14050875929925855,-0.1665466762659086,-0.02159827213823763,-0.01427885769138925,0.023998080153585528,-16.302319881616455,-3.6476744070706992,-6.8670601127879545,0.013006823183658346,1.3371231932177146,-9.731612494505637,0.04350927488337632,-1.1373488941337975,0.4892348598167437,-0.06330900000000006,0.030237,-0.045811000000000046,0.10325099999999998,0.29880799999999996,0.11038799999999993,0.16656000000000004,0.268571,0.15619899999999998,0.6026694329189943,0.44116220537721634,single,0.11038799999999993
171,1.425,stair_decsent,0.11700468018719921,0.27205088203527666,-0.388575543021723,-1.843193296154809,1.3373744870948097,-0.5031438248181547,0.1531261250450057,0.20712828513140144,-0.30805232209287664,-0.030601224048975372,-0.031201248049919347,0.03420136805473248,-4.058952787484637,-5.856648220112354,-34.42021878921265,6.76993424049373,7.9946628863724625,-16.981356753506006,-1.0803974451863174,-2.030768073746526,1.2244435258786477,-0.06300799999999995,0.029696,-0.04513999999999996,0.10202099999999992,0.296281,0.1139110000000001,0.16502899999999987,0.266585,0.15905100000000005,0.5,0.4075084633003367,flight,0.1139110000000001
172,1.433333,stair_decsent,-0.0739229569182714,0.2636505460218432,-0.35137405496219337,-1.7642639258519652,2.261302433177034,-2.3745269831914912,0.010200408016307632,0.15324612984519526,-0.3619344773791007,-0.04776191047640731,-0.032761310452421186,0.050642025681018395,-22.912232941974363,-1.008080644837821,4.464357141429251,-17.151772114328494,-6.466117279035963,-6.466117279038111,-2.059364745881686,-0.18721497689929828,1.9729578334676667,-0.06230700000000011,0.028776,-0.045228000000000046,0.10223899999999997,0.293811,0.11726099999999995,0.16454600000000008,0.26503499999999997,0.162489,0.5,0.37177365585296274,flight,0.11726099999999995
173,1.441667,stair_decsent,-0.1047516198704244,0.19474442044636295,-0.22906167506599892,-2.5941112065468737,3.310294205643526,-2.6304657018819086,0.12958963282936906,0.1459083273338124,-0.34065274778016597,-0.06731461483081706,-0.06707463402927429,0.0746340292776586,-3.6991436227685104,-8.26807362316771,14.676311482624612,14.325560932692646,-0.8804658640968084,2.553603263611063,-2.3461368315826263,-4.117269447666527,2.878810126786659,-0.06035400000000002,0.028369,-0.04615799999999992,0.10255100000000006,0.291629,0.11979200000000001,0.16290500000000008,0.26326,0.16594999999999993,0.5,0.2986124367585342,flight,0.11979200000000001
174,1.45,stair_decsent,0.27613104524182525,0.20892835713428723,-0.15732629305171764,-2.878382259562858,1.4543266096283562,1.5959180548567533,0.12432497299892552,0.15240609624385118,-0.19632785311413617,-0.08880355214208205,-0.09324372974919413,0.10284411376455112,45.70774812339531,1.702140488170456,8.608590185321246,-0.6317844510312716,0.7797634597430506,17.31968014712962,-2.578775628376957,-3.1404171030745336,3.3853455522492237,-0.06161900000000009,0.027898,-0.04648300000000005,0.09950999999999999,0.289111,0.12195999999999996,0.16112900000000008,0.261213,0.168443,0.5368317350636925,0.22534174898305104,single,0.12195999999999996
175,1.458333,stair_decsent,0.3820952838113548,0.2390495619824752,-0.17688707548301327,-2.5031540767497558,1.2487963872819225,2.8148808475447713,-0.04020160806431877,-0.10716428657146074,-0.03168126725068119,-0.11124444977800384,-0.10632425297011669,0.11856474258970018,12.716217277034408,3.6146891693492678,-2.347387787266926,-19.743979486768442,-31.149691925513906,19.758380638839807,-2.693015436928045,-1.5697255755337005,1.8865509210546965,-0.06513800000000014,0.025013,-0.04527300000000001,0.09539899999999979,0.28623299999999996,0.12442199999999992,0.16053699999999993,0.26122,0.16969499999999993,0.8020658337425157,0.1762297944468002,single,0.12442199999999992
176,1.466667,stair_decsent,0.35181185505159474,0.28113750899928536,-0.16882649388049842,-2.763092356858779,1.730813519134838,2.7810270687439664,0.012598992080636398,-0.030597552195825543,-0.08015358771298471,-0.14938804895607924,-0.1078713702903768,0.15034797216223703,-3.6337207535109988,5.05014963004691,0.9671924169084483,6.335565172180966,9.187273143224939,-5.816213158423859,-4.576865752108967,-0.18563922729303337,3.8136824541081658,-0.06796500000000005,0.022414999999999997,-0.04453399999999996,0.09122199999999991,0.282991,0.12708200000000003,0.15918699999999997,0.26057600000000003,0.171616,0.8554745079667091,0.10363619954318798,single,0.12708200000000003
177,1.475,stair_decsent,0.23964958598343833,0.22776911076442663,-0.1688467538701575,-2.5408136834716193,1.985232712446055,1.8063060642458841,0.055682227289092986,0.023160926437057756,-0.20568822752909677,-0.2643705748229829,-0.13716548661946298,0.10452418096723148,-13.460010688606078,-6.404463966741605,-0.0024312960109289876,5.170195032816013,6.451275486965361,-15.064759368307918,-13.798455042229884,-3.5154345768733557,-5.4990749063968245,-0.06949800000000006,0.020710000000000003,-0.04484099999999991,0.08702199999999993,0.27995,0.12936000000000003,0.15652,0.25923999999999997,0.17420099999999994,0.6427551963936023,0.0,single,0.12936000000000003
178,1.483333,stair_decsent,0.11736469458777539,0.18768750750030166,-0.14796591863673825,-2.4887286266421627,2.038943525365892,0.5304245192021775,0.06936277451097717,0.15900636025441162,-0.19764790591624626,-0.17328693147726076,-0.18192727709108739,0.16776671066842952,-14.674773958438024,-4.809984791086683,2.505800460028733,1.6417313358795516,16.302104142248304,0.9648771886296151,10.930474420463572,-5.371629721783849,7.589407140429451,-0.06989800000000002,0.020471000000000003,-0.045255000000000045,0.08460000000000001,0.27686999999999995,0.13199099999999997,0.15449800000000002,0.256399,0.17724600000000001,0.5616986329707552,0.0,single,0.13199099999999997
