frame_id,timestamp,gait_type,root_linear_velocity_x,root_linear_velocity_y,root_linear_velocity_z,root_angular_velocity_x,root_angular_velocity_y,root_angular_velocity_z,left_linear_velocity_x,left_linear_velocity_y,left_linear_velocity_z,right_linear_velocity_x,right_linear_velocity_y,right_linear_velocity_z,root_acceleration_x,root_acceleration_y,root_acceleration_z,left_acceleration_x,left_acceleration_y,left_acceleration_z,right_acceleration_x,right_acceleration_y,right_acceleration_z,left_pos_rel_x,left_pos_rel_y,left_pos_rel_z,right_pos_rel_x,right_pos_rel_y,right_pos_rel_z,step_length,step_width,step_height,left_contact_prob,right_contact_prob,support_type,max_foot_height
1,0.008333,stand,-0.03804152166085452,-0.02448097923916907,-0.05064202568103125,0.35512181143965893,-0.43020907690496785,-0.11459879594915506,-0.0009600384015370216,0.0036001440057605,-0.003360134405375412,0.0018000720028919079,-0.002880115204607734,0.0,0.0,0.0,0.0,0.0,0.0,0.0,0.0,0.0,0.0,-0.04429499999999997,-0.171052,-0.907318,-0.0023400000000000087,0.167742,-0.898983,0.041954999999999965,0.33879400000000004,0.008334999999999981,0.9916378475297547,0.9109893848961521,double,-0.898983
2,0.016667,stand,-0.03215742740579973,-0.0393568514518849,-0.09347252219822103,0.3093125533146552,-0.8595047503925626,-0.05699081744578468,0.0019198464122889367,0.003839692824574543,-0.0005999520038402927,-0.0005999520038436232,0.0002399808015361171,-0.0002399808015352845,0.706034827820349,-1.7849618685764135,-5.139248442187397,0.3455585329764768,0.028743558772983326,0.33119539255281005,-0.28797984242087005,0.37438157021164514,-0.02879539255282991,-0.04401100000000002,-0.170692,-0.906544,-0.0020770000000001065,0.168072,-0.8982060000000001,0.041933999999999916,0.338764,0.008337999999999957,0.9927756212030261,0.9154711793763367,double,-0.8982060000000001
3,0.025,stand,-0.015840633625347534,-0.027121084843394212,-0.0025201008040380123,-0.10362924655633544,0.08828155155268845,0.06697389016588089,0.0003600144005730523,0.003120124804991989,-0.002760110404415606,-0.0015600624025009907,0.002400096003839223,-0.0012000480019204443,1.9580935773973593,1.4683507270479648,10.914727156388217,-0.1871873288990621,-0.08635161641456308,-0.25922937724412737,-0.11521785655314623,0.2592241932441025,-0.11521267255312129,-0.043876000000000026,-0.17043999999999998,-0.906546,-0.0019580000000001263,0.16831800000000002,-0.898195,0.0419179999999999,0.338758,0.008350999999999997,0.9930312206927553,0.9113167862088942,double,-0.898195
4,0.033333,stand,-0.004800192007685108,-0.03360134405376078,0.03324132965318273,-0.11147726126118361,0.13450911096004348,0.05914768142085258,-0.0008400336013548863,0.0038401536061447553,-0.002040081603264505,0.0003600144005730523,0.003240129605184117,-0.0028801152046085666,1.3249059903591054,-0.7776622117324573,4.291543316599153,-0.14401152069218032,0.08640691241482854,0.0864069124146287,0.2304184331062094,0.10080806448396659,-0.20161612896773337,-0.043843000000000076,-0.170128,-0.90684,-0.001915000000000111,0.168625,-0.898496,0.041927999999999965,0.33875299999999997,0.008344000000000018,0.9926186479110136,0.9093098824111399,double,-0.898496
5,0.041667,stand,0.003719702423793163,-0.03803695704343626,0.0074394048476129696,-0.17955168565003318,-0.270542945791642,0.13671546959904524,0.001679865610746159,0.0037197024238064848,-0.0013198944084469788,-0.00023998080151613468,0.0022798176145897822,-0.0007199424046075187,1.0223055473336056,-0.5322309802826348,-3.0959832980045303,0.30236371635481696,-0.014452985641741118,0.08641555013409244,-0.07199366475752182,-0.11522822061367104,0.25920000000012566,-0.04386000000000001,-0.16978,-0.906913,-0.0019479999999998387,0.16896099999999997,-0.8985639999999999,0.04191200000000017,0.33874099999999996,0.00834900000000005,0.9928507467675737,0.9125053234952253,double,-0.8985639999999999
6,0.05,stand,0.0027601104044289292,-0.03168126725069007,0.037321492859721736,-0.2884780665039437,0.05809963068913931,0.17889044189838796,0.0,0.0026401056042234783,-0.0006000240009606385,-0.0003600144005730523,0.003120124804991989,-0.0025201008040321837,-0.11515564854965003,0.7627132836608888,3.5859940012131006,-0.20159193696701774,-0.12955680062198566,0.08638790441453742,-0.01440460807115296,0.10084089648412418,-0.21602764903692126,-0.043883000000000116,-0.169494,-0.9072290000000001,-0.0019739999999999203,0.16925099999999998,-0.898896,0.041909000000000196,0.33874499999999996,0.008333000000000035,0.9954876138354829,0.9099585468476497,double,-0.898896
7,0.058333,stand,0.0024000960038292308,-0.02676107044281783,0.05664226569063098,-0.4910745747470014,0.016697038252614187,0.213961651349222,-0.0014400576022922092,0.004440177607103728,-0.002880115204607734,-0.0012000480019279385,0.0025201008040346817,-0.0006000240009598058,-0.043203456210212224,0.5904472348340625,2.3185854831284343,-0.1728138248280582,0.21601728103687148,-0.27362188931322395,-0.10080806448516576,-0.0720057603452907,0.23041843310600957,-0.043914999999999926,-0.169234,-0.907725,-0.0020039999999998948,0.169495,-0.8993730000000001,0.04191100000000003,0.338729,0.008351999999999915,0.9908585184351226,0.9117216587649933,double,-0.8993730000000001
8,0.066667,stand,-0.007079433645285481,-0.026877849772018472,0.07679385649147755,-0.3424328193401837,-0.058591169705276516,0.26573003043201915,0.0029997600191914724,0.0025197984161275644,-0.0010799136069116943,-0.0019198464122889367,0.0017998560115175478,-0.0031197504199661917,-1.1374525616888302,-0.014012398512196222,2.4179974563050832,0.5327354957383826,-0.2304270687516395,0.21600691117063106,-0.08636889973134126,-0.08642246130515163,-0.3023429828421389,-0.043831000000000175,-0.168989,-0.908374,-0.0019610000000001016,0.169734,-0.900039,0.041870000000000074,0.338723,0.008334999999999981,0.9932270641461255,0.9098476036510298,double,-0.900039
9,0.075,stand,-0.013560542421700449,-0.0388815552622111,0.058322332893314156,-0.4784553117821765,0.20408087569017144,0.12880155073050975,-0.00012000480018213538,0.004320172806911604,-0.0002400096003842556,0.0006000240009639698,0.0008400336013448946,-0.0001200048001921278,-0.7777641637363463,-1.440502278914273,-2.2166714986395544,-0.37438675379498504,0.21605356903684642,0.10079251248379209,0.3023965454521671,-0.11518329655258058,0.3599838737278371,-0.04371900000000006,-0.168629,-0.9088620000000001,-0.001843000000000039,0.17006500000000002,-0.900526,0.041876000000000024,0.338694,0.00833600000000001,0.9927858359146895,0.9149078799076225,double,-0.900526
10,0.083333,stand,0.016920676827066675,-0.09624384975398974,0.08628345133805647,-0.7465927074901842,1.3515113642403205,0.2201390304277933,0.012480499219954623,-0.007680307212287839,0.013200528021121545,-0.0012000480019279376,0.0012000480019179452,-0.003600144005760497,3.6578926255570736,-6.883750689040992,3.355468432106359,1.5121209672551,-1.4401152069122085,1.6129290317419644,-0.21601728103827023,0.04320345620701432,-0.41763341000460413,-0.04375600000000013,-0.167891,-0.909471,-0.0019940000000000513,0.170877,-0.901275,0.04176200000000008,0.33876799999999996,0.008195999999999981,0.9671280295147124,0.9114064850786892,double,-0.901275
11,0.091667,stand,-0.03191744660428362,-0.03935685145188327,-0.014878809695225951,0.48497479031676893,0.5179540990906241,-0.08026824414366195,0.0019198464122889385,-0.0015598752099830972,0.0039596832253417725,-0.0011999040076872472,-0.00011999040076805865,-0.0008399328053755779,-5.860106003281777,6.8258937247548,-12.13850024397438,-1.267176962762862,0.7343930888294632,-1.1088126704799353,1.7277926648716487e-05,-0.15839193696736317,0.33119884813833944,-0.04347400000000001,-0.167576,-0.909314,-0.0017380000000000173,0.17120399999999997,-0.901158,0.041735999999999995,0.33877999999999997,0.008155999999999941,0.9922185919293072,0.9159907062007101,double,-0.901158
12,0.1,stand,-0.040201608064319445,-0.06480259210368562,-0.08664346573862952,-0.12561609043463634,-0.90419030546928,-0.15019328171820126,-0.0006000240009373224,0.0034801392055683693,0.0003600144005755501,-0.0010800432017191559,-0.0006000240009573072,-0.0009600384015361881,-0.9941391407699292,-3.0536110226571855,-8.612103209336794,-0.302396545448969,0.6048259229030916,-0.4319775380734692,0.014383872071053795,-0.05760633627616082,-0.014413248069195974,-0.04314399999999985,-0.167007,-0.908589,-0.0014119999999999688,0.17173900000000003,-0.900444,0.04173199999999988,0.338746,0.008144999999999958,0.9940836835642493,0.9159422147265198,double,-0.900444
13,0.108333,stand,-0.026281051242046008,-0.04644185767430682,0.027121084843387572,-0.6304702461322065,0.03425304484952266,0.10969183079166639,0.00012000480018213538,0.00324012960518412,-0.0016800672026881238,-0.0020400816032561803,-0.000600024000960639,-0.0026401056042234805,1.6705336400184145,2.2033762665761207,13.652292161528523,0.08640691241083143,-0.028802304138275493,-0.24481958517504807,-0.11520921655310515,-3.998393971277099e-13,-0.20161612896763395,-0.04292399999999996,-0.166593,-0.908829,-0.0012099999999999334,0.17212100000000002,-0.9006919999999999,0.04171400000000003,0.338714,0.00813700000000006,0.9939137069263966,0.9129799952430881,double,-0.9006919999999999
14,0.116667,stand,-0.01931845452364742,-0.04007679385649156,0.05687544996401308,-0.13138216686855075,0.504618709803982,0.049720335442697126,-0.0002399808015427777,0.002759779217662014,0.0008399328053755765,-0.003959683225335938,0.0016798656107494879,-0.014518838492920919,0.8354447706261797,0.7637465584131579,3.570238195419424,-0.04319481662165979,-0.05763743550781204,0.30237581090277155,-0.23033376794813482,0.2735648682157577,-1.4253339199300967,-0.04276499999999994,-0.166236,-0.9092960000000001,-0.0010819999999998053,0.17246899999999998,-0.9012870000000001,0.04168300000000014,0.338705,0.008009000000000044,0.9951754507312156,0.8946723676659291,double,-0.9012870000000001
15,0.125,stand,-0.029041161646448294,-0.026281051242049342,0.0027601104044156083,-0.16651673160117714,-0.1648759906756298,0.029028696715526416,0.001320052802110075,0.0021600864034566347,-0.002160086403455802,-0.0012000480019279396,0.0008400336013448946,-0.0006000240009598062,-1.1667715255971298,1.6555553359465052,-6.494100511172149,0.18721152089917845,-0.07196601634529937,-0.3600167057279948,0.33116947358790355,-0.10078387248345062,1.6703245520174155,-0.042512000000000105,-0.165999,-0.9093370000000001,-0.0008500000000000174,0.172695,-0.9013150000000001,0.04166200000000009,0.338694,0.008021999999999974,0.9944536082947881,0.917141713276866,double,-0.9013150000000001
16,0.133333,stand,-0.02868114724590184,-0.019560782431296813,0.0024000960038292286,-0.09198752190918862,-0.16829456883477803,0.03638736474870395,-0.00180007200286526,0.001680067202688121,-0.0006000240009598053,-0.0024000960038558753,0.0014400576023055312,-0.0018000720028802486,0.043203456203822405,0.8064645158709376,-0.04320345620861387,-0.3744299537951917,-0.05760460827655266,0.1872149768985954,-0.14401152069217985,0.07200576034569016,-0.14401152069128062,-0.04228799999999988,-0.165822,-0.909362,-0.0006310000000000482,0.17287000000000002,-0.90135,0.04165699999999983,0.338692,0.008012000000000019,0.9957760886271741,0.914333608294767,double,-0.90135
17,0.141667,stand,-0.025437964962788513,-0.023638108951284282,0.017398608111358543,0.02185642627433263,0.8199813303794737,0.009988047189839028,0.0004799616030589138,0.0007199424046066879,0.0008399328053755793,-0.002279817614589788,0.002759779217662023,-0.001439884809215041,0.3891507419142472,-0.48924004319504183,1.7996774787052254,0.27358214613921034,-0.11520575930902752,0.1727809942807041,0.01443225213175998,0.1583539255287371,0.04321900571936747,-0.04207200000000011,-0.16561900000000002,-0.9095,-0.0004380000000001605,0.17309000000000002,-0.9015070000000001,0.04163399999999995,0.33870900000000004,0.007992999999999917,0.9979901856609323,0.9136393403764462,double,-0.9015070000000001
18,0.15,stand,-0.047761910476433474,-0.005760230409215463,0.01572062882515206,0.06035386380149554,0.03592045474941119,-0.024248942652155537,-0.003480139205575031,0.0006000240009606379,-0.0003600144005763828,-0.002040081603256177,0.002640105604223476,-0.0006000240009606379,-2.6789806208622275,2.1454312422979487,-0.20136556896753632,-0.47523110628032417,-0.014390784068888739,-0.14399942469122298,0.02876947213891886,-0.014361408068948355,0.10078732848366762,-0.041703000000000046,-0.165566,-0.909634,-5.699999999997374e-05,0.17315999999999998,-0.901643,0.04164600000000007,0.33872599999999997,0.007991000000000081,0.9940836835642316,0.9144399952430882,double,-0.901643
19,0.158333,stand,-0.04212168486739348,-0.019200768030722095,-0.009480379215174748,-0.08124217621219691,-0.0911786162073194,-0.0856996390404354,-0.0021600864034383117,-0.0008400336013448932,0.0006000240009598053,-0.00252010080403801,0.008640345613823194,0.0025201008040321815,0.6768541472506884,-1.6129290317420644,-3.024241934516595,0.15841267276331672,-0.1728138248296568,0.11520921655300459,-0.05760460827815108,0.7200576034561038,0.37442995379728994,-0.04136999999999991,-0.165413,-0.90955,0.0002729999999999677,0.173392,-0.901543,0.041642999999999875,0.338805,0.008006999999999986,0.9960098529254915,0.9043524709159395,double,-0.901543
20,0.166667,stand,-0.03323734101270223,-0.02807775377969737,-0.031077513798883842,0.10232760966657255,-0.08341820917481067,-0.09645467514343783,-0.0027597792176753356,0.0015598752099830946,-0.0019198464122864374,-0.0025197984161059147,0.004919606431487066,-0.0032397408207342476,1.0660359796845744,-1.0651530776308213,-2.5914488341383572,-0.07195738111795337,0.287966020077752,-0.30236026076868733,3.628364915952752e-05,-0.44645298564148367,-0.6911257049155777,-0.04111600000000015,-0.165166,-0.9093070000000001,0.0005290000000000017,0.17366700000000002,-0.9013110000000001,0.041645000000000154,0.338833,0.007996000000000003,0.9938231160661073,0.9093619029884026,double,-0.9013110000000001
21,0.175,stand,-0.05604224168966715,-0.03288131525260976,-0.08856354254170386,0.05701066031381995,-0.44174694499463707,-0.13181184786860733,-0.002520100804038019,0.001320052802113408,0.000120004800192128,-0.002640105604246801,0.003960158406336893,-0.00036001440057555127,-2.7366975491377623,-0.5764504347668791,-6.898599393114144,0.02876256013888364,-0.028779840137967982,0.24479193717491549,-0.014437440074509356,-0.11513836855276312,0.3455809936587908,-0.040670000000000206,-0.164881,-0.908568,0.0009739999999998084,0.17397400000000002,-0.900576,0.041644000000000014,0.338855,0.007991999999999999,0.995254285964347,0.9121248090718006,double,-0.900576
22,0.183333,stand,-0.056522260890448796,0.004200168006719469,0.025321012840508944,0.048725363081110855,-0.33781941553935607,0.08305490326427543,-0.0037201488059393014,-0.0007200288011527656,-0.0006000240009606379,-0.0019200768030740415,0.005040201608062698,-0.0007200288011519328,-0.05760460827812865,4.449955989359078,13.666693313598069,-0.14401152068898135,-0.24481958517534763,-0.08640691241482842,0.08640691241722774,0.1296103686218413,-0.043203456207414045,-0.04022999999999999,-0.164922,-0.908784,0.0014289999999999026,0.173981,-0.900793,0.04165899999999989,0.338903,0.007991000000000081,0.993605997294654,0.9110210100013978,double,-0.900793
23,0.191667,stand,-0.04067674586034184,-0.005039596832253459,-0.011279097672190834,-0.056567423066773974,0.04922730969913977,0.06729573662283617,-0.0027597792176753356,0.0009599232061444676,0.0008399328053755765,-0.0008399328053597571,0.004079673626110657,-0.00035997120230417536,1.901309698836926,-1.108683086029868,-4.391661928569683,0.11523513178113329,0.2015781146264977,0.1727809942808031,0.1296069111728202,-0.1152541375032445,0.04320345558528403,-0.039914000000000005,-0.164872,-0.9086829999999999,0.0017610000000001236,0.17405700000000002,-0.900702,0.04167500000000013,0.338929,0.007980999999999905,0.9949328615873252,0.9132220568793799,double,-0.900702
24,0.2,stand,-0.04968198727948087,-0.004560182407295853,0.018120724828994614,0.149199314962345,0.12521329250946472,0.11852151769729326,-0.006360254410159447,0.004440177607103725,-0.0072002880115201616,-0.00252010080403801,0.003360134405376242,0.001320052802111738,-1.0806721971845705,0.05753203227620378,3.528119824935248,-0.43207430607033587,0.41764723400447074,-0.9648650926311929,-0.20162822497038901,-0.08634816041454632,0.20161094496770815,-0.03955299999999995,-0.164797,-0.908894,0.0021539999999999893,0.174123,-0.9008419999999999,0.04170699999999994,0.33892,0.008052000000000059,0.9823607003797534,0.9121421319541351,double,-0.9008419999999999
25,0.208333,stand,-0.043441737669503704,-0.009000360014401272,0.008760350414015352,-0.006366745854397201,-0.012335178787056257,0.02222639553461106,-0.006840273610941304,0.00444017760710374,-0.004320172806912445,-0.002280091203647101,0.0024000960038392293,-0.0006000240009598073,0.7488599075935659,-0.532842626557714,-1.12328986139197,-0.05760460827815403,1.7694887250453494e-15,0.34562764965891324,0.028802304139074725,-0.11520921655310394,-0.23041843310591026,-0.03924799999999995,-0.164685,-0.909003,0.0024969999999999715,0.17421799999999998,-0.9009199999999999,0.04174499999999992,0.338903,0.008083000000000062,0.9846188776113243,0.9135626373979477,double,-0.9009199999999999
26,0.216667,stand,-0.03623710103192035,-0.003839692824572875,0.028077753779705696,-0.29774281743150827,0.20827305328226045,0.08090659290501533,-0.00227981761458978,0.00011999040076805845,0.0002399808015361169,-0.0013198944084453126,0.0029997600191981307,0.00035997120230417536,0.8644872375309992,0.6192305243374602,2.317902971645107,0.5472109426867674,-0.5183809942807387,0.5471746590411035,0.11521439827235272,0.07195392552902578,0.11519020917494381,-0.038964999999999916,-0.16465200000000002,-0.909235,0.0027880000000000127,0.17427499999999999,-0.901151,0.04175299999999993,0.338927,0.00808399999999998,0.9961740807795976,0.9136649869354333,double,-0.901151
27,0.225,stand,-0.039001560062391506,-0.0076803072122895045,-0.0002400096003909168,-0.03706273420903317,0.2967186513427894,0.10110870217417618,-0.017520700828030644,0.0028801152046077313,-0.016800672026881208,-0.0002400096003909168,0.0,0.004920196807872235,-0.3317483535906822,-0.4608921622124837,-3.398267536313043,-1.8289791447786934,0.33122822558978404,-2.0449601378155897,0.1295913606209522,-0.3599856017278445,0.5472489626266718,-0.03878599999999999,-0.164564,-0.909373,0.003110999999999864,0.174339,-0.901108,0.04189699999999985,0.338903,0.008264999999999967,0.9592592000279001,0.909139921296142,double,-0.901108
28,0.233333,stand,-0.034441377655123964,-0.003960158406335215,0.024360974438985248,0.07973685029810818,0.2859661981764747,0.11379047732407344,-0.011160446417871197,-0.0006000240009589726,-0.0078003120124808,-0.00252010080403801,0.003360134405376242,-0.0008400336013440605,0.5472437786232495,0.44643571414308014,2.9522361741721044,0.7632610596615195,-0.4176334100044043,1.0800864051842556,-0.2736218893132235,0.40323225793546613,-0.6912552993179276,-0.03859199999999996,-0.16453600000000002,-0.909641,0.0033769999999999634,0.1744,-0.9013180000000001,0.04196899999999992,0.338936,0.00832299999999997,0.9772843384582872,0.9096310871244493,double,-0.9013180000000001
29,0.241667,stand,-0.022918166546655946,0.03047756179505531,-0.013918886489081505,0.015192847106191435,0.6457637978857692,0.25989844270238693,-0.005399568034565979,-0.0005999520038402942,-0.0019198464122864437,-0.002639788816890634,0.003599712023038435,0.0010799136069108645,1.3826747190386424,4.132195848498993,-4.593215854099693,0.6912501059881487,8.638963124351967e-06,0.7055994240693988,-0.014361412629304527,0.028747014358314567,0.2303752349717938,-0.0384460000000002,-0.164795,-0.909541,0.003545999999999827,0.174176,-0.901193,0.04199200000000003,0.338971,0.008348000000000022,0.9903966025089515,0.9088655486725081,double,-0.901193
30,0.25,stand,-0.0356414256570519,-0.0008400336013432277,0.010680427217089363,0.023492267101828775,-0.007647500844156875,0.07605916335664284,-0.0024000960038292286,0.001680067202688121,0.0007200288011519328,-0.0034801392055483845,0.0031201248049919864,0.0009600384015361881,-1.5268521673342068,-3.7582617780389427,2.9520357261695485,0.35995104173007897,0.27361324931338216,0.31679769752050574,-0.10084608048214928,-0.05755276827630483,-0.01438560006896392,-0.0381689999999999,-0.164774,-0.909624,0.003814000000000206,0.174209,-0.901274,0.041983000000000104,0.338983,0.008349999999999969,0.9949718768390975,0.908547323752146,double,-0.901274
31,0.258333,stand,-0.04632185287411478,0.003000120004799869,-0.005520220808831226,0.008887253475652975,-0.13290223597996936,0.14307921787514802,-0.002880115204611072,0.0025201008040330224,-0.002640105604224318,-0.002640105604246801,0.003480139205568381,-0.0006000240009598073,-1.281702534148914,0.46083686621182124,-1.9441555293316488,-0.05760460827815247,0.10080806448396777,-0.4032322579354685,0.10080806447876943,0.04320345620741576,-0.18721497689859584,-0.037806999999999924,-0.16477799999999998,-0.9096000000000001,0.004178000000000015,0.174213,-0.9012330000000001,0.04198499999999994,0.338991,0.008367000000000013,0.9922511417945437,0.9089812368211005,double,-0.9012330000000001
32,0.266667,stand,-0.03647708183343648,-0.0028797696184300722,-0.015598752099840938,-0.014439661015057803,0.20491706226777642,0.0890536563716744,-0.0027597792176486924,0.0015598752099830946,0.000959923206143635,-0.00299976001919147,0.004679625629950949,0.00191984641228727,1.1812780226395831,-0.7055303123626032,-1.2093270087604633,0.014439163302421332,-0.11521785385768261,0.4319688997321754,-0.04315507738716931,0.1439268567773658,0.3023602607687875,-0.03752599999999995,-0.164741,-0.909462,0.004456999999999933,0.174276,-0.901087,0.04198299999999988,0.339017,0.008375000000000021,0.9944795721375115,0.90644874349665,double,-0.901087
33,0.275,stand,-0.04860194407776155,0.005040201608064346,-0.015120604824188042,0.023408380649382804,-0.00017639930177642686,0.09758863721855325,-0.002640105604246783,0.00036001440057471616,0.0003600144005755489,-0.002400096003829221,0.0034801392055683576,0.0008400336013440577,-1.4550416709858414,0.9504345645619087,0.0573799682770784,0.01436140806455165,-0.14398905669127246,-0.07199193634562386,0.07196256034588347,-0.143944128691058,-0.12958272062200982,-0.03714300000000015,-0.16478,-0.9093330000000001,0.004842000000000013,0.174263,-0.900954,0.04198500000000016,0.339043,0.008379000000000025,0.9955187494494597,0.9090263986575291,double,-0.900954
34,0.283333,stand,-0.0327613104524143,-0.006720268810752506,-0.03060122404896266,-0.05726824911370369,0.13601150407182896,0.043425278230315105,-0.002280091203647101,0.000480019200768512,-0.00048001920076767927,-0.002520100804038019,0.0024000960038392293,0.0007200288011519352,1.9009520731245992,-1.4113129027741367,-1.8577486169176356,0.04320345621021035,0.014401152069338308,-0.10080806448376697,-0.014401152071138646,-0.12961036862224062,-0.014401152069137498,-0.03688900000000017,-0.16472,-0.9090820000000001,0.005093999999999932,0.174339,-0.900693,0.041983000000000104,0.339059,0.00838900000000009,0.9960349958795169,0.9101869259190465,double,-0.900693
35,0.291667,stand,-0.0574754019678567,0.013438924886009224,0.0014398848092167015,0.15757019106703732,-0.5030179906064529,0.23039778703467936,-0.001559875209961447,0.0007199424046083507,-0.0004799616030722338,-0.00299976001919147,0.0037197024238064817,0.001679865610751153,-2.9654537455534404,2.418909730832939,3.844625492942084,0.08641900572182067,0.02878848138227004,6.911170559811274e-06,-0.05755450145829744,0.1583401031878151,0.11517120345562958,-0.03642299999999987,-0.164826,-0.9090980000000001,0.005548000000000108,0.174258,-0.900691,0.04197099999999998,0.339084,0.008407000000000053,0.9970270240886402,0.9074879269981644,double,-0.900691
36,0.3,stand,-0.05496219848794799,-0.004080163206529021,0.02604104164166846,0.18142894389753164,0.8043510310328637,0.3070343352300065,-0.001080043201745806,0.00048001920076684655,0.0014400576023047033,-0.002400096003855883,0.003600144005760509,-0.000240009600384256,0.3015964814483037,-2.102374666091238,2.952256910170625,0.05758214427164793,-0.02879193613842611,0.23041152110607727,0.07196256034268435,-0.014347584068879541,-0.23039424110589388,-0.03597399999999995,-0.164788,-0.9093030000000001,0.005986000000000047,0.174322,-0.9009100000000001,0.04196,0.33911,0.008392999999999984,0.9968950408623651,0.9088475230668007,double,-0.9009100000000001
37,0.308333,stand,-0.029161166446656932,-0.008280331213248449,-0.02772110884436473,-0.22965087075823862,0.20101520378104532,0.10542617418841531,-0.0015600624025009842,0.0010800432017291448,-0.0010800432017283122,-0.0027601104044022713,0.0038401536061447392,0.0021600864034566243,3.0962476948627087,-0.504040322419226,-6.451716126969035,-0.057604608274952146,0.07200576034588933,-0.3024241934516987,-0.043203456203814564,0.02880230413827306,0.28802304138255974,-0.035744,-0.16471,-0.9090809999999999,0.006206000000000156,0.174423,-0.9006609999999999,0.041950000000000154,0.339133,0.008419999999999983,0.9963611733671958,0.9071347817823088,double,-0.9006609999999999
38,0.316667,stand,-0.03215742740579992,0.005879529637629908,0.0035997120230484383,0.054114178165239765,0.058525504898161426,0.12574871564258155,-0.00035997120230084735,0.0007199424046066903,0.0010799136069117006,-0.0010799136069291853,0.0016798656107494992,0.0014398848092150459,-0.35952255329289673,1.6990473783151474,3.758197848261741,0.14399942407009161,-0.043208638963577704,0.2591740831101542,0.20160748709780363,-0.259213822341643,-0.08641727792675576,-0.03547900000000004,-0.164753,-0.9091020000000001,0.006464999999999943,0.174388,-0.900679,0.04194399999999998,0.339141,0.00842300000000007,0.9977551851531252,0.9116666713605436,double,-0.900679
39,0.325,stand,-0.041281651266038465,0.022560902436096597,0.002520100804024679,-0.03966733576032877,-0.3639119663398303,0.1926538788598825,-0.0003600144005730508,0.002040081603264497,-0.0015600624024959882,-0.0019200768030473887,0.0022800912036504166,-0.0001200048001921272,-1.0949506612550715,2.0018448096083787,-0.12955852862399556,-5.18400002441181e-06,0.15842304076056657,-0.31680979352066213,-0.10082361647884314,0.07202995234620363,-0.18719424089849593,-0.035138000000000114,-0.16492400000000002,-0.9091359999999999,0.006793000000000049,0.174219,-0.900701,0.04193100000000016,0.33914300000000003,0.00843499999999997,0.9956777905546277,0.9106778799573596,double,-0.900701
40,0.333333,stand,-0.028921156846292855,0.005280211208448636,-0.005520220808831226,0.04589148108241002,-0.009303200433830469,0.1101116983143763,0.001440057602318859,0.000720028801152768,0.002640105604223485,-0.0013200528021367235,0.003120124804991997,0.0009600384015361912,1.4833186631160014,-2.0737658979536784,-0.9648771886302562,0.21601728103827125,-0.15841267276031828,0.5040403224192348,0.0720057603396936,0.10080806448356923,0.12961036862214342,-0.03488499999999983,-0.164962,-0.909068,0.0070230000000000015,0.174201,-0.900647,0.041907999999999834,0.339163,0.008421000000000012,0.9948461543554734,0.9099212049477342,double,-0.900647
41,0.341667,stand,-0.023998080153585045,0.005159587233021518,-0.005759539236853484,-0.025929115722855972,-0.15261528877923808,0.09464745226902227,-0.0013198944084453126,0.0011999040076789193,-0.0009599232061428024,-0.0017998560115042247,0.003359731221502306,0.0019198464122864374,0.590721945369307,-0.014473719153721825,-0.028715914089543756,-0.33116774787187053,0.05758041834967012,-0.43196889973197544,-0.057571779381749545,0.02875046994364158,0.11516774787019982,-0.03469599999999984,-0.164995,-0.9090280000000001,0.007208000000000103,0.174186,-0.900583,0.04190399999999994,0.339181,0.008445000000000036,0.9966238814862575,0.9084372013263933,double,-0.900583
42,0.35,stand,-0.019800792031677804,0.004200168006719483,-0.009120364814601727,-0.030025379505692264,-0.14198357367831468,0.09489227041197681,-0.00012000480020878201,0.0020400816032645104,0.0010800432017274866,-0.000960038401537024,0.0021600864034549733,-0.0012000480019196146,0.5036947224177669,-0.11513491255274658,-0.4033152019378677,0.14399251268889157,0.10082534448405055,0.24480576117488229,0.10078214448184361,-0.14396313669114794,-0.37440230579695905,-0.03453200000000001,-0.165013,-0.908943,0.007365000000000066,0.17416900000000002,-0.900517,0.04189700000000007,0.339182,0.008425999999999934,0.9961475738461006,0.9113216788602809,double,-0.900517
43,0.358333,stand,-0.01740069602784845,0.0034801392055683576,-0.006360254410172749,-0.06270045735975878,0.02724491700670178,0.10725928973558244,-0.00012000480018213478,0.000840033601343225,0.0,-0.0016800672026831191,0.0033601344053762307,0.0031201248049919765,0.28802304138117657,-0.0864069124146313,0.3312264975913796,3.1977946525562443e-12,-0.1440115206913813,-0.12961036862204273,-0.08640691241402762,0.14401152069137793,0.5184414744883683,-0.03438799999999986,-0.165035,-0.90889,0.007496000000000169,0.174168,-0.900438,0.04188400000000003,0.33920300000000003,0.008452000000000015,0.9985857298668253,0.9073408784553909,double,-0.900438
44,0.366667,stand,-0.025797936165089273,0.003959683225342598,0.015118790496755382,0.1645590229792167,0.21142082003537094,0.15054149322909918,-0.00035997120230084497,0.0017998560115192117,-0.0004799616030714012,-0.0008399328053864003,0.0021598272138217216,-0.0011999040076789193,-1.0075882094121449,0.057540679118579324,2.577279206494854,-0.02879366476106431,0.11516947566306523,-0.05759078510575963,0.10080806303056372,-0.1440253409592642,-0.5183619885614221,-0.034175999999999984,-0.165053,-0.9090199999999999,0.007703999999999933,0.174153,-0.900574,0.04187999999999992,0.339206,0.008445999999999954,0.9968379753018084,0.9111906353149846,double,-0.900574
45,0.375,stand,-0.019920796831886585,0.010560422416895606,-0.007200288011514356,-0.10792168553047353,0.034764209493443596,0.13909054706697827,-0.001080043201745806,0.000240009600384256,0.0006000240009598073,0.000960038401537024,0.003120124804991997,0.0016800672026881264,0.7052849313815795,0.792120387801875,-2.6783965568546493,-0.08641209641725223,-0.1871890568984711,0.12960345662201023,0.21600518503821298,0.11524032055325543,0.3456103696588327,-0.03401900000000002,-0.16513899999999998,-0.908955,0.007878000000000052,0.174091,-0.9005,0.04189700000000007,0.33923,0.00845499999999999,0.9979022983955703,0.9093309318209614,double,-0.9005
46,0.383333,stand,-0.017280691227639786,0.0018000720028802544,-0.003600144005757178,0.0045836185702816485,-0.18693863137134742,0.054606452572412166,0.0002400096003909176,0.000720028801152768,0.000240009600384256,-0.0008400336013548883,0.00180007200288192,-0.0009600384015361912,0.31682534552343755,-1.0512841010458867,0.4320345620733454,0.15841267276331775,0.057604608276552643,-0.043203456207314556,-0.21601728103827153,-0.15841267276012003,-0.3168253455207397,-0.03387300000000004,-0.165148,-0.908923,0.008014999999999883,0.174091,-0.900478,0.041887999999999925,0.339239,0.008445000000000036,0.9986732970157338,0.9118728976537267,double,-0.900478
47,0.391667,stand,-0.017038636909057638,0.008279337652987707,-0.005279577633794572,-0.04016701638472348,-0.21128320668084485,0.08776097304008978,-0.0002399808015427777,0.0007199424046066855,-0.0008399328053755765,0.0008399328053864003,0.0019198464122856048,0.00035997120230334275,0.029044194694282276,0.7774496820383304,-0.20151591409135977,-0.057594240692787964,-1.0366756189402684e-05,-0.1295827220734139,0.2015798424215607,0.014371779386091273,0.15838848138223335,-0.03373300000000001,-0.165211,-0.908886,0.00816400000000006,0.174038,-0.900431,0.04189700000000007,0.339249,0.00845499999999999,0.9981133547052108,0.9119062744687039,double,-0.900431
48,0.4,stand,-0.019200768030713706,0.0066002640105603345,-0.000120004800195458,0.04612579094608155,-0.12122873331927343,0.07668511381521238,-0.00012000480018213478,0.0013200528021117337,0.0014400576023038609,-0.0003600144005730508,0.0015600624024976536,-0.00048001920076767607,-0.25946611324325686,-0.20149689696716253,0.61917350697217,0.014397696071119934,0.07201612834573932,0.2736097933132639,-0.1439994246921212,-0.04317580820688224,-0.10080288048374118,-0.03357399999999999,-0.16525499999999999,-0.9088729999999999,0.008321000000000023,0.173996,-0.900434,0.041895000000000016,0.339251,0.008438999999999974,0.9967379682326709,0.9128242109129985,double,-0.900434
49,0.408333,stand,-0.015600624024956655,0.0205208208328339,0.021720868834751852,-0.04004821243717605,-0.13765794579472815,0.16309543888055142,-0.00012000480018213558,0.000360014400576384,0.0006000240009598073,0.0007200288011461063,0.002760110404415613,0.0019200768030723824,0.4320345620733301,1.6705336400184327,2.621009676580747,-9.595573049418714e-17,-0.11520921655290438,-0.10080806448386603,0.12961036862104403,0.14401152069098314,0.28802304138246304,-0.03344499999999995,-0.165423,-0.909049,0.008456999999999937,0.173848,-0.9005989999999999,0.041901999999999884,0.339271,0.008450000000000069,0.9988167367128513,0.9097691512532948,double,-0.9005989999999999
50,0.416667,stand,-0.01367890568753868,0.01187904967602613,-0.013318934485237835,-0.024930470133358914,0.04461273590180649,0.10699874672724122,0.00023998080151613449,0.001679865610751153,-0.0002399808015352843,-0.0004799616030589122,0.0010799136069125261,-0.0002399808015361169,0.23058775346987917,-1.0369295844501756,-4.204440043195303,0.04319481661846289,0.1583694756629191,-0.10079251289837902,-0.14398732951824064,-0.2016074871014021,-0.25918617765880697,-0.033329000000000164,-0.165508,-0.90894,0.008566999999999991,0.17375800000000002,-0.90049,0.041896000000000155,0.339266,0.008449999999999958,0.9971436571360167,0.9134901856609298,double,-0.90049
51,0.425,stand,-0.009960398415943292,0.003360134405376253,0.01116044641785791,-0.0009826148854326516,0.2817324660561466,0.0932424008916464,-0.0015600624024743482,0.000480019200768512,0.0019200768030715497,0.00048001920075518877,0.002040081603262845,-0.0007200288011519352,0.4462387221403333,-1.022310724906984,2.937643214100061,-0.21601382503185976,-0.14398732869106493,0.2592172812440705,0.1152023045498744,0.11522476855278067,-0.0576080642764694,-0.03325899999999993,-0.165532,-0.909017,0.00865399999999994,0.17374699999999998,-0.900589,0.04191299999999987,0.339279,0.008427999999999991,0.9957998319933028,0.9120266152020908,double,-0.900589
52,0.433333,stand,-0.01320052802112733,0.0042001680067194555,-0.0002400096003775928,-0.019582510648359343,0.048903749586457226,0.0720999039077567,-0.00012000480020878121,0.0019200768030723696,0.0004800192007685088,-0.0034801392055750194,-0.014520580823234068,-0.055562222488899936,-0.3888311058663176,0.10080806448376325,-1.3681094465661172,0.17281382482486032,0.17281382482945537,-0.17281382482935737,-0.4752380182803542,-1.9873589855390426,-6.581326495589557,-0.03315000000000001,-0.165551,-0.909011,0.008734999999999937,0.173591,-0.90105,0.04188499999999995,0.339142,0.007960999999999996,0.9966953254846455,0.8245006076391446,double,-0.90105
53,0.441667,stand,-0.014398848092140466,0.004199664026878744,0.005399568034552675,0.07205236806530554,-0.02961899607751652,0.05647656069964483,0.00011999040078471127,0.001079913606910868,0.0004799616030714044,-0.00023998080151613608,0.0023998080153611848,-0.0004799616030714044,-0.14378690556913157,-6.0472743065974446e-05,0.6766951805771898,0.028797120349591292,-0.10081151861789134,-6.911170758867925e-06,0.3887879054546319,2.0302842378924106,6.60934255889475,-0.033028999999999975,-0.165577,-0.909052,0.008853,0.173576,-0.901099,0.041881999999999975,0.33915300000000004,0.007952999999999988,0.9980202593919246,0.91637154756981,double,-0.901099
54,0.45,stand,-0.018960758430349434,0.01692067682707328,0.03204128165126798,-0.1199742227676056,-0.08116491618819097,0.06809216329917148,0.0013200528021100684,0.0004800192007685088,0.0002400096003842544,-0.000720028801172748,-0.0007200288011527632,-0.009600384015360184,-0.5474511386306191,1.526582599327311,3.1971335193465973,0.1440132486889898,-0.07199020834541663,-0.028795392138143406,-0.05760806428136444,-0.3743953937974241,-1.094494469253419,-0.03285999999999989,-0.165714,-0.909317,0.00900499999999993,0.173429,-0.901446,0.04186499999999982,0.339143,0.007871000000000072,0.9976250365840585,0.9051996080954268,double,-0.901446
55,0.458333,stand,-0.018120724828994673,0.017880715228608752,-0.011280451218053369,-0.178865427049914,-0.4713271539063811,0.10074474720271796,0.0016800672026831304,0.0006000240009589745,-0.0018000720028802544,0.003960158406356878,0.001440057602302205,0.01884075363014494,0.10080806448515105,0.11520921655291898,-5.198815896954454,0.04320345620701583,0.014401152068938683,-0.24481958517514865,0.5616449307007846,0.2592207372440866,3.413073040382239,-0.03269499999999992,-0.165858,-0.909238,0.009189000000000114,0.173292,-0.901195,0.04188400000000003,0.33915,0.008043000000000022,0.9957760886271623,0.8873929456387005,double,-0.901195
56,0.466667,stand,-0.0027597792176486924,0.005399568034557635,-0.010439164866804433,0.14299928354343797,-0.13118572108924403,0.06595403747984428,0.0017998560115042247,-0.0005999520038386271,-0.0008399328053755765,0.0025197984161059147,0.00011999040076805845,0.015718742500599837,1.8431660200799094,-1.497617853857824,0.1009462864469565,0.014373507177957066,-0.14398560172757385,0.1152074871015931,-0.172829372480317,-0.15839539255269322,-0.3746113666360813,-0.03265700000000016,-0.165908,-0.909158,0.009232999999999825,0.17324799999999999,-0.900977,0.04188999999999998,0.339156,0.008180999999999994,0.9965419533505958,0.8916568630893865,double,-0.900977
57,0.475,stand,-0.007920316812687109,0.007200288011519352,0.015480619224761195,-0.19498456527269384,-0.034039061034258106,-0.004870993461122261,0.001080043201745806,0.000360014400576384,0.0,0.0022800912036737473,0.002880115204611072,0.007800312012480826,-0.6192892829759304,0.2160950410370481,3.1104985109283203,-0.08638099241070689,0.11520057655286373,0.10079596848380878,-0.028766016132505456,0.33122822559018605,-0.9502496685610261,-0.03258199999999989,-0.16596499999999997,-0.909287,0.00931800000000016,0.17321200000000003,-0.901041,0.04190000000000005,0.339177,0.008245999999999976,0.998102557506171,0.9031700132431675,double,-0.901041
58,0.483333,stand,-0.00552022080883119,0.006840273610944588,0.006720268810759123,0.007480847076178638,-0.0344264568769971,0.021406708743842692,0.0007200288011461016,0.0006000240009589705,-0.0009600384015361848,-0.0032401296051841034,-0.0027601104044189255,-0.04152166086643438,0.28802304138436446,-0.043203456207219784,-1.0512841010442862,-0.04320345621021276,0.028802304138075788,-0.11520921655300381,-0.6624529951827466,-0.6768541472494868,-5.918873500409816,-0.03252999999999995,-0.166017,-0.909351,0.00933700000000015,0.173132,-0.901443,0.0418670000000001,0.339149,0.007908000000000026,0.9977638425762092,0.8513545837356792,double,-0.901443
59,0.491667,stand,-0.0023998080153478474,0.0,0.004079673626107326,0.0802528480870723,0.14234584153703964,-0.035810665535322514,0.0002399808015427777,0.0004799616030722338,0.00035997120230417536,0.0032397408207342476,0.0022798176145931107,0.01799856011519045,0.3744195816514686,-0.8207671719395946,-0.3168460744722575,-0.05760115186024999,-0.014406335239589226,0.15838848138233247,0.777522249330255,0.6047429828428162,7.141855169381422,-0.03250799999999998,-0.166013,-0.909382,0.009384000000000059,0.173151,-0.901327,0.04189200000000004,0.339164,0.008055000000000034,0.9989230531943123,0.8887343843930293,double,-0.901327
60,0.5,stand,-0.00816032641305138,0.012000480019201142,0.00480019200768512,-0.02158199285430456,-0.01416494903441933,0.03797919637890254,0.00048001920075518877,0.0019200768030723824,-0.000360014400576384,0.001320052802110077,-0.000240009600384256,0.015960638425537202,-0.6912898593187984,1.440115206912417,0.08646566441591208,0.028805760135894837,0.17282073682949145,-0.08640172841480392,-0.23037177710598528,-0.30239136145174283,-0.24456038517379747,-0.03243600000000013,-0.166097,-0.909425,0.009463,0.173049,-0.9012340000000001,0.04189900000000013,0.339146,0.008190999999999948,0.9966472549673553,0.8913951126951156,double,-0.9012340000000001
61,0.508333,stand,0.014520580823210751,0.0003600144005763816,0.01728069122763967,-0.04079204636739366,-0.12381653708513247,-0.007235562709952399,0.0014400576023188495,0.0010800432017274793,-0.00024000960038342167,0.0004800192007551856,0.0037201488059526123,0.006000240009600531,2.721817741061087,-1.3969117507049935,1.4977198151871471,0.11520921655630106,-0.10080806448396731,0.014401152069238187,-0.10080806448516597,0.47523801828115353,-1.195295621737265,-0.032544999999999824,-0.166091,-0.9095709999999999,0.009346000000000076,0.173077,-0.9013279999999999,0.0418909999999999,0.339168,0.008243,0.9969733297430866,0.905776309862151,double,-0.9013279999999999
62,0.516667,stand,-0.00035997120230084735,0.0064794816414685385,0.006239500839939081,-0.06526297422259454,0.2010664363758186,-0.03670852254745186,-0.0017998560115308798,0.001559875209983105,0.0013198944084469866,0.00035997120230084735,0.004439644828411532,0.007679385649147466,-1.7855234011893069,0.7342773267209254,-1.324836859575312,-0.3887585329793314,0.057575234971877665,0.18717350717907572,-0.014404607445924995,0.08633261608578395,0.20148135823697444,-0.03255699999999995,-0.166132,-0.909612,0.009352000000000027,0.17306,-0.901316,0.041908999999999974,0.339192,0.00829599999999997,0.9954616407815607,0.9022438866385967,double,-0.901316
63,0.525,stand,-0.009000360014379562,0.013200528021120669,-0.0006000240009639668,-0.03857573608647184,0.21896572401654216,0.006308094727592111,0.002400096003829221,0.0014400576023038609,-0.00048001920076767607,-0.0034801392055750194,-0.007560302412094021,-0.04656186247449872,-1.0368881329747606,0.8065578278713671,-0.82077581194084,0.5040144024193067,-0.014378688069031993,-0.2159982730366801,-0.46083168221239057,-1.4400512709114968,-6.509210143243245,-0.03246200000000021,-0.16623,-0.909611,0.009397999999999795,0.172887,-0.901699,0.04186000000000001,0.339117,0.007911999999999919,0.99526694685141,0.8420469031267355,double,-0.901699
64,0.533333,stand,-0.0002400096003909192,0.004200168006721177,0.007800312012478379,0.12376384507385181,0.08084194678227775,-0.05605075383822214,-0.0009600384015103839,0.0024000960038409107,-0.0002400096003842576,0.000840033601354894,0.0019200768030707299,0.002880115204608593,1.0512841010426885,-1.080086405184156,1.0080806448388842,-0.4032322579310735,0.11520921655310916,0.028802304138176006,0.518441474490574,1.1376910134603189,5.933274652479031,-0.03246799999999994,-0.166245,-0.909678,0.009406999999999943,0.172868,-0.90174,0.041874999999999885,0.339113,0.007938,0.9956731653960738,0.9146834337054823,double,-0.90174
65,0.541667,stand,-0.004079673626120621,0.009839212862970736,-0.011159107271419371,-0.06088499284440679,0.13419179787141258,-0.021168356804727555,0.0010799136069025276,0.0003599712023041729,0.0002399808015361153,-0.0002399808015427761,0.0013198944084486341,-0.0017998560115191995,-0.46072282526153985,0.676631252249762,-2.2749483182022567,0.24477465903682458,-0.24479539255300245,0.05759424069118901,-0.1295913610388363,-0.07201612606456577,-0.5615516218055864,-0.032424999999999926,-0.166324,-0.9095829999999999,0.009438999999999975,0.172797,-0.901662,0.0418639999999999,0.339121,0.007920999999999956,0.9980610831703933,0.9170486419218696,double,-0.901662
66,0.55,stand,-0.0018000720028652538,0.007440297611903559,-0.0033601344053662383,0.03516790758080419,0.10286348616114221,-0.0317803589180766,0.0007200288011461016,-0.0001200048001921272,0.0006000240009598033,-0.0006000240009639668,0.001200048001917941,0.0001200048001921272,0.2735631373161356,-0.2878813453818753,0.9359141804935919,-0.04318790420693923,-0.05759942427652683,0.043206912207330674,-0.04320691220703098,-0.014382144069445886,0.23039251310588246,-0.0324040000000001,-0.166387,-0.9095500000000001,0.009448999999999819,0.17274499999999998,-0.901633,0.04185299999999992,0.339132,0.007917000000000063,0.9984251354306226,0.9185849157645665,double,-0.901633
67,0.558333,stand,-0.0020400816032828434,0.00780031201248171,-0.005640225609026723,0.0268135171399635,0.07328778532960886,-0.04588640640070121,-0.0010800432017191667,0.0018000720028802666,-0.0002400096003842576,0.000840033601354894,0.001680067202689803,0.0033601344053762754,-0.0288023041422767,0.04320345620762682,-0.2736218893148332,-0.21601728103507556,0.2304184331060136,-0.10080806448386759,0.17281382483125812,0.05760460827695504,0.38883110586633596,-0.03239599999999987,-0.166437,-0.909505,0.009473000000000065,0.17269400000000001,-0.901558,0.041868999999999934,0.339131,0.007947000000000037,0.9964784957675062,0.9141141373925522,double,-0.901558
68,0.566667,stand,-0.0029997600191914503,0.010079193664505185,-0.0020398368130603107,0.07823612788954884,0.06555693111559786,-0.027631891651847502,0.0021598272138050553,0.001319894408446969,0.0003599712023041729,-0.0016798656107461464,0.002639788816893938,-0.0002399808015361153,-0.1151521977332133,0.2734439227289966,0.4320120945484023,0.38875334959493607,-0.0576167019958356,0.0719919369676537,-0.3023637163548141,0.1151573811140062,-0.43197926648816454,-0.032353000000000076,-0.16651,-0.909485,0.009484000000000048,0.172632,-0.901543,0.041837000000000124,0.339142,0.007942000000000005,0.9957388857386338,0.9153497396885815,double,-0.901543
69,0.575,stand,-0.001320052802110086,0.010080403216128827,0.0002400096003909192,0.06559755853885728,0.02559885754500246,-0.03502384037649138,0.0,0.0010800432017274938,0.0006000240009598112,0.002040081603256197,0.0007200288011527728,0.0016800672026881377,0.20157292896692425,0.00014515200091697503,0.27359251331468265,-0.25918963324193867,-0.028783296138182816,0.028807488138202386,0.44641152214117097,-0.23038041710562615,0.2304149771059967,-0.03234200000000009,-0.16658499999999998,-0.909482,0.009511999999999965,0.172554,-0.9015310000000001,0.04185400000000006,0.339139,0.00795099999999993,0.9979407916034677,0.9159247325051044,double,-0.9015310000000001
70,0.583333,stand,-0.002160086403464951,0.009480379215169721,-0.009120364814601666,0.0559754980262024,-0.003996950515743116,-0.03569992152380197,-0.0008400336013282363,0.002640105604225133,0.00048001920076767607,-0.002640105604220137,0.003000120004799849,-0.0013200528021117337,-0.10080806448516279,-0.07200576034550617,-1.1232898613935611,-0.10080806448196722,0.18721497689879185,-0.014401152069138924,-0.5616449306943855,0.27362188931322057,-0.36002880172805224,-0.03233099999999989,-0.166642,-0.9094019999999999,0.009508000000000072,0.1725,-0.901466,0.04183899999999996,0.339142,0.007935999999999943,0.9953136627409721,0.9136254482512347,double,-0.901466
71,0.591667,stand,0.0005999520038436186,0.010559155267577417,-0.009959203263732133,-0.010046022400635176,-0.04336817909553801,-0.017798362666112247,0.002039836813046989,0.0014398848092150266,-0.001319894408446969,0.000479961603058909,0.0008399328053764035,0.0025197984161267127,0.33117811462785557,0.1294427708672532,-0.10065256169072001,0.34555680518060994,-0.1440149742032754,-0.2159723553173304,0.3743781146243127,-0.2592017277925881,0.4607452865656848,-0.03231899999999999,-0.16671799999999998,-0.90933,0.009506999999999932,0.17241900000000002,-0.901362,0.04182599999999992,0.339137,0.007967999999999975,0.9952929356467823,0.9158214711306321,double,-0.901362
72,0.6,stand,0.013560542421700562,0.004920196807872285,-0.0072002880115277276,0.04200433736826938,-0.042734619321811156,-0.07573239993979658,0.0004800192007818384,0.0018000720028802666,0.0006000240009598112,-0.0007200288011461112,0.002400096003839245,0.0,1.555333063465386,-0.676702083247952,0.3310830735874752,-0.1871856008958556,0.04322419220751749,0.23039942510581995,-0.14400460868895132,0.18722707289845864,-0.30238790545142635,-0.0324279999999999,-0.166744,-0.909265,0.009387999999999952,0.172398,-0.9013019999999999,0.04181599999999985,0.339142,0.007963000000000053,0.9967379682326636,0.9161937103448539,double,-0.9013019999999999
73,0.608333,stand,0.07992319692788344,0.00912036481459334,-0.020760830433214687,0.20234948322982044,0.3719753406317799,-0.5029518279503881,-0.0003600144005730508,0.003000120004799849,-0.0037201488059517797,0.000240009600390916,0.000600024000960636,0.0010800432017274793,7.963837094225681,0.5040403224194213,-1.6273301838097807,-0.10080806448516569,0.14401152069117695,-0.5184414744883683,0.11520921655310491,-0.21601728103667364,0.12961036862204187,-0.03309699999999993,-0.166795,-0.909123,0.008723999999999954,0.172327,-0.9011199999999999,0.041820999999999886,0.33912200000000003,0.008003000000000093,0.9920121902685257,0.9178722983955938,double,-0.9011199999999999
74,0.616667,stand,0.0045596352291795905,0.02423806095512299,0.021118310535165108,0.13608880652926897,0.022710093310225367,0.0038811941555321437,0.002039836813047016,-0.0005999520038402962,0.00311975041996621,-0.0007199424046016947,0.0017998560115175582,0.00035997120230417775,-9.042903971526792,1.8139784185900811,5.025094908612915,0.28795910890569726,-0.43197408311017105,0.820722249330217,-0.11518502579705019,0.14396832380092742,-0.08640172779257327,-0.03311799999999998,-0.16700199999999998,-0.909273,0.008680000000000021,0.17214000000000002,-0.901293,0.041798,0.339142,0.007979999999999987,0.9937076502989624,0.9169139275407716,double,-0.901293
75,0.625,stand,0.004800192007685088,0.014040561622465558,-0.0009600384015370176,-0.0029657701588818447,-0.04127710733151726,0.0014162550253000881,0.0019200768030740352,0.0004800192007685088,-0.0006000240009598033,0.0,0.0010800432017291448,0.0007200288011519304,0.028867968139385133,-1.2237488698736816,-2.6495078527183527,-0.014371776067800372,0.12960172862220096,-0.4463907861425654,0.08639654441397956,-0.08638099241430582,0.04320864020733844,-0.033142000000000005,-0.167115,-0.90927,0.008639999999999981,0.17203200000000002,-0.901279,0.041781999999999986,0.339147,0.00799099999999997,0.9965531245370556,0.9179265826980282,double,-0.901279
76,0.633333,stand,0.004800192007685088,0.009840393615744437,-0.006480259210368207,0.03240614904170353,-0.025910517737412358,-0.007279938226300114,-0.0014400576023188495,0.0031201248049919765,-0.0038401536061447392,0.0,0.0026401056042234675,-0.0001200048001921272,0.0,-0.5040403224194292,-0.662452995179547,-0.403232257937462,0.3168253455206356,-0.38883110586642533,0.0,0.18721497689839386,-0.10080806448386585,-0.03319400000000017,-0.16717100000000001,-0.9092480000000001,0.008599999999999941,0.171972,-0.9012260000000001,0.04179400000000011,0.339143,0.008021999999999974,0.9914112922302484,0.9153752807021203,double,-0.9012260000000001
77,0.641667,stand,0.003959683225335964,0.028077753779697557,-0.0058795296376382335,0.024736762630492896,-0.1157575017062487,0.07171721117493923,0.0016798656107461687,0.0013198944084469866,0.0014398848092158783,-0.0008399328053864059,0.0011999040076805924,-0.0005999520038394636,-0.10085298564304403,2.188308155021985,0.0720817821850224,0.3743608367008682,-0.21601036675605953,0.6335539255292354,-0.10078387393645437,-0.17281036675580552,-0.05758905731309565,-0.03321300000000016,-0.167394,-0.909187,0.008559999999999901,0.171748,-0.9011819999999999,0.04177300000000006,0.339142,0.00800500000000004,0.9957061613963767,0.9173120298459468,double,-0.9011819999999999
78,0.65,stand,0.006960278411123393,0.005520220808832855,-0.015000600023992583,0.01991401040620555,0.032557547486003,-0.03183263074231253,-0.0013200528021100684,0.002040081603264497,-0.0007200288011527632,0.000480019200781832,-0.0001200048001921272,-0.0002400096003842544,0.36008582572751907,-2.707012236993233,-1.0945722292516875,-0.360004609727136,0.08642592041491748,-0.25920000124428566,0.15840057676325842,-0.1583953927604361,0.04319481620727322,-0.033282000000000034,-0.167423,-0.909068,0.008506000000000125,0.171701,-0.901059,0.04178800000000016,0.339124,0.008008999999999933,0.9957760886271574,0.9189934481989165,double,-0.901059
79,0.658333,stand,0.00624024961000402,0.015240609624385369,0.004920196807867288,-0.00042670541910518625,0.02723051962772504,-0.0036682435384778993,0.0025201008040380353,-0.0001200048001921288,-0.00036001440057555366,0.0006000240009639748,0.001320052802110086,0.0014400576023038802,-0.0864069124108219,1.1664933175990164,2.390591243472945,0.46083686621242514,-0.25922073724428724,0.04320345620751384,0.01440115206793998,0.17281382482926033,0.2016161289677367,-0.03331300000000015,-0.167551,-0.909112,0.008458999999999994,0.171585,-0.901088,0.04177200000000014,0.339136,0.008024000000000031,0.9957524779827907,0.9163539864862746,double,-0.901088
80,0.666667,stand,0.012958963282936905,0.01139908807295382,0.0005999520038436186,0.0888660188102264,0.052114110675580194,0.007924122934725497,-0.0005999520038436186,0.0022798176145914302,-0.0009599232061436286,0.00011999040075806644,0.0008399328053764035,0.0007199424046083459,0.8061811462602393,-0.4609457105149411,-0.5183879054504003,-0.3743763868348488,0.28795565332175915,-0.07198329800432811,-0.0575994240707829,-0.05760979082477547,-0.08640691117056981,-0.03342600000000018,-0.167627,-0.909125,0.008351999999999915,0.171497,-0.901087,0.04177800000000009,0.339124,0.00803799999999999,0.9957576986969825,0.9177654246669275,double,-0.901087
81,0.675,stand,0.0075603024120873595,0.019800792031681003,-0.002640105604220137,0.08600686910311481,0.14063012681631484,0.01416504457429984,-0.0009600384015370176,0.002040081603264497,0.0012000480019204393,0.0,0.001200048001921272,0.0008400336013440577,-0.6478652191107072,1.0082448048394512,-0.38882246586628366,-0.043212096207055975,-0.028769472138117397,0.2592069132442168,-0.01439942406793063,0.04321555220747233,0.014411520069088123,-0.03349700000000011,-0.167775,-0.909093,0.00828899999999999,0.171342,-0.901058,0.0417860000000001,0.339117,0.008035000000000014,0.9957430703920558,0.9172085912205004,double,-0.901058
82,0.683333,stand,0.008400336013442354,0.014040561622465746,0.0057602304092088585,-0.01116578756240429,0.03275600450571129,0.02408767840268083,0.0020400816032828434,0.0012000480019196224,-0.0007200288011527728,0.00012000480018213638,0.0010800432017258282,0.00024000960038342487,0.10080806448517972,-0.6912552993178098,1.008080644837282,0.3600288017304558,-0.10080806448396522,-0.2304184331061118,0.014401152067939215,-0.014401152069536158,-0.07200576034569042,-0.03354999999999997,-0.167882,-0.909147,0.008219999999999894,0.171234,-0.901104,0.04176999999999986,0.339116,0.008043000000000022,0.9958767294435344,0.9177152021089908,double,-0.901104
83,0.691667,stand,0.008639308855273508,0.011279097672185762,-0.00011999040077138805,-0.011155188975840889,0.02003762822007972,0.013925986815700241,-0.00035997120230084253,0.000959923206142796,0.0005999520038402883,0.0007199424046016851,0.0009599232061444612,-0.0011999040076789112,0.02867444706397313,-0.33134916610030746,-0.7055700515934967,-0.2879832980061996,-0.02881267047958059,0.15838502579710234,0.07198675359005809,-0.014413246410051131,-0.1727758109026068,-0.033624999999999794,-0.167968,-0.909141,0.008153999999999995,0.171148,-0.9011129999999999,0.04177899999999979,0.339116,0.008028000000000035,0.9980202593919283,0.9168917991313272,double,-0.9011129999999999
84,0.7,stand,0.05364214568583827,0.025441017640706325,0.047641905676238494,-0.3685980697511411,-0.9581608423987948,0.2290200163762051,0.001320052802110086,0.0014400576023038802,0.0,0.000360014400599702,0.0007200288011527728,0.00024000960038342487,5.400556441925498,1.6994983761575293,5.731656795513059,0.20161094496711193,0.057618432276621695,-0.07199712034564908,-0.043193088203766515,-0.028788480138208405,0.1727965448292751,-0.0340609999999999,-0.168168,-0.9095380000000001,0.007710000000000106,0.17094199999999998,-0.9015080000000001,0.041771,0.33911,0.008029999999999982,0.9967441056450084,0.9182999439977424,double,-0.9015080000000001
85,0.708333,stand,0.019800792031677672,0.07140285611424407,0.023040921636861774,-0.05005805280976836,-0.05324046015271675,0.21197061760969366,-0.0009600384015370176,0.0025201008040330055,0.0008400336013440577,0.0004800192007551856,0.000600024000960636,0.0010800432017283122,-4.061124883494594,5.515641242474206,-2.9522361741721608,-0.27362188931322384,0.12961036862223937,0.10080806448386585,0.01440115206474056,-0.014401152069139118,0.10080806448396541,-0.034233999999999876,-0.168742,-0.9097230000000001,0.007549000000000028,0.170352,-0.901691,0.041782999999999904,0.339094,0.008032000000000039,0.9952923707764534,0.9174708394301467,double,-0.901691
86,0.716667,stand,0.01319894408447968,0.009479241660666562,-0.0026397888168906074,0.017587200520439134,0.07294825673197593,-0.0011132669128613697,0.002039836813046989,0.0004799616030722306,0.0015598752099830842,0.0,0.0007199424046050155,-0.0007199424046075133,-0.7921583809932734,-7.430239315284022,-3.081438739351114,0.35995622925173787,-0.24479712034566345,0.08637408311003371,-0.057597696274919834,0.014389057312740415,-0.21598099428075493,-0.034326999999999996,-0.168817,-0.909688,0.007438999999999973,0.17027899999999999,-0.901675,0.04176599999999997,0.33909599999999995,0.008013000000000048,0.9956460401053865,0.9181730794787972,double,-0.901675
87,0.725,stand,0.012240489619590475,0.00960038401536031,0.002640105604220172,0.1116898140415631,0.05056755122115262,-0.026847292440236994,0.0003600144005730556,0.0036001440057588678,-0.0012000480019204553,0.0010800432017191667,0.0003600144005763864,0.0019200768030723952,-0.11501913655216789,0.014537664069812656,0.6336126750403009,-0.2015867529669925,0.3744368657970317,-0.33120403358977135,0.12961036862104602,-0.043193088206964166,0.3168149775206927,-0.03442600000000007,-0.168867,-0.90972,0.007345999999999853,0.170202,-0.9016810000000001,0.04177199999999992,0.339069,0.008038999999999907,0.993646793802047,0.9158896361379045,double,-0.9016810000000001
88,0.733333,stand,0.006960278411123393,0.009840393615744437,-0.009120364814588344,0.09284870881971839,-0.04715484045063187,-0.0030711780568061643,0.000480019200781832,0.0009600384015370176,-0.00048001920076767607,-0.00012000480018213478,0.0009600384015370176,-0.0007200288011519304,-0.633650691043689,0.028802304138260675,-1.411312902773127,0.014401152071135955,-0.3168253455204415,0.08640691241482974,-0.14401152068898312,0.07200576034568927,-0.3168253455207386,-0.034479999999999844,-0.168941,-0.909648,0.0072870000000000434,0.170128,-0.901611,0.04176699999999989,0.339069,0.00803699999999996,0.9980403298189557,0.9176199444735552,double,-0.901611
89,0.741667,stand,0.009599232061444739,0.009599232061436414,-0.006959443244540776,0.07548493288559209,-0.03811105816648573,-0.007020605014819048,0.0025197984161059316,0.0013198944084469866,0.0016798656107511643,0.001919846412288948,0.0008399328053764147,0.0009599232061428088,0.3166491061100746,-0.028937071551238855,0.2592898452180922,0.24475392552485134,0.043179266487877496,0.2591654441467306,0.24476256449137204,-0.014411518617783005,0.20157811462619976,-0.0345390000000001,-0.16901,-0.909576,0.0072229999999999794,0.170055,-0.901545,0.04176200000000008,0.339065,0.00803100000000001,0.9944940805144109,0.915848432782915,double,-0.901545
90,0.75,stand,0.009840393615734445,0.008640345613823165,-0.02460098403936276,0.11239682368039572,0.16892314989869062,0.003951348155262554,0.00012000480020878121,0.0009600384015353521,0.0003600144005755489,0.0004800192007551856,0.0001200048001921272,-0.00024000960038342167,0.028940544136530095,-0.11507097655265155,-2.1170695781617557,-0.28798675337779195,-0.04318444820732425,-0.1583884807603036,-0.17278617683112402,-0.08639481641477073,-0.1439976966910147,-0.03461999999999987,-0.169074,-0.9093680000000001,0.007144999999999957,0.16998400000000002,-0.9013420000000001,0.04176499999999983,0.339058,0.008025999999999978,0.9982794661252345,0.9188234481989559,double,-0.9013420000000001
91,0.758333,stand,0.021000840033605604,0.011880475219008934,0.004560182407294172,0.29173303033620307,-0.02664803273601064,0.009025199425930712,-0.0008400336013548828,0.0024000960038408786,-0.00048001920076767607,0.0,-0.000600024000960636,0.0,1.3393071424302307,0.3888311058665253,3.499479952796929,-0.11520921655630145,0.17281382482965563,-0.10080806448376593,-0.05760460827495303,-0.08640691241482781,0.028802304138176006,-0.034802,-0.169153,-0.90941,0.006969999999999921,0.16988,-0.9013800000000001,0.04177199999999992,0.33903300000000003,0.008029999999999982,0.9956870557516536,0.9186999599983989,double,-0.9013800000000001
92,0.766667,stand,0.013798896088323484,0.0021598272138234013,-0.022798176145911276,0.03213950669421279,0.1644026734815326,-0.00039927880969365043,0.0016798656107461687,-0.0007199424046083555,0.0002399808015361185,0.0003599712023274906,0.000479961603072237,0.0,-0.8641641403026352,-1.1663844498662812,-3.2827404071521,0.3023637163548195,-0.3743746590411869,0.0863930888293495,0.04319308883219254,0.1295879054515094,0.0,-0.03490300000000013,-0.16917700000000002,-0.909218,0.006858000000000031,0.16986600000000002,-0.90119,0.04176100000000016,0.339043,0.008027999999999924,0.9969277874778614,0.9187200799935762,double,-0.90119
93,0.775,stand,0.014040561622455566,0.004800192007680092,-0.004440177607098714,0.01622295134138128,0.08798305694549191,-0.01445463043767873,0.000720028801172748,0.001320052802113399,-0.0003600144005763816,0.0009600384015370176,-0.0002400096003842544,0.0007200288011519304,0.029001024136815264,0.31685644952078235,2.203047946575361,-0.115185024549792,0.24480921717529652,-0.07200230434567353,0.07201094434291666,-0.08640000041479519,0.08640691241472788,-0.03501399999999988,-0.169206,-0.909184,0.006749000000000116,0.169824,-0.901147,0.041762999999999995,0.33903,0.00803699999999996,0.9974230771777239,0.9175903106069858,double,-0.901147
94,0.783333,stand,0.00972038881555244,0.004800192007680155,-0.0032401296051841467,-0.08027719336807775,-0.04463931557987715,0.006480966903255291,-0.0004800192007818384,-0.0001200048001921288,-0.0001200048001921288,0.0003600144005730556,0.0007200288011527728,-0.0019200768030723952,-0.5184414744873594,7.598392760488904e-15,0.14401152069057704,-0.1440115206953795,-0.17281382482965812,0.02880230413827613,-0.07200576034608994,0.11520921655310644,-0.3168253455207428,-0.03509899999999999,-0.16924699999999998,-0.909158,0.0066710000000000935,0.16979,-0.901136,0.041770000000000085,0.33903700000000003,0.008021999999999974,0.9991514379200712,0.9163099908850559,double,-0.901136
95,0.791667,stand,0.013918886489081366,0.014758819294456105,0.025797936165102422,-0.27992631883364766,0.22864525513036538,0.027203557980473272,0.0008399328053863948,0.0003599712023041729,-0.00011999040076805765,0.0005999520038436186,-0.00011999040076805765,0.001679865610751142,0.5037794184699896,1.1949396792387657,3.4842891493024175,0.1583815702145696,0.057592512898523886,1.7277926651243414e-06,0.028790209175733286,-0.10079424069124358,0.4319585329761831,-0.035207999999999906,-0.169367,-0.909374,0.006560000000000121,0.169666,-0.901337,0.04176800000000003,0.33903300000000003,0.00803699999999996,0.9984638937389105,0.9166503054904083,double,-0.901337
96,0.8,stand,0.010680427217089328,0.0060002400096013635,0.00972038881555231,0.028388782112264775,-0.014347098798832033,-0.02236856478165962,0.0003600144005730508,0.0006000240009589705,-0.0003600144005755489,0.0019200768030473887,-0.0001200048001921272,-0.0003600144005755489,-0.3886306578653575,-1.0510715570448463,-1.9293828572602958,-0.057592512278092166,0.028807488138101116,-0.028804032138184357,0.15842131275696203,-1.7280000083459874e-06,-0.24479539317492888,-0.03529399999999994,-0.169412,-0.909458,0.0064869999999999095,0.16961500000000002,-0.901421,0.041780999999999846,0.339027,0.00803699999999996,0.9986884598335369,0.9163679682327098,double,-0.901421
97,0.808333,stand,0.01068042721708947,0.007080283211327271,-0.005880235209404319,0.019632904435481126,0.010474948128535135,-0.00040784234525535263,0.002040081603256197,0.0,-0.0006000240009598112,-0.0003600144005730556,0.0003600144005763864,-0.0004800192007685152,1.7070361818084663e-14,0.129610368621855,-1.872149768985572,0.2016161289671381,-0.07200576034549094,-0.028802304138277276,-0.27362188931002823,0.05760460827655322,-0.014401152069238858,-0.03536600000000001,-0.16947099999999998,-0.9094140000000001,0.0063949999999999285,0.16955900000000002,-0.9013760000000001,0.04176099999999994,0.33903,0.00803799999999999,0.9964558492046471,0.9184537629715515,double,-0.9013760000000001
98,0.816667,stand,0.00911927045835906,0.004679625629950918,-0.004559635229192852,0.01238530319877569,-0.07655556247360802,-0.010027600447137693,-0.0007199424046016851,0.0005999520038402883,-0.0005999520038402883,-0.00035997120230084253,-0.0004799616030722306,-0.0011999040076789112,-0.18732382514163656,-0.2880558652959366,0.15845932087970446,-0.3311763868319968,0.07198848138232346,8.638963225694992e-06,5.183377995329118e-06,-0.1007890573132482,-0.08637926648792782,-0.035447999999999924,-0.16950500000000002,-0.909381,0.006315999999999988,0.169516,-0.9013479999999999,0.04176399999999991,0.339021,0.008033000000000068,0.9981454246669328,0.9174341108936304,double,-0.9013479999999999
99,0.825,stand,0.00972038881555244,0.005160206408254877,0.0012000480019279496,0.041525882340744696,0.0366118309367875,-0.023935000030243646,0.0012000480019279496,0.0008400336013432362,0.0001200048001921288,0.0010800432017458131,-0.0003600144005763864,0.0009600384015353649,0.07213708834674015,0.05767200027648667,0.6911896353199153,0.2304080651061625,0.028810944138119535,0.08639827241478742,0.1728086408312335,0.014394240069104202,0.25920345724400523,-0.035518999999999856,-0.169541,-0.90939,0.006244000000000138,0.16947,-0.90135,0.041762999999999995,0.339011,0.008040000000000047,0.9975504122736978,0.9171179659894206,double,-0.90135
100,0.833333,stand,0.017640705628239366,-0.00048001920076684335,-0.011760470418821804,0.060101600560268344,-0.06309872939659322,-0.07296486279602485,0.00024000960036426957,0.0001200048001921272,0.0006000240009598033,-0.0003600144005996972,0.0003600144005763816,-0.0010800432017274793,0.9504760365638898,-0.6768541472484935,-1.5553244234669026,-0.11520921655630337,-0.08640691241462929,0.05760460827645176,-0.1728138248344539,0.0864069124148284,-0.24481958517494729,-0.03566400000000014,-0.16953600000000002,-0.909287,0.006093999999999822,0.169477,-0.901261,0.04175799999999996,0.339013,0.008025999999999978,0.9989045110654446,0.9177499455235965,double,-0.901261
101,0.841667,stand,0.012239020878308577,0.0025197984161258805,0.004799616030722306,-0.021993533150723395,-0.025695712981721693,-0.022328388623670512,-0.00011999040075806644,0.0003599712023041729,-0.000479961603071398,0.00011999040078470967,0.0007199424046083459,0.000479961603071398,-0.6481503179662526,0.35994931808167757,1.9870514098324916,-0.0431965444111271,0.02879366476026445,-0.12958790545130705,0.05759596848864929,0.04318790545139927,0.18718560172772564,-0.03576699999999988,-0.16955399999999998,-0.909331,0.005993000000000137,0.169462,-0.901297,0.04176000000000002,0.339016,0.008033999999999986,0.9989802776750708,0.9182040944945798,double,-0.901297
102,0.85,stand,0.009960398415943358,0.003000120004799889,-0.006120244809795237,0.06696341724511526,-0.02188065249078536,-0.03683202003604595,0.0012000480019279496,-0.0002400096003842576,0.0006000240009598112,0.0003600144005730556,-0.0008400336013449015,0.0012000480019204553,-0.27344563330916105,0.05764089627673262,-1.310435718290849,0.15841094476011378,-0.07200057634566615,0.12960345662201117,0.02880403213588721,-0.18720460889874732,0.08641382441486425,-0.03583999999999987,-0.16958099999999998,-0.9092749999999999,0.005913000000000057,0.16943000000000003,-0.901236,0.04175299999999993,0.339011,0.008038999999999907,0.9977283457955002,0.9170959384195413,double,-0.901236
103,0.858333,stand,0.00900036001440621,0.004080163206528994,0.005640225609026647,0.017084486952483813,0.05052924779295258,-0.02555077022668676,-0.000720028801172748,0.0016800672026881154,0.0,-0.0009600384015370176,0.000600024000960636,-0.0021600864034566243,-0.11520921655311951,0.12961036862223693,1.4113129027747313,-0.23041843310940713,0.230418433106008,-0.07200576034559086,-0.15841267276011853,0.17281382482965696,-0.40323225793556533,-0.03592100000000009,-0.169601,-0.909322,0.005830000000000002,0.16940100000000002,-0.901301,0.041751000000000094,0.339002,0.008020999999999945,0.9969535689003968,0.9157253571277032,double,-0.901301
104,0.866667,stand,0.005639548836082133,0.0017998560115192236,-0.00035997120230084735,0.06636166469281196,0.01744538296667275,-0.0063084628357649355,0.0016798656107728119,-0.0011999040076789273,-0.00011999040076805925,0.0007199424046016947,-0.00011999040076805925,0.000479961603072237,-0.40326508019247614,-0.2736149742032377,-0.7199660200776973,0.2879642922900856,-0.3455688997320685,-0.014397696276465075,0.20158157021102976,-0.08639481662211414,0.3167804183499972,-0.03595399999999982,-0.169626,-0.90932,0.005789000000000044,0.169385,-0.901294,0.041742999999999864,0.339011,0.008025999999999978,0.9965535381289979,0.918284094494592,double,-0.901294
105,0.875,stand,0.006720268810759123,0.005400216008640727,-0.002160086403464951,0.05655529110871294,-0.023879310189152812,-0.02637574290878142,-0.0014400576023188495,0.0014400576023038609,-0.0006000240009598033,-0.000240009600390916,-0.0003600144005763816,-0.0003600144005763816,0.12969158462462327,0.43206048207386155,-0.2160224650382931,-0.3744057618014699,0.31680806552055407,-0.057606336276460106,-0.11519884855305493,-0.028804032138284093,-0.10080115248393316,-0.036022,-0.169659,-0.909307,0.005730999999999931,0.16933700000000002,-0.9012789999999999,0.04175299999999993,0.338996,0.008028000000000035,0.9964614972572832,0.9187818793232025,double,-0.9012789999999999
106,0.883333,stand,0.004080163206538986,0.010200408016320819,-0.01140045601823543,-0.060127183669846554,-0.5095447447546564,-0.023075502152433182,0.0009600384015370176,0.000600024000960636,0.0001200048001921272,0.0012000480019279335,0.0002400096003842544,0.0013200528021125664,-0.3168253455202359,0.5760460827649192,-1.1088887093208257,0.2880230413843582,-0.10080806448376592,0.0864069124147279,0.17281382483125446,0.07200576034568984,0.20161612896783163,-0.03604800000000008,-0.169739,-0.909211,0.005706999999999907,0.16925400000000002,-0.901173,0.04175499999999999,0.338993,0.00803799999999999,0.9981025575061973,0.9166198799951905,double,-0.901173
107,0.891667,stand,0.011639068874491756,0.004919606431485433,0.010199184065275046,0.09474573715110479,-0.016111313172793806,-0.03833019552119927,0.00035997120230084735,0.00011999040076805925,0.00119990400767976,-0.0002399808015427793,-0.0005999520038402962,0.00035997120230334514,0.9069961204647004,-0.6336454985403667,2.5917494700636667,-0.07200230372404291,-0.057599424069184,0.12957753869542105,-0.17278963324582686,-0.100787329520585,-0.11520057593103272,-0.03614200000000012,-0.169779,-0.909286,0.005607999999999835,0.169208,-0.901255,0.041749999999999954,0.338987,0.00803100000000001,0.9979025500996526,0.9184572158221362,double,-0.901255
108,0.9,stand,0.012960518420736413,0.0026401056042234675,-0.02364094563782574,0.1531416250748287,-0.3914086543354302,-0.08101081352234124,-0.0008400336013282363,-0.0002400096003842544,-0.0012000480019204393,-0.0009600384015370176,0.0010800432017291448,-0.0022800912036479186,0.1585802887609087,-0.2735510413130873,-4.060978003492217,-0.144006336688957,-0.043201728207405754,-0.288005761382478,-0.0864103684140448,0.20160748896789077,-0.31682016152061115,-0.036256999999999984,-0.16980299999999998,-0.909099,0.00549199999999983,0.169195,-0.901077,0.041748999999999814,0.338998,0.008021999999999974,0.9975260376661503,0.9152809312855696,double,-0.901077
109,0.908333,stand,0.011280451218026798,0.006840273610944679,0.014640585623419728,-0.07824609477456254,-0.10728509312528416,-0.019040537249705395,0.0022800912036471162,-0.0003600144005763864,0.0003600144005763864,0.001560062402501005,-0.0002400096003842576,0.0012000480019196224,-0.20161612897031447,0.5040403224194469,4.5939675100499,0.37442995379519756,-0.014401152069138735,0.18721497689869673,0.3024241934523036,-0.15841267276052015,0.41763341000450893,-0.03633199999999981,-0.169863,-0.909218,0.005411000000000055,0.169136,-0.901189,0.041742999999999864,0.338999,0.008028999999999953,0.9961062597836065,0.9164053254846417,double,-0.901189
110,0.916667,stand,0.008999280057600994,0.0010799136069108537,-0.005399568034552603,-0.025210363225680398,-0.011252033668335803,-0.028580589169703796,-0.0019198464122889224,0.0004799616030722306,0.0015598752099830842,-0.00023998080151613289,-0.0003599712023041729,0.0009599232061436286,-0.2737186417597537,-0.6911879054516178,-2.404626068871152,-0.5039521977365019,0.1007890573132482,0.14397177938645173,-0.21598790544961893,-0.014394240691134439,-0.02881267047948068,-0.03642299999999987,-0.169868,-0.90916,0.005334000000000172,0.169124,-0.901136,0.041757000000000044,0.338992,0.00802399999999992,0.9958003359731197,0.9180051475107278,double,-0.901136
111,0.925,stand,0.006240249610003937,-0.00552022080883119,-0.021000840033605604,0.27201250221874335,0.2901517412383872,-0.08827410909725979,0.0007200288011461016,-0.0001200048001921272,-0.0007200288011519304,-0.000240009600390916,0.0004800192007685088,-0.0015600624024959882,-0.3310968975875489,-0.792047811801514,-1.8722275289875117,0.31679769752010234,-0.07199884834565647,-0.27359942531321313,-3.4560032141028044e-06,0.10080288048394073,-0.3024103694515308,-0.036469000000000085,-0.169823,-0.908991,0.005279999999999951,0.169174,-0.9009739999999999,0.041749000000000036,0.338997,0.008017000000000052,0.9982911308961795,0.9170803445968086,double,-0.9009739999999999
112,0.933333,stand,0.0015600624024743586,-0.012360494419777608,-0.0190807632305185,-0.0634675418908783,-0.234468896209213,-0.10052147689717532,0.0007200288011461112,-0.0009600384015370304,-0.0001200048001921288,0.0,-0.0001200048001921288,-0.0010800432017283265,-0.5616449307007826,-0.8208656679402954,0.23041843310777885,1.1579742391840967e-15,-0.10080806448396866,0.07200576034559068,0.028802304139075748,-0.07200576034569099,0.057604608276450996,-0.03647599999999995,-0.169728,-0.908833,0.005267000000000133,0.169276,-0.9008240000000001,0.041743000000000086,0.339004,0.008008999999999933,0.9979899444735594,0.9180988505263932,double,-0.9008240000000001
113,0.941667,stand,-0.005519558435323991,-0.0175185985121181,0.026757859371246882,0.14181648120453094,0.3230027146885298,-0.1654398817437756,-0.0011999040076872372,0.0011999040076805766,0.000479961603071398,0.002759779217648674,-0.0003599712023041729,0.0021598272138233727,-0.8494865416124665,-0.618922977242675,5.500194696636073,-0.2303735071794257,0.25917235531768545,0.07199020917488867,0.3311470143566898,-0.028793664760264254,0.38875334959823304,-0.03644000000000003,-0.169572,-0.909052,0.005336000000000007,0.169419,-0.9010290000000001,0.041776000000000035,0.338991,0.008022999999999891,0.9970608474408549,0.9138985024174628,double,-0.9010290000000001
114,0.95,stand,0.01500060002401943,-0.01992079683187506,0.02412096483859457,-0.8269040206944538,-1.0301526240336845,0.11111799797014946,0.0018000720028919243,0.0,-0.0021600864034558203,-0.0019200768030740608,0.000600024000960644,0.0001200048001921288,2.4625175158218657,-0.288275329384013,-0.31644000151834106,0.3600115217303719,-0.14399424069129815,-0.3168184335206099,-0.5616051866942011,0.1152040325530812,-0.24478848117499852,-0.03655000000000008,-0.169406,-0.909271,0.005194999999999839,0.16959000000000002,-0.9012290000000001,0.04174499999999992,0.338996,0.008041999999999994,0.9953136627409535,0.9162212945270284,double,-0.9012290000000001
115,0.958333,stand,0.02388095523819001,-0.009000360014399546,0.07860314412576004,-0.31181721928139333,0.6536105932878435,0.03922745055825008,0.0004800192007551856,0.00036001440057471616,0.00024000960038342167,0.00012000480020878121,0.00048001920076517796,-0.0012000480019204393,1.0656852531105898,1.3105048382905877,6.5381230393814045,-0.15841267276331852,0.043203456207214046,0.2880230413823631,0.24481958517734712,-0.014401152069538646,-0.15841267276041793,-0.03674500000000003,-0.169328,-0.909924,0.00499700000000014,0.169669,-0.901894,0.04174200000000017,0.338997,0.008029999999999982,0.9989229239555488,0.9175365826980282,double,-0.901894
116,0.966667,stand,-0.019078473722104514,0.006359491240700395,0.05435565154788016,-0.09118138124427398,0.02647677793665429,0.18888089654365678,-0.00023998080151613289,0.0003599712023041729,0.0010799136069116863,-0.0007199424046016851,0.0014398848092166917,-0.0015598752099830842,-5.1547190977074875,1.8430347078353522,-2.9094663520374002,-0.08639308882545152,-5.1833777949650694e-06,0.10078041834992299,-0.10078560172911685,0.11517465904145745,-0.04317581090264484,-0.03658799999999984,-0.169378,-0.9103680000000001,0.00515000000000021,0.169628,-0.90236,0.04173800000000005,0.33900600000000003,0.008008000000000015,0.998061083170386,0.9161839905423045,double,-0.90236
117,0.975,stand,-0.03012120484819435,-0.004800192007680155,-0.025801032041291038,-0.21392749556666413,0.010829996294515622,0.21908220867734182,0.0006000240009639748,-0.0003600144005763864,-0.0006000240009598112,0.00012000480018213638,-0.001200048001921288,-0.0006000240009598112,-1.3251807423604869,-1.3392155584280152,-9.61918679817256,0.10080460848195312,-0.0864017284148045,-0.20160057696766026,0.10079769648191877,-0.3168046095209413,0.11518675255289593,-0.03633199999999981,-0.16934100000000002,-0.9101579999999999,0.005402000000000129,0.16965799999999998,-0.90215,0.04173399999999994,0.338999,0.008007999999999904,0.998463709398798,0.9176749157645661,double,-0.90215
118,0.983333,stand,0.005760230409222106,-0.0037201488059526123,-0.02868114724588842,-0.25558092659246395,-0.18065549268962178,-0.037307092942732566,-0.000480019200781832,0.0010800432017291448,0.0007200288011519304,0.0006000240009639668,0.0,0.0014400576023038609,4.305944468668703,0.12961036862204947,-0.34562764965767084,-0.12961036862424125,0.1728138248296562,0.15841267276031873,0.05760460827815053,0.14401152069138162,0.24481958517504662,-0.03638399999999997,-0.16930099999999998,-0.909913,0.005359000000000114,0.16968899999999998,-0.901899,0.041743000000000086,0.33899,0.008013999999999966,0.9976933952168652,0.9172598959958377,double,-0.901899
119,0.991667,stand,0.007919366450698571,0.0014398848092150459,-0.012718982481394298,0.04322528571461469,-0.06744294518546351,-0.004177572636819326,0.0005999520038436266,-0.00011999040076805925,0.0,0.0,0.0002399808015361185,-0.0004799616030714044,0.25907559892926296,0.6191545014600056,1.9153065472155282,0.1295861776608429,-0.14399251289863343,-0.08639654441467896,-0.07199712034604874,0.02879539255293015,-0.23038387393511833,-0.03644500000000006,-0.169314,-0.909807,0.005292999999999992,0.169679,-0.9017970000000001,0.04173800000000005,0.338993,0.008009999999999962,0.9989802776750609,0.9190056443574517,double,-0.9017970000000001
120,1.0,stand,0.003960158406330205,0.004920196807872219,-0.012120484819394855,0.05089256651291358,-0.0317964927629373,-0.039134884593408914,-0.00012000480018213478,0.0003600144005763816,-0.0001200048001921272,0.0,0.0003600144005763816,-0.0008400336013440577,-0.4751239702830133,0.4176541460046992,0.0718225923436266,-0.08639827241398758,0.05760288027654372,-0.014401152069137968,0.0,0.014404608069154279,-0.04321036820744651,-0.03647899999999993,-0.169352,-0.909707,0.005260000000000042,0.169641,-0.901703,0.04173899999999997,0.338993,0.008004000000000011,0.9993366485078736,0.9184367844502049,double,-0.901703
121,1.008333,stand,-0.0038401536061481215,0.004080163206529049,-0.032401296051841465,0.06878534453945132,-0.17026647242397722,-0.06954304473579667,-0.0002400096003909192,0.0006000240009589786,-0.0007200288011519401,0.002760110404402308,-0.0001200048001921288,0.0021600864034558203,-0.9360748844927874,-0.10080806448376069,-2.4337946996816027,-0.014401152071137107,0.028802304138077422,-0.07200576034559203,0.3312264975881835,-0.05760460827655284,0.36002880172805773,-0.036448999999999954,-0.169381,-0.909443,0.005314999999999959,0.16960599999999998,-0.901415,0.04176399999999991,0.338987,0.008028000000000035,0.9983874839496967,0.9138751105259586,double,-0.901415
122,1.016667,stand,-0.008759299256058218,-0.0061195104391642795,-0.03683705303576373,0.3868454914877652,0.27281492009403385,-0.10433555690161807,-0.00155987520998808,0.0005999520038402883,0.00011999040076805765,-0.0031197504199495167,-0.0002399808015361153,-0.0019198464122872573,-0.5902502579685696,-1.2238629284489142,-0.5322482582100106,-0.15837120345538164,-8.638963125782914e-06,0.10079424069114368,-0.7055268567736718,-0.014395968483799567,-0.48955277366727223,-0.036389000000000005,-0.169325,-0.9091349999999999,0.005362000000000089,0.169655,-0.9011239999999999,0.041751000000000094,0.33898,0.00801099999999999,0.9972073754012062,0.9137716660504284,double,-0.9011239999999999
123,1.025,stand,-0.017040681627275626,0.010440417616703548,0.030601224048962865,0.505936959123694,0.47986015721253045,-0.04867496612558462,0.0014400576022922224,-0.0003600144005763864,-0.0001200048001921288,0.002520100804011389,-0.000600024000960644,0.0019200768030723952,-0.9938056367715689,1.9872708575384588,8.092916966845939,0.3600063377271487,-0.11520057655306414,-0.028800576138268166,0.6768092192440847,-0.043206912207432134,0.46080921821189097,-0.03623500000000002,-0.16941499999999998,-0.909391,0.005525000000000002,0.169563,-0.9013629999999999,0.04176000000000002,0.338978,0.008028000000000035,0.9975179659894604,0.9143457734939486,double,-0.9013629999999999
124,1.033333,stand,-0.021960878435115683,-0.0012000480019195906,-0.06624264970598671,0.37956662427822907,-0.0502714653173258,-0.18386222961047363,-0.0016800672026830968,0.0007200288011527536,-0.0010800432017282976,-0.00012000480018213318,-0.0008400336013415484,-0.0006000240009597953,-0.5904472348301897,-1.3969117507047804,-11.621729719782536,-0.37442995379518357,0.12961036862223943,-0.11520921655300037,-0.3168253455170378,-0.02880230413787354,-0.30242419345159566,-0.036066000000000153,-0.169399,-0.908848,0.005706999999999907,0.169566,-0.900816,0.04177300000000006,0.338965,0.008032000000000039,0.9964614972573055,0.9179478799076328,double,-0.900816
125,1.041667,stand,-0.017878569714444396,0.016798656107511866,-0.05987520998319242,0.001188498992818576,-0.7750508196902615,-0.1468532608457449,0.0015598752099881214,0.00011999040076806085,0.0019198464122873083,-0.00011999040075806964,0.001319894408445339,-0.0002399808015361217,0.4898378594518075,2.1596717193942645,0.7640316442037933,0.3887619885614687,-0.07199884813831343,0.35995795704531597,1.7277926642121043e-06,0.2591706275242295,0.043201727792618244,-0.035903999999999936,-0.169538,-0.9083330000000001,0.005855000000000166,0.169437,-0.9003190000000001,0.0417590000000001,0.33897499999999997,0.008013999999999966,0.9958723767217467,0.917615185153128,double,-0.9003190000000001
126,1.05,stand,-0.007440297611905125,0.006000240009599618,-0.017520700828043675,0.10757778892613573,-0.03572548610624175,-0.07606336659971606,-0.0010800432017191379,0.0003600144005747114,0.0015600624024959674,-0.0019200768030740096,-0.0001200048001921256,-0.0001200048001921256,1.2526427580150112,-1.2958617662200957,5.082744408394096,-0.31680288152012637,0.028804032138083083,-0.04317580820728844,-0.21601900903827054,-0.1727948168291659,0.014397696069122045,-0.035850999999999855,-0.16958499999999999,-0.9081739999999999,0.005901000000000156,0.16938599999999998,-0.9001739999999999,0.04175200000000001,0.338971,0.008000000000000007,0.996781175859157,0.9167873958149877,double,-0.9001739999999999
127,1.058333,stand,0.0007200288011727575,0.0038401536061447904,-0.0024000960038292525,0.058467656520325914,0.0623746394060204,-0.024866852569295612,0.0024000960038292525,0.0004800192007685152,-0.0009600384015361976,0.001560062402501005,-0.00048001920076518436,-0.00048001920076768247,0.9792783407029829,-0.2592207372440715,1.8145451607121759,0.4176334100022107,0.014401152069339361,-0.30242419345160065,0.41763341000540577,-0.043203456207015725,-0.04320345620731551,-0.03583700000000012,-0.169613,-0.908162,0.005908000000000024,0.16935,-0.900158,0.04174500000000014,0.338963,0.008004000000000011,0.9956180442617455,0.9171243972001304,double,-0.900158
128,1.066667,stand,0.005759539236840124,-0.0003599712023041729,-0.0019198464122889224,0.01002506143435625,0.0005143090583001631,-0.01766298649124081,-0.0002399808015427761,0.0004799616030722306,0.0,-0.003359731221518936,0.00035997120230084253,-0.0021598272138233727,0.6046928768499313,-0.5039746590411485,0.05762534095756256,-0.31678387393472623,-6.911170660497366e-06,0.11519539255293859,-0.5903280086416971,0.10079078510511404,-0.2015608366997453,-0.035887,-0.16960599999999998,-0.908146,0.005832000000000059,0.169356,-0.9001600000000001,0.04171900000000006,0.338962,0.007985999999999938,0.9991056443574456,0.9134562247151722,double,-0.9001600000000001
129,1.075,stand,0.010200408016334279,-0.0031201248049920177,0.03648145925836718,0.039183583370390594,0.5049159551624156,0.06232332925201933,-0.0009600384015370304,0.0013200528021117513,-0.0009600384015361976,0.002400096003855899,0.0003600144005763864,0.0018000720028802666,0.532925570562126,-0.331231681589808,4.60834101411934,-0.08641036841404785,0.10081497648380276,-0.11520921655300688,0.6912069153215994,5.184000425279141e-06,0.47520691428101225,-0.03598000000000012,-0.169569,-0.908458,0.005767000000000078,0.169385,-0.900449,0.0417470000000002,0.338954,0.008008999999999933,0.9968439269894671,0.9148739272322626,double,-0.900449
130,1.083333,stand,0.012360494419772283,-0.007320292811711334,0.023880955238203015,0.014338377994739145,0.38163061327747233,0.023157979195005517,0.00012000480020877961,0.000600024000960628,-0.0006000240009597953,0.0,-0.0002400096003842512,-0.0007200288011519209,0.2592207372420456,-0.5040403224192059,-1.512120967258364,0.12961036862423989,-0.08640691241462987,0.04320345620741582,-0.28802304138435825,-0.07200576034568908,-0.30242419345159527,-0.03608199999999995,-0.16950300000000001,-0.908662,0.005664000000000113,0.16944399999999998,-0.900654,0.04174600000000006,0.338947,0.008008000000000015,0.9985716571805743,0.9186550383374662,double,-0.900654
131,1.091667,stand,0.012479001679878329,0.0007199424046066999,0.012598992080636398,-0.13619819213022477,-0.06649093598529403,0.058608715763031165,-0.000479961603085565,0.0008399328053747607,0.0020398368130553693,-0.0023998080153745387,0.0015598752099847911,-0.0020398368130553693,0.014219733634035116,0.9647510458745125,-1.3537272807255618,-0.07199020917858844,0.02878675358940933,0.31675795704526216,-0.28795392553090765,0.2159688997323106,-0.15836429228503401,-0.036190000000000166,-0.16950199999999999,-0.90875,0.005539999999999878,0.16945100000000002,-0.900776,0.041730000000000045,0.338953,0.007973999999999926,0.996237323469672,0.914402141222332,double,-0.900776
132,1.1,stand,0.01596063842552939,-0.0001200048001921256,0.02520100804032639,-0.1809052775693479,0.13540094094083352,0.07752432425185594,0.0015600624025009636,0.0008400336013448792,-0.0025201008040321394,-0.0006000240009639587,-0.0003600144005763768,0.000600024000960628,0.41781312200299997,-0.10079769648371664,1.5123024072590627,0.24481267317730626,1.209600025422186e-05,-0.5472144026265965,0.21598272103810734,-0.23039596910610036,0.31679596952069494,-0.036310000000000064,-0.16949399999999998,-0.908981,0.005401999999999907,0.16944900000000002,-0.900981,0.04171199999999997,0.338943,0.008000000000000007,0.9948655955626207,0.9184637093987971,double,-0.900981
133,1.108333,stand,0.011160446417844663,-0.0003600144005763864,0.01860074402976331,-0.15145445570072805,0.08707944079117756,0.04758036612543994,0.0004800192007818384,0.0009600384015353649,0.0001200048001921288,0.0022800912036471162,-0.0003600144005763864,0.0012000480019196224,-0.576046082765483,-0.028802304138277085,-0.7920633638021289,-0.12961036862104106,0.01440115206894118,0.3168253455207359,0.3456276496593185,-1.1514687659302534e-15,0.07200576034549382,-0.03639899999999985,-0.169483,-0.909135,0.005327999999999999,0.16944900000000002,-0.9011260000000001,0.04172699999999985,0.338932,0.008008999999999933,0.9981999279971107,0.9155739298794612,double,-0.9011260000000001
134,1.116667,stand,0.00719942404609678,-0.0027597792176619956,0.008279337652985986,-0.06226519876640216,0.035698442925271384,0.014531424226638629,-0.0002399808015427761,0.0002399808015361153,-0.0004799616030722306,0.0007199424046283283,-0.0003599712023041729,0.00011999040076805765,-0.4752846618367953,-0.28794874215089883,-1.2384696876382582,-0.08639308883184653,-0.0863999999999093,-0.07199020917498858,-0.18720287965188098,5.18337799537465e-06,-0.1295965444146336,-0.03646100000000008,-0.169458,-0.909208,0.005274000000000001,0.16946899999999998,-0.901194,0.04173500000000008,0.338927,0.008013999999999966,0.9990202824802827,0.9185036425119432,double,-0.901194
135,1.125,stand,0.005280211208440344,0.002160086403456653,0.008160326413051434,-0.13462915080569335,-0.08664067434176316,0.01945170939277162,0.0009600384015370304,0.0016800672026881377,0.0007200288011519401,-0.003480139205575066,0.000600024000960644,-0.0016800672026881377,-0.23031475310889882,0.5904074908338766,-0.014281920068949112,0.1440080646921658,0.17281728082947745,0.14400460869124945,-0.5040299544225888,0.1152040325530812,-0.21601555303686687,-0.036497,-0.169462,-0.90927,0.005201000000000011,0.169456,-0.901276,0.04169800000000001,0.338918,0.007994000000000057,0.9965589322504722,0.913542070988109,double,-0.901276
136,1.133333,stand,0.002760110404402308,0.0018000720028802666,0.0004800192007685152,-0.06905430602657665,-0.137074177631088,0.005579324972751107,0.0014400576022922224,-0.0001200048001921288,0.0004800192007685152,0.002880115204611091,0.0004800192007685152,0.001320052802112584,-0.30242419345230515,-0.04320345620741506,-0.9216737324232556,0.05760460827495457,-0.21601728103687542,-0.02880230413817678,0.7632610596647323,-0.014401152069138355,0.36002880172815904,-0.036507999999999985,-0.16947800000000002,-0.90927,0.005202000000000151,0.169445,-0.901269,0.041710000000000136,0.338923,0.008001000000000036,0.9974621829792477,0.9146493744058439,double,-0.901269
137,1.141667,stand,0.00455963522917953,-0.0025197984161275454,-0.021958243340524576,0.024727193187878468,-0.08468801652372146,-0.04228167232744893,0.00035997120230084253,0.0014398848092150266,0.000839932805375571,-0.0005999520038436186,-0.0005999520038402883,0.0,0.2159257049168716,-0.5183429828423061,-2.692376114865961,-0.12959999999896468,0.1871717793865063,0.043186177658633675,-0.4175746590418386,-0.12958617765884273,-0.15839366476032804,-0.03654299999999999,-0.169445,-0.90908,0.005159000000000136,0.169461,-0.901086,0.04170200000000013,0.338906,0.007993999999999946,0.9971576933038266,0.9186458995656563,double,-0.901086
138,1.15,stand,0.002640105604246818,0.005520220808832928,0.017040681627262303,-0.10786247389986665,0.08118875062840689,0.0383179706457705,0.0007200288011727575,0.0008400336013449015,-0.000600024000960644,0.0002400096003909192,-0.0003600144005763864,0.0007200288011519401,-0.23035276910269162,0.9648409006312908,4.680058198462407,0.043208640210238604,-0.07198502434538948,-0.17280172882950054,0.10079942448512487,0.02879366413823402,0.08640691241473018,-0.03655900000000001,-0.169484,-0.909227,0.005139000000000005,0.169412,-0.901222,0.04169800000000001,0.338896,0.00800500000000004,0.9979022983955743,0.9185499439977565,double,-0.901222
139,1.158333,stand,-0.0032401296051840604,-0.0026401056042250977,-0.01896075843033586,0.1901071417938215,0.020673102831336783,-0.03871559516253911,-0.0007200288011727383,0.0015600624024959674,-0.0002400096003834185,-0.0002400096003909128,0.0010800432017291303,-0.0010800432017282976,-0.7056564513897486,-0.979278340700574,-4.320345620736533,-0.17281382483444985,0.08640691241462298,0.043203456207514604,-0.057604608278149956,0.17281382482965216,-0.2160172810368662,-0.03653800000000018,-0.169449,-0.9090710000000001,0.005163999999999946,0.169443,-0.901073,0.04170200000000013,0.33889199999999997,0.00799800000000006,0.9971085178817412,0.9174430771777389,double,-0.901073
140,1.166667,stand,0.0009599232061444868,0.0009599232061444868,-0.009839212862974329,0.08863329738668325,0.009359465588850433,-0.013660077610210406,0.0005999520038436347,0.00047996160307057817,-0.0009599232061436541,0.0004799616030589218,-0.0004799616030722434,0.002639788816894841,0.503966020077829,0.4319688997323798,1.0944979082507442,0.1583850257999038,-0.12960172779282575,-0.08638272207346404,0.08638963324332233,-0.18718560172803017,0.4463441347040088,-0.03654100000000016,-0.16945300000000002,-0.908997,0.005159999999999831,0.169431,-0.900969,0.04170099999999999,0.338884,0.008028000000000035,0.9979507737849027,0.9151772367444235,double,-0.900969
141,1.175,stand,0.0069602784111233,-0.0008400336013448792,-0.010440417616711595,0.03808711654585562,0.20514109550129575,-0.013760574304179764,0.0010800432017457843,0.0001200048001921256,0.0010800432017282976,0.00012000480020877961,0.0002400096003842512,-0.0027601104044163906,0.7200714274545431,-0.2160034570370016,-0.07214745634672456,0.057613248278188076,-0.04319654420718184,0.24480576117507694,-0.04319654420378446,0.08640000041479444,-0.6480138271104208,-0.0365899999999999,-0.169445,-0.908901,0.00510300000000008,0.16944,-0.900905,0.04169299999999998,0.338885,0.007996000000000003,0.9974464687917699,0.9154181271217667,double,-0.900905
142,1.183333,stand,0.0060002400096131015,0.003480139205568404,-0.04404176167045464,-0.12218305910925377,-0.481695819998348,-0.09172600993899865,0.0003600144005730556,0.0004800192007685152,-0.0016800672026881377,0.00024000960036427277,0.0002400096003842576,0.0002400096003842576,-0.11520921654988683,0.5184414744885782,-4.0323225793523765,-0.08640691241722492,0.04320345620741544,-0.3312264975898789,0.0144011520647419,7.676458439535023e-16,0.3600288017281502,-0.03663700000000003,-0.16947,-0.908548,0.00505499999999981,0.169413,-0.900536,0.04169199999999984,0.338883,0.008012000000000019,0.9970266673172297,0.9191871519630695,double,-0.900536
143,1.191667,stand,0.07487401007918805,0.01007919366450685,0.022198224142067353,0.19381918865598496,0.34877704899718404,-0.48885387010341824,-0.0007199424046016851,0.0014398848092150266,0.001679865610751142,0.0005999520038436186,0.0009599232061444612,0.0014398848092150266,8.264191273047086,0.7918231892174701,7.948162444507018,-0.1295844498649787,0.11517465904085722,0.40315968483792347,0.043189633246861425,0.08638272207345789,0.14397350717911686,-0.03726699999999994,-0.169542,-0.908719,0.0044359999999998845,0.16933700000000002,-0.9007090000000001,0.041702999999999824,0.33887900000000004,0.008009999999999962,0.996122166340763,0.9168473767053662,double,-0.9007090000000001
144,1.2,stand,0.002040081603256197,0.006240249609984035,-0.01068042721708947,0.07741167485761508,-0.0650844099099746,-0.021433959501187167,0.0012000480019013031,0.0015600624024960088,-0.0010800432017283265,-0.0008400336013282475,-0.000600024000960644,-0.0007200288011519401,-8.740421033953261,-0.4606917142113105,-3.9455959869383324,0.23040806510296483,0.01442188806924077,-0.3312023055897628,-0.17280518482801863,-0.18720115289873027,-0.2592000012440881,-0.03727400000000003,-0.16958099999999998,-0.9086390000000001,0.0044120000000000825,0.16928,-0.900626,0.04168600000000011,0.338861,0.008013000000000048,0.9962581929409603,0.9177722983956127,double,-0.900626
145,1.208333,stand,0.004800192007685024,0.003960158406336814,0.006840273610941167,0.053128039941046167,0.0351791052874246,0.0043561984131243615,-0.0002400096003909128,0.0007200288011527536,0.0,-0.0006000240009639587,0.000600024000960628,-0.0013200528021117162,0.331226497591357,-0.2736218893132343,2.102568202091723,-0.17281382482805602,-0.10080806448376822,0.12961036862214179,0.028802304135879586,0.14401152069137776,-0.0720057603455857,-0.03731600000000013,-0.16960799999999998,-0.9086960000000001,0.00436700000000001,0.169252,-0.900694,0.04168300000000014,0.33886,0.008002000000000065,0.9987350383374614,0.9173645560161139,double,-0.900694
146,1.216667,stand,-0.002639788816890678,0.006359491240700564,-0.0003599712023008521,0.0615372591766708,-0.07597418881663803,0.023065369122484847,0.0019198464122889736,0.000599952003838639,0.0,0.0004799616030589218,-0.0004799616030722434,0.0019198464122864758,-0.8927262808466334,0.28789690837098575,-0.8639602607681972,0.25916198856250633,-0.01440806303265141,0.0,0.12958790545031212,-0.12958790545151092,0.38875680518337574,-0.037278000000000144,-0.169656,-0.9086930000000001,0.004392999999999869,0.169195,-0.900675,0.041671000000000014,0.338851,0.00801800000000008,0.9966476572645682,0.9164261589575937,double,-0.900675
147,1.225,stand,0.006720268810759033,0.003840153606144688,-0.009000360014406088,-0.053760152814201996,0.04614647660563174,0.008359921350658876,0.0016800672027097432,0.0008400336013448792,-0.0003600144005763768,-0.0030001200047931474,0.0007200288011494228,-0.002280091203647888,1.1232518453917615,-0.3023326094510778,-1.0368881329779294,-0.028774656135752568,0.028810944138513858,-0.043203456207412755,-0.4176264980021611,0.14400460869094509,-0.5040126744190917,-0.03732000000000002,-0.169681,-0.908621,0.0043119999999998715,0.16916899999999999,-0.900619,0.04163199999999989,0.33885,0.008002000000000065,0.996812397005746,0.9135859972946436,double,-0.900619
148,1.233333,stand,-0.0009600384015370304,0.005040201608064413,0.005160206408258207,0.09018923549445461,-0.009405213415914907,0.024044971266761642,-0.0018000720028919243,0.0008400336013432362,0.0003600144005763864,0.0032401296051841467,0.0002400096003842576,0.00048001920076768247,-0.9216737324248331,0.144011520691196,1.6993359441574973,-0.4176334100086043,-1.9716788337748091e-13,0.08640691241482897,0.7488599075935859,-0.057604608276151395,0.33122649758977507,-0.03732700000000011,-0.169716,-0.908661,0.004346999999999879,0.16912899999999997,-0.900658,0.04167399999999999,0.338845,0.008003000000000093,0.9966353446455165,0.9144962081749657,double,-0.900658
149,1.241667,stand,0.005039596832238439,0.0,-0.0035997120230350688,0.032284567487473596,-0.0014371838009400338,0.017437654372133293,0.0007199424046016851,0.0007199424046083459,-0.0009599232061436286,-0.0002399808015427761,0.0003599712023041729,-0.0002399808015352827,0.7198986361621579,-0.6047758109028527,-1.0511061232653238,0.3023775386961351,-0.014409790824920736,-0.1583798424190071,-0.417579842419834,0.014394240691134439,-0.08639308882924882,-0.037363000000000035,-0.16971,-0.908639,0.004302999999999946,0.169132,-0.90063,0.04166599999999998,0.338842,0.008008999999999933,0.9976678058176008,0.9190854448392838,double,-0.90063
150,1.25,stand,0.003360134405366283,0.0043201728069116405,0.0007200288011461112,-0.03921456145935059,-0.058474257088358766,-0.007572501863343119,0.0001200048002087828,0.0001200048001921288,0.0008400336013440688,-0.0007200288011461112,-0.0004800192007685152,0.0001200048001921288,-0.20154355296677925,0.5184414744883812,0.5183896344871258,-0.07199539234284265,-0.07199539234564054,0.21600345703680715,-0.05760806427497174,-0.10080288048394286,0.04320000020729807,-0.03738999999999981,-0.16974499999999998,-0.908638,0.004269000000000078,0.169092,-0.900635,0.04165899999999989,0.338837,0.008002999999999982,0.9985716571805747,0.9185139197789427,double,-0.900635
151,1.258333,stand,0.005640225609040045,0.0009600384015370304,-0.003600144005757202,-0.010275817963930418,-0.00163049757223333,0.024633971421330687,0.0008400336013282475,0.0,-0.0006000240009598112,0.0001200048002087828,0.0,-0.0010800432017283265,0.27362188931642667,-0.4032322579352743,-0.5184414744873818,0.086406912410833,-0.014401152069138353,-0.17281382482946037,0.10080806448516762,0.057604608276553414,-0.14401152069128362,-0.037430000000000074,-0.169753,-0.908613,0.004223000000000088,0.16908399999999998,-0.900614,0.04165300000000016,0.338837,0.007998999999999978,0.9982794661252581,0.91819885052639,double,-0.900614
152,1.266667,stand,0.005879529637624834,0.0019198464122872573,0.00659947204223984,-0.009503198597315033,0.06353415836613417,0.02061413751371965,0.0009599232061444612,-0.00011999040076805765,0.0011999040076789112,-0.0005999520038436186,0.0004799616030722306,0.000839932805375571,0.02871418629527075,0.11516774787019673,1.2238560172782535,0.014385601729807148,-0.014397696276464691,0.21597408310999625,-0.0863879054538512,0.057590785105858765,0.23037869055722135,-0.03747100000000003,-0.16977,-0.9086580000000001,0.004169000000000089,0.169072,-0.9006620000000001,0.04164000000000012,0.338842,0.007996000000000003,0.9974311589915472,0.9181427851810806,double,-0.9006620000000001
153,1.275,stand,0.008640345613833273,0.0009600384015353649,-0.016680667226689247,0.08134997292528613,-0.03815497807783415,0.029708991966050625,0.0001200048002087828,0.000600024000960644,-0.0010800432017274938,0.00024000960036427277,0.0008400336013449015,-0.0002400096003842576,0.3313111695917994,-0.11518156855297025,-2.793728461409972,-0.1007942404819016,0.08640518441482159,-0.2736046093131436,0.10079942448192716,0.0432103682074492,-0.12959827262208548,-0.037541999999999964,-0.169773,-0.908528,0.004098999999999853,0.169071,-0.900525,0.04164099999999982,0.338844,0.008002999999999982,0.9979311011574863,0.9184599727118616,double,-0.900525
154,1.283333,stand,0.006600264010550254,0.0020400816032644696,0.0021600864034515992,-0.019329907661946564,-0.07400459816392546,0.025978553203265278,-0.0010800432017457843,0.0008400336013432137,-0.0020400816032644696,0.0009600384015370048,-0.000600024000960628,0.0001200048001921256,-0.2448195851773651,0.12961036862223518,2.2609808748518563,-0.14401152069537335,0.028802304138073387,-0.11520921655309721,0.08640691241722302,-0.17281382482965368,0.043203456207413525,-0.03760600000000003,-0.16978300000000002,-0.908563,0.0040519999999999445,0.169049,-0.900542,0.04165799999999997,0.338832,0.008021000000000056,0.9959059383394289,0.9178925575061974,double,-0.900542
155,1.291667,stand,0.0027597792176753907,0.0016798656107511866,-0.0022798176145898256,0.00035029315331172703,0.008960338612181457,0.014649589635402567,0.001679865610746191,-0.0003599712023041825,0.0032397408207343126,-0.00011999040075806964,0.00011999040076806085,0.00011999040076806085,-0.46082130944023714,-0.04322246130469041,-0.5327458624959814,0.3311625644938838,-0.14398905731310524,0.6335280086391748,-0.12959308882830511,0.08639481662211453,-1.7277926643568339e-06,-0.037615000000000176,-0.1698,-0.908517,0.0040279999999999205,0.169036,-0.900522,0.0416430000000001,0.338836,0.007994999999999974,0.9938882062275312,0.9197036175490916,double,-0.900522
156,1.3,stand,0.007440297611905125,0.004320172806911525,0.008760350414015176,-0.008272369726682487,-0.06450291395690234,0.02077815164378642,-0.0012000480019012712,0.0007200288011527536,-0.0010800432017282976,-0.000360014400573046,0.0001200048001921256,0.0004800192007676697,0.561684674694546,0.3168495375207359,1.3248731583589113,-0.34560345765599565,0.12960518462221496,-0.5183948184882436,-0.028804032139082225,1.72800000777023e-06,0.0432051842073206,-0.037687000000000026,-0.16982999999999998,-0.908599,0.003962999999999939,0.169001,-0.900591,0.041649999999999965,0.338831,0.008008000000000015,0.9970536981754163,0.9189001553034969,double,-0.900591
157,1.308333,stand,0.0037201488059393386,0.002160086403456653,0.0009600384015370304,0.026723173149282027,0.027307220388824306,0.007637871281044183,-0.0002400096003909192,0.0009600384015353649,0.0008400336013440688,0.0009600384015370304,-0.0002400096003842576,-0.0007200288011519401,-0.4464357141444642,-0.2592207372440768,-0.9360748844927659,0.11520921654990529,0.02880230413807915,0.23041843310601035,0.15841267276012103,-0.04320345620741467,-0.14401152069118214,-0.037719999999999976,-0.16984,-0.9086,0.003940000000000055,0.168981,-0.900605,0.04166000000000003,0.338821,0.007994999999999974,0.9978365826980282,0.9180103106069859,double,-0.900605
158,1.316667,stand,0.003839692824577845,0.0029997600191981107,0.0017998560115175344,-0.012576801986493465,0.025475619774103824,0.02702301196194577,-0.0008399328053863948,-0.00011999040076805765,0.0004799616030722306,-0.0005999520038436186,-0.00011999040076805765,-0.0002399808015361153,0.014344134705844164,0.1007527736670808,0.10077005159353224,-0.07198502579739273,-0.12959308882930337,-0.04320518337795003,-0.18718387393576158,0.01440115186179494,0.05760115186174959,-0.0377590000000001,-0.16986600000000002,-0.908611,0.00390299999999999,0.168955,-0.900622,0.04166200000000009,0.338821,0.007988999999999913,0.9983753222932734,0.9190146425135824,double,-0.900622
159,1.325,stand,0.010200408016307632,0.005640225609025057,0.015960638425543138,-0.01673478862849036,0.07364452187825551,0.05208557294006092,0.0002400096003909192,-0.0001200048001921288,-0.0006000240009598112,-0.0002400096003909192,0.0009600384015370304,-0.0013200528021117513,0.7633163556618079,0.31686854552105737,1.6993618641576542,0.12959827262418383,-1.7280000085379219e-06,-0.12960345662211106,0.04319481620697261,0.12960864062223665,-0.1296138246220624,-0.03784199999999993,-0.169914,-0.908749,0.0038160000000000416,0.168916,-0.9007660000000001,0.04165799999999997,0.33883,0.007982999999999962,0.9989045110654284,0.9174203445968083,double,-0.9007660000000001
160,1.333333,stand,0.004920196807893803,0.0022800912036470555,0.0002400096003775896,-0.020749897960104062,-0.009952151386742457,0.020502510651028226,-0.0002400096003909128,0.0003600144005763768,-0.0015600624024959674,0.000720028801146092,0.0002400096003842512,-0.0001200048001921256,-0.6336506910372899,-0.4032322579356706,-1.8865509210566749,-0.057604608278149956,0.05760460827655073,-0.11520921655299884,0.11520921655310146,-0.08640691241482858,0.1440115206911802,-0.03788500000000017,-0.16993,-0.908764,0.0037809999999998123,0.16889900000000002,-0.9007689999999999,0.04166599999999998,0.338829,0.007995000000000085,0.9973017445571343,0.9187693239254796,double,-0.9007689999999999
161,1.341667,stand,0.005639548836082208,0.0019198464122873083,-0.005999520038396382,0.045736687212792206,-0.03547679242422475,0.01468418442199724,0.0005999520038436347,0.0009599232061444868,0.001799856011518415,-0.00023998080151613928,-0.00011999040076806085,0.0019198464122873083,0.08631533815555781,-0.04322591688981931,-0.7486836619599341,0.10078732952178587,0.07198329800433421,0.40315795704517,-0.11519193696451278,-0.04319654441472509,0.24476256449237732,-0.037927000000000044,-0.16993799999999998,-0.908699,0.0037320000000000686,0.168882,-0.900703,0.04165900000000011,0.33882,0.007996000000000003,0.996456274468707,0.9168091595829562,double,-0.900703
162,1.35,stand,0.0030001200047931474,0.006120244809793409,-0.007320292811709669,0.05283829578777593,0.050894905166956356,0.020913735622575938,0.000720028801146092,-0.0001200048001921256,0.0,0.000720028801146092,-0.0001200048001921256,-0.0006000240009597953,-0.3167441295198625,0.50406797041954,-0.1584990727605021,0.014409792067977347,-0.1295965446221761,-0.21599136103664748,0.11520576054988774,-1.72800000777023e-06,-0.3023965454514652,-0.037946000000000035,-0.16999,-0.9086380000000001,0.0037130000000000773,0.16882999999999998,-0.900647,0.04165900000000011,0.33882,0.007991000000000081,0.9987833988299033,0.9185151354306227,double,-0.900647
163,1.358333,stand,0.00972038881555244,0.0033601344053762754,0.0027601104044156313,0.04142302128612575,-0.05118049455462774,0.038953982877980076,0.0001200048002087828,0.000360014400574721,-0.00036001440057555366,-0.0010800432017191667,0.000600024000960644,-0.002160086403456653,0.8064645158717574,-0.33122649758996264,1.2096967738059994,-0.07200576034289148,0.05760460827635317,-0.043203456207315125,-0.21601728103507442,0.08640691241482974,-0.18721497689870056,-0.03802599999999989,-0.17001500000000003,-0.908664,0.003623000000000154,0.16880699999999998,-0.900688,0.04164900000000005,0.338822,0.007975999999999983,0.9991281853387011,0.9160925458311733,double,-0.900688
164,1.366667,stand,0.007439404847612913,0.0025197984161258805,0.0032397408207342263,-0.00025000038185829374,0.12446106971088944,0.04111805081955571,-0.0005999520038436186,-0.00011999040076639245,0.0007199424046075133,0.0009599232061444612,-0.0003599712023041729,0.0015598752099830842,-0.27369618045830446,-0.10083225212987623,0.057551045874561,-0.0863879054538512,-0.057595968483454496,0.12958444986597775,0.2447763868326869,-0.11519020917504315,0.44635968483797805,-0.03809299999999993,-0.170037,-0.908685,0.0035690000000001554,0.16878300000000002,-0.900702,0.04166200000000009,0.33882,0.007982999999999962,0.998425324399242,0.917058979044455,double,-0.900702
165,1.375,stand,0.004440177607112096,0.0020400816032645243,-0.004920196807867288,0.014755140806034836,-0.03326071557173092,0.027986517479914527,0.0,0.0,0.00036001440057555366,-0.0001200048002087828,-0.0002400096003842576,0.0001200048001921288,-0.35992166572673046,-0.05756832027617431,-0.9792316846995786,0.07199712034604873,0.014399424068929982,-0.043193088207363846,-0.12959654462417544,0.014395968069112737,-0.1727913608293494,-0.03813,-0.17005399999999998,-0.908641,0.003530999999999951,0.168764,-0.90066,0.04166099999999995,0.338818,0.007981000000000016,0.9993999759990407,0.9197000824547297,double,-0.90066
166,1.383333,stand,0.012960518420736587,0.006600264010560422,0.0027601104044156313,-0.07063280425995432,0.033241297091687376,0.08480742119565131,-0.0007200288011461112,0.0014400576023038802,-0.00024000960038342487,0.0007200288011461112,0.0009600384015370304,-0.0007200288011519401,1.0224817969068247,0.5472437786266579,0.9216737324232557,-0.0864069124140307,0.17281382482946037,-0.0720057603454919,0.10080806448516762,0.14401152069138354,-0.10080806448386853,-0.038243999999999945,-0.170097,-0.9086660000000001,0.0034289999999999043,0.168717,-0.9006890000000001,0.04167299999999985,0.338814,0.007977000000000012,0.9972869594851341,0.9178975259431037,double,-0.9006890000000001
167,1.391667,stand,0.004799616030722306,0.001319894408446969,-0.0021598272138316985,0.024843000032664236,0.004205102879795284,0.03843455757114614,0.0009599232061444612,-0.0007199424046083459,-0.0002399808015361153,0.0004799616030855522,-0.0008399328053764035,0.000839932805375571,-0.9792299484058338,-0.6335936647604287,-0.5903452865667497,0.2015781146256971,-0.2591792664881461,3.455585230330099e-06,-0.02880575930652234,-0.21597926648829135,0.1871804183498319,-0.03827599999999998,-0.170114,-0.90865,0.0033929999999999794,0.168699,-0.900664,0.041668999999999956,0.33881300000000003,0.007985999999999938,0.9979605553501328,0.9180047551691707,double,-0.900664
168,1.4,stand,0.006600264010550429,0.002160086403456653,0.003360134405379606,-0.00807183186065304,0.07664975611222873,0.04840356408522468,0.0,0.000600024000960644,-0.0009600384015361976,0.00048001920075519197,-0.000600024000960644,0.0012000480019204553,0.21608640103541815,0.10082707248406235,0.6624218911810098,-0.11519539255303853,0.15840230476047065,-0.08641036841474725,6.911996836646528e-06,0.028790208138216936,0.04321555220747482,-0.03833099999999989,-0.170127,-0.908686,0.003341999999999956,0.168676,-0.900682,0.04167299999999985,0.33880299999999997,0.008004000000000011,0.9981131282987199,0.917585036584062,double,-0.900682
169,1.408333,stand,0.009720388815552181,0.0018000720028802186,-0.0031201248049886037,-0.048009528224614434,-0.028743690014266778,0.023936114295803293,0.000720028801146092,0.0002400096003842512,0.001680067202688093,0.00012000480020877961,0.0002400096003842512,-0.0004800192007685024,0.37442995379835564,-0.04320345620741966,-0.7776622117326408,0.0864069124140261,-0.04320345620741467,0.31682534552073016,-0.04320345620381688,0.10080806448396502,-0.20161612896783013,-0.03840599999999994,-0.17014,-0.9086460000000001,0.003262000000000098,0.168663,-0.90066,0.04166800000000004,0.33880299999999997,0.007986000000000049,0.9969274187976083,0.9192234481989299,double,-0.90066
170,1.416667,stand,0.005399568034566068,0.0074394048476114465,0.0025197984161192868,-0.1358377322934561,-0.16764071815406092,0.07540893650315113,-0.0003599712023008521,0.000599952003838639,-0.0011999040076789433,0.0004799616030589218,0.0002399808015361217,-0.0015598752099831258,-0.5184570171569709,0.6766658081031119,0.6767366476011516,-0.12958963324297632,0.04318963324386784,-0.3455688997320724,0.043191361033135235,-3.4555853287136678e-06,-0.12957235531733188,-0.03845399999999999,-0.170197,-0.908677,0.0032209999999999184,0.168603,-0.900694,0.04167499999999991,0.3388,0.007982999999999962,0.9976850178180192,0.9174206745290705,double,-0.900694
171,1.425,stand,0.008880355214197309,0.002520100804032972,0.007920316812673628,-0.0247781832250732,0.05180206978977355,0.0571825881000001,0.00012000480018213318,0.0,0.00036001440057554406,0.0008400336013548716,-0.0008400336013448792,0.003000120004799809,0.41771117000254165,-0.5903400988333599,0.6480881311117541,0.05759942427492822,-0.07199712034544924,0.18719769689841115,0.04321036821024163,-0.12960691262222274,0.5472213146265277,-0.03852699999999998,-0.170218,-0.90874,0.003154000000000101,0.16857499999999997,-0.900735,0.04168100000000008,0.338793,0.00800500000000004,0.999367519168739,0.9145720530182169,double,-0.900735
172,1.433333,stand,0.00900036001440633,-0.0016800672026881377,0.001560062402501005,-0.034424495302135455,-0.003176675985957606,0.04558133116997321,0.0001200048002087828,0.0004800192007685152,0.0006000240009598112,0.00012000480018213638,0.0001200048001921288,-0.0010800432017274938,0.01440115207116544,-0.5040403224194345,-0.7632610596631083,3.1980825197477693e-12,0.057604608276553414,0.028802304138277855,-0.0864069124172257,0.11520921655310414,-0.4896391703500949,-0.038600999999999885,-0.17020000000000002,-0.908748,0.0030799999999999716,0.16859,-0.900757,0.04168099999999986,0.33879,0.00799099999999997,0.9987038000123144,0.9182678403977897,double,-0.900757
173,1.441667,stand,0.008039356851456533,0.000959923206142796,0.0032397408207342263,0.014627524449476561,0.011800039182583122,0.04265517363342743,0.0007199424046016851,0.00011999040076805765,-0.0007199424046075133,0.0010799136069291708,0.00011999040076805765,0.00011999040076805765,-0.11531115466160174,0.31677350717913527,0.20154528656505982,0.07198675358686078,-0.04320000000005458,-0.1583832980042374,0.11517984242224946,-1.7277926651243414e-06,0.14399251289843318,-0.038661999999999974,-0.170207,-0.9087810000000001,0.00302200000000008,0.16858299999999998,-0.900783,0.041684000000000054,0.33879,0.00799800000000006,0.998291335944068,0.9181980590394188,double,-0.900783
174,1.45,stand,0.007920316812660515,0.006240249609984035,-0.003960158406343581,-0.04859936652357935,0.11959200931947749,0.08067894555595029,0.0006000240009639748,-0.0004800192007685152,0.000600024000960644,0.0,0.0002400096003842576,0.0007200288011519401,-0.01428537607056506,0.6336645150415562,-0.8640224681480707,-0.01439078406788808,-0.07200403234568323,0.15840230476037073,-0.12959481662416664,0.014402880069146891,0.07200748834560038,-0.03872299999999984,-0.170263,-0.908743,0.0029560000000001807,0.168533,-0.900744,0.04167900000000002,0.338796,0.007998999999999978,0.9983751273241608,0.9187450383374662,double,-0.900744
175,1.458333,stand,0.008640345613833042,-0.0003600144005747114,-0.002520100804024645,-0.05402360704186522,0.028192894090547784,0.053525656674636046,-0.0007200288011727383,0.0008400336013448792,-0.0001200048001921256,0.0,-0.0013200528021133815,0.00036001440057554406,0.0864069124171984,-0.7920633638015878,0.1728138248312626,-0.15841267276331333,0.15841267276051496,-0.08640691241482744,0.0,-0.18721497689878935,-0.043203456207415065,-0.038801000000000085,-0.170253,-0.9087230000000001,0.0028840000000001087,0.16852499999999998,-0.90072,0.041685000000000194,0.33877799999999997,0.008003000000000093,0.9981452021089618,0.9176895579321172,double,-0.90072
176,1.466667,stand,0.008279337652999529,-0.00011999040076806085,-0.003479721622277095,-0.00020252750966311418,0.050910157277194334,0.036856239059527056,-0.0009599232061444868,0.0011999040076789433,-0.0013198944084478368,0.00023998080151613928,0.0004799616030722434,-0.00023998080153528909,-0.04331748990083037,0.028800575930724156,-0.11514528656737082,-0.0287850257945468,0.04318099428054607,-0.14397523497189033,0.02879539255053322,0.2159844498662898,-0.07199366476012053,-0.03887800000000019,-0.170242,-0.908705,0.0028169999999998474,0.16852999999999999,-0.900693,0.04169500000000004,0.33877199999999996,0.008012000000000019,0.9966238814862534,0.9189002824803014,double,-0.900693
177,1.475,stand,0.013200528021100508,-0.0008400336013448792,-0.011400456018235278,0.08847946529468544,0.04860796921237405,0.06269031770269293,0.0008400336013548716,0.0003600144005763768,0.0007200288011519209,0.0002400096003909128,0.0004800192007685024,-0.0003600144005763768,0.5905664668307804,-0.08640864041483329,-0.9505261485609076,0.21600345703820076,-0.10079078448368556,0.24480057717505363,3.45600321295129e-06,6.91200003108092e-06,-0.014404608069253042,-0.03898099999999993,-0.170232,-0.908604,0.0027090000000000725,0.168541,-0.900601,0.041690000000000005,0.338773,0.008002999999999982,0.99806085049104,0.9188929239555261,double,-0.900601
178,1.483333,stand,0.0116404656186265,0.0025201008040330393,0.015960638425543138,0.032384945894099446,0.17126831624388578,0.05772900014876434,0.00216008640346498,-0.0004800192007685152,-0.0009600384015353649,-0.00012000480018213638,-0.0003600144005763864,0.0002400096003842576,-0.18721497689595853,0.40323225793567136,3.28346267176031,0.15841267276012486,-0.10080806448396731,-0.20161612896763484,-0.04320345620701458,-0.10080806448396694,0.0720057603456906,-0.03905999999999987,-0.170257,-0.908745,0.002611000000000141,0.16851699999999997,-0.9007320000000001,0.041671000000000014,0.338774,0.008012999999999937,0.9959798889470967,0.9191216385881924,double,-0.9007320000000001
179,1.491667,stand,0.007439404847612913,0.0027597792176619956,-0.004439644828421464,0.023857753631533418,0.013878133073330978,0.0400811718940736,0.00011999040075806644,0.0,0.0011999040076789112,0.00023998080151613289,-0.0003599712023041729,0.0002399808015352827,-0.5040869655643814,0.028759108906761994,-2.44783816342266,-0.24479193696987017,0.05759769627651926,0.2591723553172858,0.04319481661846251,5.18337799537465e-06,-3.4555854301542577e-06,-0.03912099999999996,-0.17028,-0.908698,0.00255099999999997,0.168491,-0.900693,0.04167199999999993,0.338771,0.00800500000000004,0.9979901856609253,0.9191254448393054,double,-0.900693
180,1.5,stand,0.0055202208088312625,0.0028801152046077604,-0.01176047041882196,-0.07219135833576817,-0.06337780305284735,0.056866817858721906,-0.00048001920075519197,0.0013200528021117513,0.0002400096003842576,0.0007200288011727575,-0.0003600144005730556,0.0,-0.2303112971056844,0.014440896069334677,-0.8785342122165563,-0.07200403234288538,0.15841267276032203,-0.1151919365528216,0.05760806428136674,-5.183999625906105e-06,-0.02879884813815971,-0.039170999999999845,-0.170293,-0.9085979999999999,0.002511000000000152,0.168464,-0.9005949999999999,0.041682,0.33875700000000003,0.008002999999999982,0.9976250365840634,0.9186283055456934,double,-0.9005949999999999
181,1.508333,stand,0.0074402976119053235,-0.0006000240009589786,-0.0076803072122829195,0.053160253724292436,-0.1137733501539081,0.01740569861873735,0.001320052802110086,0.0,-0.0007200288011519401,0.00024000960036427277,-0.0004800192007685152,-0.0015600624024960088,0.23041843310621368,-0.4176334100044127,0.4896391703515034,0.21601728103507672,-0.15841267276032203,-0.1152092165530069,-0.05760460828134996,-0.014401152069538063,-0.18721497689859873,-0.03922199999999987,-0.170288,-0.90854,0.002450999999999981,0.168465,-0.900544,0.04167299999999985,0.338753,0.007996000000000003,0.9974939069390523,0.917290344596815,double,-0.900544
182,1.516667,stand,0.004079673626120621,0.006479481641468453,-0.008879289656829605,0.061984966903779644,-0.13651763884917395,0.04589624015966667,0.0,-0.0005999520038386231,-0.000839932805375571,0.0004799616030855522,-0.0002399808015361153,0.0020398368130553146,-0.4032426188846504,0.8494727192737433,-0.14386638403487836,-0.1583936647600283,-0.07198848138212365,-0.014387329520473958,0.028791936971595582,0.02880230372358988,0.43195334959818765,-0.03925599999999996,-0.170347,-0.908473,0.0024210000000000065,0.168409,-0.900453,0.041676999999999964,0.338756,0.008020000000000027,0.9982796725727867,0.9162846020655795,double,-0.900453
