frame_id,timestamp,gait_type,root_linear_velocity_x,root_linear_velocity_y,root_linear_velocity_z,root_angular_velocity_x,root_angular_velocity_y,root_angular_velocity_z,left_linear_velocity_x,left_linear_velocity_y,left_linear_velocity_z,right_linear_velocity_x,right_linear_velocity_y,right_linear_velocity_z,root_acceleration_x,root_acceleration_y,root_acceleration_z,left_acceleration_x,left_acceleration_y,left_acceleration_z,right_acceleration_x,right_acceleration_y,right_acceleration_z,left_pos_rel_x,left_pos_rel_y,left_pos_rel_z,right_pos_rel_x,right_pos_rel_y,right_pos_rel_z,step_length,step_width,step_height,left_contact_prob,right_contact_prob,support_type,max_foot_height
1,0.008333,stand,0.0038401536061480864,-0.0028801152046110646,0.0067202688107591505,-0.02030662407340482,0.017921279322116537,-0.025679991357395827,0.00012000480018213529,0.00012000480018213529,-0.00012000480019129499,-0.00012000480020878171,0.0018000720028652614,-0.0002400096003842554,0.0,0.0,0.0,0.0,0.0,0.0,0.0,0.0,0.0,0.182871,-0.046292,-0.9047040000000001,-0.182963,-0.03048899999999999,-0.903915,0.365834,0.01580300000000001,0.0007890000000000397,0.9996535759815453,0.9890767284915416,double,-0.903915
2,0.016667,stand,0.0038396928245778734,0.0009599232061444684,0.0017998560115175478,-0.021250157766449583,0.010298238408000144,-0.03582101217301782,-0.0008399328053730795,-0.0009599232061444684,-0.0004799616030722342,0.00047996160308555583,0.0010799136069025357,0.0002399808015361171,-5.5289365276329826e-05,0.46076774787083424,-0.5904023037246943,-0.11518329800278554,-0.12958099427965006,-0.04319136103682975,0.07199020917858621,-0.08641209454796324,0.057594240691189395,0.182832,-0.046308000000000016,-0.904723,-0.1829909999999999,-0.03048800000000007,-0.9039280000000001,0.3658229999999999,0.015819999999999945,0.0007949999999999902,0.9977286183722113,0.990040185660927,double,-0.9039280000000001
3,0.025,stand,0.007680307212296173,-0.002760110404402283,0.010920436817466966,-0.014035407827081417,-0.007366160945390052,-0.09887935859183435,0.00012000480019545849,-0.00024000960039091698,-0.0004800192007676781,0.0003600144005730523,0.0028801152046110646,-0.0007200288011527661,0.4608921622126844,-0.4464218901412158,1.0945134772530203,0.11519712055304666,0.08639308841396272,-6.911999933264745e-06,-0.014394240071103268,0.216032833038345,-0.11520576055308811,0.18276899999999996,-0.04628700000000019,-0.904818,-0.183052,-0.030441000000000162,-0.904025,0.36582099999999995,0.015846000000000027,0.0007930000000000437,0.999083448198931,0.9870858263152975,double,-0.904025
4,0.033333,stand,0.0022800912036470954,-0.0006000240009639692,0.002760110404415606,-0.025129934728325778,0.025540957248463576,-0.04093875753793754,0.0003600144005730523,0.00012000480020878171,-0.0001200048001921277,0.0014400576022922092,-0.0004800192007551876,0.002760110404416439,-0.6480518431116137,0.25922073724208733,-0.9792783406997911,0.028802304137476753,0.04320345621021225,0.043203456207314334,0.12961036862104366,-0.40323225793426765,0.4176334100047048,0.18275299999999994,-0.04628100000000002,-0.9048419999999999,-0.18305900000000008,-0.030440000000000023,-0.904025,0.365812,0.015840999999999994,0.0008169999999999566,0.9993366485078652,0.9865800281017734,double,-0.904025
5,0.041667,stand,0.00251979841613256,0.0,0.002999760019204794,-0.041440015643305614,0.01797996502489635,-0.046007411104926066,0.00011999040077138896,-0.0008399328053864011,-0.00011999040076805855,0.0013198944084453137,0.001679865610746159,-0.00011999040076805855,0.028762564493096297,0.07199712034604862,0.02875565332243677,-0.028800575930125187,-0.1151832980075813,1.727792664885307e-06,-0.014418429787244481,0.25916544414463,-0.34558444986615033,0.18273299999999992,-0.04628800000000011,-0.904868,-0.18306900000000015,-0.030426000000000064,-0.904051,0.36580200000000007,0.015862000000000043,0.0008169999999999566,0.9985718285679874,0.9882637743980314,double,-0.904051
6,0.05,stand,0.0013200528021100738,-0.000720028801172751,0.002160086403451637,-0.02598655055965388,0.015415281125602412,-0.05537949038500512,-0.0004800192007685108,-0.0003600144005730523,0.0,0.00216008640346496,0.00012000480018213529,0.0010800432017283165,-0.14397523269200602,-0.08640691241722681,-0.10076486448495826,-0.07200403234608181,0.05759251227809298,0.01439942406912979,0.10082707248525698,-0.18719078489907878,0.14400979269127265,0.18271799999999994,-0.04628499999999991,-0.904886,-0.18306200000000006,-0.030418999999999974,-0.90406,0.36578,0.015865999999999936,0.0008259999999999934,0.9989999599984023,0.9877099504620841,double,-0.90406
7,0.058333,stand,0.01632065282610272,0.009960398415943268,-0.004920196807867243,-0.012209679290924192,0.0597639676896234,-0.08262140827545547,-0.0003600144005730523,-0.0006000240009639692,0.0002400096003842554,0.0004800192007551876,0.003720148805965951,0.0004800192007676781,1.8001440086394631,1.2817025341552886,-0.8496679720771486,0.014401152069537801,-0.028802304139075596,0.02880230413827618,-0.20161612897033152,0.43203456207654095,-0.07200576034569044,0.18257900000000005,-0.046373,-0.9048430000000001,-0.18319400000000008,-0.030470999999999915,-0.904015,0.3657730000000001,0.015902000000000083,0.0008280000000000509,0.9987670678821184,0.9854173673920406,double,-0.904015
8,0.066667,stand,-0.0008399328053597579,-0.002039836813047004,0.0022798176145897822,-0.04697202353032664,0.020465621469926764,-0.0681447771937423,0.0,0.0007199424046016905,-0.0009599232061436358,0.0003599712023274885,0.00035997120230084524,0.00035997120230417564,-2.059105547331711,-1.4399130344360775,0.863932616085556,0.04319827220698971,0.15838329800403883,-0.14398041834987893,-0.014404607442728472,-0.4031890573152274,-0.014404607447024528,0.18258599999999992,-0.04635000000000011,-0.9048700000000001,-0.183184,-0.030451000000000006,-0.904031,0.36576999999999993,0.015899000000000107,0.0008390000000000342,0.9980001599872068,0.9905708526472266,double,-0.904031
9,0.075,stand,0.00264010560422015,-0.0007200288011461051,-0.0007200288011594283,-0.025790319731996702,0.04140533905865051,-0.054502149514144026,-0.001080043201732481,-0.0006000240009373234,0.0006000240009598062,0.001800072002865263,0.0018000720028919094,0.0002400096003842556,0.41762131400214936,0.1583832967599784,-0.35999596972869474,-0.12961036862264272,-0.1584023047568721,0.18720115289852912,0.17281900882488607,0.17281900883128107,-0.014395968069113182,0.1825549999999999,-0.046348999999999974,-0.904859,-0.1831910000000001,-0.030429999999999957,-0.9040229999999999,0.365746,0.015919000000000016,0.0008360000000000589,0.9977108038037111,0.9873783743844464,double,-0.9040229999999999
10,0.083333,stand,-0.0001200048002087816,-0.0006000240009639688,-0.0012000480019146143,-0.035012843431629664,0.016066421696625113,-0.07960631158396553,-0.0007200288011461039,-0.0001200048002087816,0.00024000960038425518,0.0013200528021100728,-0.0003600144005996984,-0.0008400336013440605,-0.3312264975913751,0.014401152067939063,-0.05760460827495326,0.043203456208613544,0.05760460827175583,-0.04320345620731438,-0.05760460827495377,-0.25922073724848266,-0.1296103686221427,0.1825500000000001,-0.04634500000000008,-0.904847,-0.18317899999999998,-0.03042800000000012,-0.90402,0.3657290000000001,0.01591699999999996,0.0008269999999999111,0.9987193239254752,0.9890540753309551,double,-0.90402
11,0.091667,stand,0.002039836813073649,0.0017998560115042278,-0.004199664026878722,-0.08454556404544002,0.0032577868590955503,-0.08872614911013249,0.00035997120230084556,-0.0013198944084453147,-0.0011999040076797539,0.0009599232061444692,0.0019198464122889385,0.0,0.25916026077303,0.28796256449102453,-0.3599251289853743,0.1295896332429746,-0.1439752349695865,-0.17277581090280897,-0.043212094548308586,0.27356141263362593,0.10079596848380863,0.18253599999999992,-0.04637099999999994,-0.904822,-0.18318800000000013,-0.030426999999999982,-0.903985,0.36572400000000005,0.015943999999999958,0.0008369999999999767,0.996967092454986,0.9880525774298023,double,-0.903985
12,0.1,stand,-0.0009600384015370207,-0.0038401536061214367,-0.0010800432017324792,-0.04245405123919789,0.02484234685292711,-0.07059190397624086,-0.0002400096003909168,-0.0002400096003909168,0.0006000240009606379,0.0007200288011461039,0.0001200048002087816,0.0009600384015353554,-0.35999942573030924,-0.6768282272441689,0.3743694737965007,-0.07200057634606527,0.12959136062095247,0.21600000103688832,-0.02878848013900937,-0.21598963303494004,0.11520921655290467,0.18254199999999987,-0.04634100000000019,-0.904808,-0.18317400000000017,-0.030394000000000032,-0.903968,0.36571600000000004,0.015947000000000155,0.0008399999999999519,0.9988510415123439,0.9895899444735589,double,-0.903968
13,0.108333,stand,-0.001320052802110075,-0.004800192007685112,-0.001800072002878586,-0.04141824453786775,0.019645593805934704,-0.06759021417201057,0.0,-0.0008400336013282406,-0.0008400336013440619,0.000840033601354887,-0.0006000240009639698,0.0,-0.043203456207014816,-0.1152092165563034,-0.08640691241402945,0.028802304139075603,-0.07200576034289263,-0.17281382482955732,0.014401152071136826,-0.08640691241722692,-0.11520921655290486,0.18255299999999985,-0.046308000000000016,-0.9047999999999999,-0.1831560000000001,-0.030359000000000025,-0.903953,0.36570899999999995,0.01594899999999999,0.0008469999999999311,0.9980200218135689,0.9898094661252181,double,-0.903953
14,0.116667,stand,0.00035997120230084497,-0.0038396928245778704,-0.002759779217662014,-0.034188873608211455,0.019664838202216137,-0.060690475828881575,-0.0002399808015294561,-0.0005999520038436226,-0.00011999040076805845,-0.00035997120230084497,0.0010799136069025348,-0.00035997120230334275,0.2015867535890231,0.11525068191831543,-0.11515565332174549,-0.028795392552130535,0.02880748709918619,0.08639827220734375,-0.14398905731410258,0.20157638683303372,-0.04319308882929474,0.18254799999999993,-0.04628100000000002,-0.904778,-0.18316200000000005,-0.030318000000000067,-0.903933,0.36571,0.01596299999999995,0.0008449999999999847,0.9989046425135865,0.9895601843110571,double,-0.903933
15,0.125,stand,-0.001560062402500992,-0.005160206408258164,-0.0019200768030740447,-0.05034765784405702,0.020355902509502664,-0.05715194528512015,-0.00036001440057305256,-0.00036001440057305256,-0.0004800192007685112,0.00012000480018213538,0.0006000240009639698,-0.0009600384015361897,-0.23041324910618485,-0.15846796876038577,0.10076832048337571,-0.014404608069554369,0.028793664139033993,-0.04320518420742266,0.05759942427492869,-0.05758905627487884,-0.07201094434571552,0.182558,-0.04624099999999998,-0.904766,-0.1831480000000001,-0.03027000000000002,-0.903925,0.3657060000000001,0.015970999999999957,0.0008409999999999807,0.9988337629715544,0.9896925575061972,double,-0.903925
16,0.133333,stand,0.00036001440057305197,-0.004800192007685103,-0.003480139205561708,-0.028284937725210735,0.017538957101186185,-0.05317142801303549,0.0,-0.00036001440057305197,-0.0014400576023038656,0.0,-0.0016800672026831248,-0.0006000240009598053,0.23041843310620935,0.0432034562070155,-0.18721497689759534,0.04320345620701455,7.156020579227492e-17,-0.11520921655290456,-0.014401152067938952,-0.2736218893132236,0.04320345620741439,0.18255500000000002,-0.04620399999999991,-0.904749,-0.18315100000000006,-0.030243999999999938,-0.903901,0.3657060000000001,0.015959999999999974,0.0008480000000000709,0.9975260376661377,0.988546667317237,double,-0.903901
17,0.141667,stand,-0.0014398848092033846,-0.0065994720422265845,-0.0028797696184334125,-0.030530693838765666,0.020674741158010337,-0.049251395747803545,0.0007199424046016923,-0.0008399328053864031,0.001079913606911697,-0.0010799136069025385,0.0005999520038436247,-0.0002399808015361177,-0.21597062752297108,-0.21589633243838316,0.07203858736840617,0.08638617765799064,-0.05758560172946392,0.30237235531744283,-0.12957926648698598,0.2735804183497426,0.0432017277926192,0.18257299999999987,-0.046156000000000086,-0.904716,-0.1831480000000001,-0.03018399999999999,-0.903879,0.36572099999999996,0.015972000000000097,0.0008369999999999767,0.9974233863837387,0.9895325500996612,double,-0.903879
18,0.15,stand,-0.0015600624025009894,-0.005640225609039989,-0.0030001200047931973,-0.03296418043754592,0.016578599774467673,-0.050351086832510446,-0.0001200048001954584,-0.0015600624025009894,-0.00012000480019212759,-0.0013200528021100728,0.0006000240009639688,0.0,-0.014421888071235412,0.11511417654945334,-0.014442624068136895,-0.10079769648351734,-0.08641900841408685,-0.14399596869120646,-0.028817856139149653,8.640000041295726e-06,0.028798848138259628,0.1825849999999999,-0.046121999999999996,-0.904692,-0.18314600000000003,-0.030131999999999826,-0.903854,0.3657309999999999,0.01599000000000017,0.0008380000000000054,0.9973845560161076,0.9892032941370469,double,-0.903854
19,0.158333,stand,-0.0014400576023188543,-0.005640225609013343,-0.003240129605184114,-0.04173832933964204,0.005528273698162739,-0.051441782089587974,0.0003600144005863752,-0.0009600384015370207,-0.0003600144005763828,0.0,0.0010800432017191559,-0.0003600144005763828,0.01440115206793892,3.1976743013010587e-12,-0.028802304139075568,0.05760460827815111,0.07200576034609003,-0.02880230413827613,0.158412672760119,0.057604608274953395,-0.0432034562074142,0.1826000000000001,-0.046083000000000096,-0.904668,-0.1831339999999999,-0.03007599999999999,-0.90383,0.365734,0.016007000000000104,0.0008380000000000054,0.9981888505263863,0.9897225575062132,double,-0.90383
20,0.166667,stand,-0.0023998080153478474,-0.007679385649155741,-0.0002399808015427777,-0.04758235759457832,0.010925749936540087,-0.04838154751868069,0.0002399808015294561,-0.0004799616030589122,0.0002399808015361169,-0.0015598752099880903,-0.00035997120230084497,-0.0011999040076789193,-0.11516083669654333,-0.24467963044665178,0.359989057312375,-0.01440287965645776,0.057604607448777066,0.07199366476031907,-0.1871700515944431,-0.17278790544996395,-0.10077869055705971,0.18262199999999995,-0.046022999999999925,-0.904664,-0.18312700000000004,-0.030014999999999903,-0.903838,0.365749,0.016008000000000022,0.0008259999999999934,0.99902028248031,0.9884056003518602,double,-0.903838
21,0.175,stand,-0.004200168006721149,-0.002280091203647101,-0.007800312012478328,-0.019386619065675636,0.011302766179103455,-0.05893089483950521,-0.00024000960037759439,-0.0015600624025009946,0.0,0.00048001920075518877,0.00012000480018213558,-0.000120004800192128,-0.21605184103843822,0.6479412511110828,-0.9072760363537224,-0.0576011522749372,-0.1296172806242752,-0.02879884813825963,0.24479712117404107,0.057599424274928805,0.12959308862196015,0.182655,-0.046016999999999975,-0.904599,-0.18308800000000014,-0.029994999999999994,-0.903774,0.36574300000000015,0.01602199999999998,0.0008250000000000757,0.9973693054846198,0.990901437920117,double,-0.903774
22,0.183333,stand,-0.008640345613833186,-0.012360494419772489,0.00024000960037759357,-0.021818760104323185,-0.012406150416702486,-0.05480732482623592,0.0006000240009506456,-0.00048001920075518715,-0.00012000480019212759,-0.00036001440057305197,0.0007200288011461039,0.0007200288011519328,-0.5328426265585064,-1.2096967738059978,0.9648771886302551,0.100808064481968,0.12961036862424175,-0.014401152069138064,-0.10080806448196808,0.07200576034608999,0.10080806448386657,0.182732,-0.0459179999999999,-0.9046019999999999,-0.18301900000000004,-0.02988600000000008,-0.90377,0.36575100000000005,0.016031999999999824,0.0008319999999999439,0.9987038000123442,0.9898799279971282,double,-0.90377
23,0.191667,stand,-0.00371970242379316,-0.005519558435324028,-0.002639788816890625,-0.039982097731442894,0.010958980710787401,-0.043702950488639605,0.0011999040076872453,-0.001439884809230023,-0.0007199424046075181,-0.00035997120230084497,-0.0010799136069025348,-0.0007199424046075181,0.5904299484089298,0.8208466504017824,-0.3455481662188884,0.07197984242099821,-0.11517465904425665,-0.07198675358955962,5.183377994600627e-06,-0.21597581090096438,-0.17278272207336806,0.18277299999999996,-0.045884000000000036,-0.904586,-0.18299100000000013,-0.029849000000000014,-0.903754,0.3657640000000001,0.01603500000000002,0.0008320000000000549,0.99665362760363,0.9894351851531367,double,-0.903754
24,0.2,stand,-0.002040081603282823,-0.00684027361094128,-0.0013200528021100728,-0.016042563124557194,0.008833012537506612,-0.023055245859680776,0.0008400336013415624,-0.0015600624025009894,-0.00024000960038425518,0.0002400096003909168,-0.00048001920075518715,0.0009600384015361881,0.2015625609636788,-0.1584921607605006,0.15837465675993656,-0.04318617620853025,-0.014421888068038674,0.05759424027640255,0.07200057634606519,0.0719902083460155,0.2016057609676833,0.1827970000000001,-0.0458400000000001,-0.904577,-0.1829719999999999,-0.029795999999999934,-0.903735,0.365769,0.01604400000000017,0.0008420000000000094,0.997019947912761,0.9897468963978802,double,-0.903735
25,0.208333,stand,-0.008400336013442297,-0.011400456018235505,0.003720148805952637,-0.04988880560999238,0.031729532323417006,-0.02490023682017528,-0.0002400096003909176,-0.0016800672026831304,0.0,-0.00048001920075518877,-0.0004800192007818352,-0.0019200768030723824,-0.7632610596615252,-0.5472437786264533,0.6048483869030028,-0.12961036862264283,-0.01440115206793967,0.028802304138276225,-0.08640691241402944,-3.1978954873917e-12,-0.34562764965901566,0.18286500000000006,-0.045759000000000105,-0.904608,-0.1829059999999998,-0.029705000000000092,-0.903782,0.36577099999999985,0.016054000000000013,0.0008259999999999934,0.9971714597336497,0.9883457516803711,double,-0.903782
26,0.216667,stand,-0.020038396928222464,-0.014278857691382303,-0.0004799616030722338,-0.02512026874792644,0.004986165278592185,0.03545566303483852,0.0002399808015427777,-0.0009599232061444676,-0.00011999040076805845,0.0,0.00035997120230084497,-0.0008399328053755765,-1.3964555933261527,-0.3453805703319889,-0.5039729312484842,0.057594240692787964,0.08641036675529903,-0.014397696276464884,0.057597696274920604,0.10079078510711295,0.1296069111707229,0.18303399999999992,-0.04564800000000013,-0.904605,-0.18273899999999998,-0.029583000000000137,-0.903785,0.3657729999999999,0.016064999999999996,0.0008200000000000429,0.9983388081227622,0.9902769672214515,double,-0.903785
27,0.225,stand,-0.0036001440057838127,-0.0022800912036470937,-0.005760230409222125,-0.030564933722355362,0.060551236728873914,0.02017754388595615,-0.0008400336013415624,-0.0007200288011461039,0.00012000480019212759,-0.0003600144005996984,-0.00252010080403801,-0.0002400096003834225,1.972669257462935,1.4399095749112203,-0.633657603042108,-0.1296069126226256,0.028788480139009177,0.028800576138267833,-0.04320345621021218,-0.3456224656592887,0.07199366434563224,0.18305700000000014,-0.04563500000000009,-0.9045559999999999,-0.18271199999999999,-0.029585000000000194,-0.903739,0.3657690000000001,0.016049999999999898,0.0008169999999999566,0.9981452021089947,0.9875683743844277,double,-0.903739
28,0.233333,stand,0.005160206408258156,-0.006120244809795177,0.007080283211332197,-0.026186744005038225,0.06760417423220234,-0.043788285141083946,-0.0006000240009639688,0.00048001920075518715,-0.0003600144005755501,-0.00024000960036427038,0.0004800192007818336,0.0003600144005755501,1.0512841010490774,-0.46083686621241804,1.540923271397373,0.028802304137476704,0.14401152068898238,-0.057604608276452335,0.014401152074334324,0.36002880173045015,0.07200576034549047,0.1830090000000001,-0.045580000000000176,-0.9046179999999999,-0.18275699999999984,-0.029530000000000056,-0.903795,0.3657659999999999,0.01605000000000012,0.0008229999999999071,0.9985857298668294,0.9906929239555269,double,-0.903795
29,0.241667,stand,-0.0225581953443551,-0.02207823374132283,0.008639308855300237,-0.0008678490862914902,-0.06986194047931626,0.004014730509595547,-0.0008399328053730815,-0.0007199424046016923,0.0007199424046075204,0.0005999520038436247,0.00035997120230084616,0.0002399808015361177,-3.325942134942803,-1.9148054873443354,0.18706811182721905,-0.02878675358880649,-0.14398387393291123,0.1295844498659795,0.10078732951858616,-0.014404607449122595,-0.014402879654359572,0.18318999999999996,-0.04540199999999994,-0.904684,-0.18256399999999995,-0.029342999999999897,-0.903865,0.3657539999999999,0.016059000000000045,0.0008190000000000142,0.9978001759859292,0.9905772158221373,double,-0.903865
30,0.25,stand,-0.006120244809795177,-0.0062402496099773115,-0.0009600384015370207,0.011471532366681879,0.0037841012528403036,-0.002714102701730705,0.0,0.0,0.0,-0.0004800192007818336,0.0009600384015370207,-0.0012000480019204432,1.972632969465968,1.9006341211263056,-1.1519677495304512,0.10079596848350904,0.08639654441397956,-0.08639654441467896,-0.12960172862419986,0.07201094434611473,-0.17281036882954035,0.183241,-0.04535,-0.904676,-0.18251700000000004,-0.029282999999999948,-0.9038670000000001,0.365758,0.016067000000000053,0.0008089999999999486,1.0,0.9892266110914356,double,-0.9038670000000001
31,0.258333,stand,-0.007440297611905274,-0.007680307212296192,0.0010800432017191595,0.0024616420307905468,0.00765721211800934,0.00197849346159471,-0.0012000480019279415,-0.0002400096003909176,-0.000120004800192128,0.00036001440057305316,-0.000960038401537024,0.0008400336013440632,-0.1584126727601225,-0.17281382483125932,0.2448195851741492,-0.14401152069218104,-0.028802304139075748,-0.014401152069138161,0.10080806448516606,-0.23041843310621019,0.2448195851751484,0.18329299999999993,-0.045287999999999995,-0.904686,-0.18245200000000006,-0.029226999999999892,-0.9038689999999999,0.365745,0.016061000000000103,0.0008170000000000677,0.9979505278679077,0.9896208394301399,double,-0.9038689999999999
32,0.266667,stand,-0.018118550515960175,-0.004679625629937628,-0.00911927045835912,-0.04261861028577402,-0.01833811175133689,0.0066190824039117045,-0.00011999040075806724,0.0,-0.0007199424046075181,-0.00035997120230084497,0.0002399808015427777,-0.0005999520038394596,-1.28128784545895,0.3600529856441758,-1.223819733630702,0.12959654441683144,0.02879884813905896,-0.07198675358955957,-0.08639136103598483,0.14399078510676752,-0.17278444986603328,0.18344300000000002,-0.045249000000000095,-0.904616,-0.18230400000000002,-0.029185999999999934,-0.903798,0.36574700000000004,0.01606300000000016,0.0008179999999999854,0.9987835448103584,0.9905872158221395,double,-0.903798
33,0.275,stand,-0.016440657626311434,-0.013320532821309464,0.0038401536061480703,-0.044980451216171495,0.039086129955962924,0.056837808997490094,-0.0004800192007685088,0.00012000480020878121,0.0001200048001921272,0.0006000240009639668,0.00024000960036426957,0.0,0.20135520096588663,-1.0369503409782552,1.5551930954646749,-0.04320518420862115,0.01440115207113653,0.10079769648381637,0.11520403255307905,3.4559968188973223e-06,0.07199712034554867,0.18357600000000007,-0.04513699999999998,-0.904647,-0.18216199999999994,-0.029073000000000127,-0.90383,0.365738,0.016063999999999856,0.0008169999999999566,0.9991514379200855,0.9907529239555375,double,-0.90383
34,0.283333,stand,-0.0060002400095864146,-0.004320172806903284,-0.004440177607112066,0.027743581073266663,-0.020597035555996037,0.012180256129810087,-0.00036001440057305316,0.00012000480018213558,0.00036001440057555127,0.00036001440057305316,-0.00036001440057305316,0.0,1.252900230016206,1.0800864051849517,-0.9936794927709297,0.014401152069537492,-3.197602741095277e-12,0.02880230413817649,-0.028802304139075266,-0.07200576034289262,0.0,0.18362299999999998,-0.04510000000000014,-0.9046069999999999,-0.18210900000000008,-0.029040000000000177,-0.903793,0.36573200000000006,0.016059999999999963,0.0008139999999999814,0.9991281853387131,0.9910114379200999,double,-0.903793
35,0.291667,stand,-0.009239260859143832,-0.010079193664530231,0.0015598752099880903,0.00039968089703528917,0.009391007679534293,0.026962202807563042,-0.0009599232061444676,-0.0002399808015427777,0.0002399808015361169,0.0,-0.00011999040075806724,0.0008399328053755765,-0.38865140983410296,-0.6910272207375739,0.7199487421526459,-0.07198329800472927,-0.04319481662165982,-0.014402879654359761,-0.043198272206989775,0.028800575931723745,0.10078387393515427,0.18369200000000008,-0.045018,-0.904618,-0.18203199999999997,-0.0289569999999999,-0.903799,0.36572400000000005,0.016061000000000103,0.0008190000000000142,0.9983030794787897,0.9903958995656639,double,-0.903799
36,0.3,stand,-0.007920316812660463,-0.010440417616698481,0.001320052802110077,0.016113308642402506,0.00442277571773657,0.025393613685121462,-0.0002400096003909176,0.0002400096003909176,0.0,-0.00048001920075518877,0.0018000720028919124,-0.000240009600384256,0.15827961676267507,-0.04334860820451823,-0.02877984013896722,0.08639308841396276,0.057601152278134705,-0.02879884813825963,-0.05760460827495379,0.23041670510620238,-0.1295982726220851,0.18375599999999992,-0.044929,-0.904629,-0.18196999999999997,-0.028854999999999853,-0.903812,0.3657259999999999,0.016074000000000144,0.0008170000000000677,0.9994342919467123,0.9886993796066712,double,-0.903812
37,0.308333,stand,-0.00804032161286919,-0.007800312012478276,-0.0015600624025009842,0.019723545710728596,0.0024969794245996166,0.027113125772417437,0.0004800192007685088,-0.0004800192007551856,-0.0003600144005763816,-0.000720028801172748,0.0004800192007551856,-0.0014400576023038609,-0.014401152071130068,0.3168253455202441,-0.3456276496593123,0.08640691241562744,-0.08640691241402858,-0.04320345620741391,-0.028802304142272677,-0.15841267276331708,-0.14401152069117962,0.18382699999999996,-0.04486799999999991,-0.904619,-0.1819090000000001,-0.02878599999999998,-0.9038109999999999,0.36573600000000006,0.01608199999999993,0.0008080000000000309,0.998719323925483,0.9891198879955114,double,-0.9038109999999999
38,0.316667,stand,-0.008639308855300266,-0.008879289656816402,-0.000479961603072237,0.006519366350701675,0.008404906530351652,0.022084996403880567,-0.0010799136069158635,0.00011999040075806804,0.00011999040076805925,-0.0005999520038436266,-0.00011999040075806804,-0.0004799616030714044,-0.07187271927418756,-0.1294669599637788,0.12960172779322696,-0.18717696276510454,0.07199539255018682,0.05759596848385452,0.014408063034451886,-0.07199539255018682,0.11520230372359755,0.18389,-0.04479300000000008,-0.9046139999999999,-0.18184200000000006,-0.02871299999999999,-0.9038109999999999,0.36573200000000006,0.016080000000000094,0.0008029999999999982,0.9981780590394425,0.9906739555438727,double,-0.9038109999999999
39,0.325,stand,-0.009600384015343529,-0.014640585623419532,0.004920196807880545,0.07097264061018167,0.04019156334959542,0.06040704308711217,-0.0003600144005730508,-0.0006000240009639668,-0.00048001920076767607,-0.001200048001901287,-0.00012000480020878121,0.0013200528021117337,-0.11533363255049299,-0.6913831713192256,0.6480449311115757,0.0863913604155538,-0.08640518441402038,-0.07200403234558177,-0.07201440034293266,-1.728003205708026e-06,0.21601036903673715,0.18396699999999988,-0.04467600000000016,-0.904659,-0.18177200000000004,-0.028592000000000173,-0.903841,0.3657389999999999,0.016083999999999987,0.0008179999999999854,0.9985857298668194,0.9888399479127858,double,-0.903841
40,0.333333,stand,-0.026401056042254834,-0.01716068642745765,0.003120124804988666,0.003076010655573267,-0.019114457655440797,0.037899778692250134,-0.0010800432017191595,0.0006000240009639708,0.00036001440057555127,0.00012000480018213558,-0.00012000480018213558,-0.000240009600384256,-2.016161289680949,-0.30242419345231303,-0.21601728103826756,-0.08640691241402983,0.14401152069218054,0.10080806448376689,0.1584126727569214,3.197602741095277e-12,-0.18721497689859518,0.18417800000000006,-0.04452800000000012,-0.904682,-0.18155100000000002,-0.028450000000000086,-0.903869,0.3657290000000001,0.016078000000000037,0.0008129999999999526,0.9978551531471829,0.9913800824547546,double,-0.903869
41,0.341667,stand,-0.00755939524837103,-0.007079433645312118,-0.0004799616030722338,0.01657573413259884,0.0032249177272752703,0.023510292020121903,-0.0008399328053864003,0.0008399328053864003,0.0008399328053755765,-0.0008399328053597571,0.0,0.0004799616030722338,2.2608184297916707,1.2096535615725368,-0.43197581090243536,0.028810942684516318,0.028786753590404286,0.05758560172786474,-0.11518329800118692,0.014399424067930822,0.08638963324411916,0.1842339999999999,-0.044462,-0.904671,-0.18149499999999996,-0.028391000000000055,-0.903861,0.36572899999999986,0.016070999999999946,0.0008099999999999774,0.9975753228435552,0.9902876774361679,double,-0.903861
42,0.35,stand,-0.011280451218053369,-0.009360374414979321,0.0007200288011594295,0.026672371013958644,0.08305857928525039,0.10286035566020385,-0.0007200288011461063,0.00036001440057305316,-0.00012000480019129529,-0.00012000480020878201,0.0006000240009639708,0.0008400336013440632,-0.4465445781450076,-0.2737238413137176,0.14400460869214765,0.014389056071078156,-0.05759251227809292,-0.11519712055284702,0.08639481641077366,0.07200576034609052,0.04321036820734793,0.18432199999999999,-0.044381000000000004,-0.9046780000000001,-0.18140200000000006,-0.028308,-0.90386,0.36572400000000005,0.016073000000000004,0.0008180000000000964,0.9986434797425758,0.9900878799076205,double,-0.90386
43,0.358333,stand,-0.002280091203647086,-0.007200288011514309,0.003840153606134747,-0.015457320833525003,0.12105660447471242,0.06285362777796163,-0.0007200288011594248,0.000240009600390916,-0.0004800192007685088,-0.0007200288011461016,-0.00012000480020878121,-0.0021600864034566243,1.080086405184957,0.2592207372452902,0.37442995379518834,-1.5982776799506935e-12,-0.014401152067939117,-0.043203456207513743,-0.07200576034289176,-0.08640691241722656,-0.3600288017281501,0.18433499999999992,-0.044319,-0.904714,-0.18138900000000002,-0.02824900000000019,-0.90391,0.36572399999999994,0.016069999999999807,0.0008040000000000269,0.9985032771763641,0.9881598479939206,double,-0.90391
44,0.366667,stand,-0.00911927045835912,-0.003719702423819803,-0.0017998560115175463,0.01402070251005157,0.006090339932787887,0.0245326974145131,-0.000599952003830301,0.0008399328053597571,0.0002399808015361169,-0.0007199424046016899,0.0008399328053864003,0.0004799616030722338,-0.8206358596966676,0.4176368595745743,-0.676747014357126,0.014408063034452077,0.07198502579419733,0.08639308882944864,1.0366755988915048e-05,0.11518329800758106,0.31678041834999465,0.18440599999999996,-0.044281000000000015,-0.904697,-0.181319,-0.028210999999999986,-0.903891,0.36572499999999997,0.01607000000000003,0.0008059999999999734,0.9982337891236341,0.989930185660916,double,-0.903891
45,0.375,stand,-0.012480499219981312,-0.004560182407294202,-0.00576023040920882,0.025510972723809575,0.010543532056252879,0.0557863161185792,-0.0007200288011594295,-0.00036001440057305316,0.000240009600384256,-0.0006000240009639708,-0.00036001440057305316,0.000120004800192128,-0.4033635859381015,-0.10086163248222742,-0.4752639382804853,-0.014409792071178302,-0.14399942468892515,3.456000016691998e-06,0.014390784067889052,-0.14399942469212246,-0.0431965442073811,0.184504,-0.04424600000000001,-0.9046470000000001,-0.18121999999999994,-0.02817599999999998,-0.903842,0.36572399999999994,0.01607000000000003,0.0008050000000000557,0.9985999439977513,0.9907667367128455,double,-0.903842
46,0.383333,stand,-0.007440297611905274,-0.00480019200768512,-0.0002400096003909176,0.023962391609525433,0.012719615147318227,0.036095769880466484,-0.0007200288011461063,-0.0006000240009639708,-0.00060002400096064,-0.0006000240009639708,0.00012000480018213558,-0.0019200768030723824,0.6048483869046022,-0.028802304139075766,0.6624529951779571,1.5988501615970424e-12,-0.028802304139075748,-0.10080806448396713,0.0,0.05760460827495379,-0.24481958517514887,0.18456000000000006,-0.044211,-0.90465,-0.18116299999999996,-0.02813500000000002,-0.903856,0.365723,0.01607599999999998,0.0007939999999999614,0.9981452021089876,0.9887012945270304,double,-0.903856
47,0.391667,stand,-0.007919366450671875,-0.00455963522917956,-0.0009599232061444676,0.010364204822338723,0.01246652882050173,0.0347451578253991,-0.00035997120230084497,0.0002399808015427777,-0.0005999520038394596,0.0002399808015427777,-0.0009599232061444676,0.0005999520038394596,-0.057483661959035384,0.02886450426032632,-0.0863827220726601,0.04320345558498452,0.10079251289977774,8.638963424569524e-06,0.10079251289977774,-0.1295809942796499,0.3023792664881017,0.18462299999999998,-0.04417099999999996,-0.904647,-0.181095,-0.028105000000000047,-0.903843,0.365718,0.016065999999999914,0.0008040000000000269,0.9987672158221395,0.9900314241338672,double,-0.903843
48,0.4,stand,-0.015720628825165332,-0.01176047041880848,0.005400216008649055,0.002056235319626761,0.015636137168685588,0.06648712024976676,-0.000120004800195458,0.000240009600390916,0.0003600144005763816,-0.0006000240009639668,0.0,-0.0003600144005755489,-0.9361889324965108,-0.8641347881469926,0.763247235664646,0.028797120137451813,3.4560000165976454e-06,0.11520057655296259,-0.10080460848514831,0.11519539255303775,-0.11520057655286264,0.18475300000000006,-0.04407099999999997,-0.9046890000000001,-0.18096899999999994,-0.028007000000000115,-0.903891,0.365722,0.016063999999999856,0.0007980000000000764,0.9992516385881806,0.9908537629715446,double,-0.903891
49,0.408333,stand,-0.031681267250695144,-0.01440057602305536,0.0008400336013415652,0.0024408330040398274,-0.016621104063914902,0.13753673166336336,0.00036001440057305316,-0.0002400096003909176,-0.000240009600384256,0.0,-0.0016800672026831304,-0.0009600384015361912,-1.91535322519259,-0.3168253455234473,-0.5472437786280452,0.057604608276552546,-0.0576046082781513,-0.07200576034569052,0.07200576034609003,-0.20161612896713482,-0.07200576034569109,0.18502000000000007,-0.04395299999999991,-0.904698,-0.1807049999999999,-0.027900999999999954,-0.903906,0.36572499999999997,0.016051999999999955,0.0007920000000000149,0.9991753458887098,0.9888549678994036,double,-0.903906
50,0.416667,stand,-0.00899928005757441,-0.005519558435324028,0.002759779217662014,-0.016580203191397552,0.005064293581844073,0.06923525169652488,-0.0007199424046016899,-0.00035997120230084497,0.0002399808015361169,-0.0008399328053864003,-0.0002399808015427777,0.0007199424046075181,2.7216207335158042,1.0656368595789925,0.23035104587478364,-0.12958444986497983,-0.014394240689936074,0.057594240691189395,-0.10078387393645302,0.1727965444132891,0.20158157021162798,0.18508899999999995,-0.043909999999999894,-0.904719,-0.18063700000000016,-0.02785700000000002,-0.903923,0.3657260000000001,0.016052999999999873,0.0007960000000000189,0.9986001119910513,0.9901533547051966,double,-0.903923
51,0.425,stand,-0.0070802832113322205,-0.001200048001901295,-0.00036001440057305316,0.009810427478584745,-0.014787654265084094,0.059256612931147215,-0.0006000240009639708,0.00036001440057305316,0.0,-0.0007200288011461063,0.000960038401537024,-0.0015600624024959984,0.23028883310238749,0.5183619864901887,-0.3743902097966008,0.014390784067889052,0.08640172841400455,-0.02879884813825963,0.014389056071078156,0.14400806469216426,-0.27361152131327515,0.18514299999999995,-0.043897000000000075,-0.9047160000000001,-0.18058400000000008,-0.02783900000000017,-0.9039330000000001,0.365727,0.016057999999999906,0.0007829999999999782,0.9988337629715467,0.9888896248916272,double,-0.9039330000000001
52,0.433333,stand,-0.007200288011514309,-0.0006000240009639668,0.0,0.0063997989790976605,-0.024617901840193662,0.058099246820642256,0.0008400336013415596,0.000240009600390916,-0.0004800192007685088,-0.0013200528021100684,-0.0013200528021100684,-0.0014400576023046935,-0.014401152067933225,0.07200576034289281,0.043203456207014476,0.1728138248296561,-0.014401152067939117,-0.05760460827655187,-0.07200576034608899,-0.27362188931322245,0.014401152069039285,0.18520999999999987,-0.043889999999999985,-0.9047200000000001,-0.1805350000000001,-0.02784500000000012,-0.903945,0.365745,0.016044999999999865,0.0007750000000000812,0.9983386087717676,0.9883204662777766,double,-0.903945
53,0.441667,stand,-0.008999280057601113,0.0004799616030589154,-0.001919846412288948,-0.011558115878649114,-0.021387332074071296,0.05316645773583854,-0.0007199424046016947,0.00023998080151613608,-0.0002399808015361185,-0.000959923206144474,0.00035997120230084735,-0.00035997120230334514,-0.21586177658829073,0.12958790545031057,-0.2303631404234412,-0.18718214614150028,-3.4555885265083465e-06,0.028802303723589114,0.04321209454830771,0.2015867535890239,0.12960000000016256,0.18527899999999997,-0.04389200000000004,-0.904706,-0.18046800000000007,-0.027846000000000037,-0.9039320000000001,0.36574700000000004,0.016046000000000005,0.0007739999999999414,0.99867345620738,0.9904490678469452,double,-0.9039320000000001
54,0.45,stand,-0.007080283211332174,0.0014400576023188495,-0.0009600384015370176,0.0017459552049907828,-0.012019081784975344,0.06380240592812755,-0.000360014400586374,-0.00024000960036426957,-0.0003600144005755489,0.0006000240009639668,-0.0010800432017191524,-0.0008400336013440577,0.230288833105596,0.11521612855633387,0.11518156855297329,0.04319308820536652,-0.05760115227173931,-0.014404608069054348,0.1872011528991281,-0.17280864082803235,-0.057609792276576324,0.18533499999999992,-0.043906,-0.904701,-0.180404,-0.027867000000000086,-0.903931,0.3657389999999999,0.016038999999999914,0.0007699999999999374,0.9990618793232118,0.9898099204772295,double,-0.903931
55,0.458333,stand,-0.00648025921036825,0.000840033601328242,-0.00036001440057305316,0.007092178366885409,-0.003989313729927057,0.06496303975037253,0.0002400096003909176,0.0,-0.000120004800192128,-0.0010800432017191595,0.0,0.0,0.07200576034608486,-0.07200576034928706,0.07200576034608974,0.07200576034768907,0.028802304135877855,0.028802304138176107,-0.20161612896713435,0.12961036862104344,0.10080806448386653,0.18539099999999997,-0.04391299999999987,-0.904699,-0.18035899999999994,-0.027873999999999954,-0.9039280000000001,0.3657499999999999,0.016038999999999914,0.0007709999999999662,0.9995527685152303,0.9904899279971348,double,-0.9039280000000001
56,0.466667,stand,-0.01619870410367124,-0.003359731221492315,-0.001679865610759479,-0.03901622622680904,0.1055601747589111,0.1379059205817613,-0.0002399808015427777,-0.0007199424046283331,0.0008399328053755765,0.00011999040075806724,-0.0007199424046016899,0.0011999040076789193,-1.1661200975885506,-0.5039314642213286,-0.1583694756643178,-0.057594240692787964,-0.08638617766118699,0.11518329800428409,0.14399251289623538,-0.08638617765799007,0.14397696276444902,0.1855239999999999,-0.043891000000000124,-0.904678,-0.18022300000000002,-0.027851999999999988,-0.903904,0.36574699999999993,0.016039000000000136,0.0007739999999999414,0.9981133547051879,0.989919247278081,double,-0.903904
57,0.475,stand,-0.0070802832113322205,0.003600144005757178,-0.002880115204611072,-0.023490360717958993,-0.0011638479119768683,0.04801778013555659,-0.00024000960037759439,0.0,-0.000120004800192128,-0.0007200288011461063,-0.0004800192007818352,-0.0008400336013440632,1.0942542772517752,0.8352184360073814,-0.14403571269069915,-3.4559984179394185e-06,0.08639654441717688,-0.11519712055294694,-0.10080633648196034,0.02879193613582807,-0.2448023051749655,0.185581,-0.0439210000000001,-0.904655,-0.18016999999999994,-0.027886000000000077,-0.903887,0.36575099999999994,0.01603500000000002,0.0007679999999999909,0.9995527685152501,0.9903099444735515,double,-0.903887
58,0.483333,stand,-0.007440297611905225,-0.0012000480019279335,0.003000120004806511,0.015199099748015737,0.01849742052148764,0.054751861549146255,0.000120004800195458,-0.0003600144005730508,-0.0002400096003842544,-0.000480019200781832,-0.0007200288011461016,0.0008400336013440577,-0.04320345620700859,-0.5760460827655216,0.7056564513881626,0.043203456207014386,-0.04320345620701419,-0.014401152069137873,0.028802304135878233,-0.028802304135877276,0.2016161289677324,0.18564400000000003,-0.04391400000000001,-0.904682,-0.18011200000000005,-0.027881999999999962,-0.903905,0.3657560000000001,0.016032000000000046,0.0007770000000000277,0.9992516385881909,0.9902199444735515,double,-0.903905
59,0.491667,stand,-0.02711783057356123,0.003719702423819803,-0.013438924886009224,0.06272327472852386,-0.1234477428580499,0.01864801630355797,0.0021598272138183914,-0.003359731221492315,-0.006479481641468495,-0.0002399808015427777,-0.0002399808015427777,-0.0004799616030714012,-2.3611150661934226,0.5903228252637067,-1.9725275846911108,0.24475910890603927,-0.35993722353242874,-0.7486767507900449,0.02880230372438854,0.05760115186024999,-0.15838675358956775,0.18588800000000005,-0.04397300000000004,-0.904624,-0.17988800000000005,-0.027915000000000134,-0.903797,0.3657760000000001,0.016057999999999906,0.0008270000000000222,0.9873140136571942,0.9907502824802794,double,-0.903797
60,0.5,stand,-0.03156126245048636,-0.012240489619590393,0.004680187207489661,-0.008007827797812356,-0.03542367858880342,0.13411589852172548,-0.002520100804038019,0.003480139205575043,0.004080163206528188,-0.000840033601328242,-0.00012000480018213558,0.0,-0.5332331545571998,-1.9152996571955163,2.174380426436929,-0.5616138266958385,0.8208172839394425,1.2672080700824084,-0.07200921634290962,0.014397696071119934,0.05759769627641934,0.1861299999999999,-0.04384199999999994,-0.904629,-0.17963200000000001,-0.027814000000000005,-0.903836,0.3657619999999999,0.01602799999999993,0.0007930000000000437,0.9901243834588248,0.99065572986685,double,-0.903836
61,0.508333,stand,-0.00732029281172309,0.006240249609977291,-0.0032401296051841034,-0.013059261768342984,-0.01633893333399918,0.06205535420902352,0.0019200768030740352,-0.004080163206538986,-0.006240249609983953,-0.0006000240009639668,-0.0003600144005730508,-0.0006000240009598033,2.909032717960299,2.2177774186448587,-0.9504760365623102,0.5328426265585067,-0.9072725803568938,-1.2384990779445695,0.028802304135878344,-0.028802304139075266,-0.07200576034558992,0.186207,-0.04392799999999997,-0.9046540000000001,-0.17957599999999996,-0.02786899999999992,-0.903814,0.36578299999999997,0.016059000000000045,0.0008400000000000629,0.9871682747851054,0.9900637093988001,double,-0.903814
62,0.516667,stand,-0.008759299256058334,0.005759539236866844,-0.0029997600192048115,-0.007450240791858574,0.03656429130390223,0.09260507168688241,0.001319894408458643,-0.0008399328053864059,-0.0016798656107511643,-0.0005999520038436266,-0.0004799616030855586,-0.0005999520038402962,-0.17266695996343323,-0.05768063032282811,0.028842042954078856,-0.07201612606376236,0.38879654441475864,0.5472023037236399,8.638963323746845e-06,-0.014392512900468982,8.638963223795737e-06,0.1862910000000001,-0.043983000000000105,-0.904643,-0.179508,-0.027921000000000085,-0.903794,0.3657990000000001,0.01606200000000002,0.0008489999999999887,0.9961740807795784,0.9898853222932734,double,-0.903794
63,0.525,stand,-0.009120364814588344,0.0030001200047931873,0.0006000240009639668,0.004959941464360919,0.005412684950815978,0.0713193271241259,0.0007200288011461016,-0.0006000240009373203,-0.0013200528021125664,-0.000240009600390916,0.000720028801172748,0.0003600144005763816,-0.04332960020760925,-0.3311435535909811,0.43199136207473454,-0.07198675234759859,0.028790208142215844,0.04317926420719985,0.04319481620697337,0.144004608695344,0.11520057655306298,0.186373,-0.04401299999999986,-0.904659,-0.1794340000000001,-0.027939999999999854,-0.903796,0.3658070000000001,0.016073000000000004,0.0008629999999999471,0.9973017445571537,0.9899699439977268,double,-0.903796
64,0.533333,stand,-0.006720268810759212,0.0033601344053929296,0.001560062402501005,0.011248936482500447,0.01368455238027377,0.0784523610944583,0.0001200048001954596,0.0003600144005730556,-0.0010800432017274938,0.0010800432017458131,-0.001560062402501005,-0.0054002160086399666,0.28802304138115364,0.04320345621021787,0.11520921655310777,-0.07200576034449147,0.11520921654990816,0.02880230413837451,0.15841267276331947,-0.2736218893164255,-0.6912552993179408,0.1864300000000001,-0.04403800000000002,-0.9046810000000001,-0.1793689999999999,-0.027981000000000034,-0.903854,0.365799,0.016056999999999988,0.0008270000000000222,0.9980920452789791,0.9821902263948792,double,-0.903854
65,0.541667,stand,-0.008039356851456533,0.003959683225335912,0.0010799136069025276,0.007159970204814422,-0.007802540315826594,0.057761477558880066,-0.00011999040077138805,-0.0013198944084453037,0.0,-0.0013198944084453037,0.0002399808015427761,0.003839692824573682,-0.15827790265146519,0.07194010318490252,-0.05761324641210388,-0.028797120346393788,-0.20157293124770176,0.1295948166219685,-0.2879694756648786,0.21598790545281585,1.108700363956513,0.1864960000000001,-0.044081999999999955,-0.90469,-0.17931299999999983,-0.028011999999999926,-0.9038309999999999,0.36580899999999994,0.01607000000000003,0.0008590000000000542,0.9977911045082047,0.9846311618043853,double,-0.9038309999999999
66,0.55,stand,-0.0067202688107324765,0.004440177607112037,0.0010800432017324755,0.016061335385331943,0.0041350971331741175,0.05986728198058266,-0.0014400576023055264,0.0032401296051841034,0.005520220808832022,-0.0010800432017457988,0.0007200288011461016,0.00048001920076767607,0.15829689676275663,0.05766163227842592,1.5552001673809545e-05,-0.15841440076012636,0.5472247706263516,0.6624529951796471,0.028783296135785893,0.05760806427496981,-0.4031769619351964,0.18653999999999993,-0.04409200000000002,-0.904653,-0.17926600000000015,-0.02804300000000004,-0.903836,0.3658060000000001,0.01604899999999998,0.0008170000000000677,0.9890652130622533,0.9895233952168567,double,-0.903836
67,0.558333,stand,-0.0004800192007818384,0.008160326413051434,-0.0032401296051841467,0.06228904381284733,0.009054127181181735,0.08300140475274792,0.0001200048001954596,0.00048001920075519197,0.0009600384015361976,-0.00024000960036427277,-0.0001200048002087828,0.0003600144005763864,0.7488599075903871,0.4464357141412974,-0.518441474488979,0.187214976899196,-0.33122649759137607,-0.5472437786266491,0.10080806448836359,-0.10080806448516645,-0.014401152069037656,0.18654500000000007,-0.044156000000000084,-0.904618,-0.17926399999999987,-0.028112000000000137,-0.903806,0.36580899999999994,0.016043999999999947,0.0008120000000000349,0.9981999279971285,0.9911316385881983,double,-0.903806
68,0.566667,stand,-0.013558915286780522,-0.0004799616030855522,0.005519558435323991,-0.024190544377962978,0.012392459323072487,0.01585479610073272,0.0019198464122889224,-0.0035997120230350688,-0.005159587233021483,-0.0007199424046283283,0.0004799616030855522,0.00011999040076805765,-1.5693419829611932,-1.036751621806686,1.0510784785826819,0.21596371635390557,-0.48952858456806214,-0.7342963324403209,-0.05758732952532421,0.07199020917858535,-0.028800575930924752,0.18667400000000012,-0.044181999999999944,-0.904707,-0.179157,-0.028103999999999907,-0.903851,0.36583100000000013,0.016078000000000037,0.0008560000000000789,0.9890373009569926,0.9899840944945433,double,-0.903851
69,0.575,stand,0.019920796831886717,0.00432017280692996,0.01044041761669855,0.014518470110990778,0.15688125174411993,0.09847921549205366,0.00012000480018213638,-0.0006000240009639748,0.0001200048001921288,-0.0003600144005730556,-0.0007200288011461112,-0.0003600144005763864,4.017726163286636,0.5760391707686975,0.5905267228338659,-0.2159896330381378,0.35997696172700366,0.6335763870411208,0.04319308821016153,-0.14400460869214862,-0.05760288027654487,0.18650899999999992,-0.04422300000000012,-0.904793,-0.1793260000000001,-0.028146000000000004,-0.903941,0.365835,0.01607700000000012,0.0008519999999999639,0.9989607279445732,0.9900102473642345,double,-0.903941
70,0.583333,stand,-0.0195607824313134,-0.004680187207502953,0.005400216008649055,-0.056944935291280155,0.028676459009499812,0.02372555119111899,-0.0002400096003775928,-0.0003600144005730508,0.0003600144005763816,-0.0013200528021100684,-0.000720028801172748,0.0003600144005763816,-4.737979030745224,-1.0800864051881525,-0.604848386901413,-0.04320345620541554,0.028802304139076324,0.028802304138275746,-0.11520921655310318,-3.1965423489548793e-12,0.0864069124148284,0.1866700000000001,-0.044186999999999976,-0.9048350000000001,-0.17917399999999994,-0.028113000000000055,-0.903983,0.36584400000000006,0.01607399999999992,0.0008520000000000749,0.9990618793232156,0.9889030771777287,double,-0.903983
71,0.591667,stand,-0.0007199424046016851,0.00611951043916761,-0.002279817614589765,0.04392839279541348,0.028436166019487535,0.04611722960500743,0.0004799616030722306,-0.0008399328053863948,-0.0002399808015361153,-0.0005999520038436186,0.00011999040078470967,-0.000839932805375571,2.2607199456097398,1.295860048796554,-0.9215303123636622,0.08638963324331869,-0.057585601729462484,-0.07199366476031827,0.08640518337730313,0.1007942406956385,-0.14398214614254182,0.18668000000000007,-0.04424500000000009,-0.904818,-0.17917300000000003,-0.028162999999999938,-0.9039710000000001,0.3658530000000001,0.01608200000000015,0.0008469999999999311,0.9983388081227509,0.9897980877454045,double,-0.9039710000000001
72,0.6,stand,-0.009960398415943358,-0.000840033601354894,0.0021600864034516565,0.0029567443043787087,0.019561336786819556,-0.014369145081308972,-0.0004800192007685152,-0.0003600144005730556,0.0001200048001921288,-0.0008400336013282475,-0.0002400096003909192,0.0015600624024960088,-1.1088990773241039,-0.8351786920103886,0.5328097945567577,-0.11520230455307266,0.05759251227809235,0.04320000020739798,-0.028810944135921168,-0.04320172821020427,0.28801094538240746,0.18675900000000012,-0.044240999999999975,-0.904835,-0.17909699999999984,-0.028157999999999905,-0.903976,0.36585599999999996,0.01608300000000007,0.0008589999999999431,0.9989801553034958,0.9884299479127772,double,-0.903976
73,0.608333,stand,-0.004800192007658442,0.0013200528021367149,0.0003600144005730508,0.01671583051535987,0.02714240535979176,0.00726081834871134,0.002880115204611053,-0.001200048001901287,0.00048001920076767607,-0.0007200288011461016,-0.0003600144005730508,-0.0010800432017283122,0.6192495389757464,0.25922073724848194,-0.21601728103667325,0.40323225793586387,-0.10080806448196664,0.043203456207313785,0.014401152067940173,-0.014401152067938445,-0.31682534552073804,0.18682299999999996,-0.044262000000000024,-0.9048339999999999,-0.17906299999999997,-0.028172000000000086,-0.903988,0.36588599999999993,0.016089999999999938,0.0008459999999999024,0.99473861096926,0.9892949157645725,double,-0.903988
74,0.616667,stand,-0.029877609791236763,-0.005639548836108776,-0.0035997120230351165,-0.0135970211022247,0.013685445215304012,0.10860629107928926,-0.0002399808015427793,-0.0002399808015427793,-0.0007199424046075229,0.00011999040075806804,-0.000959923206144474,0.0005999520038394636,-3.0090494100766096,-0.8350853897582831,-0.47512916050014276,-0.37438157021284496,0.11519884813517077,-0.1439838739351099,0.10079424068924579,-0.07198329800473083,0.2015832980042939,0.18707000000000007,-0.04421699999999995,-0.90481,-0.1788129999999999,-0.028132999999999964,-0.903953,0.36588299999999996,0.016083999999999987,0.0008569999999999967,0.9986734562073545,0.9895327851810851,double,-0.903953
75,0.625,stand,0.0012000480019279335,0.004200168006721121,-0.0008400336013415596,0.009452643748215915,0.020139825394837794,0.056567663756926824,-0.0030001200047931873,0.0007200288011461016,-0.0008400336013440577,-0.0006000240009639668,0.0006000240009639668,-0.0009600384015353521,3.729468113904304,1.1808132536697296,0.331174657589529,-0.3312299535881911,0.11520576055308734,-0.014411520069186876,-0.08640518441402038,0.1872011528991281,-0.18720633689845306,0.18703500000000006,-0.04424600000000001,-0.90481,-0.178828,-0.028162999999999938,-0.903954,0.36586300000000005,0.01608300000000007,0.0008559999999999679,0.994670621787095,0.9893044989295456,double,-0.903954
76,0.633333,stand,-0.011640465618626345,-0.0038401536061480703,0.0031201248049886453,-0.011929260889210471,-0.013091036755185277,-0.008930132753897296,0.0030001200047931873,-0.0018000720028652538,0.0001200048001921272,-0.0004800192007551856,-0.0003600144005730508,0.0,-1.540923271397363,-0.9648771886318441,0.4752380182803538,0.7200576034545001,-0.3024241934490993,0.11520921655300383,0.014401152071136528,-0.11520921655310375,0.11520921655290389,0.18715700000000002,-0.04422899999999985,-0.904835,-0.17873499999999987,-0.02813399999999988,-0.90398,0.3658919999999999,0.01609499999999997,0.0008549999999999391,0.9941653857571271,0.99044995999842,double,-0.90398
77,0.641667,stand,-0.0035997120230351165,0.0017998560115308798,-0.0002399808015294577,0.01141982749917731,-0.010770155146541218,0.03226591395232645,-0.0026397888168906425,0.0011999040076606101,-0.0007199424046075229,0.0007199424046016947,0.00023998080151613608,-0.0005999520038402962,0.96481324641124,0.676747014360329,-0.40318041834870677,-0.6767349198084787,0.3599683237972019,-0.10078560172782038,0.14398387393291182,0.07199366475752222,-0.07198848138232537,0.18716500000000003,-0.04423400000000011,-0.9048390000000001,-0.17869899999999994,-0.028147000000000144,-0.903983,0.36586399999999997,0.016086999999999962,0.0008560000000000789,0.995020438525741,0.9898276774361603,double,-0.903983
78,0.65,stand,-0.0003600144005730508,0.002400096003829221,-0.0006000240009639668,-0.002920533523004566,0.02054329927481092,0.07293789370401481,0.0002400096003775928,-0.0004800192007551856,-0.0001200048001921272,0.0003600144005730508,-0.0004800192007551856,-0.0001200048001921272,0.38877926586608086,0.07203168034301434,-0.04320691220862925,0.3455896336575331,-0.2015988489638532,0.071995392345541,-0.04319308820696537,-0.08640345641081466,0.0575959682765111,0.18716999999999995,-0.04425799999999991,-0.9048350000000001,-0.178693,-0.028170999999999946,-0.903979,0.36586299999999994,0.016086999999999962,0.0008560000000000789,0.9990834481989601,0.9904201553035132,double,-0.903979
79,0.658333,stand,-0.004440177607112096,-0.0003600144005730556,0.0014400576023055455,0.0008492407063177439,-0.004489659079927004,0.03241331118250482,0.002640105604233495,-0.0014400576023188686,0.00048001920076768247,0.00012000480018213638,0.0003600144005730556,-0.00024000960038342487,-0.48963917035150395,-0.33122649758817974,0.24481958517575075,0.28802304138436624,-0.11520921655630527,0.07200576034559164,-0.028802304139075554,0.10080806448196913,-0.014401152069038614,0.1872290000000001,-0.044267000000000056,-0.9048430000000001,-0.178655,-0.028164999999999996,-0.903993,0.3658840000000001,0.01610200000000006,0.0008500000000000174,0.9949243659584335,0.9907516385881976,double,-0.903993
80,0.666667,stand,-0.009719222462202678,-0.0034797216222770024,0.0035997120230350688,-0.03078936039933692,-0.01924459053077697,-0.002382812409661333,-0.0032397408207342263,0.0014398848092300135,-0.0011999040076789112,0.0,-0.0005999520038436186,0.0007199424046075133,-0.6334347078342384,-0.37433491981088585,0.25913779946358373,-0.7055251289858023,0.3455654441503312,-0.2015746590408664,-0.014399424067930822,-0.11518675358971285,0.11518502579684795,0.1872830000000001,-0.044225999999999877,-0.904883,-0.178574,-0.02814099999999997,-0.904017,0.3658570000000001,0.016084999999999905,0.0008660000000000334,0.993761909463041,0.9897780750188132,double,-0.904017
81,0.675,stand,0.0007200288011461016,0.002640105604246783,-0.002160086403451628,0.013846305436177734,0.010527163733531408,0.06296273183253785,0.002760110404415595,-0.0018000720028919003,0.0009600384015361848,0.000480019200781832,0.00012000480020878121,0.0009600384015361848,1.2527602620123288,0.7344086435285924,-0.6912034593167734,0.7200109474558738,-0.3888103698694228,0.2592034572441002,0.057604608278150726,0.08639827241718431,0.028812672138325994,0.18730000000000013,-0.04426300000000016,-0.904857,-0.17857599999999985,-0.02816200000000002,-0.903991,0.365876,0.016101000000000143,0.0008660000000000334,0.9942796313268134,0.9895399279971064,double,-0.903991
82,0.683333,stand,-0.0045601824072942325,0.002760110404402308,-0.005400216008649127,-0.010072718667198905,0.05980997701708425,0.07143969084360242,0.0006000240009506516,0.0001200048002087828,0.00024000960038342487,0.0012000480019013031,-0.0018000720028919243,-0.005400216008640799,-0.6336506910404875,0.014401152064745735,-0.3888311058679381,-0.2592207372452854,0.23041843310940846,-0.08640691241482858,0.08640691241083374,-0.23041843310941112,-0.7632610596636316,0.18734300000000004,-0.04428499999999991,-0.90481,-0.17852800000000002,-0.028200000000000003,-0.903991,0.36587100000000006,0.016084999999999905,0.0008190000000000142,0.9989045110654418,0.9821142524552652,double,-0.903991
83,0.691667,stand,-0.009599232061417969,-0.005279577633781215,0.004079673626120621,-0.03334286015228991,-0.007604367235104552,-0.01584885028535211,-0.00011999040075806644,-0.00035997120230084253,0.0003599712023041729,0.00011999040078470967,-0.000479961603058909,-0.0011999040076789112,-0.6046375874878447,-0.9646853897508352,1.1374957565118402,-0.08639481661971592,-0.05759251290012259,0.014394240691234357,-0.1295965444104374,0.15840057593388593,0.503997120345795,0.18742199999999998,-0.04424399999999995,-0.904841,-0.17844700000000002,-0.028159999999999963,-0.904035,0.365869,0.016083999999999987,0.0008059999999999734,0.9991282899481028,0.9897768422873447,double,-0.904035
84,0.7,stand,0.0030001200047932272,0.003960158406330258,-0.0036001440057705256,0.026773817793078507,0.027822752685337324,0.05866486398293872,-0.0019200768030740608,0.0034801392055484196,0.007080283211328105,-0.0016800672026831415,0.0030001200047932272,0.004560182407295898,1.5119827272544475,1.1088126773204796,-0.9216149804261632,-0.21601900903828283,0.460831682209204,0.806469699870874,-0.21601555303826564,0.41762649800218027,0.6912380193177561,0.18738100000000002,-0.044248000000000065,-0.904752,-0.17848599999999992,-0.02816799999999997,-0.903967,0.36586699999999994,0.016080000000000094,0.0007850000000000357,0.9864672748317773,0.9826312160212172,double,-0.903967
85,0.708333,stand,-0.0032401296051841034,-0.0009600384015370176,0.0009600384015370176,-0.007774228421205723,0.007173495382586849,0.013777954344376168,0.0016800672026831191,-0.0030001200047931873,-0.00708028321132801,0.0003600144005730508,-0.00012000480020878121,-0.004680187207487964,-0.7488599075935802,-0.590447234833464,0.547243778628048,0.43203456207334273,-0.7776622117294588,-1.6993359441564928,0.24481958517414903,-0.3744299537983914,-1.1088887093224316,0.18742199999999998,-0.044265,-0.9048189999999999,-0.17845599999999995,-0.028161000000000103,-0.904014,0.3658779999999999,0.016103999999999896,0.0008049999999999446,0.9868815485965055,0.9841240879449125,double,-0.904014
86,0.716667,stand,-0.0077993760499137565,-0.005039596832265082,0.00311975041997616,-0.020958681106275186,0.006268466940864713,-0.017450927678237374,0.00011999040077138805,0.0007199424046016851,0.0005999520038394556,-0.0005999520038436186,0.00035997120232748577,0.0037197024238056244,-0.5470658081029061,-0.4895078510592792,0.25914471063584427,-0.1871942406901511,0.4463717793850305,0.9215545014599721,-0.11518675358971228,0.057592512903319334,1.0079061232653617,0.187488,-0.04421699999999995,-0.9048400000000001,-0.178396,-0.028115999999999808,-0.9040090000000001,0.365884,0.016101000000000143,0.0008310000000000262,0.9984253243992527,0.9853817805393179,double,-0.9040090000000001
87,0.725,stand,0.005160206408258207,0.004440177607112096,-0.004080163206539041,0.029571608019287304,0.027795203459929127,0.050015179341972256,-0.003120124804988687,0.0009600384015370304,-0.0001200048001921288,-0.0002400096003909192,0.00048001920075519197,0.002160086403456653,1.5552121034647883,1.13761843746277,-0.864024196149678,-0.3888293778663272,0.028812672139127266,-0.0863982724146875,0.04319481620697261,0.014406336064767466,-0.1871614088982342,0.187419,-0.04424600000000001,-0.9048069999999999,-0.17844100000000007,-0.02814899999999998,-0.9039569999999999,0.3658600000000001,0.016097000000000028,0.0008500000000000174,0.994555519185246,0.9877904042179729,double,-0.9039569999999999
88,0.733333,stand,-0.0013200528021100684,-0.0008400336013282363,0.0008400336013548828,-0.008953886807711522,0.009689112922279105,0.006497473504999939,0.0033601344053662383,-0.0018000720028652538,0.000600024000960636,-0.000240009600390916,0.00012000480018213478,0.0013200528021117337,-0.777662211732659,-0.6336506910404789,0.5904472348366618,0.777662211731057,-0.33122649758817624,0.086406912414828,3.8382292197674606e-16,-0.04320345620701496,-0.10080806448396924,0.1874579999999999,-0.044254000000000016,-0.9048090000000001,-0.17843200000000015,-0.028141000000000194,-0.903953,0.36589000000000005,0.016112999999999822,0.0008560000000000789,0.993568568666447,0.9891949157645663,double,-0.903953
89,0.741667,stand,-0.008039356851456639,-0.0022798176145897952,-0.0011999040076872533,-0.05600429241590781,0.017408334365155237,0.027573078402302425,-0.00035997120230084735,0.00011999040075806804,-0.00035997120230417775,0.0008399328053864059,0.000959923206144474,-0.0013198944084469866,-0.806251985762732,-0.17276026077052642,-0.24477293125055768,-0.44637696276303174,0.2303890573102151,-0.1151902091750443,0.12958272207551333,0.10078214614378977,-0.31676832380114417,0.18752199999999997,-0.04423400000000011,-0.904802,-0.17835800000000002,-0.028114000000000194,-0.9039539999999999,0.36588,0.016119999999999912,0.0008480000000000709,0.9991282899481028,0.9884608330251936,double,-0.9039539999999999
90,0.75,stand,0.0004800192007551856,0.00012000480018213478,-0.0002400096003775928,-0.001685403790218242,0.010765027129582045,0.016923496899712415,-0.000120004800195458,0.0,-0.0002400096003842544,-0.0003600144005730508,0.0010800432017457988,0.0014400576023038609,1.0223660209062508,0.28799020938100567,0.11519193655462096,0.028797120137452097,-0.014399424067930822,0.014395968069113507,-0.1439994246921219,0.014414976071201766,0.33120748958968393,0.18751700000000004,-0.044235000000000024,-0.904802,-0.17836499999999988,-0.028105999999999964,-0.9039400000000001,0.36588199999999993,0.01612900000000006,0.0008619999999999184,0.9995527685152377,0.9883204659104646,double,-0.9039400000000001
91,0.758333,stand,0.000480019200781832,-0.0013200528021100684,0.0002400096003775928,0.003783191075452068,0.011527638733340206,0.017320089442739346,-0.0028801152045977293,0.0015600624025009842,-0.0010800432017274793,0.000240009600390916,0.0008400336013282363,-0.0009600384015361848,3.1977003231940634e-12,-0.17281382482805677,0.05760460827495303,-0.3312264975881747,0.18721497689919328,-0.10080806448376592,0.07200576034608955,-0.028802304142273066,-0.28802304138245954,0.18748900000000002,-0.044211,-0.904813,-0.17836699999999994,-0.028088000000000113,-0.90395,0.36585599999999996,0.016122999999999887,0.0008629999999999471,0.9942517269238081,0.9892065826980443,double,-0.90395
92,0.766667,stand,0.00035997120230084735,-0.0013198944084453212,-0.0007199424046016947,-0.0023277188301538514,0.01276029709677729,0.023394904168688467,0.00299976001919149,-0.0016798656107461687,0.0002399808015352859,0.00035997120230084735,0.00011999040078471127,0.0014398848092150459,-0.014404607449122312,1.9005719312115566e-05,-0.11518502579545152,0.7055285845679449,-0.38876026076879905,0.15839020917479874,0.014394240689936649,-0.08639827220344723,0.2879677478703197,0.18751099999999998,-0.044213999999999976,-0.9048050000000001,-0.17836699999999994,-0.02807599999999999,-0.9039320000000001,0.3658779999999999,0.016137999999999986,0.0008730000000000127,0.9942558968817257,0.9887882638096963,double,-0.9039320000000001
93,0.775,stand,0.000480019200781832,-0.0006000240009639668,-0.0013200528021100684,0.012961736850541083,8.79448215476801e-05,0.01489085101617097,-0.000120004800195458,-0.0003600144005730508,0.0,0.0006000240009639668,0.00012000480018213478,0.0004800192007685088,0.014406336071160946,0.08638790441393873,-0.0720161283461384,-0.3743867537965841,0.1583884807600039,-0.02879884813815971,0.028807488139099773,1.7279968106944553e-06,-0.11518848055280609,0.18750599999999984,-0.04421199999999992,-0.9047940000000001,-0.17836600000000002,-0.02807000000000004,-0.9039170000000001,0.36587199999999986,0.01614199999999988,0.0008770000000000167,0.9993675191687359,0.9899338000123159,double,-0.9039170000000001
94,0.783333,stand,-0.0002400096003909192,-0.0019200768030740608,0.00012000480018213638,-0.005682576881833776,0.0019161906981342155,0.0193451903481113,0.0002400096003909192,-0.0007200288011727575,0.000600024000960644,0.0007200288011461112,-0.0002400096003909192,-0.0010800432017283265,-0.08640691241722763,-0.15841267276012314,0.1728138248280593,0.043203456208614,-0.04320345621021361,0.07200576034569177,0.014401152067940183,-0.04320345620701515,-0.18721497689869787,0.18750999999999995,-0.044202000000000075,-0.90479,-0.17835800000000002,-0.02805600000000008,-0.9039269999999999,0.36586799999999997,0.016145999999999994,0.0008630000000000582,0.9983874839496691,0.9891699119964829,double,-0.9039269999999999
95,0.791667,stand,0.0005999520038436186,-0.002039836813046989,0.0013198944084453037,-0.013609158260895857,-0.004980502315220814,0.01529169502562414,-0.0002399808015427761,0.0002399808015427761,-0.0004799616030722306,0.0008399328053597516,0.0008399328053863948,0.0009599232061436286,0.10078732952178203,-0.014370051592623851,0.14397523497278114,-0.057594240692787575,0.11519193697090549,-0.12958790545150783,0.014387329519275195,0.12958272207551066,0.24477638683368608,0.18750299999999986,-0.04418300000000008,-0.904805,-0.17835600000000018,-0.028032000000000057,-0.9039299999999999,0.36585900000000005,0.016151000000000026,0.0008750000000000702,0.9990202824802783,0.9887046192181954,double,-0.9039299999999999
96,0.8,stand,0.001200048001901287,-0.0015600624025009842,0.000240009600390916,-0.01755287553021339,0.015430873341575543,0.029586316545778705,0.000120004800195458,-0.00012000480018213478,0.0001200048001921272,0.0008400336013548828,-0.0008400336013548828,-0.0012000480019204393,0.07201440034293363,0.0575752322748113,-0.1295913606209508,0.043200000208596254,-0.04320000020699741,0.07199884834565647,1.20960032558734e-05,-0.20160403297027127,-0.2592069132442168,0.18749400000000005,-0.04417099999999996,-0.904806,-0.17835899999999993,-0.028026000000000106,-0.903942,0.365853,0.016144999999999854,0.0008639999999999759,0.9996535759815315,0.9885456379696064,double,-0.903942
97,0.808333,stand,0.0014400576023188686,-0.0016800672026831415,0.0001200048001954596,-0.002184036240588651,0.003812111847345466,0.017862435678897587,0.0,0.0006000240009639748,-0.0002400096003842576,0.0004800192007818384,0.0007200288011727575,0.0002400096003842576,0.02880230414227574,-0.014401152067941719,-0.014401152069537682,-0.014401152069537874,0.0864069124140305,-0.04320345620741487,-0.043203456207014004,0.18721497690239464,0.17281382482955837,0.18748199999999993,-0.04415199999999997,-0.9048090000000001,-0.17836699999999994,-0.028005999999999975,-0.903941,0.36584899999999987,0.016145999999999994,0.0008680000000000909,0.9989229239555251,0.9898232771763373,double,-0.903941
98,0.816667,stand,0.0010799136069025276,-0.002279817614589765,0.0004799616030722306,-0.005372812694065135,-0.007534065535571725,0.012272164146113599,-0.0032397408207342263,0.0014398848092033701,-0.0005999520038394556,-0.0005999520038436186,0.001199904007660594,0.0005999520038394556,-0.04321382234417306,-0.07196429228541143,0.043191361036329284,-0.38873779946414705,0.10077523496992907,-0.04318963324396391,-0.129586177660841,0.05758041834507234,0.04318963324396391,0.187446,-0.04412100000000008,-0.904818,-0.1783809999999999,-0.02797700000000014,-0.9039400000000001,0.3658269999999999,0.016143999999999936,0.0008779999999999344,0.9940071498025154,0.9887707062007438,double,-0.9039400000000001
99,0.825,stand,0.002400096003855899,-0.0014400576023188686,-0.0009600384015370304,0.0024833495236648174,0.0064370360352143455,0.02251696489459583,0.002640105604233495,-0.0014400576022922224,0.0012000480019204553,0.00024000960036427277,-0.0006000240009639748,0.0007200288011527728,0.15842822476339657,0.10077523248180774,-0.17280691282962607,0.7056097953879485,-0.34560691365602053,0.21600864103683276,0.10079942448192716,-0.21600000103499165,0.01440979206928096,0.18744799999999995,-0.044120999999999855,-0.9048,-0.1783990000000002,-0.02797000000000005,-0.903926,0.36584700000000014,0.016150999999999804,0.0008740000000000414,0.9946034891142677,0.9896474839497015,double,-0.903926
100,0.833333,stand,0.0031201248049753222,-0.0010800432017191524,-0.000240009600390916,0.0058370553634830265,0.001377877028013189,0.020620661338623347,-0.0031201248050019685,0.0009600384015103711,0.00024000960038342167,-0.0006000240009373203,0.0010800432017457988,0.00024000960038342167,0.08640691241082685,0.043203456210214174,0.08640691241402992,-0.6912552993202254,0.28802304137796514,-0.11520921655310568,-0.1008080644787699,0.2016161289703308,-0.05760460827665295,0.187396,-0.04410400000000014,-0.9047959999999999,-0.17842999999999987,-0.027951999999999977,-0.903922,0.3658259999999999,0.016152000000000166,0.0008739999999999304,0.9945445091015668,0.9891622983955884,double,-0.903922
101,0.841667,stand,0.0014398848092300135,-0.0019198464122889224,-0.00035997120230084253,-0.007578686212006552,0.0037776364838509953,0.012387214588450341,0.0028797696184333834,-0.000959923206117818,0.0002399808015361153,0.0005999520038169754,-0.0004799616030855522,-0.0007199424046075133,-0.20161267047579745,-0.10076832380246743,-0.014394240689935878,0.719929736433322,-0.23037696275836025,-3.4555852299463222e-06,0.1439856017223766,-0.1871856017316222,-0.11518502579684757,0.1874079999999999,-0.04409599999999991,-0.904791,-0.17843700000000018,-0.027940000000000076,-0.903925,0.3658450000000001,0.016155999999999837,0.0008660000000000334,0.9949249749858302,0.989585147510732,double,-0.903925
102,0.85,stand,0.002040081603256197,-0.0038401536061481215,0.001800072002878601,-0.005155441012071371,-0.007009043497555476,0.009730328805888283,-0.002640105604220172,0.001800072002865278,-0.0007200288011519401,-0.00012000480018213638,0.000840033601354894,-0.00036001440057555366,0.07202649634299642,-0.23044608110635026,0.25921555324366535,-0.6624115231793599,0.33121267358491796,-0.11520576055298982,-0.08639827241079065,0.15840576076328552,0.043193088207363846,0.187369,-0.044049000000000005,-0.904812,-0.17845500000000003,-0.027900999999999954,-0.9039429999999999,0.36582400000000004,0.01614800000000005,0.0008690000000000087,0.9945408440081969,0.9897737093987882,double,-0.9039429999999999
103,0.858333,stand,0.002520100804038002,-0.004320172806903256,0.0008400336013415596,-0.0013140992269246364,0.006532030294050195,0.029798044569917245,0.002400096003842544,-0.0013200528021100684,-0.0002400096003842544,0.0,-0.0003600144005730508,-0.0009600384015361848,0.05760460827814745,-0.057604608274946865,-0.11520921655310662,0.6048483869029995,-0.3744299537951918,0.057604608276453105,0.014401152067939023,-0.14401152069218046,-0.07200576034568926,0.18736799999999998,-0.04402400000000006,-0.904821,-0.17847600000000008,-0.027868000000000004,-0.9039579999999999,0.36584400000000006,0.01615600000000006,0.0008630000000000582,0.995417240994682,0.9896611308961738,double,-0.9039579999999999
104,0.866667,stand,0.0033597312214923374,-0.0025197984161325748,-0.0002399808015294577,0.004053449002838725,0.0023608104750969983,0.01585027723751976,-0.0032397408207342692,0.0016798656107461687,0.0002399808015361185,0.0005999520038436266,0.0007199424046016947,0.001559875209983105,0.10074759028729785,0.2160276446809085,-0.12959136103563995,-0.6767262808467538,0.3599614126297401,0.05759424069118978,0.07198848138272498,0.129584449864981,0.30236544414678473,0.18731300000000006,-0.043989000000000056,-0.904817,-0.17849899999999996,-0.027841000000000005,-0.903943,0.365812,0.01614800000000005,0.0008739999999999304,0.9939045873713629,0.988227092454985,double,-0.903943
105,0.875,stand,0.0036001440057571543,-0.002880115204611053,-0.0003600144005730508,0.0019071665846950845,0.0003992750603906507,0.01786262741361619,0.0002400096003775928,-0.0006000240009639668,0.0,-0.00012000480018213478,-0.0006000240009639668,-0.0004800192007685088,0.028850688139303478,-0.04323974420718548,-0.01440460806955389,0.41758675400358186,-0.2735976973131076,-0.02879884813825963,-0.08639827241398758,-0.1584023047600691,-0.24479712117503963,0.18728500000000003,-0.043970000000000065,-0.904814,-0.17852999999999986,-0.027822000000000013,-0.9039440000000001,0.3658149999999999,0.01614800000000005,0.0008699999999999264,0.9989229239555293,0.9900038000123159,double,-0.9039440000000001
106,0.883333,stand,0.014760590423628314,0.0030001200047931873,-0.002880115204611053,0.0065844511683716975,0.08301581982763825,0.025600584258943744,0.002520100804038002,-0.001200048001901287,0.0009600384015361848,-0.0003600144005996972,0.0006000240009639668,-0.0003600144005755489,1.3393071424302307,0.7056564513865613,-0.30242419345229704,0.2736218893148205,-0.07200576034289186,0.11520921655300381,-0.02880230414227306,0.1440115206921791,0.014401152069237899,0.187183,-0.04400499999999985,-0.904782,-0.17865600000000015,-0.027841999999999922,-0.903923,0.36583900000000014,0.016162999999999927,0.0008589999999999431,0.9950804536676515,0.9900984598335103,double,-0.903923
107,0.891667,stand,0.011519078473707044,0.003119750419976201,-0.0047996160307223696,0.032494322175289095,0.02826390682250168,0.046940310495005605,0.0,-0.00011999040078471127,-0.000479961603072237,0.0,0.0002399808015427793,0.00011999040076805925,-0.3889503179651173,0.014354501461844783,-0.23032167339948736,-0.3023879054521258,0.129596544410437,-0.1727861776587989,0.0431982722101871,-0.04320172779231936,0.0575959684837546,0.18708700000000011,-0.04403200000000007,-0.9047459999999999,-0.17875200000000002,-0.027865999999999946,-0.903882,0.36583900000000014,0.016166000000000125,0.0008639999999999759,0.9991754448392818,0.9909128221787153,double,-0.903882
108,0.9,stand,0.004560182407294172,-0.002880115204611053,-0.0009600384015370176,0.0070273674438925335,-0.0010766349176623742,0.007522865165367224,0.00012000480018213478,-0.00024000960036426957,0.0004800192007685088,0.0009600384015370176,-0.0019200768030740352,-0.0013200528021125664,-0.8351009320068215,-0.7200126754574857,0.4607677462120888,0.014401152067938832,-0.014402880064749527,0.11520230455307114,0.11520921655310375,-0.25921728124526644,-0.17281209682954754,0.18705000000000005,-0.04400999999999988,-0.9047339999999999,-0.178782,-0.02785799999999994,-0.9038849999999999,0.36583200000000005,0.016151999999999944,0.0008489999999999887,0.9990834481989541,0.9873098319932763,double,-0.9038849999999999
109,0.908333,stand,-0.003600144005757202,-0.01188047521901742,0.006840273610941349,-0.0026618401252554076,-0.006725640633994863,0.01960487030603794,-0.002880115204597768,0.001800072002865278,-0.0014400576023047128,0.0002400096003909192,0.0009600384015370304,-0.00024000960038342487,-0.9792783406998018,-1.0800864051849814,0.9360748844927923,-0.36002880172566065,0.24481958517095478,-0.23041843310611293,-0.08640691241402916,0.34562764965931736,0.12961036862224307,0.1870560000000001,-0.043895999999999935,-0.9048029999999999,-0.17874999999999996,-0.02775099999999986,-0.903944,0.3658060000000001,0.016145000000000076,0.0008589999999999431,0.9938515836037936,0.9897128758401819,double,-0.903944
110,0.916667,stand,0.004319654427663397,-0.0031197504199495167,-0.0007199424046016851,0.010621518954579455,0.0002489362240725624,0.011473404445516843,-0.00011999040077138805,-0.0007199424046016851,-0.00011999040076722505,0.0,0.00035997120230084253,0.0002399808015352827,0.9502997880274223,1.0512028796577677,-0.9071533495971893,0.3311884813806526,-0.3023775386929378,0.15839539255309307,-0.02879884813905896,-0.07200230372404406,0.05759424069098919,0.18701899999999994,-0.043876000000000026,-0.904798,-0.1787860000000001,-0.027722000000000024,-0.903936,0.36580500000000005,0.016154,0.0008620000000000294,0.9987672158221493,0.9906589474291176,double,-0.903936
111,0.925,stand,0.009000360014379562,-0.004440177607112037,0.004200168006721121,0.03226166404803809,-0.02248768613216592,-0.016988092335203795,-0.000120004800195458,0.00012000480018213478,-0.0002400096003842544,0.0007200288011461016,-0.000480019200781832,0.000600024000960636,0.5617071386914851,-0.1584576007635323,0.5904368668334076,-1.7280000083947786e-06,0.10079769648191723,-0.014402880069246232,0.08640691241402838,-0.10080288048513993,0.043206912207530514,0.18694300000000008,-0.043838000000000044,-0.9048350000000001,-0.178855,-0.027689000000000075,-0.903966,0.36579800000000007,0.01614899999999997,0.0008690000000000087,0.9995100824547456,0.9895549369199941,double,-0.903966
112,0.933333,stand,0.00432017280692996,-0.003360134405366283,-0.00024000960037759599,0.005278738216381549,-0.0017071225220231028,0.010052841990123523,0.002640105604220172,-0.0012000480019013031,0.0007200288011519401,-0.00024000960036427277,-0.0003600144005730556,0.00048001920076768247,-0.561644930691185,0.12961036862423664,-0.5328426265569132,0.33122649758978223,-0.15841267275692425,0.1152092165530065,-0.11520921654990797,0.014401152071136146,-0.014401152069237323,0.1869289999999999,-0.04381999999999997,-0.904827,-0.17889299999999997,-0.027664000000000133,-0.9039600000000001,0.36582199999999987,0.016155999999999837,0.0008669999999999511,0.9950198409544612,0.9902529239555466,double,-0.9039600000000001
113,0.941667,stand,0.003959683225335912,-0.00455963522917953,0.000479961603058909,0.012789178327947615,-0.0042809950360530825,0.012622725593201009,0.0008399328053863948,-0.0002399808015427761,0.0002399808015361153,0.00011999040075806644,0.0009599232061444612,-0.0014398848092150266,-0.043255289368136024,-0.14392858457082286,0.0863896332417206,-0.21600345558360493,0.11519884813517156,-0.05760115186174959,0.04319654441112749,0.1583798424187073,-0.23037005159379584,0.18690300000000004,-0.043784000000000045,-0.904829,-0.178925,-0.027618000000000142,-0.9039759999999999,0.36582800000000004,0.016165999999999903,0.0008530000000001037,0.9984901539006139,0.9885788648318539,double,-0.9039759999999999
114,0.95,stand,0.004080163206539041,-0.0038401536061481215,-0.0006000240009506516,0.008038170998213143,-0.002799366413443237,0.0204150397644687,-0.003480139205575066,0.0009600384015370304,-0.001320052802112584,-0.0009600384015370304,0.0001200048002087828,-0.0008400336013440688,0.014458176071418456,0.08634124841370633,-0.12960345661941322,-0.5184293784905196,0.1440080646921658,-0.18721152089868157,-0.12960864062103766,-0.1007942404819016,0.07198502434548941,0.1868399999999999,-0.043744000000000005,-0.9048350000000001,-0.1789670000000001,-0.02758499999999997,-0.9039780000000001,0.365807,0.016159000000000034,0.0008569999999999967,0.9935934967886417,0.9892944989295471,double,-0.9039780000000001
115,0.958333,stand,0.004680187207476307,-0.003960158406356851,-0.000240009600390916,0.00875185944668773,-0.0034184114012228016,0.012437390772132408,-0.000120004800195458,-0.00012000480020878121,0.0003600144005763816,0.00012000480018213478,0.0009600384015370176,-0.000600024000960636,0.07200576034288535,-0.014401152071130328,0.043203456205416296,0.4032322579358687,-0.12961036862424183,0.20161612896783374,0.1296103686210441,0.10080806448196704,0.028802304138177352,0.18679999999999997,-0.04371199999999997,-0.90483,-0.17900500000000008,-0.02754399999999979,-0.9039809999999999,0.36580500000000005,0.016168000000000182,0.0008490000000000997,0.9993366485078585,0.9896125575061991,double,-0.9039809999999999
116,0.966667,stand,0.004439644828421464,-0.005039596832238439,-0.0007199424046016851,0.018384956842454697,-0.003728177823660149,0.016922546998505636,0.0003599712023141642,0.0,0.00011999040076805765,0.0005999520038436186,-0.0008399328053863948,0.0015598752099839168,-0.028862776464463773,-0.12952224932584352,-0.05758732951893033,0.05759251290012221,0.014399424071127945,-0.02880057593092418,0.057589057314792434,-0.2159792664894887,0.2591671719395892,0.186766,-0.0436700000000001,-0.904823,-0.1790370000000001,-0.027509000000000006,-0.903962,0.3658030000000001,0.016161000000000092,0.0008610000000000007,0.9993675950603451,0.9882725579417295,double,-0.903962
117,0.975,stand,0.005040201608049424,-0.007920316812687163,0.0045601824072942325,0.03367633506795703,-0.05957797521410823,-0.016550769625428063,0.0004800192007685152,-0.00024000960036427277,-0.0003600144005763864,-0.00048001920075519197,0.00012000480018213638,-0.001320052802112584,0.07206969634320966,-0.3457002256628765,0.6336403230404375,0.014406336067964973,-0.02880230413587843,-0.05760288027654487,-0.1296017286210033,0.11519712055304691,-0.3456051856590096,0.18672800000000012,-0.04360599999999981,-0.904864,-0.17908299999999988,-0.027441999999999966,-0.904011,0.365811,0.016163999999999845,0.0008529999999999927,0.9989229239555426,0.9891204379926335,double,-0.904011
118,0.983333,stand,0.004920196807867223,-0.00552022080883119,-0.0012000480019146104,0.0239950370654018,-0.008024384718290626,0.013862405847564074,-0.000360014400586374,-0.000240009600390916,0.0002400096003842544,-0.00012000480020878121,-0.0006000240009639668,0.0,-0.01440115206794686,0.2880230413843709,-0.6912552993170309,-0.10080806448516569,-3.1973165002720866e-12,0.07200576034569042,0.04320345620381727,-0.08640691241402858,0.15841267276041984,0.18668400000000007,-0.04356199999999988,-0.904852,-0.17912499999999998,-0.02740100000000001,-0.904001,0.36580900000000005,0.01616099999999987,0.0008509999999999351,0.9991753458886936,0.9904701553034817,double,-0.904001
119,0.991667,stand,0.002879769618433422,-0.007199424046070233,0.0007199424046016947,0.0005803702178032534,-0.011223632145834685,0.013294191042204155,0.0029997600192048115,-0.0015598752099881005,0.0005999520038394636,0.0,0.0004799616030855586,-0.00035997120230334514,-0.24483167619796165,-0.20148826940713377,0.23038041834849005,0.4031406791206149,-0.1583712034553866,0.04318963324396584,0.014399424071128137,0.12958790545350748,-0.04319308882929532,0.1866850000000001,-0.04351499999999997,-0.904853,-0.179149,-0.027336999999999945,-0.90401,0.3658340000000001,0.016178000000000026,0.0008430000000000382,0.9942768226456737,0.9905700799935826,double,-0.90401
120,1.0,stand,0.005640225609039971,-0.01764070562821272,0.014040561622468889,0.0684561837461501,0.021601018622269392,0.014416335865020146,-0.002880115204611053,0.0018000720028919003,-0.0010800432017283122,-0.00024000960036426957,0.0006000240009639668,-0.0012000480019204393,0.3312679695915681,-1.2530039100134938,1.5985382476739636,-0.7056132513879564,0.4032097939373559,-0.20160748896769096,-0.028802304135877664,0.014408064067971639,-0.10081324848399023,0.18661399999999995,-0.043352999999999975,-0.904979,-0.17919799999999997,-0.027185000000000015,-0.9041370000000001,0.3658119999999999,0.01616799999999996,0.0008419999999998984,0.9940600654406367,0.9893083457955141,double,-0.9041370000000001
121,1.008333,stand,0.004200168006721177,-0.005400216008649127,-0.00108004320173249,0.01252208808259105,-0.003535205062620938,0.00770647791383226,-0.0001200048001954596,-0.0006000240009639748,0.0001200048001921288,0.00048001920075519197,-0.0003600144005730556,0.0015600624024960088,-0.17281382483125007,1.4689175110480868,-1.8145451607106104,0.3312264975897778,-0.28802304138436297,0.1440115206912819,0.0864069124108326,-0.11520921655310586,0.3312264975898804,0.1865779999999999,-0.043312999999999935,-0.904969,-0.17922900000000008,-0.027142999999999917,-0.904115,0.365807,0.016170000000000018,0.0008540000000000214,0.9989607279445689,0.9886742109130071,double,-0.904115
122,1.016667,stand,0.006239500839925676,-0.004919606431480372,-0.0010799136069158492,0.008513730859707169,-0.0013582129303794646,0.010924677757571773,0.002639788816903929,-0.0010799136069291708,0.0003599712023041729,0.00011999040075806644,-0.0004799616030855522,0.0005999520038394556,0.24470036395542158,0.05766853577738791,1.555013398617599e-05,0.33114874215255197,-0.057582146144131555,0.028793664760264254,-0.043199999999654765,-0.014392512900467443,-0.11520403151626421,0.18654800000000005,-0.043281000000000125,-0.904957,-0.1792800000000001,-0.027106000000000074,-0.9041009999999999,0.36582800000000015,0.01617500000000005,0.0008560000000000789,0.9952087238817797,0.9901439555438636,double,-0.9041009999999999
123,1.025,stand,0.004440177607112096,-0.008160326413051434,-0.0004800192007685152,0.005656974166664907,0.005741440458248522,0.024417252683825767,-0.002640105604233495,0.0013200528021367324,-0.0010800432017283265,-0.0012000480019013031,-0.00012000480018213638,-0.0009600384015353649,-0.215927425034633,-0.38890195386668563,0.07199020834601458,-0.6336126750434984,0.28800748938748655,-0.17280864082953468,-0.15841094475691608,0.043196544210178704,-0.18720633689845612,0.1864889999999999,-0.04320199999999996,-0.9049619999999999,-0.17932700000000001,-0.027039000000000035,-0.9041049999999999,0.3658159999999999,0.016162999999999927,0.0008569999999999967,0.9947614701172907,0.9888608507183221,double,-0.9041049999999999
124,1.033333,stand,0.003840153606148019,-0.0066002640105769,0.00036001440058636917,-0.012415417721090541,-0.004208635654017284,-0.00015814654173466091,0.00036001440058636917,-0.0003600144005996924,0.0003600144005763768,0.0004800192007551792,-0.0012000480019279175,0.0013200528021117162,-0.07200576034610179,0.18721497689601663,0.10080806448516376,0.36002880173044666,-0.20161612897352638,0.17281382482955454,0.2016161289639329,-0.12961036862423642,0.27362188931321746,0.18645999999999996,-0.04315000000000002,-0.904962,-0.17935500000000015,-0.026993999999999962,-0.904097,0.3658150000000001,0.01615600000000006,0.0008650000000000047,0.9989607279445434,0.9882709159729683,double,-0.904097
125,1.041667,stand,0.005639548836082208,-0.005519558435324138,-0.0015598752099881214,0.005238449237169633,-0.002083722871167504,0.012759904698633102,0.0032397408207343126,-0.0019198464122889736,0.0004799616030714108,-0.0010799136069025565,0.00011999040078471287,-0.0009599232061436541,0.2159101547797244,0.12967429508672704,-0.23036832380303898,0.34553952725557935,-0.18716486821326025,0.014392512898372484,-0.18717696276191087,0.158391936970561,-0.2735752349718519,0.18644000000000005,-0.04312000000000005,-0.904945,-0.179411,-0.026946999999999832,-0.904092,0.36585100000000004,0.016173000000000215,0.0008529999999999927,0.9936727893690264,0.9890535841185601,double,-0.904092
126,1.05,stand,0.00516020640825807,-0.006000240009586295,-0.0016800672026830968,-0.004753536753307892,0.002432696739104722,0.012726662436196896,-0.002640105604233425,0.0009600384015370048,-0.0004800192007676697,0.0002400096003909128,-0.0006000240009639587,-0.001080043201727465,-0.05752339227458652,-0.057684096275308856,-0.014423616068039522,-0.7056097953879317,0.34560000165917776,-0.11520230455286974,0.15839712076004395,-0.08640518441721577,-0.014414976069099812,0.18637499999999996,-0.043062000000000156,-0.904935,-0.17945199999999994,-0.02690199999999998,-0.9040870000000001,0.3658269999999999,0.016160000000000174,0.0008479999999999599,0.9952500731680969,0.989422298395591,double,-0.9040870000000001
127,1.058333,stand,0.0064802592103682935,-0.0055202208088312625,-0.00216008640346498,-0.0006820157385175102,0.007126425670049985,0.01741796475073367,0.003600144005757202,-0.0014400576022922224,0.00024000960038342487,0.00024000960036427277,-0.0012000480019279496,0.0013200528021117513,0.15841267276013865,0.0576046082749354,-0.057604608278157644,0.748859907595186,-0.28802304138116513,0.08640691241462872,-3.1969326773501527e-12,-0.0720057603460934,0.2880230413823639,0.18635099999999993,-0.043028000000000066,-0.9049149999999999,-0.1795040000000001,-0.026866000000000057,-0.9040579999999999,0.36585500000000004,0.01616200000000001,0.0008569999999999967,0.993525175384532,0.9884298799951958,double,-0.9040579999999999
128,1.066667,stand,0.005879529637624834,-0.008279337652999309,0.0019198464122889224,0.005582428991150563,0.001490643490163174,0.010932096177291807,-0.0034797216222636805,0.0011999040076872372,-0.001319894408446969,0.0,0.0002399808015427761,0.0,-0.0720817821866397,-0.3310675358972912,0.4895527736685711,-0.8495159140893723,0.3167700515934053,-0.1871735071790715,-0.028798848135861643,0.17278963324582608,-0.15839366476022812,0.18627300000000002,-0.042948999999999904,-0.904942,-0.17955300000000007,-0.026794999999999902,-0.9040739999999999,0.3658260000000001,0.016154,0.0008680000000000909,0.9934828530770397,0.9909200319974287,double,-0.9040739999999999
129,1.075,stand,0.005040201608076071,-0.00756030241208746,0.0004800192007685152,-0.022827734309996822,-0.011183533843540911,0.01003552491349924,0.0006000240009639748,-0.0003600144005730556,-0.0002400096003842576,0.000360014400599702,-0.0009600384015370304,-0.0001200048001921288,-0.10072339248155175,0.08628768041663927,-0.17278617682952363,0.4895890583496571,-0.1871976968991128,0.12959136062195145,0.04320345621021304,-0.1440080646921658,-0.014401152069138353,0.18623599999999996,-0.042888999999999955,-0.904948,-0.17959199999999997,-0.026739999999999986,-0.904079,0.36582799999999993,0.01614899999999997,0.0008690000000000087,0.9987670678821184,0.9895894661252211,double,-0.904079
130,1.083333,stand,0.0030001200047931474,-0.007440297611905125,-0.0014400576023055071,-0.004514325215374639,-0.009671458405927494,0.0013814285181815286,-0.0006000240009639587,-0.0002400096003909128,0.0,0.0,0.0004800192007551792,-0.0003600144005763768,-0.24481958517735358,0.014401152067962698,-0.2304184331062029,-0.14401152069217718,0.0144011520679396,0.028802304138275937,-0.04320345621021189,0.17281382482805524,-0.028802304138274785,0.18620599999999998,-0.042829000000000006,-0.904936,-0.17961699999999992,-0.026674000000000087,-0.9040699999999999,0.3658229999999999,0.01615499999999992,0.0008660000000000334,0.998922923955521,0.9903399599984167,double,-0.9040699999999999
131,1.091667,stand,0.004079673626094086,-0.007799376049913964,0.00011999040077139125,-0.02402013821453515,-0.0034879059096400568,0.010289413002170908,0.0007199424046017042,0.0002399808015427825,-0.0005999520038394717,-0.00011999040078471287,-0.0009599232061444868,0.0,0.12953607167038148,-0.043085965683806786,0.18719078510642284,0.15838329800404224,0.05759424069278911,-0.0719884813822274,-0.01439769627846354,-0.17277926648664427,0.04319827220738944,0.18617800000000007,-0.04276199999999997,-0.904942,-0.17965199999999992,-0.026617000000000113,-0.904071,0.36583,0.016144999999999854,0.0008710000000000662,0.9983876774361502,0.9896776774361403,double,-0.904071
132,1.1,stand,0.005880235209430808,-0.006960278411149946,-0.0021600864034515992,-0.001205146738693809,-0.0008383853425861924,0.017821443597733706,0.0007200288011594152,-0.00012000480020877961,0.0003600144005763768,-0.0012000480019279175,0.00012000480020877961,-0.0013200528021117162,0.2160760330417245,0.10069574448145964,-0.2736201613132066,1.0368001645383717e-05,-0.04320000021019511,0.11520057655296193,-0.1296120966210471,0.12959654462417466,-0.1584126727603136,0.18613499999999994,-0.04270499999999999,-0.9049210000000001,-0.17971100000000018,-0.02655799999999986,-0.9040640000000001,0.3658460000000001,0.016147000000000133,0.0008569999999999967,0.9986434797425494,0.9884499479127561,double,-0.9040640000000001
133,1.108333,stand,0.01416056642263789,-0.003360134405366283,-0.0022800912036471162,-0.018569583192471227,0.0860817393906739,0.02974242621064016,0.0,0.0,-0.001320052802112584,0.0,-0.0003600144005730556,-0.0002400096003842576,0.9936794927645696,0.4320345620765266,-0.014401152069544954,-0.08640691241562724,0.01440115207113653,-0.20161612896783584,0.1440115206921791,-0.05760460827815188,0.12961036862204112,0.1860170000000001,-0.042677000000000076,-0.9049130000000001,-0.17982900000000002,-0.026532999999999918,-0.904047,0.3658460000000001,0.016144000000000158,0.0008660000000000334,0.9977999119964791,0.9906188608993471,double,-0.904047
134,1.116667,stand,0.011519078473733534,-0.0019198464122889224,-0.00815934725222792,0.07177940480195655,0.004777952782431243,0.0354568594526428,0.0035997120230350688,-0.00155987520998808,0.0003599712023041729,-0.00011999040075806644,0.00023998080151613289,-0.0002399808015352827,-0.31695319761271123,0.1728207335106011,-0.7054542894865321,0.4319308882931415,-0.1871700515944406,0.2015867535897221,-0.014397696275265843,0.07199366475752146,3.4555854301542577e-06,0.18595099999999998,-0.0426740000000001,-0.9048419999999999,-0.17992600000000003,-0.026515000000000066,-0.9039809999999999,0.365877,0.016159000000000034,0.0008610000000000007,0.993433943220791,0.9907900479961884,double,-0.9039809999999999
135,1.125,stand,0.012120484819381692,-0.01068042721708947,0.0055202208088312625,0.06508880623615808,-0.03708175017095193,0.008725750988136712,-0.002880115204611091,0.0014400576023188686,-0.0002400096003842576,-0.0006000240009639748,-0.0010800432017191667,-0.0010800432017283265,0.0721716483437134,-1.0513117490460373,1.6416138318803921,-0.7776103717324155,0.36000633773034635,-0.07200057634566615,-0.057606336278160655,-0.15840921675690767,-0.10081152048398553,0.18582600000000005,-0.04257299999999997,-0.90489,-0.18003199999999997,-0.026434999999999986,-0.904036,0.365858,0.016137999999999986,0.0008540000000000214,0.9946183351145598,0.9887249317310409,double,-0.904036
136,1.133333,stand,-0.0014400576022922224,-0.014400576023028808,0.004920196807880611,0.004339656229506238,-0.029635473731744685,0.01836371447058321,0.003480139205575066,-0.0019200768030740608,-0.0001200048001921288,0.0004800192007818384,-0.0009600384015370304,0.0007200288011519401,-1.627330183808237,-0.44643571414129024,-0.07200576034449259,0.7632610596647323,-0.4032322579374727,0.014401152069138353,0.12961036862424374,0.014401152067939207,0.21601728103687542,0.185867,-0.04246900000000009,-0.9049320000000001,-0.18001599999999995,-0.026323000000000096,-0.9040710000000001,0.36588299999999996,0.016145999999999994,0.0008610000000000007,0.9933725182904077,0.989235847911053,double,-0.9040710000000001
137,1.141667,stand,0.004439644828421464,-0.00611951043916761,-0.00311975041997616,0.01686522660686166,-0.004445897702750711,0.011976908846361461,-0.0035997120230350688,0.0013198944084453037,-0.0011999040076789112,-0.0007199424046283283,0.00035997120230084253,0.0010799136069116863,0.7055078510575523,0.9936483781930807,-0.9647164900236032,-0.8495141862983058,0.38876544414678904,-0.12957753869531727,-0.14398387393930376,0.158388481382033,0.043182722073403346,0.18579999999999997,-0.042407000000000084,-0.9049159999999999,-0.1800590000000002,-0.026269000000000098,-0.904036,0.36585900000000016,0.016137999999999986,0.0008799999999999919,0.9933042680414493,0.988955185153106,double,-0.904036
138,1.15,stand,0.004200168006721177,-0.006840273610941349,-0.0004800192007685152,0.00033009865310101573,-0.008248854905593983,0.01994199997412295,0.003960158406330258,-0.0019200768030740608,0.0006000240009598112,0.0006000240009639748,-0.00012000480018213638,0.0002400096003842576,-0.0287383681387602,-0.086495040414466,0.31678041752162117,0.9072207403534616,-0.38881209786624193,0.21600000103669015,0.15840230476326836,-0.05759942427492899,-0.10079251248379172,0.1857979999999999,-0.042366000000000126,-0.9049069999999999,-0.18008900000000017,-0.026213000000000042,-0.90403,0.3658870000000001,0.016153000000000084,0.0008769999999999056,0.9925970016707457,0.9901345110654292,double,-0.90403
139,1.158333,stand,0.0043201728069031985,-0.006840273610967813,-0.0008400336013415484,0.012668370495255274,-0.010909688112138079,0.013559588318864299,-0.002760110404415558,0.0016800672026830968,-0.0006000240009597953,-0.0006000240009639587,-0.0002400096003909128,-0.0004800192007685024,0.014401152067925018,-3.1758159111680928e-12,-0.043203456207011506,-0.8064645158701186,0.43203456207333424,-0.1440115206911779,-0.14401152069217718,-0.014401152071135764,-0.08640691241482627,0.185739,-0.04229499999999997,-0.904905,-0.18013000000000012,-0.026157999999999904,-0.904027,0.3658690000000001,0.016137000000000068,0.0008779999999999344,0.9945225553271666,0.9898783055457132,double,-0.904027
140,1.166667,stand,-0.0007199424046017042,-0.012239020878308903,-0.0032397408207343126,0.0430616728159338,-0.02794885105862551,0.008163770836232908,0.00011999040077139125,-0.00011999040075806964,-0.000719942404608365,-0.00023998080151613928,-0.0007199424046017042,0.0002399808015361217,-0.6047654441450682,-0.6477978482530828,-0.28794183098065873,0.34558444986645115,-0.2159896332422847,-0.014389057313243584,0.04320172779551552,-0.057587329518934555,0.08639308882945018,0.18574599999999997,-0.042194000000000065,-0.904884,-0.180126,-0.02606200000000003,-0.903998,0.365872,0.016132000000000035,0.0008860000000000534,0.998767215822141,0.9898134562073799,double,-0.903998
141,1.175,stand,0.001440057602292184,-0.009960398415943093,0.001800072002878553,-0.018816899126157267,-0.01434211495312313,0.0025451165686875827,-0.0004800192007685024,-0.0004800192007818256,0.0,-0.0012000480019279175,0.0006000240009639587,-0.002400096003840014,0.2592103692420317,0.2734456333092248,0.6048017309027695,-0.07200403234607981,-0.04320518421021837,0.08639654441477888,-0.11521267255631362,0.1584023047600672,-0.31682188952071155,0.18573000000000006,-0.042115000000000125,-0.904899,-0.18014799999999997,-0.02597399999999994,-0.904033,0.36587800000000004,0.016141000000000183,0.0008660000000000334,0.9988685838934405,0.986757240994677,double,-0.904033
142,1.183333,stand,0.005760230409222182,-0.005040201608076071,-0.0037201488059526618,0.024878390262378026,-0.012472875557765887,0.02824939319837438,0.00024000960037759599,-0.0003600144005730556,-0.00036001440057555366,0.0004800192007818384,-0.0014400576023188686,0.0009600384015361976,0.5184414744905842,0.5904472348334414,-0.662452995179559,0.08640691241402916,0.01440115207113538,-0.043203456207315125,0.20161612897033135,-0.24481958517734861,0.4032322579354665,0.18568399999999996,-0.042076,-0.904871,-0.1801919999999999,-0.025943999999999967,-0.903994,0.36587599999999987,0.016132000000000035,0.0008770000000000167,0.9990618793232164,0.988236554352729,double,-0.903994
143,1.191667,stand,0.0011999040076872372,-0.009839212862960744,0.0011999040076872372,-0.027501337495987665,-0.0200113947479908,-0.003208876727795418,0.00035997120230084253,0.00011999040078470967,0.00011999040076805765,-0.0005999520038436186,0.0002399808015427761,-0.0009599232061436286,-0.547195392552785,-0.5758352837634554,0.5903591089080708,0.014394240691534152,0.05759596848545256,0.057595968483754215,-0.129586177660841,0.20158848138488503,-0.23037696276455621,0.18567699999999987,-0.04199299999999995,-0.90488,-0.180207,-0.025859999999999994,-0.904012,0.3658839999999999,0.016132999999999953,0.0008679999999999799,0.9993367281036767,0.9893914241338647,double,-0.904012
144,1.2,stand,0.003600144005757202,-0.00900036001440633,0.0001200048001954596,-0.01779590889145932,0.005093421815194197,0.02046972116091793,0.003480139205575066,-0.0018000720028919243,0.0006000240009598112,-0.0014400576023188686,-0.0006000240009639748,-0.0002400096003842576,0.28804032138125363,0.10066636848127,-0.12959308862255942,0.37443513779842214,-0.23041670510940257,0.057606336276462014,-0.10081670448521032,-0.10080460848515042,0.0863930884146619,0.18567599999999995,-0.041933,-0.904876,-0.1802490000000001,-0.02578999999999998,-0.904015,0.36592500000000006,0.01614300000000002,0.0008610000000000007,0.9933936779211325,0.9887593054846011,double,-0.904015
145,1.208333,stand,0.004680187207476244,-0.007080283211332079,-0.002040081603269466,0.0013261952922859121,-0.0053617928269993455,0.016594335794531737,0.0004800192007685024,-0.00012000480018213318,-0.0003600144005763768,0.0015600624025009636,-0.0016800672026830968,-0.003360134405376186,0.12961036862102765,0.23041843310623022,-0.2592207372452764,-0.36002880172885043,0.2016161289703302,-0.11520921655300267,0.36002880173044277,-0.12961036862103723,-0.37442995379717675,0.18564100000000006,-0.041874999999999885,-0.904862,-0.18027499999999996,-0.025744999999999907,-0.904026,0.365916,0.016129999999999978,0.0008360000000000589,0.9989801553034958,0.9848603483112615,double,-0.904026
146,1.216667,stand,0.012838972882179181,-0.002159827213805113,-0.005999520038396382,0.0415220764740135,-0.0030744848789266924,0.03547569713692572,-0.00011999040077139125,0.00011999040075806964,-0.00011999040076722825,-0.0014398848092034085,0.0007199424046017042,0.003359731221502373,0.9789759628873401,0.5904074871042788,-0.47509460464686726,-0.07199539255338433,0.02879712034319743,0.02880057593102389,-0.3599648682150743,0.2879781146250116,0.8063193696758685,0.18553299999999995,-0.041856000000000115,-0.904813,-0.18039399999999994,-0.025721000000000105,-0.903948,0.3659269999999999,0.01613500000000001,0.0008650000000000047,0.9996536175490891,0.985140826855357,double,-0.903948
147,1.225,stand,0.003960158406330152,-0.008040321612869085,-0.0013200528021100508,-0.01234213846811207,-0.0087587760236874,0.008788435957118496,-0.0028801152046110143,0.0008400336013548716,-0.0012000480019204232,-0.0014400576023188305,-0.0002400096003909128,-0.000960038401536172,-1.0655003571161494,-0.7056875553898799,0.5615585306955777,-0.33122822558977255,0.08640864041723141,-0.12961209662224604,-2.0736003290767435e-05,-0.11519884855305415,-0.5183930904882359,0.18547599999999997,-0.041781999999999986,-0.9048120000000001,-0.18043900000000002,-0.025656000000000123,-0.903945,0.365915,0.016125999999999863,0.0008670000000000622,0.9946146197776475,0.9884178395578482,double,-0.903945
148,1.233333,stand,0.004680187207503015,-0.008040321612869298,-0.001560062402501005,-0.004685548135298871,-0.0082492886934256,0.009882340139301457,0.0001200048001954596,0.0,0.0002400096003842576,0.0001200048002087828,-0.001800072002865278,0.0014400576023038802,0.08640691241724109,-2.560554272712699e-14,-0.02880230413908033,0.3600288017288493,-0.10080806448516492,0.17281382482955646,0.18721497690239142,-0.18721497689600136,0.2880230413824642,0.18543799999999988,-0.04171499999999995,-0.904797,-0.180477,-0.02560399999999996,-0.90392,0.3659149999999999,0.016110999999999986,0.0008770000000000167,0.9995527685152377,0.9873827692984558,double,-0.90392
149,1.241667,stand,0.0013198944084453037,-0.01475881929446776,0.005879529637624834,0.01370506380012481,-0.05124530704553885,-0.010219079923610989,-0.00011999040077138805,-0.0004799616030855522,-0.0005999520038394556,-0.0010799136069291708,-0.0008399328053863948,-0.0007199424046075133,-0.4032028796565498,-0.8061552293734594,0.8926796304446583,-0.028797120346393788,-0.05759078510745723,-0.10078732952048318,-0.14397869056130844,0.11520748709849722,-0.2591792664880462,0.18542599999999987,-0.041595999999999966,-0.904851,-0.18049700000000013,-0.025487999999999955,-0.903975,0.365923,0.01610800000000001,0.0008759999999999879,0.9987039555438602,0.988663386383714,double,-0.903975
150,1.25,stand,0.00540021600862248,-0.008040321612842651,-0.0006000240009506516,-0.005820897183637466,-0.010918864958776756,0.009837253038569723,0.000840033601354894,0.0002400096003909192,-0.0001200048001921288,0.0001200048002087828,-0.0003600144005730556,-0.0001200048001921288,0.48965817834839953,0.8062519718738954,-0.7775775397306546,0.11520748855469708,0.08640000041719405,0.0575959682764108,0.14399596869530357,0.05759251227809235,0.07199539234554063,0.1853880000000001,-0.04152700000000009,-0.9048470000000001,-0.18054099999999984,-0.025424000000000113,-0.9039710000000001,0.36592899999999995,0.01610299999999998,0.0008759999999999879,0.9985302473642044,0.9905766485078653,double,-0.9039710000000001
151,1.258333,stand,0.0033601344053929296,-0.008640345613833273,-0.001800072002878601,-0.005778400412351618,-0.004712716882408975,0.01585661595129551,0.0034801392055617427,-0.00216008640346498,0.00048001920076768247,-0.000840033601354894,-0.0009600384015370304,-0.0014400576023038802,-0.2448195851709551,-0.07200576034928925,-0.14401152069218295,0.3168253455186455,-0.2880230413843659,0.07200576034559183,-0.1152092165563045,-0.07200576034609148,-0.15841267276032203,0.18538899999999991,-0.04147300000000009,-0.9048280000000001,-0.18057600000000007,-0.02536000000000005,-0.9039680000000001,0.365965,0.016113000000000044,0.0008599999999999719,0.9931265889525838,0.9881936278367287,double,-0.9039680000000001
152,1.266667,stand,0.0032397408207342263,-0.009479241660659903,0.0004799616030722306,-0.015918096659581892,-0.0162933334491218,0.01204824467017352,-0.003119750419962838,0.00155987520998808,-0.0002399808015361153,-0.0005999520038436186,-0.0007199424046016851,0.0017998560115191995,-0.014446074473086438,-0.1006594728613659,0.2735821461424063,-0.7919234011908485,0.4463596848395766,-0.08639308882934872,0.028807487102384628,0.028809214895049614,0.3887585329761285,0.18533599999999995,-0.04138100000000011,-0.904834,-0.1806080000000001,-0.02528700000000006,-0.903957,0.36594400000000005,0.016094000000000053,0.0008770000000000167,0.9941729452506483,0.9878479636578512,double,-0.903957
153,1.275,stand,0.0045601824072942325,-0.007200288011541051,-0.0025201008040380353,-0.0024857979312005395,-0.01274030071108553,0.008313823268140405,-0.0002400096003909192,-0.0003600144005730556,-0.0006000240009598112,-0.0016800672026831415,0.0006000240009639748,-0.0024000960038400776,0.1584593287603526,0.27348537730935707,-0.3600218897288244,0.34558272165749976,-0.23039596910610263,-0.0432069122073322,-0.12961900862108877,0.15840230476007103,-0.5040144024192146,0.1852959999999999,-0.041323999999999916,-0.904818,-0.18066000000000004,-0.025221999999999856,-0.903956,0.36595599999999995,0.01610200000000006,0.0008620000000000294,0.9987670678821206,0.9863958263153052,double,-0.903956
154,1.283333,stand,0.0030001200047931474,-0.009000360014379443,-0.000360014400573046,-0.016736445584948224,-0.011501761053652993,0.0119373983212627,0.004320172806916521,-0.0013200528021100508,0.0012000480019204232,-0.0009600384015370048,-0.0008400336013548716,0.0004800192007676697,-0.1872149768992029,-0.21601728103184448,0.259220737245284,0.5472437786280284,-0.11520921655309954,0.21601728103686582,0.08640691241403145,-0.1728138248312518,0.34562764965890996,0.185307,-0.041260000000000074,-0.9048050000000001,-0.180693,-0.02515400000000012,-0.903949,0.366,0.016105999999999954,0.0008560000000000789,0.9922099515603965,0.9891683457954997,double,-0.903949
155,1.291667,stand,0.005399568034566068,-0.016798656107515197,0.010679145668347424,0.05005666988415722,0.021821139329175215,0.014150256262705347,0.00011999040077139125,-0.0002399808015427825,-0.00011999040076806085,0.00011999040075806964,-0.0007199424046017042,0.001079913606911715,0.28791073071429885,-0.9357206735224265,1.3245932408112167,-0.5039815702118082,0.12959827220629816,-0.15839193696766368,0.12959308882830511,0.01440979082711419,0.07198157021166987,0.18526299999999996,-0.0411220000000001,-0.904895,-0.18073700000000015,-0.025020000000000042,-0.9040290000000001,0.3660000000000001,0.01610200000000006,0.0008659999999999224,0.9995101412401324,0.9891676176923512,double,-0.9040290000000001
156,1.3,stand,0.0032401296051840604,-0.009960398415943093,0.000360014400573046,-0.015229280242685508,0.0015836071287837737,0.019588662223337324,0.0,-0.0008400336013282252,0.00036001440057554406,-0.0004800192007551792,-0.00012000480018213318,-0.0001200048001921256,-0.2591429772449262,0.8206237479385556,-1.2383452859443413,-0.014399424069529479,-0.07200921634290558,0.057602880276442635,-0.07200403234288232,0.0719953923460411,-0.14399596869120598,0.18523599999999996,-0.041045999999999916,-0.904895,-0.18076800000000004,-0.024937999999999905,-0.904033,0.366004,0.01610800000000001,0.0008620000000000294,0.9984767844502298,0.9905314379201169,double,-0.904033
157,1.308333,stand,0.005880235209404319,-0.006720268810759212,-0.002400096003842576,0.013432179539231382,-0.009923697315611428,0.02768368694986012,0.0007200288011461112,-0.0006000240009639748,-0.00036001440057555366,-0.0003600144005730556,-0.001560062402501005,0.0015600624024960088,0.3168253455202547,0.3888311058663039,-0.3312264975897813,0.0864069124140307,0.028802304135875745,-0.0864069124146291,0.014401152067937678,-0.17281382483125945,0.20161612896773667,0.18519299999999994,-0.04099499999999989,-0.904878,-0.18081999999999998,-0.02489499999999989,-0.904,0.3660129999999999,0.016100000000000003,0.0008779999999999344,0.9983266130114558,0.9874942637685066,double,-0.904
158,1.316667,stand,0.0028797696184333834,-0.008639308855273508,-0.0004799616030722306,0.0008950470007160403,-0.021946493364684988,-0.013517149907020336,0.0002399808015427761,0.00023998080151613289,0.00011999040076805765,-0.0002399808015427761,-0.00011999040078470967,-0.00035997120230334037,-0.3600270687510094,-0.2302663840309913,0.23039769627673753,-0.05760115186025095,0.10079251289658042,0.057595968483754215,0.01440287965326117,0.1727948166206245,-0.23038560172778194,0.18517099999999997,-0.04092100000000021,-0.904873,-0.18084600000000006,-0.02482400000000018,-0.903999,0.36601700000000004,0.016097000000000028,0.0008740000000000414,0.9994000479961744,0.9905117283843615,double,-0.903999
159,1.325,stand,0.005160206408258207,-0.008640345613833273,0.001560062402501005,0.009939846980360078,-0.005545108681542361,0.00222498560373786,0.0,-0.0006000240009373283,0.0008400336013440688,-0.0003600144005730556,0.0001200048002087828,-0.001320052802112584,0.2736633613134339,-0.00012441600381192327,0.24481267317571753,-0.028798848139058957,-0.10080460847875541,0.08640864041473872,-0.01440460806795639,0.028800576142265052,-0.11521440055313241,0.18512799999999996,-0.040853999999999946,-0.904879,-0.18089200000000005,-0.024750999999999967,-0.904023,0.36602,0.01610299999999998,0.0008559999999999679,0.9982794661252585,0.9891508038036982,double,-0.904023
160,1.333333,stand,0.006000240009586295,-0.008160326413051217,-0.002640105604233425,0.03825049940857552,-0.010567950512128462,0.022638911354655507,0.00012000480018213318,0.00024000960036426637,0.00012000480019129289,-0.0018000720028918764,-0.0007200288011727383,-0.0004800192007676697,0.10080806448194803,0.05760460827817682,-0.5040403224210196,0.014401152067938447,0.10080806447876875,-0.0864069124148282,-0.17281382483124874,-0.10080806448836031,0.10080806448396731,0.185079,-0.04078400000000015,-0.904856,-0.18095700000000003,-0.024689000000000183,-0.904005,0.36603600000000003,0.01609499999999997,0.0008510000000000462,0.9995100824547756,0.9881612034526894,double,-0.904005
161,1.341667,stand,0.01403887688986645,-0.002639788816890678,-0.0025197984161192868,-0.016272029596229105,0.08795318662923,0.02935673512874647,0.0004799616030722434,-0.00023998080151613928,-0.0004799616030714108,0.0003599712023008521,-0.0007199424046017042,0.0016798656107511866,0.9645592608927657,0.6624115186177879,0.014435707717079473,0.04319136103793102,-0.05759424068639486,-0.07199020917479183,0.259184449867143,1.036675918335681e-05,0.259165444146736,0.18496599999999985,-0.04076400000000002,-0.9048390000000001,-0.1810710000000002,-0.024673000000000167,-0.90397,0.36603700000000006,0.016090999999999855,0.0008690000000000087,0.9988000959923314,0.9882054134276784,double,-0.90397
162,1.35,stand,0.0026401056042201017,-0.009240369614797002,-0.0008400336013415484,-0.0004999591858603669,0.0005161703939027159,0.0011959740490434967,-0.00012000480018213318,-0.0007200288011727383,-0.0002400096003842512,-0.0013200528021100508,-0.00024000960036426637,0.0,-1.3679072705683606,-0.7921013798039371,0.20157984096696377,-0.0719988483444577,-0.057608064281362135,0.028795392138144173,-0.20161094496710352,0.057594240278102664,-0.20159193696761757,0.18494299999999997,-0.04069300000000009,-0.904834,-0.18110400000000015,-0.024597999999999898,-0.9039630000000001,0.3660470000000001,0.016095000000000192,0.0008709999999999551,0.9987193239254406,0.9890538425762124,double,-0.9039630000000001
163,1.358333,stand,-0.005400216008649127,-0.014160566422664536,0.003960158406330258,-0.005472137796413411,-0.015178333776161944,0.009093275458831597,0.00012000480018213638,-0.0003600144005730556,0.0001200048001921288,-0.0008400336013282475,-0.0014400576023188686,-0.0024000960038400776,-0.9648771886318616,-0.5904472348335029,0.5760460827639325,0.028802304135878046,0.04320345621021073,0.04320345620741429,0.057604608278148055,-0.1440115206953814,-0.28802304138246726,0.18498899999999996,-0.040578,-0.904866,-0.18106599999999995,-0.024491999999999958,-0.9040159999999999,0.3660549999999999,0.016086000000000045,0.0008500000000000174,0.9993366485078786,0.9866294869147176,double,-0.9040159999999999
164,1.366667,stand,0.0028797696184333834,-0.008279337652972665,-0.0005999520038436186,-0.003772217897751937,-0.00021457787349658062,0.0026890043162047105,0.0,0.0,0.0005999520038394556,-0.0002399808015427761,-0.0013198944084453037,0.001319894408446969,0.9935187937463941,0.7056909970832526,-0.547169475662808,-0.014399424067930822,0.04319827220698978,0.05758905731309373,0.07200057592818176,0.014418429790444448,0.44636314042320835,0.18496499999999994,-0.04050900000000013,-0.904856,-0.18109200000000003,-0.024434000000000067,-0.9039999999999999,0.36605699999999997,0.01607500000000006,0.0008560000000000789,0.999000079993601,0.9883033735018496,double,-0.9039999999999999
165,1.375,stand,0.0019200768030740608,-0.00900036001440633,0.0004800192007685152,-0.02378545041808325,-0.013375873958184755,-0.0053159530942787185,0.0,0.0002400096003909192,-0.0006000240009598112,-0.00048001920075519197,-0.00048001920075519197,0.0001200048001921288,-0.1151677445529019,-0.08652614441781721,0.12960172862260214,0.0,0.02880230413907613,-0.14400288069114098,-0.028805760135895603,0.10078905648507373,-0.14399251269108979,0.18494899999999992,-0.040432000000000023,-0.9048649999999999,-0.18111199999999994,-0.024362999999999913,-0.904003,0.36606099999999986,0.01606900000000011,0.0008619999999999184,0.9989229239555274,0.9902310415123826,double,-0.904003
166,1.383333,stand,0.0030001200047932272,-0.007680307212296243,-0.0008400336013415707,-0.011772145239568656,0.002870642905906856,0.00010054894118496391,0.0002400096003909192,-0.0003600144005730556,-0.0001200048001921288,0.00012000480018213638,-0.0002400096003909192,0.0006000240009598112,0.129610368621046,0.1584126727601222,-0.15841267276012216,0.02880230413907613,-0.07200576034609148,0.05760460827645347,0.07200576034289377,0.02880230413587843,0.05760460827645347,0.18492600000000003,-0.040370999999999935,-0.904859,-0.18113599999999996,-0.024300999999999906,-0.903991,0.366062,0.01607000000000003,0.0008679999999999799,0.9992516385881864,0.9902245110654314,double,-0.903991
167,1.391667,stand,0.002039836813046989,-0.007919366450671823,-0.0004799616030722306,-0.010710135514695305,-0.008216958074487333,0.00031319055662856624,0.00011999040077138805,-0.0002399808015427761,0.0004799616030722306,-0.0005999520038436186,-0.00035997120230084253,0.0,-0.11522476502834546,-0.028684813819963826,0.04320518337765027,-0.014401151862194653,0.01440287965326117,0.07199020917498858,-0.08638790545065389,-0.014394240689935495,-0.07199712034554916,0.18491000000000013,-0.04030700000000009,-0.904851,-0.18115799999999993,-0.024237999999999982,-0.903987,0.36606800000000006,0.01606900000000011,0.0008639999999999759,0.9990835581763478,0.9901939029087952,double,-0.903987
168,1.4,stand,0.001560062402501005,-0.007920316812687163,-0.0009600384015370304,-0.014710070477947387,-0.00930627846523443,0.005526076857498423,0.0,0.0001200048002087828,-0.0001200048001921288,-0.0009600384015370304,-0.0002400096003909192,-0.002280091203647949,-0.057575232274809575,-0.00011404800376084862,-0.057611520276587565,-0.014399424069529479,0.04320000021019587,-0.0719988483456576,-0.043212096207058084,0.014395968067913647,-0.2736218893133289,0.1848970000000001,-0.04023999999999983,-0.904844,-0.18117899999999998,-0.024173999999999918,-0.903998,0.36607600000000007,0.016065999999999914,0.0008460000000000134,0.9997171459733444,0.9873973712594073,double,-0.903998
169,1.408333,stand,0.002400096003855835,-0.008160326413051217,-0.000720028801146092,-0.012728474339974998,-0.0077895374360860015,-3.987228508494807e-05,0.0002400096003775896,0.0,0.0001200048001921256,0.00012000480018213318,-0.0013200528021100508,0.0015600624024959674,0.10080806448515722,-0.028802304135851494,0.028802304139077663,0.028802304137475747,-0.01440115207113653,0.028802304138275555,0.12961036862104222,-0.12961036862103836,0.46083686621191033,0.1848789999999999,-0.040171999999999874,-0.904837,-0.1811980000000002,-0.024116999999999944,-0.903979,0.3660770000000001,0.01605499999999993,0.0008580000000000254,0.9995527685152501,0.9880081191029211,double,-0.903979
170,1.416667,stand,0.002039836813047043,-0.00707943364531226,-0.0015598752099881214,-0.012621958244743069,-0.012921966495800156,0.002435091189135223,-0.00011999040077139125,-0.00035997120232749536,-0.0002399808015361217,-0.0003599712023008521,0.0002399808015427825,-0.0011999040076789433,-0.04322764468548101,0.1296967563881663,-0.100773507180471,-0.043196544414325376,-0.043193088832193686,-0.04319481662206073,-0.05759251289692758,0.18718905731375846,-0.3311694756629425,0.18486099999999994,-0.04011600000000004,-0.904826,-0.1812180000000001,-0.024055999999999855,-0.903976,0.36607900000000004,0.016060000000000185,0.0008500000000000174,0.9992517283843411,0.9893741409061805,double,-0.903976
171,1.425,stand,0.0009600384015370048,-0.009600384015343402,0.0013200528021100508,-0.025961399714902317,0.017472815958302208,0.021046718460986834,0.0002400096003909128,0.0,-0.0001200048001921256,-0.00024000960036426637,-0.0003600144005996924,0.0002400096003834185,-0.12958099262090714,-0.30252614544954975,0.345605185659201,0.04320172820860407,0.04319827221018709,0.014397696069122045,0.014395968071112883,-0.0720023043492697,0.17279654482927356,0.184855,-0.04003600000000018,-0.9048379999999999,-0.18122799999999994,-0.023979000000000195,-0.9039849999999999,0.36608299999999994,0.016056999999999988,0.0008529999999999927,0.9995527685152303,0.9906453458886998,double,-0.9039849999999999
172,1.433333,stand,0.0009600384015370304,-0.008040321612869298,-0.0008400336013415707,-0.01830943587463566,-0.00737892634545585,-0.0007651131301231629,0.00024000960037759599,0.0004800192007818384,-0.00048001920076768247,-0.000840033601354894,-0.0015600624024743586,0.0007200288011519401,3.070583375814009e-15,0.18721497689596997,-0.25922073724368666,-1.5980825157530996e-12,0.05760460827815226,-0.04320345620731551,-0.07200576034928995,-0.1440115206857887,0.05760460827655418,0.18484899999999993,-0.03996500000000003,-0.904835,-0.18124300000000004,-0.023924999999999974,-0.903972,0.366092,0.016040000000000054,0.0008629999999999471,0.9987999519980686,0.9881823970058001,double,-0.903972
173,1.441667,stand,0.002519798416132541,-0.006479481641468453,-0.0017998560115175344,-0.00564507673953027,-0.00910410087488693,-0.00016262390011190423,0.0004799616030722306,-0.0004799616030855522,0.0,0.00011999040075806644,-0.0007199424046283283,0.0002399808015361153,0.1871562292531196,0.18728581370300382,-0.11516947566306171,0.028791936968398463,-0.11518848138557515,0.05759769627641934,0.11519366476037354,0.10080633523470409,-0.05760115186174959,0.18483199999999989,-0.039915000000000145,-0.90482,-0.18126300000000017,-0.023877000000000148,-0.903955,0.36609500000000006,0.016037999999999997,0.0008650000000000047,0.9988687196525126,0.990069477594276,double,-0.903955
174,1.45,stand,-0.0010800432017458131,-0.01044041761669855,0.0025201008040380353,-0.02893825481778627,0.005306300778635584,0.012199739721377811,-0.0003600144005730556,-0.00048001920075519197,0.00048001920076768247,-0.00012000480018213638,0.000360014400599702,-0.0014400576023038802,-0.4319982740763695,-0.4753313302808273,0.5184155544888527,-0.1008011524835346,-6.911996836646528e-06,0.05760460827645348,-0.02880057613587004,0.1296000006273899,-0.20161267296772,0.18483800000000006,-0.03983200000000009,-0.904837,-0.18125499999999994,-0.023787000000000003,-0.903988,0.366093,0.016045000000000087,0.0008489999999999887,0.9987193239254866,0.9890279659894335,double,-0.903988
175,1.458333,stand,0.0012000480019279175,-0.009360374414979136,0.0002400096003775896,-0.019936249873082783,-0.008888079531486072,0.0031097952908025806,0.0002400096003775896,0.0008400336013548716,-0.0007200288011519209,0.0,-0.0010800432017457843,0.0,0.2736218893164155,0.12961036862107234,-0.2736218893148213,0.07200576034448994,0.15841267276011528,-0.14401152069117754,0.014401152067938832,-0.1728138248344487,0.1728138248294558,0.18482999999999994,-0.03974699999999998,-0.904845,-0.181265,-0.023718000000000128,-0.90399,0.36609499999999995,0.01602899999999985,0.0008550000000000502,0.9981131282987097,0.9896499279970903,double,-0.90399
