frame_id,timestamp,gait_type,root_linear_velocity_x,root_linear_velocity_y,root_linear_velocity_z,root_angular_velocity_x,root_angular_velocity_y,root_angular_velocity_z,left_linear_velocity_x,left_linear_velocity_y,left_linear_velocity_z,right_linear_velocity_x,right_linear_velocity_y,right_linear_velocity_z,root_acceleration_x,root_acceleration_y,root_acceleration_z,left_acceleration_x,left_acceleration_y,left_acceleration_z,right_acceleration_x,right_acceleration_y,right_acceleration_z,left_pos_rel_x,left_pos_rel_y,left_pos_rel_z,right_pos_rel_x,right_pos_rel_y,right_pos_rel_z,step_length,step_width,step_height,left_contact_prob,right_contact_prob,support_type,max_foot_height
1,0.008333,stand,-0.34549381975279925,0.1286451458058343,-0.018720748829958597,-0.16389402431066566,-0.26721031569673775,-0.46248090256478475,-0.11004440177607784,0.036721468858751105,0.0014400576023042833,0.01032041281651632,-0.01188047521901065,-0.054002160086403336,0.0,0.0,0.0,0.0,0.0,0.0,0.0,0.0,0.0,0.151432,-0.023867000000000027,-0.902466,-0.2473479999999999,-0.04622100000000001,-0.9007649999999999,0.3987799999999999,0.022353999999999985,0.0017010000000000636,0.8066357036051652,0.8892425569810868,double,-0.9007649999999999
2,0.016667,stand,-0.31953443724503017,0.139788816894645,-0.021598272138223896,-0.03795915035828057,-0.27658611313943005,-0.4075789351118508,-0.12263018958482928,0.024958003359729534,0.0050395968322534635,0.007199424046070191,-0.014878809695225939,-0.044996400287976995,3.1148767107954254,1.3371335599724863,-0.34527517497783755,-1.5101737231523207,-1.4115029396474166,0.431910154781519,-0.37448869335806684,-0.3597713554373997,1.0806047274329662,0.15307300000000013,-0.024824000000000013,-0.902244,-0.24462499999999987,-0.04751,-0.90096,0.397698,0.022685999999999984,0.0012840000000000629,0.7912573163920396,0.9072662037692514,double,-0.90096
3,0.025,stand,-0.32053282131283667,0.11028441137645544,-0.02064082563303264,-0.046414283577568494,-0.29727296951598475,-0.5430164022582309,-0.12444497779911984,0.0381615264610633,-0.0006000240009602221,0.004440177607112055,-0.015000600023999307,-0.03696147845913869,-0.11981088057200305,-3.5406702889943085,0.11489817655001248,-0.2177832970467485,1.5844861516061162,-0.6767815712484921,-0.33112281758767986,-0.014615424069766951,0.9642291886281416,0.15470699999999993,-0.025424999999999975,-0.902077,-0.24191699999999994,-0.048553999999999986,-0.901096,0.39662399999999987,0.02312900000000001,0.0009810000000000096,0.7830564933363757,0.9232969662290758,double,-0.901096
4,0.033333,stand,-0.30529221168847975,0.09096363854554619,-0.012480499219967956,-0.1907676458213616,-0.26376272595363687,-0.39766334921715574,-0.14760590423616385,0.015240609624383563,-0.027601104044161474,0.0018000720028652614,-0.01632065282611604,-0.025201008040321417,1.828946312775341,-2.3185854831284343,0.9792783407013903,-2.7794223493392547,-2.7506200452033767,-3.240259215552772,-0.31682534552343616,-0.15841267276091858,1.411312902774184,0.15602100000000008,-0.026056000000000024,-0.902203,-0.23935799999999996,-0.04944800000000005,-0.901202,0.39537900000000004,0.023392000000000024,0.0010010000000000296,0.7484404196287849,0.9398597592339477,double,-0.901202
5,0.041667,stand,-0.2961363090952621,0.0958723302135822,0.0004799616030722342,-0.4308648225259769,-0.04278830741579552,-0.5585181714089514,-0.1347492200623932,0.024118070554356455,-0.0029997600191985496,0.002759779217675338,-0.014878809695219278,-0.012838972882169359,1.0986204215523918,0.5889958804938814,1.5551308882937591,1.5426786865575524,1.0652100947891638,2.951925128985232,0.11515565332494315,0.17300733512080196,1.483325552934012,0.157366,-0.02665400000000001,-0.9022319999999999,-0.23686699999999994,-0.050371,-0.9013129999999999,0.39423299999999994,0.023716999999999988,0.0009190000000000031,0.7717942437011127,0.9577345566106001,double,-0.9013129999999999
6,0.05,stand,-0.2925717028681075,0.08436337453497583,-0.013080523220931926,-0.15784593105497272,-0.14528131073091818,-0.5843466508922323,-0.11736469458778764,0.04584183367334615,-0.0001200048001921277,0.005640225609013348,-0.013080523220931926,-0.0022800912036483444,0.42776985805287393,-1.3811299266298291,-1.6273232718113715,2.086226506012908,2.6069558525128635,0.34558444965875695,0.3456673936563075,0.21580300903484365,1.267116486081965,0.1588259999999999,-0.02697499999999997,-0.9021239999999999,-0.2343820000000001,-0.05118299999999998,-0.901223,0.393208,0.024208000000000007,0.0009009999999999296,0.7900002668561783,0.9669465758267541,double,-0.901223
7,0.058333,stand,-0.2628105124205132,0.0764430577223154,-0.01956078243128684,0.04593600138236,0.1760167987264221,-0.6028044417853563,-0.11232449297971162,0.042841713668546284,0.005520220808832461,0.0003600144005730523,-0.010440417616705116,-0.0016800672026881223,3.5714857131398468,-0.9504760365607147,-0.7776622117310588,0.6048483869045995,-0.3600288017280528,0.6768541472488406,-0.633650691040477,0.31682534552103797,0.07200576034564048,0.1600800000000001,-0.02725500000000003,-0.901915,-0.23218899999999998,-0.051907000000000036,-0.901074,0.3922690000000001,0.024652000000000007,0.0008409999999999807,0.7994266759803478,0.9739552366533399,double,-0.901074
8,0.066667,stand,-0.26913846892248555,0.06671466282696728,0.017038636909044332,-0.1786068324274348,-0.1376284759837645,-0.6229765770082415,-0.10775137988961667,0.03683705303575734,-0.007679385649148254,0.00035997120230084524,-0.007079433645305463,0.000719942404607935,-0.759294036713748,-1.167314002321588,4.391578994520179,0.5487296724375988,-0.7205016358038085,-1.583826068872176,-5.183377994607136e-06,0.4032858137028621,0.28797811462635675,0.16142500000000004,-0.027503999999999973,-0.9021210000000001,-0.229943,-0.05252199999999996,-0.90121,0.39136800000000005,0.025017999999999985,0.0009110000000001062,0.8097786281692358,0.9790149237346635,double,-0.90121
9,0.075,stand,-0.2514100564022513,0.0529221168846784,0.03492139685587921,-0.34551924263260175,0.005377155107119106,-0.7116055669295911,-0.1177247089883608,0.04452178087123611,0.00600024000960056,0.001560062402500992,-0.004320172806916601,0.003000120004799864,2.1274946022122028,-1.655171719943465,2.146017034301559,-1.196847365743926,0.9222042284265896,1.6416207438796142,0.14401670469220543,0.33112454558848725,0.2736322573133242,0.162539,-0.027573999999999987,-0.902362,-0.227835,-0.05299900000000002,-0.901476,0.390374,0.02542500000000003,0.0008859999999999424,0.7899914091802603,0.98199633069269,double,-0.901476
10,0.083333,stand,-0.23904956198247834,0.04452178087123604,0.010920436817466957,-0.09345650797448388,0.14466576053892205,-0.642444398149896,-0.11484459378374953,0.05112204488179306,-0.0028801152046081476,-0.0009600384015370207,-0.005640225609020004,0.0022800912036483427,1.483318663119276,-1.008080644838876,-2.8802304138260206,0.3456276496593374,0.7920633638013858,-1.0656852531151686,-0.3024241934522994,-0.1584126727593186,-0.08640691241467906,0.163574,-0.027519000000000016,-0.902477,-0.22585100000000002,-0.05341699999999999,-0.901548,0.389425,0.025897999999999977,0.0009289999999999576,0.7904300749296158,0.9804450874672199,double,-0.901548
11,0.091667,stand,-0.23014158867291667,0.043436525077990604,0.013078953683708401,-0.3926323177201776,0.1164522401770407,-0.6982142655227295,-0.11111111111110908,0.05603551715862677,0.0028797696184304934,-0.0002399808015427781,-0.0027597792176620186,0.002399808015358675,1.0688712874444053,-0.13022027756724688,0.2590013038446659,0.44798208215028273,0.589569507659433,0.6911308882935738,0.08639999999930922,0.34562591688960737,0.014364868215782632,0.1645660000000001,-0.027413999999999994,-0.902562,-0.223935,-0.05380199999999996,-0.901637,0.3885010000000001,0.026387999999999967,0.0009249999999999536,0.7925421644671219,0.9846414789419642,double,-0.901637
12,0.1,stand,-0.24072962918516147,0.014280571222853191,0.027241089643582985,-0.3451010743239563,-0.131089378324814,-0.6094148293329229,-0.0927637105484247,0.053042121684867105,-0.006720268810752484,-0.00180007200286526,-0.0008400336013482239,-0.0013200528021121544,-1.2706156860968183,-3.498854416793158,1.699524296156795,2.201776138567667,-0.3592218257241886,-1.1520506935296975,-0.18721843289601348,0.2303786891052194,-0.44640115414266485,0.16579900000000003,-0.02709100000000003,-0.902845,-0.22194399999999992,-0.05392800000000003,-0.901875,0.38774299999999995,0.026837,0.0009700000000000264,0.821551947487099,0.9863249196139303,double,-0.901875
13,0.108333,stand,-0.21348853954157884,0.02460098403935622,0.02088083523341025,-0.11097142330111405,0.05516806602646967,-0.64560042582567,-0.08892355694227676,0.05496219848794124,-0.0018000720028802516,-0.002160086403464962,-0.0020400816032628416,-0.001920076803071963,3.269061519690706,1.2384990779434821,-0.7632610596631154,0.4608368662124012,0.2304184331062206,0.5904472348340618,-0.043203456210212675,-0.14401152069058187,-0.07200576034559092,0.166837,-0.026837999999999973,-0.903034,-0.22018300000000002,-0.054149999999999976,-0.902065,0.38702000000000003,0.027312000000000003,0.0009689999999999976,0.8257437829810675,0.9844140029709177,double,-0.902065
14,0.116667,stand,-0.21502279817614758,0.014278857691388964,0.016438684905200694,-0.1816133019613033,0.07877759420706394,-0.6133674349765674,-0.08915286777057084,0.04211663066954522,-0.008999280057595226,-0.0023998080153478474,-0.004199664026878715,-0.00035997120230375903,-0.1840963084435733,-1.2385560772698878,-0.5330153981532939,-0.027515098187434885,-1.5413448306210713,-0.8638358596970203,-0.028764292282563633,-0.2591291605010645,0.1871976962764822,0.1678860000000001,-0.02660600000000002,-0.903246,-0.2184109999999999,-0.05430400000000002,-0.9022049999999999,0.386297,0.027698,0.0010410000000000696,0.834982901119756,0.9815060935399614,double,-0.9022049999999999
15,0.125,stand,-0.2061682467298557,0.014160566422657757,0.029881195247816506,-0.3195591835662691,-0.10669546320629579,-0.5158620405162055,-0.07704308172327276,0.05016200648026279,-0.0012000480019200288,-0.0010800432017458042,0.0,-0.0014400576023042844,1.0625886771021107,-0.01419552006854759,1.6131657677446085,1.4532324549739697,0.9654837166347746,0.9359452844924041,0.15837811275675556,0.503979842419143,-0.12961555262216803,0.16896199999999995,-0.026305999999999996,-0.903505,-0.21670200000000017,-0.054422000000000026,-0.902466,0.3856640000000001,0.02811600000000003,0.0010390000000000121,0.846763586330434,0.9866098799951818,double,-0.902466
16,0.133333,stand,-0.19980799231969593,0.007080283211325536,0.008760350414015322,0.04815328915415592,0.011014325299540273,-0.6115641704089566,-0.0786031441257603,0.05076203048122001,0.0051602064082560736,-0.0010800432017191559,0.0016800672026897863,-0.0028801152046081476,0.763261059661559,-0.849667972078749,-2.534602764166707,-0.18721497689758104,0.07200576034527992,0.7632610596635182,3.1979345202312126e-12,0.2016161289679329,-0.17281382482945662,0.169972,-0.025941999999999965,-0.903535,-0.21504600000000007,-0.05446699999999999,-0.902563,0.3850180000000001,0.028525000000000023,0.0009719999999999729,0.8438139843433908,0.984438533594743,double,-0.902563
17,0.141667,stand,-0.21694264458843726,-0.010559155267575858,0.045836333093351854,-0.3957169760309111,-0.1351715138694859,-0.5033905574467954,-0.061315094792421455,0.04547636189104435,-0.008759299256059554,-0.0010799136069025385,0.004199664026878729,-0.0026397888168943804,-2.0559937927455456,-2.11656329240478,4.44876202055875,2.0743999680032266,-0.6342294924616836,-1.670207063152827,1.5550133983366118e-05,0.3023274327080572,0.028836859576885986,0.171269,-0.025475000000000025,-0.90399,-0.21324699999999996,-0.054344,-0.902967,0.38451599999999997,0.028868999999999978,0.0010229999999999961,0.8719335495435403,0.9813089985595949,double,-0.902967
18,0.15,stand,-0.18480739229570328,0.019320772830909227,-0.0024000960038425517,0.03904033288348003,-0.14090887212401906,-0.3828194363727471,-0.05784231369254555,0.040801632065283415,-0.001680067202688121,0.004680187207476322,-0.0033601344053795727,-0.0034801392055683693,3.8563845305092945,3.5857348012102555,-5.788603035784755,0.41675040200118857,-0.5609900186920593,0.8495418280776943,0.6912397473153553,-0.9072121003550097,-0.10084608048409795,0.17232700000000012,-0.025295999999999985,-0.903984,-0.21166799999999997,-0.054533,-0.902976,0.3839950000000001,0.029237000000000013,0.0010080000000000089,0.8819918898937785,0.9787017083384404,double,-0.902976
19,0.158333,stand,-0.19980799231966928,0.006240249609983973,0.020040801632068655,-0.0761611698949177,-0.005006777238191983,-0.40999457944822154,-0.05112204488179972,0.04176167046682043,0.0003600144005763828,0.0009600384015370207,0.0049201968078739005,-0.003720148805952208,-1.8001440086362637,-1.5697255755340505,2.6930154369268196,0.8064645158701332,0.11520921655310386,0.24481958517514726,-0.44643571414128147,0.9936794927701267,-0.02880230413822616,0.1735659999999999,-0.024999999999999967,-0.904148,-0.20999500000000015,-0.05454399999999998,-0.903174,0.38356100000000004,0.029544000000000015,0.0009739999999999194,0.8899794185486103,0.9798557383866212,double,-0.903174
20,0.166667,stand,-0.19558435325174212,-0.009479241660666627,-0.02087832973362219,0.2257082372920386,-0.11173422935155768,-0.5156244196843257,-0.036957043436522036,0.0389968802495757,0.0013198944084469777,-0.0021598272138050696,-0.0005999520038369618,-0.005879529637629036,0.5067961444597026,-1.8861880574334757,-4.909902971645165,1.6996642002972968,-0.331748286206471,0.11517638683352459,-0.3743539255270083,-0.6623648682158456,-0.2591049714035068,0.17488799999999993,-0.024596000000000007,-0.903963,-0.20838299999999998,-0.05446999999999996,-0.903049,0.3832709999999999,0.029873999999999956,0.0009139999999999704,0.9104281503481675,0.9803727504982691,double,-0.903049
21,0.175,stand,-0.17472698907957848,-0.024960998439935975,0.010440417616711805,-0.10504806381971454,0.07782725926752658,-0.43286983334675894,-0.04668186727468783,0.034681387255495015,0.0038401536061443485,0.005640225609013362,-0.006000240009599738,-0.006000240009600571,2.502983820012443,-1.8578851289174831,3.75840001804081,-1.1670255416015622,-0.5178798744846627,0.30244320145174336,0.9360437804894337,-0.6480604831108592,-0.014485824069546986,0.17595500000000008,-0.02409899999999998,-0.9040180000000001,-0.20687999999999995,-0.05431199999999997,-0.903186,0.38283500000000004,0.03021299999999999,0.0008320000000000549,0.9028640395296943,0.9746981546884963,double,-0.903186
22,0.183333,stand,-0.17940717628705422,-0.01872074882995192,-0.015240609624396873,0.059051980086406754,0.12005913381193481,-0.469350044990035,-0.0446417856714315,0.04224168966758228,0.007800312012480383,0.005520220808831208,0.004440177607098729,-0.0031201248049919864,-0.5616449306943153,0.7488599075943899,-3.0818465427947506,0.24481958517416672,0.9072725803536852,0.47523801828105494,-0.014401152067941184,1.2529002300130154,0.3456276496590162,0.17707800000000007,-0.02359100000000003,-0.9038259999999999,-0.20533899999999994,-0.05411900000000003,-0.9030849999999999,0.382417,0.030528,0.0007409999999999917,0.8967460756543688,0.9796883211945584,double,-0.9030849999999999
23,0.191667,stand,-0.18082553395727424,-0.0340772738180953,0.009959203263745522,-0.05766369170564058,-0.01740995778873029,-0.3721945734011866,-0.031197504199668553,0.03731701463882954,0.007439404847612547,0.00755939524837103,0.002879769618433403,-0.006959443244540313,-0.17018930528198056,-1.8426355877301854,3.0237356477252666,1.613184721833805,-0.5909137303519,-0.04330539535251209,0.24468135823611956,-0.18723397992144522,-0.4606813582371398,0.17832499999999996,-0.022996000000000016,-0.903847,-0.2037690000000001,-0.053811,-0.903226,0.38209400000000004,0.03081499999999998,0.0006209999999999827,0.9179907086170239,0.9760049110636713,double,-0.903226
24,0.2,stand,-0.1706468258730389,-0.025441017640704403,-0.005520220808831208,-0.018775479008338126,0.09428540783663132,-0.4295850458181684,-0.028801152046083977,0.02724108964358965,-0.0030001200048002754,0.0019200768030740415,0.0066002640105570255,-0.023160926437057725,1.2214938298614353,1.0363921969747856,-1.8576051929169226,0.28757376138060414,-1.2091593658034179,-1.2527930940132983,-0.676745283246968,0.44647718614228005,-1.944255753332221,0.17950699999999997,-0.022556999999999994,-0.903826,-0.20233100000000004,-0.053544000000000036,-0.903373,0.381838,0.030987000000000042,0.0004530000000000367,0.933739067061542,0.9552042614151671,double,-0.903373
25,0.208333,stand,-0.16800672026881933,-0.03912156486259376,0.00576023040920882,-0.05217539390357596,0.1203179278892931,-0.362552169080668,-0.022080883235324904,0.016800672026877933,-0.004680187207488412,0.003000120004819854,0.004440177607105405,-0.007560302412096569,0.3168253455201696,-1.641731335880162,1.3537082944965866,0.8064645158717255,-1.2529002300146097,-0.20161612896773556,0.1296103686242428,-0.25922073724368483,1.8721497689861026,0.18072300000000008,-0.022091000000000027,-0.903913,-0.2009059999999998,-0.053181000000000034,-0.903484,0.3816289999999999,0.031090000000000007,0.0004290000000000127,0.9531037748112355,0.9802652894897536,double,-0.903484
26,0.216667,stand,-0.15946724262057982,-0.045116390688750015,0.004199664026878715,-0.040457374908313776,0.1399529229975841,-0.28983918761211475,-0.018838492920561865,0.008159347252221314,-0.0031197504199666055,0.002639788816890625,0.0033597312215056367,-0.005759539236860977,1.024655345361111,-0.719321553414477,-0.1872529856407612,0.38905571331449923,-1.0368760228769631,0.18723743550777594,-0.04323628364881551,-0.12964319481638675,0.21607429508466405,0.18189500000000003,-0.021646999999999972,-0.9039739999999999,-0.19955499999999993,-0.05277699999999996,-0.903567,0.38144999999999996,0.03112999999999999,0.0004069999999999352,0.965391209940277,0.9839777139448972,double,-0.903567
27,0.225,stand,-0.1564862594503745,-0.02604104164166171,-0.004680187207489645,-0.050137004204494975,0.13802456627380508,-0.30285977838978256,-0.015360614424579009,0.0007200288011527656,-0.0022800912036479264,0.003960158406330218,0.003600144005757166,-0.005880235209408423,0.3577322897162261,2.289133450988634,-1.0656247731151267,0.41736211400250245,-0.8927539242851964,0.10076313648370075,0.1584506887603014,0.028850688137709007,-0.014484096069536274,0.18307099999999998,-0.021424,-0.9039539999999999,-0.198218,-0.05253000000000002,-0.903577,0.381289,0.031106000000000023,0.0003769999999999607,0.9740906637981153,0.9829780549034215,double,-0.903577
28,0.233333,stand,-0.15792631705269336,-0.029761190447620996,-0.009720388815552343,-0.04314182686765647,0.16022236442721208,-0.19139930588471274,-0.011520460818430925,-0.004200168006721135,-0.005280211208448201,0.003600144005757166,0.003240129605184114,-0.008880355214208283,-0.17281382483125582,-0.44643571414367955,-0.6048483869029994,0.46083686621241815,-0.590447234834261,-0.3600288017281018,-0.04320345620701446,-0.04320345620701446,-0.36002880172805196,0.1842910000000001,-0.02121099999999998,-0.903917,-0.19687199999999994,-0.052254999999999996,-0.90357,0.38116300000000003,0.031044000000000016,0.0003469999999999862,0.9777487166937183,0.9796710932334225,double,-0.90357
29,0.241667,stand,-0.14386849052075268,-0.011399088072948938,-0.01739860811134522,0.13641721300189147,0.22210500647259687,-0.2151709223385693,-0.0008399328053730815,-0.00815934725222134,-0.010199184065275011,0.004079673626120662,0.0019198464122889415,-0.0067194624430046345,1.6868042394937262,2.2032760228788217,-0.9213126104863086,1.2815608367000082,-0.47506350437967537,-0.590229524457262,0.05753895132751346,-0.1584213094426657,0.2592863896332677,0.18548300000000006,-0.021184000000000036,-0.903857,-0.1956389999999999,-0.052144000000000024,-0.903481,0.38112199999999996,0.030959999999999988,0.00037600000000004297,0.9781861543524129,0.9827533066953846,double,-0.903481
30,0.25,stand,-0.14700588023521308,-0.01872074882995858,0.003240129605184114,-0.12890552149869178,0.14205013357224106,-0.10193399004621775,0.0016800672026831248,-0.007200288011520994,-0.01068042721708853,0.0034801392055483845,0.0013200528021100728,-0.005880235209408423,-0.3765018258082798,-0.8786344362186049,2.4767475958873533,0.3024120974506425,0.11509171255254351,-0.05775148827715336,-0.07194700834900722,-0.07197811234595802,0.10071129648340463,0.18672200000000005,-0.021087999999999996,-0.903973,-0.19438500000000003,-0.051976999999999995,-0.903557,0.3811070000000001,0.030889,0.00041599999999997195,0.9783501155511225,0.9842412603165114,double,-0.903557
31,0.258333,stand,-0.14016560662427227,-0.002280091203647101,-0.022080883235324904,0.15037414847882308,0.09255740976761745,-0.069314236827128,0.004320172806916608,0.004200168006721149,0.004200168006720316,0.004080163206539014,-0.00036001440057305316,-0.00480019200768054,0.8208656679396164,1.9729578334707212,-3.0386430865845533,0.3168253455218396,1.3681094465669232,1.785742856571329,0.07200576034928965,-0.2016161289671343,0.12961036862209113,0.18792600000000015,-0.021033999999999997,-0.9037540000000001,-0.19318299999999988,-0.05196099999999998,-0.903413,0.38110900000000003,0.030926999999999982,0.0003410000000000357,0.9877585953453292,0.9860729258569148,double,-0.903413
32,0.266667,stand,-0.1395488360930888,-0.00995920326373886,0.0011999040076739237,-0.050140446077734734,0.15665774105728153,0.027890543166130256,0.0038396928245645486,-0.00455963522917956,-0.003959683225342182,0.0034797216222770253,-0.0007199424046083507,-0.004799616030717342,0.07400654321855941,-0.9214197336323197,2.7934709914805382,-0.05765298564339559,-1.05109230092401,-0.9791038195419354,-0.07204722633333187,-0.04318790545179952,6.911170664721559e-05,0.18912099999999987,-0.02098899999999998,-0.903797,-0.19199100000000002,-0.051883999999999986,-0.903463,0.3811119999999999,0.030895000000000006,0.00033399999999994545,0.9880728361321212,0.9867069025372871,double,-0.903463
33,0.275,stand,-0.13764550582023333,0.005160206408258139,-0.011760470418821804,0.04214098698298719,0.055461834212138315,-0.015312380721552233,0.004680187207489629,-0.00504020160806268,-0.0045601824072962534,0.001440057602292203,-0.0018000720028785772,-0.0033601344053762307,0.22840876909341906,1.8144017367091008,-1.5553071434652195,0.10086336048542868,-0.057670272276865255,-0.07206278434586212,-0.2447694731771047,-0.1296207366218915,0.17274470482912585,0.1903069999999999,-0.02107399999999998,-0.9037369999999999,-0.1908320000000001,-0.05194199999999999,-0.903393,0.381139,0.030868000000000007,0.00034399999999989994,0.9862459048386306,0.9897685576037725,double,-0.903393
34,0.283333,stand,-0.13668546741869722,0.005040201608062714,-0.020040801632055398,0.23426318274794877,0.1520762853976558,0.04856756913525085,0.0061202448097951966,-0.0056402256090266846,-0.006120244809792282,0.000960038401537024,-0.003960158406336893,-0.004200168006720316,0.11520921655299517,-0.014401152069533771,-0.9936794927677445,0.17281382482966168,-0.07200576034609453,-0.18721497689859987,-0.05760460827495264,-0.2592207372444883,-0.10080806448386984,0.19149699999999992,-0.021162999999999987,-0.903621,-0.1896850000000001,-0.05201699999999998,-0.9032610000000001,0.381182,0.030853999999999993,0.00035999999999991594,0.9827818782492644,0.9866466615942735,double,-0.9032610000000001
35,0.291667,stand,-0.1465082793376695,-0.018598512119032407,0.004199664026878715,-0.6071966606058745,0.30336022060210094,-0.25553686805831766,0.0037197024238064817,-0.0068394528437760015,-0.005879529637629036,0.0,-0.004199664026878715,-0.0039596832253417655,-1.1786431388255656,-2.836418733752711,2.908623189216953,-0.2880420429552091,-0.14389575650939715,0.02888350997879121,-0.11519539255303853,-0.028738375394987015,0.028855865296202324,0.19274900000000006,-0.021065,-0.9037050000000001,-0.18846399999999996,-0.05189699999999997,-0.903329,0.381213,0.03083199999999997,0.00037600000000004297,0.9837396895885457,0.9866199588266484,double,-0.903329
36,0.3,stand,-0.12648505940236301,-0.006600264010557047,-0.016680667226689136,0.02432762434833857,0.1701041797062313,0.14737799459219622,0.003360134405379584,-0.005760230409215482,-0.00624024960998441,0.0002400096003909176,-0.003720148805952637,-0.00480019200768054,2.402882507537085,1.4398473669117233,-2.505739980027349,-0.043149888206756117,0.1295118726221676,-0.043288128207773294,0.028802304139075748,0.057544128276260556,-0.10086508848419258,0.19383099999999998,-0.02105800000000002,-0.903618,-0.18740800000000002,-0.051873,-0.9032300000000001,0.381239,0.03081499999999998,0.00038799999999994395,0.984778353061769,0.9859904290074786,double,-0.9032300000000001
37,0.308333,stand,-0.11724468978759169,0.01692067682707328,-0.007920316812673734,-0.03771514566157113,0.06438019783498983,0.05131278436093863,0.0,-0.005640225609019986,-0.006360254410176496,-0.0013200528021100684,-0.0037201488059526123,-0.005400216008640311,1.1088887093209276,2.8226258055478493,1.0512841010458858,-0.4032322579358658,0.014401152069542211,-0.014401152069133043,-0.1872149768991935,2.966495803752478e-15,-0.072005760345586,0.19480799999999998,-0.021245999999999987,-0.903605,-0.186442,-0.05204500000000001,-0.903209,0.38125,0.03079900000000002,0.00039599999999995195,0.9858318646758519,0.9848914600509049,double,-0.903209
38,0.316667,stand,-0.1189104871610235,0.0015598752099814399,-0.0058795296376382335,0.10608719999407884,0.04047617310931351,0.1192522116449278,-0.004079673626107353,-0.0056395488360954545,-0.005159587233021136,-0.000959923206144474,-0.0045596352291795905,-0.005879529637629075,-0.1998796944362634,-1.843148742151659,0.24487487101458028,-0.48952167339901326,8.120625444342154e-05,0.14406853577578202,0.04321209454830771,-0.10073031236224897,-0.057513034435897156,0.19576499999999997,-0.02130599999999999,-0.9035989999999999,-0.18545900000000004,-0.052095999999999976,-0.9032089999999999,0.381224,0.030789999999999984,0.00039000000000000146,0.985559548677277,0.9835966010460457,double,-0.9032089999999999
39,0.325,stand,-0.11724468978759169,0.006720268810752461,-0.017520700828030585,-0.02359027488700768,0.1460117134847415,0.05236108924472869,-0.006600264010563665,0.007080283211325512,0.0060002400096001145,-0.002760110404428918,-0.005280211208446935,-0.007320292811712264,0.19990368095905472,0.619272002972639,-1.3969964227039846,-0.30248294545257426,1.5264409033266426,1.3392328384280816,-0.2160311050383339,-0.08647257641513759,-0.17289849682985517,0.19668699999999995,-0.021303000000000016,-0.903403,-0.18450500000000014,-0.052195999999999965,-0.9031239999999999,0.3811920000000001,0.03089299999999995,0.0002790000000000292,0.9810192513074631,0.9814791450840101,double,-0.9031239999999999
40,0.333333,stand,-0.10560422416896605,0.00360014400576384,-0.02052082083282391,0.12613637225712052,0.0887928501894369,0.13810203285162886,-0.00648025921036825,0.0018000720028852506,0.0008400336013440632,-0.0007200288011461063,-0.009120364814595066,-0.008160326413056793,1.3969117507051083,-0.3744299537967874,-0.36002880172726887,0.014401152069532627,-0.6336506910404746,-0.6192495389722865,0.24481958517734512,-0.4608368662124253,-0.10080806448392302,0.19751299999999994,-0.021318000000000004,-0.9032250000000001,-0.1836310000000001,-0.052302000000000015,-0.9030210000000001,0.38114400000000004,0.03098400000000001,0.00020399999999998197,0.9887035311440894,0.9775278342507718,double,-0.9030210000000001
41,0.341667,stand,-0.10787137029037465,0.006239500839932378,-0.009119270458372443,0.13786008494411736,0.017150165531686794,0.13604162101266956,-0.007079433645312118,0.0035997120230350926,-0.005159587233021102,-0.0019198464122889352,-0.006119510439167651,-0.007919366450683947,-0.27203577170729554,0.31669748430148015,1.3680765988062702,-0.07189518057881782,0.21593952725580037,-0.7198969083711494,-0.14396659600945855,0.36007371915375713,0.028912882454145073,0.1983529999999999,-0.021340000000000026,-0.903192,-0.18274800000000013,-0.052405000000000035,-0.903011,0.381101,0.03106500000000001,0.00018099999999998673,0.9842151929760226,0.9812054822753453,double,-0.903011
42,0.35,stand,-0.10116404656188063,0.0008400336013415652,-0.01824072962917681,0.006966034695147621,0.14448100684127813,0.1308749190438762,-0.00648025921036825,0.005160206408258173,-0.0009600384015361912,-0.0016800672026831304,-0.005760230409215482,-0.008640345613824473,0.8049110438610384,-0.6479619871103836,-1.0946188852519367,0.0719038083455982,0.18726681689944605,0.5039660184189273,0.028774656138942204,0.04311532820738871,-0.08652096041527989,0.19914200000000004,-0.02130399999999999,-0.9030480000000001,-0.18191899999999994,-0.05246000000000001,-0.902931,0.381061,0.031156000000000017,0.00011700000000003374,0.986101242727234,0.9812976131038775,double,-0.902931
43,0.358333,stand,-0.093963758550339,0.007440297611905225,-0.01788071522861696,-0.06067907235708817,0.1612685381315336,0.048990148403478685,-0.0037201488059526123,0.004920196807873884,0.0014400576023038609,0.004920196807867223,-0.005640225609019986,-0.004920196807872219,0.8640691241499577,0.7920633638021879,0.04320345620542979,0.33122649758977873,-0.028802304138280034,0.2880230413824603,0.7920633638005911,0.014401152069542211,0.44643571414283434,0.19989400000000002,-0.021324999999999983,-0.902887,-0.181095,-0.05256899999999998,-0.9028229999999999,0.380989,0.031243999999999994,6.4000000000064e-05,0.9894430631462062,0.9844315764975196,double,-0.9028229999999999
44,0.366667,stand,-0.09971202303815999,-0.004919606431487066,-0.015118790496755382,0.1517887063501461,0.0008214298544138632,0.1831696249897253,-0.00227981761458978,0.002879769618426742,0.001319894408447394,0.0,-0.004439644828414832,-0.006959443244540313,-0.6897365596137479,-1.483069839619904,0.3314044554669518,0.17282591689018847,-0.24483167619956084,-0.014418429788392938,-0.5903763868331195,0.14405816901909682,-0.24468999720039508,0.20070600000000005,-0.02126,-0.90275,-0.18026399999999998,-0.05256499999999997,-0.902755,0.38097000000000003,0.03130499999999997,4.999999999921734e-06,0.9934451380020493,0.9862417402105288,double,-0.90275
45,0.375,stand,-0.10464418576742902,0.005520220808831226,-0.013080523220931959,0.05037575402855287,0.09974119800658772,0.05163282087774165,-0.002640105604220154,-0.0019200768030673862,0.0019200768030723824,0.005280211208440308,-0.001920076803074048,-0.0016800672026881264,-0.5918832028403996,1.2528293820134786,0.2446018571730983,-0.04323628820717329,-0.5760046107637273,0.07202476834573261,0.6336506910404802,0.3023602574511929,0.6335504670409456,0.20155600000000007,-0.021321999999999952,-0.902625,-0.17934800000000006,-0.05262699999999998,-0.90266,0.38090400000000013,0.03130500000000003,3.500000000000725e-05,0.9933378539789438,0.9902261756687413,double,-0.902625
46,0.383333,stand,-0.08712348493939832,-0.005040201608062714,-0.002880115204611072,-0.09835139854148997,0.02902771067856677,0.0886874073036094,-0.000960038401537024,-0.0045601824073008635,-0.0028801152046081576,0.0013200528021367235,-0.003000120004799869,-0.00228009120364835,2.102568202091773,-1.2673013820825592,1.2240979258755444,0.20161612896713482,-0.31682534552183894,-0.5760460827649768,-0.47523801827716244,-0.12961036862184372,-0.07200576034564084,0.20227400000000006,-0.021318000000000004,-0.902625,-0.17861099999999985,-0.05260999999999999,-0.902655,0.3808849999999999,0.031291999999999986,2.999999999997449e-05,0.9905694650101831,0.9933454119126175,double,-0.902625
47,0.391667,stand,-0.09407247420205125,-0.010199184065274976,-0.014398848092153693,0.04411103674179079,0.03372069022830151,0.12493126743260925,-0.00227981761458978,-0.005039596832251794,-0.003959683225342182,-0.0013198944084719558,-0.004079673626107326,-0.004559635229181642,-0.8338120065578262,-0.6190283725956632,-1.382137375515072,-0.15836083669939463,-0.05752512898379289,-0.12953779946412566,-0.3167683238071366,-0.12953607167116107,-0.2735234011918994,0.20303899999999997,-0.02127499999999999,-0.902538,-0.17783800000000016,-0.05255899999999997,-0.902573,0.38087700000000013,0.03128399999999998,3.500000000000725e-05,0.9883124767754137,0.9895681934599214,double,-0.902538
48,0.4,stand,-0.08820352814114354,-0.01056042241689387,-0.02628105124204588,0.14551124197727805,-0.025292966332438768,0.0854631542996021,-0.006720268810759123,-0.00504020160806268,-0.006480259210368207,0.00012000480020878121,-0.003120124804995307,-0.0033601344053762307,0.7043016993768972,-0.043350336207715355,-1.42592141484365,-0.5328754585586613,-7.257600034638423e-05,-0.3024812174518198,0.17279481683436107,0.1151504645520239,0.14394585669091636,0.20371800000000007,-0.021228999999999998,-0.902373,-0.17710199999999987,-0.052497000000000016,-0.902382,0.38081999999999994,0.03126800000000002,9.000000000036756e-06,0.9822276638223071,0.9923550882620796,double,-0.902373
49,0.408333,stand,-0.08652346093843435,-0.01116044641785791,-0.007440297611905274,0.1052811309562552,-0.03267292864821201,0.04456201211282273,-0.00024000960037759439,-0.03384135365414678,-0.0252010080403219,0.001800072002865266,-0.003240129605184125,-0.002400096003840062,0.20161612897026213,-0.0720057603460989,2.2609808748518723,0.7776622117342548,-3.4562764965899646,-2.24657972278336,0.20161612896393724,-0.014401152068740937,0.11520921655300266,0.2044370000000001,-0.021417999999999993,-0.902521,-0.17636600000000002,-0.052431000000000005,-0.90234,0.3808030000000001,0.031013000000000013,0.00018099999999998673,0.9296756398298713,0.9908303578171334,double,-0.90234
50,0.416667,stand,-0.08279337652986042,-0.01463882889368981,0.0029997600192047916,-0.14017835325585037,0.015924713484570353,0.034913296119355966,0.002639788816890625,-0.008999280057594393,0.0028797696184304886,0.0035997120230350926,-0.0013198944084453126,-0.0007199424046075181,0.4475743230830249,-0.41737250729924347,1.2527066991972708,0.34554816621888845,2.9808103667569434,3.3694237651490715,0.21593952725819834,0.23040979082539123,0.20160230372360718,0.20514899999999991,-0.021370999999999973,-0.902522,-0.1756460000000002,-0.05231999999999998,-0.902371,0.3807950000000001,0.030949000000000004,0.00015100000000001224,0.9836489382261144,0.9919882128601736,double,-0.902371
51,0.425,stand,-0.07032281291251373,-0.012240489619583732,-0.009720388815552376,0.025573432674110243,0.012967214085450082,-0.012767954417375263,0.00588023520940428,-0.007200288011521018,-0.006720268810752506,-0.0015600624024743482,-0.003720148805952637,-0.0027601104044164457,1.496527495181414,0.2878122253817453,-1.526478919327637,0.3888691218665142,0.21588768103604702,-1.1520506935297035,-0.6191976989690932,-0.288042049382855,-0.24482995317519896,0.20578399999999986,-0.021328999999999987,-0.902497,-0.17507300000000003,-0.05224899999999999,-0.902313,0.3808569999999999,0.030920000000000003,0.00018399999999996197,0.9808817040467962,0.9900135093986202,double,-0.902313
52,0.433333,stand,-0.06864274570983014,-0.013560542421700381,-0.008400336013442242,-0.06176425166151177,0.017823656987650458,-0.010670943289004099,0.0034801392055750194,-0.006120244809795156,-0.004320172806911999,0.00408016320651234,-0.0018000720028785772,-0.0003600144005759652,0.2016161289671881,-0.15841267276090773,0.1584126727601258,-0.2880230413811653,0.12961036862184774,0.28802304138251494,0.6768541472442895,0.23041843310621046,0.2880230413825117,0.20638499999999993,-0.02126699999999998,-0.902463,-0.17446700000000015,-0.05215099999999995,-0.902246,0.3808520000000001,0.030883999999999967,0.00021700000000002273,0.9862328230014297,0.9903731609735413,double,-0.902246
53,0.441667,stand,-0.06299496040318114,-0.015118790496755482,-0.008039356851456639,0.07399490524143787,0.0923821813340273,0.010440557567009491,0.0007199424046016947,-0.0013198944084453212,-0.010679145668346865,0.0016798656107461687,0.0,-0.0020398368130549256,0.6776800223960922,-0.18697481102173144,0.04331403431552735,-0.331197120347173,0.5759959684845046,-0.763015702116019,-0.28801267047830387,0.21599136103654756,-0.201562564492317,0.206916,-0.021152000000000004,-0.902485,-0.17392800000000008,-0.05202499999999999,-0.902196,0.38084400000000007,0.030872999999999984,0.0002889999999999837,0.982025898993184,0.9927058092261581,double,-0.902196
54,0.45,stand,-0.06984279371175807,-0.016320652826115976,-0.012240489619576989,0.09733109267845139,-0.002947818288735764,-0.031173100256264134,-0.00204008160325617,0.011520460818430887,0.003840153606144323,-0.0010800432017191524,-0.0037201488059526123,-0.0036001440057600686,-0.8217728679439454,-0.14422924869320633,-0.5041560984183766,-0.33121612958812585,1.5409042633956744,1.7423856083632698,-0.33120230558806063,-0.4464357141428773,-0.1872443528987323,0.20748100000000014,-0.020919999999999994,-0.902351,-0.17335499999999993,-0.051919999999999966,-0.902124,0.38083600000000006,0.030999999999999972,0.00022699999999997722,0.9794769959601068,0.9889160216262556,double,-0.902124
55,0.458333,stand,-0.061922476899071426,-0.018840753630140778,-0.003720148805952637,-0.053647346537539074,0.056381546012565655,-0.002825426621014945,0.003960158406330232,-0.01944077763110475,-0.008640345613824473,-0.0010800432017191595,-0.00120004800192128,-0.003960158406336477,0.9504760365638621,-0.3024241934507151,1.022481796906801,0.7200576034545082,-3.715497233833639,-1.4977198151888667,-8.58722469507302e-16,0.3024241934514987,-0.04320345620741737,0.20803000000000005,-0.020925000000000027,-0.9023920000000001,-0.1728479999999999,-0.05177300000000001,-0.9021260000000001,0.38087799999999994,0.030847999999999987,0.00026599999999998847,0.9639336159194825,0.9902123030196415,double,-0.9021260000000001
56,0.466667,stand,-0.060475161987021527,-0.012479001679871418,0.00755939524837103,-0.028165578304535886,0.00982378915149209,-0.07523903545123754,0.0021598272138183914,-0.005519558435324028,0.002639788816894788,0.002879769618433403,-0.0002399808015361169,-0.002039836813054912,0.17366389633428098,0.7633491660990346,1.3534370115579142,-0.21602246130451627,1.6704126704800468,1.3535078510582255,0.4751395272561265,0.11519884813836839,0.23042015758118103,0.20855199999999985,-0.02086699999999997,-0.9024329999999999,-0.17232000000000003,-0.05167099999999997,-0.902206,0.3808719999999999,0.030803999999999998,0.00022699999999997722,0.9891860604474916,0.991834710433968,double,-0.902206
57,0.475,stand,-0.06384255370217212,-0.014160566422651118,-0.015600624024956655,0.10453392312756363,0.039733435565913834,-0.03343963907629315,-0.00048001920075518877,0.002520100804031357,-0.0024000960038404783,-0.0002400096003909176,-0.001440057602305536,-0.0027601104044160294,-0.4041031699448703,-0.20179584096720327,-2.7793134853387427,-0.31679424151849117,0.9647977006306737,-0.6048103709030695,-0.37438848179819134,-0.14401497669139832,-0.08643628841487087,0.20908000000000015,-0.020728000000000024,-0.902323,-0.1717899999999999,-0.05156500000000003,-0.902099,0.38087000000000004,0.030837000000000003,0.00022400000000000198,0.9941448533268148,0.9925559471053793,double,-0.902099
58,0.483333,stand,-0.0598823952957882,-0.012600504020163363,-0.0034801392055750194,0.054229445859577584,0.062358945008839116,-0.08887500298748219,0.028201128045119914,-0.0004800192007685088,0.014760590423617072,0.0008400336013548828,-0.0008400336013415596,-0.0015600624024959882,0.47523801828680046,0.18721497689760583,1.4545163589801495,3.4418753445187784,-0.3600288017280515,2.0593647458847326,0.12961036862424047,0.07200576034609071,0.144011520691232,0.20981399999999994,-0.020627000000000006,-0.902171,-0.171284,-0.051466999999999985,-0.902083,0.38109799999999994,0.03083999999999998,8.799999999997699e-05,0.9469431889620995,0.9958518423460144,double,-0.902083
59,0.491667,stand,-0.04919606431485734,-0.018238540916724902,0.006359491240710428,0.006213996730639158,0.11013227446430748,-0.07038706075231017,-0.002399808015361169,-0.0019198464122889352,-0.0004799616030718175,0.00227981761458978,0.0005999520038369618,-0.000959923206143635,1.2822571371407305,-0.6765103067628431,1.1806612006582,-3.671818581771185,-0.17276544414691924,-1.8287199456070165,0.17276026076732612,0.17278444986543318,0.07201094268686736,0.21020399999999995,-0.020491000000000037,-0.902228,-0.17085499999999998,-0.05131000000000002,-0.9021440000000001,0.3810589999999999,0.030818999999999985,8.399999999997299e-05,0.9948158221754946,0.9949176986969875,double,-0.9021440000000001
60,0.5,stand,-0.05712228489141295,-0.013800552022084727,-0.008640345613833216,0.07983004675206865,0.04292490766588235,-0.08883344280108088,-0.007680307212296192,0.003120124804995328,-0.0070802832113284735,0.0028801152045844253,0.0008400336013415652,-0.0027601104044160294,-0.9511845165673387,0.5325799705556445,-1.8000524246422274,-0.633685251042246,0.6048207389036693,-0.7920702758018328,0.07203859234305132,0.028810944138318008,-0.21603110503688933,0.21061600000000003,-0.02034999999999998,-0.902215,-0.17035500000000003,-0.05118800000000001,-0.902095,0.38097100000000006,0.030838000000000032,0.00012000000000000899,0.9818300684870569,0.9920056131239687,double,-0.902095
61,0.508333,stand,-0.04752190087601575,-0.027121084843394098,0.007680307212296141,-0.06513278782811104,0.055771933559508664,-0.04445855621349918,-0.011280451218039972,-0.0002400096003842544,-0.003720148805952196,0.0037201488059659354,0.0019200768030740352,-0.0006000240009602196,1.1520921655342806,-1.5985278796723048,1.9585566814027708,-0.4320345620717347,-0.4032322579358656,0.403232257935469,0.10080806448836033,0.12961036862264075,0.2592207372441859,0.21091799999999994,-0.020125999999999977,-0.9023100000000001,-0.16992800000000008,-0.05094599999999999,-0.9021640000000001,0.380846,0.030820000000000014,0.00014599999999997948,0.9801992079683326,0.9914913139778552,double,-0.9021640000000001
62,0.516667,stand,-0.05087592992560384,-0.019198464122869498,0.00011999040075806804,-0.05836166077261826,0.22973132980886915,-0.07045406662159938,-0.011759059275263146,0.004079673626107353,-0.004799616030717374,0.0026397888168906425,0.000959923206144474,-0.001319894408447403,-0.4024512898473847,0.9506384353881264,-0.907165444149042,-0.05742837259697348,0.5183205215372729,-0.12952570491542892,-0.12963282806279086,-0.11520921489435645,-0.08637753869536685,0.21124399999999988,-0.019932000000000005,-0.9023509999999999,-0.16948200000000013,-0.05077799999999999,-0.902176,0.380726,0.030845999999999985,0.00017499999999992522,0.9777666712907909,0.9930774069448985,double,-0.902176
63,0.525,stand,-0.043321732869321276,-0.017160686427457536,-0.0031201248049886453,0.009190590965228663,0.10739645130877436,-0.04579874950979268,-0.004680187207489629,0.006720268810752461,0.0039601584063360335,0.0033601344053662383,0.001200048001921272,-0.0006000240009598033,0.9065399083502375,0.24454310517364133,-0.3888293778647186,0.8494986280779416,0.3168840975213125,1.0512149810456466,0.0864449284142077,0.028816128138341168,0.08638790441468817,0.21156599999999992,-0.019733,-0.902292,-0.16909300000000016,-0.050624999999999976,-0.9021549999999999,0.3806590000000001,0.030891999999999975,0.00013700000000005375,0.9848389186301464,0.9925998334206791,double,-0.9021549999999999
64,0.533333,stand,-0.03924156966278281,-0.016080643225725274,0.0004800192007685152,-0.03294090459780465,0.03873406347692552,-0.027069625287411764,-0.001800072002878601,0.008280331213253556,0.0037201488059522454,0.002880115204611091,0.0009600384015370304,0.00036001440057597004,0.4896391703514343,0.12961036862261754,0.4320345620733461,0.345627649659313,0.187214976899209,-0.02880230413822036,-0.0576046082749492,-0.028802304138274785,0.11520921655295598,0.2118779999999999,-0.019529999999999992,-0.902265,-0.16874200000000017,-0.050483,-0.902156,0.38062000000000007,0.03095300000000001,0.00010900000000002574,0.9845760241331198,0.9938147005068724,double,-0.902156
65,0.541667,stand,-0.034917206623474806,-0.012958963282936905,0.004199664026878687,0.06249568393082205,0.02620487343103134,-0.018608307957102586,0.0005999520038436186,0.0056395488360887185,0.008639308855291409,0.006959443244554005,0.0019198464122822615,0.0020398368130548987,0.5188820541526246,0.374571627404409,0.4463216733993453,0.2879798424192706,-0.31686853577691587,0.5902519857618341,0.48948020637663575,0.11516774786959728,0.20156256449231053,0.21217399999999997,-0.01937500000000003,-0.902228,-0.16839300000000001,-0.05035900000000004,-0.902174,0.380567,0.03098400000000001,5.3999999999998494e-05,0.9827758155346535,0.9869566010460249,double,-0.902174
66,0.55,stand,-0.031201248049939748,-0.004560182407300833,-0.011520460818430887,0.1856149754426824,-0.015436603656522666,-0.05476706734179496,-0.005640225609026647,0.010080403216132022,0.00132005280211215,0.0018000720028652538,0.0007200288011527632,-0.0014400576023042772,0.44593286613885064,1.0078940208371578,-1.8864904410547831,-0.7488512675951327,0.5329238425588966,-0.8783458602159161,-0.6191493149752465,-0.14398387269044682,-0.4176040340044595,0.2123870000000001,-0.019252999999999965,-0.902121,-0.168118,-0.050315,-0.9020900000000001,0.3805050000000001,0.031062000000000034,3.0999999999892225e-05,0.9806229507663713,0.9956649166371838,double,-0.9020900000000001
67,0.558333,stand,-0.029281171246839457,-0.002640105604220172,-0.00108004320173249,0.04579269011601129,0.03652517910053259,-0.052693314920312505,-0.0030001200048065508,0.004080163206525717,0.004920196807872285,0.0020400816032828434,0.0019200768030740608,-0.00024000960038384123,0.2304184331093614,0.23041843310700572,1.2529002300130196,0.3168253455202353,-0.7200576034569014,0.43203456207370305,0.0288023041422767,0.14401152069138468,0.1440115206912813,0.21260599999999996,-0.01919700000000002,-0.902071,-0.16785699999999992,-0.050277000000000016,-0.902083,0.3804629999999999,0.031079999999999997,1.2000000000012001e-05,0.9881117767243824,0.9953136627409409,double,-0.902071
68,0.566667,stand,-0.029157667386608035,-0.0037197024238064566,0.00011999040077138805,0.039083936285939744,-0.010379754823665955,-0.0387722282535734,-0.0023998080153478313,0.0003599712023075034,0.002279817614591014,0.002759779217648674,0.0008399328053730732,0.0007199424046075133,0.0148192776855556,-0.12954125504994918,0.14399251289943232,0.0720316762009497,-0.44638732951982063,-0.31682015758114357,0.08635680517948463,-0.12960691117122383,0.11518502579689792,0.21282900000000005,-0.019162999999999986,-0.902053,-0.16759100000000005,-0.050239000000000034,-0.902078,0.3804200000000001,0.031076000000000048,2.5000000000052758e-05,0.9942006691762735,0.9950445917553368,double,-0.902053
69,0.575,stand,-0.027601104044156315,-0.007080283211332268,0.0009600384015370304,-0.003863025982674327,-0.027773164425294677,-0.01586158736194651,0.002520100804024712,-0.003360134405379606,0.005040201608064413,0.0012000480019279496,0.001200048001921288,-0.0016800672026881377,0.18679507289712402,-0.40328582593613854,0.10080979248357735,0.5904126748317039,-0.44643053014366296,0.33125932958999454,-0.18717523289580446,0.043215552207874486,-0.28801267338241604,0.21307999999999994,-0.019131999999999982,-0.902019,-0.16735100000000003,-0.05016999999999999,-0.9021,0.38043099999999996,0.03103800000000001,8.099999999999774e-05,0.9882552130622548,0.9960198910472078,double,-0.902019
70,0.583333,stand,-0.02220088803553354,-0.002400096003835882,-0.007680307212282817,0.13383042213273585,0.028695338380605107,0.003120115465181548,0.023880955238216657,0.001200048001921272,0.013080523220928541,0.0016800672026831191,0.0013200528021100684,-0.0004800192007680924,0.6480518431084547,0.5616449306967919,-1.0368829489763365,2.5634050683057548,0.5472437786272482,0.9648771886312365,0.057604608274951105,0.014401152068736338,0.1440115206912325,0.2134640000000001,-0.019102000000000008,-0.901846,-0.16715199999999997,-0.050139000000000045,-0.9020400000000001,0.38061600000000007,0.031037000000000037,0.00019400000000002748,0.9526348409765557,0.996350196489689,double,-0.901846
71,0.591667,stand,-0.024118070554342952,0.004319654427643415,-0.00611951043916761,0.01636068723595377,0.0023982168168548835,-0.023304161213260982,-0.005639548836095379,0.0021598272138250376,-0.005999520038396638,0.0011999040076872372,0.0007199424046083459,-0.0005999520038394556,-0.23004349877722552,0.8063055473337227,0.18728063032339753,-3.5421771147482373,0.11516429228506819,-2.2894220373560152,-0.05761497420156926,-0.07200748710123805,-0.014390785105755016,0.21361799999999997,-0.01911999999999997,-0.901845,-0.166941,-0.05016900000000002,-0.9019940000000001,0.380559,0.03104900000000005,0.00014900000000006575,0.9843224070869996,0.9974624874928999,double,-0.901845
72,0.6,stand,-0.01800072002881266,0.0014400576023055455,-0.00900036001440633,0.17261158720793598,-0.043714196161248504,0.003695062160438949,-0.009360374414979384,-0.002760110404422293,-0.00648025921036871,0.00048001920075519197,0.0001200048001954596,-0.0009600384015361976,0.7341114275207428,-0.3455654416582138,-0.34571577765975586,-0.44651693014329036,-0.5904161308349185,-0.057691008276980246,-0.08638963241714291,-0.07199539234524081,-0.04321209620745773,0.21369000000000005,-0.019155000000000033,-0.901824,-0.16678700000000002,-0.05018,-0.9019269999999999,0.38047700000000007,0.03102499999999997,0.00010299999999996423,0.9794458996460806,0.9981999279971285,double,-0.901824
73,0.608333,stand,-0.018240729629176687,-0.0007200288011527632,-0.008760350414015293,0.084468725973429,0.050178660434929905,0.009031671144903471,-0.008880355214210751,-0.002640105604220137,-0.0061202448097922415,0.0009600384015370176,0.0006000240009573052,0.0,-0.028802304135848757,-0.25922073724448574,0.028802304139089834,0.05760460827656673,0.0144011520703415,0.043203456207424315,0.057604608278149956,0.05760460827575226,0.11520921655300535,0.21376799999999996,-0.019170999999999994,-0.901802,-0.16662700000000008,-0.05016900000000002,-0.9018539999999999,0.38039500000000004,0.030998000000000026,5.199999999994098e-05,0.9809741253423718,0.9981131282987217,double,-0.901802
74,0.616667,stand,-0.02831773458124866,0.0002399808015361185,0.019798416126706464,-0.3429605672701709,0.10977430583087266,-0.06027111891014671,-0.001559875209974779,-0.004439644828414861,-0.002999760019198567,0.00035997120230084735,0.00011999040077138965,-0.00011999040076805925,-1.2091438627396245,0.11519193696770905,3.426777842659218,0.8783873295219599,-0.21592743270875148,0.374428220613594,-0.07200230372404291,-0.057599424068384725,-0.014397696276465075,0.21399100000000015,-0.019210000000000005,-0.9019919999999999,-0.16638799999999998,-0.05016999999999999,-0.9020199999999999,0.38037900000000013,0.030959999999999988,2.8000000000028002e-05,0.990419131306111,0.9993367281036833,double,-0.9019919999999999
75,0.625,stand,-0.022560902436079944,0.0004800192007685088,0.01608064322573838,-0.10669013067056331,0.02170638045558802,0.017266748114693534,-0.002160086403464951,-0.0018000720028785772,-0.0066002640105603345,0.0016800672027097656,0.0009600384015370176,-0.0003600144005759652,0.690847491319896,0.028805760138292245,-0.44615059413993363,-0.07202822434779425,0.3167614095207336,-0.43207776207389326,0.15841785676334008,0.10080979248357427,-0.028804032138234126,0.21416099999999993,-0.019228999999999996,-0.902181,-0.16618599999999994,-0.05016599999999999,-0.902157,0.3803469999999999,0.030936999999999992,2.4000000000024002e-05,0.9880429335752312,0.9964796248915928,double,-0.902157
76,0.633333,stand,-0.015120604824201364,0.011280451218046633,0.004200168006721121,-0.11636643166891535,0.03826788091795085,0.04016224938786112,0.029401176047047846,-0.008760350414015293,0.010560422416896784,0.0004800192007551856,-0.0007200288011527632,0.0001200048001921272,0.8928714282825571,1.2961036862208182,-1.425714054844259,3.7875029941812874,-0.8352668200092027,2.059364745884681,-0.14401152069537682,-0.20161612896793155,0.057604608276501906,0.21453200000000006,-0.01939599999999997,-0.902128,-0.16605599999999998,-0.05026599999999998,-0.9021910000000001,0.38058800000000004,0.03087000000000001,6.300000000003525e-05,0.9452945533755246,0.9985439197789459,double,-0.902128
77,0.641667,stand,-0.018478521718261143,0.030237580993524287,0.008879289656816402,-0.1581386120674527,0.14752604911936756,0.019031225696333778,-0.00035997120230084735,-0.00011999040077138965,-0.006479481641468955,0.0008399328053864059,0.000479961603072237,-0.0002399808015357022,-0.4029177938636666,2.274673599169398,0.561449682036874,-3.5710519857630025,1.0367602607684128,-2.0446249170105393,0.043186177661533764,0.1439873295206392,-0.04319481662201002,0.21468300000000007,-0.019649000000000028,-0.902256,-0.1658949999999999,-0.050514,-0.9022669999999999,0.38057799999999997,0.030864999999999976,1.0999999999983245e-05,0.9890723627419415,0.9983388081227511,double,-0.902256
78,0.65,stand,-0.010320412816516277,0.02412096483858759,0.009600384015370176,-0.031347645028254864,-0.04264708275362946,0.10080120019240196,-0.002880115204611053,-0.0008400336013415596,-0.004080163206528161,0.0013200528021100684,0.0004800192007685088,-0.0001200048001921272,0.9790122286985277,-0.7340232995243816,0.0865347844178292,-0.3024293774523215,-0.08640864041403659,0.2879297293820693,0.057616704275010255,6.912000032616304e-06,0.014397696069071703,0.21474500000000007,-0.019856999999999958,-0.90237,-0.1657979999999999,-0.05071099999999995,-0.902348,0.38054299999999996,0.030853999999999993,2.199999999996649e-05,0.9915592832329237,0.9974304379926284,double,-0.902348
79,0.658333,stand,-0.009960398415943358,0.0214808592343744,0.00864034561381995,0.06022145081180305,-0.05126889045433427,0.12949465823074785,-0.007560302412100783,-0.0018000720028852628,-0.0032401296051841467,0.002760110404402308,0.0003600144005730556,-0.0004800192007680988,0.04320345620699897,-0.3168253455194065,-0.11520921655469027,-0.5616449306960005,-0.11520921655390759,0.10080806448386202,0.17281382482806348,-0.014401152069537296,-0.043203456207365286,0.2147650000000001,-0.02005100000000004,-0.902469,-0.16569199999999995,-0.050887000000000016,-0.902424,0.38045700000000005,0.030835999999999975,4.499999999996174e-05,0.9859666199885595,0.9948423707764783,double,-0.902424
80,0.666667,stand,-0.006959443244527361,0.02183825293975985,-0.0028797696184333834,0.06618821585409687,-0.019571388811894883,0.09521513483384647,0.013918886489081366,-0.001559875209981419,0.005639548836092881,0.002279817614589765,0.0009599232061444612,0.000599952003839872,0.36008581370482057,0.04288381394113826,-1.3823032436109006,2.5772964844230843,0.028821309443705534,1.0654761748592465,-0.05763052433555791,0.07198329800472775,0.12958617765874278,0.214939,-0.020245999999999986,-0.9023979999999999,-0.16561500000000007,-0.05106099999999997,-0.902395,0.38055400000000006,0.03081499999999998,2.9999999999752447e-06,0.9748353685789115,0.9957276986969859,double,-0.902395
81,0.675,stand,-0.0010800432017191524,0.012000480019206058,-0.01176047041880848,0.13263616650084764,-0.08654930151180343,0.1349596728268719,-0.002520100804038002,0.00132005280211673,-0.0016800672026881154,0.0032401296051841034,0.0006000240009573052,0.0,0.7055562273860775,-1.1805799736653966,-1.0657267251140117,-1.9727573854697347,0.34560518565920284,-0.8783890602161246,0.11524204855326227,-0.04318963220774685,-0.07199712034559816,0.21492699999999987,-0.020334999999999992,-0.9023140000000001,-0.16557900000000014,-0.051156000000000035,-0.902297,0.380506,0.030821000000000043,1.7000000000044757e-05,0.9944934197776061,0.9943379682316319,double,-0.902297
82,0.683333,stand,-0.0002400096003909192,0.01656066242649379,-0.0037201488059526618,0.049587659657754295,-0.012578190419106428,0.044178721766555344,0.004440177607112096,0.0006000240009573131,0.002880115204608593,0.0018000720028919243,0.00108004320173249,0.00024000960038384123,0.10080806448196819,0.5472437786256777,0.9648771886302522,0.8352668200108198,-0.08640691241562744,0.547243778626755,-0.17281382482805618,0.0576046082773538,0.02880230413822674,0.214966,-0.020467999999999986,-0.902259,-0.165562,-0.05128499999999997,-0.9022640000000001,0.380528,0.030816999999999983,5.000000000032756e-06,0.9910727084998605,0.9964784957674784,double,-0.902259
83,0.691667,stand,0.006839452843769295,0.01931845452364063,-0.008519318454528763,-0.03289365872535967,0.06334863621843376,0.08663412745681119,-0.00455963522917953,0.0021598272138250376,-0.0021598272138229563,0.0005999520038436186,-0.0002399808015361153,-0.0004799616030718143,0.8494675358963476,0.3309085789713007,-0.575854289485969,-1.0798911490630618,0.18716141263111502,-0.6047447106349305,-0.14400287965542316,-0.1583902091754974,-0.08638963324401848,0.21487100000000003,-0.02061099999999999,-0.902206,-0.16561399999999993,-0.051447999999999994,-0.902197,0.38048499999999996,0.030837000000000003,8.999999999925734e-06,0.9908530544548217,0.9985684665361723,double,-0.902197
84,0.7,stand,0.0024000960038292525,0.01272050882035233,-0.011040441617662525,0.015298616716985337,0.03588631862825572,0.042093231431585415,0.004080163206525717,-0.0002400096003842576,0.0036001440057601168,0.001560062402501005,0.0007200288011527728,0.0001200048001921288,-0.5327441305580324,-0.7917851558008353,-0.30254688145131226,1.0368172849760382,-0.28799193738261336,0.6912241953177878,0.11521785655314955,0.11520576055308974,0.07199884834560766,0.2148850000000001,-0.020718999999999987,-0.902084,-0.1656209999999998,-0.05154799999999998,-0.902104,0.3805059999999999,0.030828999999999995,2.0000000000020002e-05,0.9907221923133677,0.9971293451549168,double,-0.902084
85,0.708333,stand,0.004680187207502953,0.009000360014399546,-0.009840393615747768,0.04462008601718523,0.00820765408072884,0.033927356807925205,-0.004800192007685088,0.0016800672026831191,-0.0019200768030719533,0.0003600144005730508,0.0009600384015303559,0.0006000240009598033,0.27362188931641557,-0.44643571414289784,0.14401152069059786,-1.0656852531154168,0.23041843310540844,-0.6624529951796528,-0.1440115206921816,0.02880230413747536,0.05760460827645176,0.21480599999999994,-0.02078000000000002,-0.902018,-0.16565699999999994,-0.05161500000000002,-0.902017,0.3804629999999999,0.030835,1.0000000000287557e-06,0.9909398362711216,0.9980100218135597,double,-0.902017
86,0.716667,stand,0.005279577633781215,0.009479241660666562,-0.010559155267575752,0.0003552136614471863,0.0241989602037092,0.030302640654910635,0.00455963522917953,-0.00011999040076472725,0.002399808015358655,0.0007199424046016851,-0.00011999040076472725,0.00011999040076805765,0.07192109746559362,0.05746120065598901,-0.08624449865946467,1.123089421270044,-0.2159896332430805,0.5183447106348182,0.0431879054509997,-0.12959308882830273,-0.05759942406908351,0.2148,-0.02085999999999999,-0.90191,-0.16569499999999993,-0.05169499999999999,-0.9019280000000001,0.3804949999999999,0.030835,1.8000000000073513e-05,0.9912299945624725,0.9987672158221509,double,-0.90191
87,0.725,stand,0.006120244809795237,0.008640345613826612,0.0012000480019146262,0.02923306108943257,-0.007732068463659572,0.017567798816198497,-0.0048001920076718285,0.0009600384015370304,-0.0020400816032641075,-0.0001200048002087828,0.0006000240009573131,0.0014400576023042965,0.10088409648554306,-0.10067155248289433,1.4111608387724093,-1.123224197390069,0.12960864062183697,-0.5328080665573988,-0.10079769648511647,0.08640518441402219,0.15841440076038055,0.21470900000000004,-0.020923999999999998,-0.901937,-0.1657470000000001,-0.05176200000000003,-0.901926,0.3804560000000001,0.030838000000000032,1.0999999999983245e-05,0.9911610945261998,0.9972822147265072,double,-0.901926
88,0.733333,stand,0.0034801392055750194,0.009840393615741107,-0.002640105604220137,-0.021878159846333164,0.036743764042799686,0.047502016190709644,0.004680187207489629,-0.0008400336013482211,0.0019200768030719533,0.0,0.0003600144005797124,-0.0001200048001921272,-0.31682534552024566,0.1440115206905664,-0.46083686621081804,1.1376910134599088,-0.21601728103747078,0.4752380182810565,0.014401152071136722,-0.028802304137477468,-0.187214976898646,0.214719,-0.021013000000000004,-0.901899,-0.16577600000000015,-0.05184099999999997,-0.901905,0.38049500000000014,0.030827999999999967,5.999999999950489e-06,0.9913933138848637,0.9993675191687272,double,-0.901899
89,0.741667,stand,0.003839692824577896,0.011879049676027875,0.0037197024238065065,-0.03366824130678332,0.07814614324020909,0.005157994674274356,0.00035997120230084735,0.000479961603072237,-0.0017998560115188072,-0.0005999520038169835,-0.00011999040077138965,0.0002399808015357022,0.0431429828417181,0.24461915770179746,0.7631159140900743,-0.5183844498666674,0.15838675359016866,-0.44635622925255364,-0.07198848137952807,-0.0575959684846538,0.04319481662201002,0.21468999999999994,-0.021108000000000016,-0.901945,-0.165813,-0.051941000000000015,-0.901934,0.3805029999999999,0.030833,1.0999999999983245e-05,0.9968379753018086,0.9987946425136223,double,-0.901934
90,0.75,stand,0.004800192007685088,0.0063602544101794105,0.0018000720028785772,-0.012211998443118849,0.030846146400490843,0.05631243985250559,-0.000120004800195458,-0.0004800192007685088,-0.0007200288011523468,-0.0006000240009639668,0.0010800432017324755,-0.0007200288011519304,0.11526451255336467,-0.6622819231787401,-0.2303648651059548,-0.057599424276527464,-0.11520230455307114,0.12958444862191962,-8.640003238124287e-06,0.1440097926921709,-0.11520576055293755,0.21464899999999987,-0.021165000000000045,-0.9019659999999999,-0.16585800000000006,-0.051985,-0.901955,0.38050699999999993,0.03081999999999996,1.0999999999983245e-05,0.9985439197789334,0.9975066296076135,double,-0.901955
91,0.758333,stand,0.0036001440057571543,0.006720268810752461,0.0015600624025009842,-0.03827544166236158,0.018314476102988624,0.05900858065724661,0.000240009600390916,-0.0007200288011461016,-0.0004800192007680924,0.0021600864034383048,0.0002400096003842544,0.0007200288011519304,-0.1440115206921791,0.04320345620701421,-0.02880230413747653,0.043203456208613045,-0.02880230413747651,0.028802304138275937,0.33122649758817474,-0.1008080644843655,0.17281382482945576,0.21462099999999995,-0.021226999999999996,-0.901983,-0.16587000000000018,-0.052039,-0.901962,0.38049100000000013,0.030812000000000006,2.0999999999937735e-05,0.9985032771763823,0.9959740905579826,double,-0.901962
92,0.766667,stand,0.007559395248371081,0.003479721622270388,0.002879769618433422,-0.018918629456916736,0.03147191320452695,0.07771323952198103,0.000479961603072237,-0.000479961603072237,-0.0007199424046075229,0.00011999040078471127,0.000479961603072237,0.00011999040076805925,0.47507214334220643,-0.3888345558533828,0.15835219773607453,0.028791936966801338,0.02880575930811926,-0.028788481382221252,-0.24479193696347554,0.028791936967600667,-0.0719988481382139,0.21456200000000003,-0.02126,-0.9020130000000001,-0.16593199999999997,-0.052064,-0.901985,0.380494,0.030803999999999998,2.8000000000028002e-05,0.998350889678578,0.9988715397393896,double,-0.901985
93,0.775,stand,0.00552022080883119,0.006600264010557003,-0.0013200528021233915,-0.03446583860284202,0.015338838894988872,0.06274489430797936,0.0007200288011461016,0.0003600144005730508,-0.001200048001920023,0.001440057602292203,0.0009600384015303559,0.0008400336013440577,-0.24471072117363285,0.37448006579702414,-0.5039988504208324,0.028809216137509128,0.10080115248353344,-0.05761497627655082,0.15841440075692861,0.05761152027578506,0.08640864041473603,0.214522,-0.021311999999999998,-0.9020119999999999,-0.16596600000000006,-0.05211100000000002,-0.901967,0.38048800000000005,0.03079900000000002,4.499999999996174e-05,0.9975915847476378,0.9963436278367568,double,-0.901967
94,0.783333,stand,0.020280811232459773,0.0,0.0019200768030740608,-0.032937751677388806,0.019941524489171716,0.15472231667731626,0.0009600384015370304,-0.0007200288011527728,-0.00036001440057597004,0.00312012480500201,0.0,0.0012000480019200388,1.7713417045036264,-0.7920633638013996,0.38883110586793257,0.028802304139077285,-0.12961036862184488,0.10080806448386663,0.20161612897033748,-0.11520921655230586,0.043203456207366424,0.2143609999999999,-0.021318000000000004,-0.902031,-0.16610900000000006,-0.05211100000000002,-0.901973,0.38047,0.030793000000000015,5.8000000000002494e-05,0.9979118551724229,0.9938484218259842,double,-0.901973
95,0.791667,stand,0.01883849292056174,0.0035997120230417297,-0.0019198464122889224,0.014492692790603246,-0.07642191201010193,0.04655160052639425,0.00035997120230084253,0.0003599712023075034,0.00011999040076805765,0.0013198944084453037,0.001799856011524195,-0.0004799616030718143,-0.17306435227958028,0.4319308882939408,-0.46075392552951205,-0.07200230372404406,0.1295896332445726,0.05759596848380418,-0.21601036675746252,0.21596544414736998,-0.20158502579695708,0.21420699999999993,-0.021345000000000003,-0.902014,-0.16625500000000004,-0.052126000000000006,-0.901961,0.38046199999999997,0.030781000000000003,5.299999999996974e-05,0.9991282899480951,0.9956650448783169,double,-0.901961
96,0.8,stand,0.010800432017271462,0.00552022080883119,0.002760110404415595,-0.009634261896435514,-0.014584234572193353,0.05730314074893924,-0.0009600384015370176,0.008760350414015293,0.007800312012480357,0.0027601104044022713,0.0009600384015303559,0.0003600144005759652,-0.9646058926305344,0.23047027310565846,0.5616172826958475,-0.15840748876009297,1.008085828838084,0.921675460423889,0.1728328328281485,-0.10078214448503968,0.10080115248383248,0.214109,-0.021318000000000004,-0.901972,-0.16632200000000008,-0.052164000000000044,-0.9019809999999999,0.3804310000000001,0.03084600000000004,8.999999999925734e-06,0.9802949348854842,0.9950926660481126,double,-0.901972
97,0.808333,stand,0.012960518420736587,0.0045601824072942325,0.0020400816032695203,0.013720416354055867,-0.01242781371492418,0.05125246317672732,0.0006000240009639748,0.0,0.0001200048001921288,0.0019200768030740608,0.001200048001921288,0.0002400096003842576,0.25922073724530714,-0.11520921655309804,-0.0864069124140263,0.18721497689919675,-1.0512841010458867,-0.9216737324238928,-0.10080806448196547,0.028802304139077677,-0.01440115206908781,0.21400600000000003,-0.021355999999999986,-0.901988,-0.16641400000000006,-0.052192000000000016,-0.901996,0.3804200000000001,0.03083600000000003,8.000000000008e-06,0.9989001553034871,0.9962051150123946,double,-0.901988
98,0.816667,stand,0.03443724502038925,0.02591792656587381,-0.03335733141348672,0.6097815258758701,-0.1672519204102098,0.08336935366002099,-0.0004799616030722306,0.0010799136069091885,0.000479961603071398,0.0021598272138316985,0.0005999520038436186,0.000239980801535699,2.5770010318757497,2.5627242810870428,-4.247349774028794,-0.12958790545190751,0.12957926648778262,0.043191361036629045,0.02876774787108662,-0.07200575930857508,-3.45558538020147e-06,0.2137150000000001,-0.021563,-0.901706,-0.16668299999999991,-0.05240299999999998,-0.901716,0.380398,0.03083999999999998,9.99999999995449e-06,0.9977741409061838,0.9962426417430337,double,-0.901706
99,0.825,stand,0.017160686427457765,0.002520100804031374,-0.0014400576023055455,0.03395569370917553,-0.00941968548540969,0.04080095383900851,0.0002400096003909192,0.0008400336013415707,0.0003600144005763864,0.001560062402501005,0.0009600384015370304,0.00036001440057597004,-2.0732699619502752,-2.8078514054773374,3.8302260663844314,0.08640000041559538,-0.02878675213819993,-0.014394240069004286,-0.07197465634593771,0.043212096207058084,0.014404608069155424,0.21357400000000015,-0.021577000000000013,-0.901691,-0.16681299999999988,-0.05241599999999996,-0.901701,0.38038700000000003,0.03083899999999995,9.99999999995449e-06,0.9983251354306153,0.9968886057069999,double,-0.901691
100,0.833333,stand,0.016200648025920517,0.004800192007685088,-0.002160086403451628,0.0217513712008589,-0.010359819045619199,0.040165990394479455,0.0002400096003775928,0.0015600624025009842,0.00012000480019171084,0.0033601344053662383,0.0007200288011461016,0.0012000480019204393,-0.11520921655313138,0.2736218893140171,-0.08640691241402608,-1.5992339845190084e-12,0.08640691241562588,-0.028802304138326476,0.21601728103506848,-0.0288023041390769,0.10080806448391524,0.2134410000000001,-0.021604000000000012,-0.901672,-0.16691999999999996,-0.05245000000000005,-0.9016730000000001,0.38036100000000006,0.03084600000000004,1.0000000000287557e-06,0.9973517132768701,0.9939334569830551,double,-0.901672
101,0.841667,stand,0.01787856971444392,0.0059995200383962215,-0.003119750419962838,0.039812144513008955,-0.014387069621050585,0.03585767797174348,-0.0002399808015294545,0.0008399328053730732,-0.000239980801535699,0.00011999040078470967,0.00155987520998808,-0.0007199424046079296,0.20133449586313787,0.14390785105725037,-0.11515046994374885,-0.057594240689590064,-0.08640863896423152,-0.04319481662195909,-0.388786177655568,0.1007735071804622,-0.23038041834993453,0.21328999999999998,-0.021647000000000027,-0.901648,-0.167068,-0.052487000000000006,-0.901653,0.380358,0.03083999999999998,5.000000000032756e-06,0.9984401539006406,0.9971296896059405,double,-0.901648
102,0.85,stand,0.014280571222846672,0.005040201608062748,0.0009600384015237072,0.02413600511422323,0.025833445606412146,0.02383203584359036,-0.0001200048001954596,0.0001200048001954596,0.0006000240009598112,0.0014400576022922224,0.0002400096003842576,0.0001200048001921288,-0.4317770900752768,-0.11512281655267999,0.48959424234808385,0.014397696067922237,-0.08639481641397097,0.1008046084838015,0.15841440075693325,-0.15839020876081059,0.10079769648386729,0.21316999999999997,-0.021687999999999985,-0.901651,-0.16717500000000007,-0.05252699999999999,-0.9016599999999999,0.38034500000000004,0.030839000000000005,8.999999999925734e-06,0.9988707279445747,0.9975585912205214,double,-0.901651
103,0.858333,stand,0.02784111364454686,0.007320292811709766,0.004440177607112037,-0.04474930840105822,0.004828948828394723,0.048536108220065835,0.000120004800195458,-0.000120004800195458,-0.003720148805952196,0.002280091203647086,0.001080043201725814,0.0010800432017278956,1.6273301838113683,0.2736218893132136,0.41763341000699805,0.028802304139075554,-0.028802304139075554,-0.5184414744884183,0.10080806448516261,0.10080806448356568,0.11520921655295366,0.212939,-0.02174999999999999,-0.901719,-0.1673880000000001,-0.05257899999999999,-0.901688,0.3803270000000001,0.030828999999999995,3.100000000000325e-05,0.9937933034724654,0.9951159783887269,double,-0.901688
104,0.866667,stand,0.02651787856971778,0.002879769618433422,0.008039356851456639,-0.15253071475941338,0.05983423775985504,0.052600366757966074,0.00011999040075806804,0.00011999040077138965,0.0023998080153591035,0.0013198944084453212,0.00035997120230084735,0.0002399808015361185,-0.15877550693893533,-0.5328201575805579,0.43186695996455754,-1.7277942632541732e-06,0.028797120346394173,0.7343360716716264,-0.11521439827235062,-0.08640172779277307,-0.1007994240690883,0.21271899999999988,-0.021772999999999987,-0.9017660000000001,-0.16759800000000014,-0.052600000000000036,-0.901753,0.380317,0.03082700000000005,1.3000000000040757e-05,0.995990333242188,0.9975550178180209,double,-0.901753
105,0.875,stand,0.024480979239153978,0.015120604824194703,0.004560182407294172,0.04471000052779033,0.04439612409027579,-0.03656182901875992,0.0008400336013415596,0.0006000240009573052,-0.0001200048001921272,0.0006000240009639668,0.001200048001921272,0.0001200048001921272,-0.24443769717554245,1.4689589830506697,-0.4175176340048545,0.08640864041563524,0.05760633627576066,-0.3023896334514845,-0.08638790441393873,0.10081324848438991,-0.014397696069121661,0.212522,-0.021894000000000025,-0.9018050000000001,-0.16779699999999997,-0.05271600000000004,-0.90179,0.38031899999999996,0.030822000000000016,1.5000000000098268e-05,0.9982678799076334,0.9976049157645615,double,-0.90179
106,0.883333,stand,0.0152406096243835,0.0061202448097884945,-0.0016800672026964422,-0.012311657341917862,-0.015579161443019638,-0.023360012538004748,0.0007200288011594248,-0.0004800192007685088,-0.0009600384015361848,0.0012000480019279335,0.0,0.00012000480019171084,-1.1088887093208255,-1.080086405184948,-0.7488599075951744,-0.014401152067938834,-0.129610368621842,-0.10080806448386584,0.07200576034608955,-0.14401152069137968,-4.996528732614234e-14,0.21240100000000006,-0.021948999999999996,-0.901799,-0.1679139999999999,-0.05276700000000001,-0.901775,0.38031499999999996,0.030818000000000012,2.4000000000024002e-05,0.9978458479110554,0.9977499444735418,double,-0.901775
107,0.891667,stand,0.025437964962815238,-0.0045596352291795905,0.003839692824577896,0.00214411302817899,0.041234349689790846,0.08480485689348259,0.0010799136069158635,0.0008399328053730844,-0.00011999040076805925,0.000959923206144474,0.0002399808015361185,0.00011999040076805925,1.223584753831509,-1.2814830860292952,0.6623182178154992,0.04318272207300706,0.15838157021137517,0.10079769627647352,-0.028812670480376876,0.02879539255293015,-1.7277926147812957e-06,0.212198,-0.021904000000000035,-0.901832,-0.168118,-0.052727000000000024,-0.901806,0.380316,0.03082299999999999,2.599999999997049e-05,0.997711078485266,0.9980788081227648,double,-0.901806
108,0.9,stand,0.022320892835715672,0.0033601344053729,-0.0015600624025009842,-0.0252821888087991,0.003026711259042192,0.019282786174934948,0.0008400336013415596,-0.0009600384015303559,-0.00012000480019171084,0.0008400336013282363,0.000120004800195458,0.0001200048001921272,-0.37406361779665814,0.9504103725611973,-0.6479965471113474,-0.028786752139001916,-0.21600518503581334,-1.7279999581887887e-06,-0.014387328071071301,-0.014397696068721948,1.728000008154076e-06,0.21201899999999996,-0.02193999999999996,-0.90182,-0.16829700000000014,-0.05275399999999997,-0.9017919999999999,0.3803160000000001,0.030814000000000008,2.8000000000028002e-05,0.9978644989295609,0.9982916571806036,double,-0.9017919999999999
109,0.908333,stand,0.02496099843993614,0.0008400336013482324,-0.004080163206525717,-0.029723426178614707,-0.01760558794477833,0.024256144489238015,0.0004800192007685152,0.0,-0.0002400096003842576,0.001320052802110086,0.0007200288011527728,0.00012000480019171244,0.31682534552027997,-0.3024241934507009,-0.30242419345070876,-0.043203456207014004,0.11520921655230586,-0.01440115206918851,0.057604608278153606,0.07200576034529224,-4.9773375865154626e-14,0.21181499999999998,-0.021946999999999994,-0.901788,-0.16849400000000014,-0.052754999999999996,-0.901757,0.3803090000000001,0.030808000000000002,3.100000000000325e-05,0.9991055370304804,0.9971759384195439,double,-0.901757
110,0.916667,stand,0.02171826253899512,0.003119750419962838,-0.0009599232061444612,-0.01981779465490528,0.007718570227486388,0.011097893991601444,0.0017998560115175344,-0.00011999040077138805,0.0002399808015361153,0.0011999040076872372,0.00011999040076472725,0.0003599712023041729,-0.38909718033849233,0.27354413470297434,0.3743988481378968,0.15836774787005148,-0.014397696276864307,0.05759424069118901,-0.01441670199458217,-0.07199884813871382,0.028793664760314214,0.21164899999999998,-0.021973999999999994,-0.901778,-0.16866500000000006,-0.052779999999999994,-0.9017459999999999,0.38031400000000004,0.030806,3.2000000000032e-05,0.9969670924549852,0.9975825500996396,double,-0.9017459999999999
111,0.925,stand,0.031681267250694936,0.00132005280211673,-0.006600264010550342,0.017270555889285395,-0.00041367186728225323,0.028451041558638892,0.0003600144005730508,-0.0006000240009573052,-0.0010800432017283122,0.0006000240009639668,-0.0001200048001887964,0.0006000240009598033,1.1956083897395624,-0.21597235303565349,-0.6768679712475527,-0.1727879048295305,-0.05760633627576085,-0.15840921676040107,-0.071988480346006,-0.028800576137468215,0.028807488138201054,0.2113879999999999,-0.02199000000000001,-0.9017320000000001,-0.16892400000000007,-0.052792000000000006,-0.9016860000000001,0.380312,0.030801999999999996,4.599999999999049e-05,0.9978551531471763,0.998111657180575,double,-0.9016860000000001
112,0.933333,stand,0.03732149285970875,0.004920196807867288,-0.014040561622469076,0.15165801191773123,-0.04297456994014817,0.06888092440487822,0.001320052802110086,0.00012000480018879799,0.0004800192007680988,0.0009600384015370304,0.0004800192007685152,0.00024000960038384123,0.6768541472475542,0.43203456207255375,-0.8928714282873879,0.11520921655310741,0.08640691241402973,0.18721497689864697,0.04320345620701631,0.07200576034529187,-0.04320345620736414,0.21108799999999994,-0.022029999999999994,-0.901611,-0.16922700000000002,-0.05282899999999996,-0.901567,0.38031499999999996,0.030798999999999965,4.4000000000044004e-05,0.9976504379926291,0.9977268963978718,double,-0.901567
113,0.941667,stand,0.017878569714417276,0.0014398848092166917,0.017518598512116436,-0.26942820343440904,0.04046835885765152,-0.037351121233052446,0.00155987520998808,-0.0014398848092166917,-0.0007199424046075133,0.0010799136069025276,0.0004799616030655698,-0.0005999520038394556,-2.3329641403037353,-0.4176040315155471,3.7867962724484365,0.028776386834412304,-0.18717177938630644,-0.14398387393515755,0.014383873933944845,-6.911171459728953e-06,-0.1007873295204332,0.21095200000000003,-0.022054000000000018,-0.901763,-0.16936700000000005,-0.05283700000000002,-0.901718,0.3803190000000001,0.030783000000000005,4.499999999996174e-05,0.9962639905422956,0.9973411045082179,double,-0.901718
114,0.95,stand,0.03324132965319636,0.002520100804031374,-0.00960038401535698,0.16717934011354163,-0.07807288024852647,0.05601336484406686,0.0012000480019146262,-0.0004800192007685152,0.0001200048001921288,0.0012000480019279496,0.0,0.0006000240009598112,1.8436049368509808,0.12963110462194793,-3.2544080796200245,-0.04318099220850318,0.11518848055300435,0.10079769648381733,0.01441670407121361,-0.05759769627571993,0.14400288069114098,0.2106849999999999,-0.022079000000000015,-0.901682,-0.16963400000000006,-0.052858000000000016,-0.901633,0.38031899999999996,0.030779,4.899999999996574e-05,0.9978365826980375,0.9972738425761918,double,-0.901633
115,0.958333,stand,0.02952118084722998,0.003000120004799849,-0.002760110404415595,0.06748912250710659,-0.03495663763558473,-0.008011864629656388,0.0018000720028785772,-0.0006000240009573052,-0.0003600144005763816,0.0019200768030740352,-0.0001200048001887964,0.0009600384015361848,-0.4464357141445291,0.057604608276547835,0.8208656679396804,0.07200576034608765,-0.01440115206873749,-0.057604608276552074,0.08640691241402647,-0.014401152068738257,0.04320345620741295,0.21045399999999992,-0.02210899999999999,-0.9016620000000001,-0.16986400000000001,-0.05288399999999999,-0.901602,0.38031799999999993,0.030774999999999997,6.0000000000060005e-05,0.9967811758591518,0.9958165620890471,double,-0.901602
116,0.966667,stand,0.020518358531307884,-0.006119510439160949,0.013438924886009136,-0.08246061711558113,0.07621028817859872,0.023631954600392586,0.00155987520998808,-0.001679865610752807,0.0019198464122872573,0.0007199424046016851,0.0004799616030722306,-0.00011999040076805765,-1.080252257730025,-1.0942681118263413,1.9437287365520286,-0.02882130944210408,-0.12957062752525722,0.27356141263062417,-0.14400460744808505,0.07199020917458872,-0.12959308882940174,0.21029600000000004,-0.022072000000000036,-0.9017580000000001,-0.17002899999999999,-0.052829000000000015,-0.901715,0.380325,0.03075699999999998,4.300000000001525e-05,0.9950164243682936,0.9981140944945921,double,-0.901715
117,0.975,stand,0.035041401656061635,0.004920196807867288,-0.007320292811723187,0.03090297913840958,-0.04820879908430601,-0.02211991994662407,0.0009600384015370304,-0.001320052802110086,-0.0021600864034562366,0.0009600384015370304,0.0008400336013415707,-0.0006000240009598112,1.7428348883660008,1.324817862357895,-2.49120577195878,-0.07198329634598044,0.04317926420769523,-0.4896115223501178,0.028812672139127266,0.043210368207049495,-0.057606336276462014,0.2100120000000001,-0.022123999999999977,-0.9017149999999999,-0.17031299999999994,-0.05286299999999999,-0.901659,0.380325,0.030739000000000016,5.599999999994498e-05,0.9954876138354829,0.9970904379926271,double,-0.901659
118,0.983333,stand,0.027601104044182593,-0.003960158406330205,0.0006000240009639668,-0.07613670938209982,0.002314687727036058,-0.008546757597808848,0.0015600624025009842,-0.0002400096003842544,0.0021600864034562075,0.0013200528021100684,-0.0004800192007685088,0.00132005280211215,-0.8928714282826127,-1.0656852531138192,0.950476036563917,0.07200576034608801,0.1296103686218441,0.5184414744884707,0.043203456207012665,-0.15841267276011928,0.23041843310595864,0.20979499999999995,-0.02209300000000003,-0.901702,-0.17053200000000013,-0.05283400000000005,-0.9016529999999999,0.3803270000000001,0.03074100000000002,4.900000000007676e-05,0.9955411222829649,0.9962973958149928,double,-0.9016529999999999
119,0.991667,stand,0.023998080153585205,-0.0035997120230417774,-0.00011999040077138965,-0.029257263703836973,-0.013929074948616617,-0.011412857665796364,-0.003119750419976201,0.0,-0.001559875209983105,0.0007199424046016947,0.00035997120230750815,-0.00035997120230376147,-0.4323282806092403,0.043250105986132645,-0.08639481662291343,-0.5615326160879784,0.02879884813825963,-0.446359684837933,-0.0720074871020371,0.10079078510631409,-0.20158675358962339,0.2095689999999999,-0.022063,-0.9017139999999999,-0.17072600000000016,-0.05280099999999999,-0.901655,0.38029500000000005,0.030737999999999988,5.899999999992023e-05,0.9941866883234202,0.9979404237204381,double,-0.901655
120,1.0,stand,0.04584183367333263,0.0015600624024943227,0.0016800672026964422,0.027404843106463194,0.015094157162420846,0.021772552073623625,0.0013200528021100684,0.000120004800195458,0.0003600144005759652,0.0010800432017457988,0.0002400096003842544,-0.0009600384015361848,2.6213552765807435,0.6191976989722883,0.21601555303826048,0.5327976985582924,0.014401152069537682,0.2303959691058517,0.04321382421026072,-0.01439596806951317,-0.07201094434566432,0.209198,-0.022074999999999956,-0.901725,-0.1710989999999999,-0.05281199999999997,-0.9016770000000001,0.3802969999999999,0.030737000000000014,4.799999999993698e-05,0.997710803803703,0.99707859122048,double,-0.9016770000000001
121,1.008333,stand,0.03516140645627042,-0.001800072002878601,-0.014520580823237591,0.10263634205428197,-0.015599981940274484,0.022392002094926845,-0.0003600144005730556,-0.0014400576023055455,-0.0037201488059522454,0.0010800432017191667,0.0002400096003842576,0.0007200288011519401,-1.2817025341488426,-0.4032322579350719,-1.9441555293332753,-0.20161612896713543,-0.1872149768991981,-0.48963917035020377,-3.1959828782550913e-12,3.8382292197675113e-16,0.20161612896773554,0.20890199999999992,-0.02207199999999998,-0.901635,-0.17138300000000006,-0.05279499999999998,-0.90155,0.380285,0.030723,8.500000000000174e-05,0.9933244052688989,0.9969499119964921,double,-0.90155
122,1.016667,stand,0.032397408207342264,-0.00707943364530541,-0.002399808015361153,-0.009914443318159029,-0.05168358182615464,-0.020272144271702285,0.0011999040076872372,-0.0027597792176619956,-0.0023998080153590715,0.0016798656107461464,0.00011999040076472725,0.000839932805375571,-0.33165325761076775,-0.6334727192736704,1.4543763868342148,0.1871752349724359,-0.1583539255287305,0.1584282206135306,0.07197293124873712,-0.014401151862194556,0.014387329520473958,0.208642,-0.022036,-0.901635,-0.1716390000000001,-0.05273500000000003,-0.901523,0.3802810000000001,0.030699000000000032,0.00011200000000000099,0.9935849072344793,0.9957433735018559,double,-0.901523
123,1.025,stand,0.02112084483378802,-0.01464058562342639,0.012120484819395016,-0.11440887555930393,0.004198633378911115,0.030608070244770004,0.0009600384015370304,0.0012000480019146262,0.003240129605184563,0.0007200288011461112,0.0001200048001954596,-0.0009600384015361976,-1.3532417344959013,-0.9073745323558201,1.7425048403643708,-0.028785024138990648,0.47519827428017014,0.6768195872487324,-0.11518502455298739,1.7280008079142116e-06,-0.21600518503681568,0.20847400000000005,-0.021904000000000035,-0.901709,-0.1718090000000001,-0.05261199999999999,-0.901632,0.38028300000000015,0.030707999999999958,7.699999999999374e-05,0.9940231398066008,0.9972199444735599,double,-0.901632
124,1.033333,stand,0.03384135365413279,-0.005640225609026572,-0.008520340813624263,0.17378277323795108,-0.04224794489434155,0.04666487086703119,0.0002400096003775896,0.0010800432017324612,-0.0018000720028802186,0.0010800432017457843,-0.0001200048001954564,0.0001200048001921256,1.5265221193261183,1.0800864051841665,-2.4769981558885057,-0.086406912415628,-0.014401152067942272,-0.6048483869032394,0.04320345621020842,-0.028802304139074978,0.1296103686221414,0.2081940000000001,-0.02184799999999998,-0.901653,-0.17208199999999985,-0.052566,-0.90156,0.38027599999999995,0.030718000000000023,9.300000000000974e-05,0.9964784957674963,0.9972478403977573,double,-0.90156
125,1.041667,stand,0.024838012958971943,-0.005879529637624991,0.0009599232061311652,-0.007912438967806744,-0.011054500120144617,-0.006922098159041168,-0.0003599712023008521,-0.0004799616030722434,0.0002399808015357054,0.001319894408445339,-0.0005999520038369739,-0.00011999040076806085,-1.080314458262661,-0.028714186296907057,1.1375406791163438,-0.07199193696645706,-0.18718560172842982,0.2447867535896284,0.02877984241655379,-0.057589057312398204,-0.028797120345595274,0.20798400000000006,-0.021803000000000017,-0.901659,-0.17227799999999993,-0.05252200000000001,-0.901569,0.380262,0.030718999999999996,9.00000000000345e-05,0.9989230531943198,0.996675322843581,double,-0.901569
126,1.05,stand,0.024600984039362433,-0.0034801392055683117,0.003480139205574973,-0.0035494839923059162,0.0394443538673593,-0.02634212560904158,0.0020400816032561425,-0.0021600864034582606,-0.002400096003840014,0.0015600624025009636,0.0,0.0001200048001921256,-0.02844460813746624,0.2879383693815717,0.3024380174539498,0.28801785738112956,-0.20162304096795727,-0.3168218895206616,0.028821312139160015,0.07199712034524941,0.0288005761382674,0.20779599999999998,-0.021792000000000034,-0.901708,-0.1724699999999999,-0.05249300000000001,-0.901597,0.3802659999999999,0.03070099999999998,0.00011099999999997223,0.9936342131833968,0.9962822147264999,double,-0.901597
127,1.058333,stand,0.029041161646475182,-0.006000240009599778,-0.0055202208088312625,-0.005394218486827743,-0.020986808258621693,0.018034053317422465,0.0009600384015370304,-0.003000120004799889,-0.002640105604223919,0.0007200288011461112,0.0009600384015370304,0.0001200048001921288,0.532842626558597,-0.3024241934515168,-1.0800864051849655,-0.12961036862103947,-0.10080806448357567,-0.02880230413823441,-0.10080806448516262,0.11520921655310683,3.8382292197675113e-16,0.2075619999999999,-0.021767000000000036,-0.901684,-0.17270600000000003,-0.05243500000000001,-0.90155,0.38026799999999994,0.030667999999999973,0.0001340000000000785,0.993149908480522,0.9966499444735594,double,-0.90155
128,1.066667,stand,0.03191744660425671,-0.015958723302141677,0.014518838492924985,-0.13753548298258017,0.022990416422963532,0.044903224214506945,0.002279817614589765,-0.003959683225342572,-0.002279817614591014,0.00011999040075806644,-0.0005999520038436186,-0.00011999040076805765,0.3451265848069961,-1.1949224013129138,2.404494756630201,0.15836083669939097,-0.11513837539508949,0.04323110026792684,-0.07199884813871373,-0.18718387393576158,-0.028797120345594503,0.20731500000000003,-0.021666999999999992,-0.9018240000000001,-0.17297099999999999,-0.05230699999999999,-0.901672,0.380286,0.03064,0.000152000000000041,0.9914895117066821,0.9974408526472438,double,-0.901672
129,1.075,stand,0.030601224048976187,-0.0009600384015303687,-0.005640225609026723,-2.7904234942475833e-05,-0.02637939785600123,-0.0401938167853338,-0.00024000960037759599,0.004560182407300894,0.006000240009600611,0.0012000480019279496,0.0004800192007685152,0.00036001440057597004,-0.15795302475465425,1.7999141846407591,-2.4191844596126115,-0.30239136145054407,1.0224247729081417,0.9936466607694348,0.12961209662425213,0.12960172862260214,0.05760288027649491,0.20705799999999996,-0.021621,-0.9017270000000001,-0.17321600000000004,-0.052295000000000036,-0.901622,0.380274,0.030674000000000035,0.00010500000000002174,0.9874328748570657,0.9967138425761912,double,-0.901622
130,1.083333,stand,0.03852154086163568,-0.012840513620547446,-0.008040321612869085,0.05310635901205195,-0.09675272843077834,0.08113253585666177,0.0008400336013415484,0.004200168006714403,0.0006000240009597953,0.000360014400573046,-0.0009600384015370048,0.0001200048001921256,0.9504760365605848,-1.425714054844218,-0.2880230413827337,0.1296103686210399,-0.04320345620862647,-0.6480518431106109,-0.10080806448516608,-0.17281382482965255,-0.028802304138226358,0.20674399999999993,-0.021479000000000026,-0.901655,-0.17353400000000008,-0.05219600000000002,-0.901554,0.380278,0.030716999999999994,0.00010100000000001774,0.9927913831389599,0.9972694661252367,double,-0.901554
131,1.091667,stand,0.02879769618430796,-0.004799616030715773,0.0019198464122889736,0.01349574412508658,-0.012945698467764664,-0.01716551887114279,0.0007199424046150258,-0.0002399808015361217,0.0005999520038398879,0.0002399808015427825,0.0004799616030722434,0.0002399808015357054,-1.1667680198377617,0.9648305243378721,1.1951245530547454,-0.014409790823917069,-0.5327752349712754,-8.638963271826503e-06,-0.014402879653259634,0.17278617765890036,0.014395968483751149,0.20650999999999997,-0.021441000000000043,-0.901666,-0.17377200000000004,-0.05215200000000003,-0.901568,0.380282,0.03071099999999999,9.799999999993148e-05,0.998387677436136,0.9980402824802831,double,-0.901568
132,1.1,stand,0.027121084843373753,-0.01032041281651614,-0.005400216008635659,0.005646976229012444,-0.07130504687446607,0.022829343380376725,0.0006000240009506356,-0.0014400576022988456,-0.0002400096003842512,0.0015600624025009636,-0.0001200048001887948,-0.0006000240009597953,-0.20120140896845992,-0.6625221151806396,-0.8784426282160691,-0.014390784071089418,-0.14401497669059196,-0.10079942448387429,0.15841612876012937,-0.07199884834525713,-0.10080460848379767,0.20628900000000006,-0.02136699999999997,-0.9016230000000001,-0.17398499999999983,-0.052066999999999974,-0.901528,0.3802739999999999,0.030700000000000005,9.500000000006725e-05,0.9973693054846401,0.9962570402728501,double,-0.901528
133,1.108333,stand,0.042121684867393906,-0.0056402256090200605,-0.00216008640346498,0.0373776295447998,-0.028638430532394687,0.012841289210730125,0.0006000240009639748,-0.0026401056042268333,-0.0028801152046081767,0.0007200288011461112,0.0003600144005730556,0.0004800192007680988,1.8001440086427805,0.5616449306967626,0.38883110586471964,1.600762770733683e-12,-0.14401152069218753,-0.3168253455206948,-0.10080806448516262,0.0576046082757536,0.12961036862209335,0.2059430000000001,-0.021342000000000028,-0.901629,-0.17432999999999987,-0.052017000000000035,-0.9015059999999999,0.38027299999999997,0.030675000000000008,0.00012300000000009526,0.9934118688379493,0.9972078875803313,double,-0.9015059999999999
134,1.116667,stand,0.019918406527490908,-0.015958723302141677,0.004799616030722306,-0.07808131363370822,-0.02729360957478327,0.013294977165147938,0.002279817614589765,-0.0035997120230350688,-0.002759779217662412,-0.0004799616030855522,-0.0011999040076805766,-0.00035997120230375665,-2.66418026636703,-1.2381206735207029,0.8350974843037238,0.20155910890638076,-0.1151435587722856,0.014439163300427627,-0.1439873295214368,-0.1871752349716367,-0.10079078510581342,0.20579599999999998,-0.021238999999999952,-0.901692,-0.1745000000000001,-0.051893999999999996,-0.901549,0.3802960000000001,0.030655000000000043,0.00014300000000000423,0.9915389985595974,0.9963341108936188,double,-0.901549
135,1.125,stand,0.02820112804512029,-0.017760710428415077,0.011400456018235581,-0.15792767268427108,0.029447107881960633,0.06041382099452792,0.001800072002878601,-0.0044401776071054345,-0.0033601344053762754,0.0014400576023188686,-0.00012000480018879799,-0.0002400096003842576,0.9939663407691655,-0.2162471050370114,0.7921324838009522,-0.05757177627639125,-0.10085990448462419,-0.0720455043458381,0.23041152110937696,0.12959308862255953,0.01439596806906278,0.20557599999999998,-0.02112799999999998,-0.9018149999999999,-0.17472299999999996,-0.05174699999999999,-0.901646,0.38029899999999994,0.030619000000000007,0.00016899999999997473,0.9902466615942738,0.9958685912204783,double,-0.901646
136,1.133333,stand,0.03564142565702561,-0.006720268810752551,-0.013560542421687237,0.2131152049680455,-0.0679378962853478,0.05412483615518566,0.0019200768030740608,-0.003360134405379606,-0.0032401296051841467,0.0002400096003909192,-0.0004800192007685152,-0.0001200048001921288,0.8928714282857784,1.3249059903591296,-2.9954396303759805,0.014401152069538084,0.12961036862184547,0.014401152069138334,-0.14401152069218293,-0.043203456207814774,0.014401152069138353,0.205295,-0.021100000000000008,-0.901729,-0.1750179999999999,-0.05169499999999999,-0.9015340000000001,0.3803129999999999,0.030594999999999983,0.00019499999999994522,0.9915877671727568,0.9971334481989311,double,-0.9015340000000001
137,1.141667,stand,0.02387808975282682,-0.011879049676027716,0.011039116870647982,-0.1050166776138415,0.020568258488765114,0.019888611890197326,0.0020398368130603107,-0.0032397408207342263,-0.0019198464122872573,0.001199904007660594,0.00011999040076472725,0.0002399808015361153,-1.4114873895126832,-0.6190041834983352,2.951722977242025,0.01437005159422234,0.01444607447148774,0.15842130944287008,0.11517811462319025,0.07199539255258434,0.0431948166220592,0.205113,-0.02102799999999999,-0.901837,-0.1752070000000001,-0.051595,-0.901624,0.3803200000000001,0.03056700000000001,0.00021300000000001873,0.9928619437254678,0.9958207737849363,double,-0.901624
138,1.15,stand,0.026521060842437147,-0.01548061922476796,-0.0030001200048065508,0.05293690041560094,-0.041201977830369045,0.0707440626890128,0.011520460818431041,-0.02604104164166197,-0.015240609624384952,0.0020400816032828434,-0.003000120004799889,-0.0016800672026881377,0.317169217521943,-0.4322056340741963,-1.6847758160872028,1.1377203894600767,-2.7362655491333197,-1.598555527672845,0.10082534448845037,-0.37442822579678925,-0.2304149771059967,0.20498799999999995,-0.021115999999999968,-0.9019389999999999,-0.17541099999999998,-0.05149100000000001,-0.901613,0.38039899999999993,0.03037500000000004,0.00032599999999993745,0.9461707161230299,0.9900764009564396,double,-0.901613
139,1.158333,stand,0.022920916836652688,-0.005400216008635659,0.005400216008648983,-0.05632884908949476,0.04561488891572019,-0.016419016355059646,0.0015600624024876403,-0.0020400816032628043,-0.002160086403456179,-0.0015600624025009636,0.0022800912036537173,0.0008400336013440465,-0.4320345620766106,1.2096967738068072,1.00808064484044,-1.1952956217380568,2.880230413824403,1.5697255755344468,-0.43203456207653235,0.6336506910420634,0.3024241934515949,0.20481000000000005,-0.021087999999999996,-0.9020020000000001,-0.17561499999999985,-0.051427,-0.9016510000000001,0.3804249999999999,0.030339000000000005,0.0003509999999999902,0.9944069236953119,0.9916773237267309,double,-0.9016510000000001
140,1.166667,stand,0.02843772498200711,-0.008759299256065112,-0.0011999040076872693,0.019785591641501624,-0.04395962369272106,0.01599009061998927,-0.0003599712023008521,0.0011999040076739477,-0.0010799136069112988,0.0009599232061444868,-0.0003599712023075129,-0.0002399808015361217,0.6619640203209174,-0.4030577450719362,-0.7919510458766952,-0.23038560172648537,0.38876717193866256,0.1296103667560476,0.302374083110811,-0.3167821461436622,-0.1295913610367397,0.20457000000000003,-0.021004999999999996,-0.9020009999999999,-0.1758439999999999,-0.051356999999999986,-0.901643,0.3804139999999999,0.03035199999999999,0.00035799999999996945,0.9972434107767276,0.9946651475107171,double,-0.901643
141,1.175,stand,0.02088083523342319,-0.014400576023035086,0.019200768030726772,-0.1260197902561786,0.044105446305435975,0.005451695086599116,-0.0012000480019145944,0.004560182407300772,-0.0002400096003842512,0.0004800192007551792,-0.0008400336013415484,0.0006000240009602116,-0.9068630443518283,-0.6769802912480349,2.448178571752512,-0.10081324848358665,0.40324953793672935,0.1007925124837433,-0.05759078427808703,-0.05760979227577428,0.10080460848389759,0.20438599999999996,-0.020847000000000004,-0.902163,-0.17601400000000011,-0.05124400000000001,-0.901798,0.38040000000000007,0.030397000000000007,0.0003650000000000597,0.9921307590011927,0.9944525575062112,double,-0.901798
142,1.183333,stand,0.03288131525259666,0.0037201488059526618,-0.014880595223810647,0.1266963215429006,-0.08237835940283803,-0.04764233111763523,-0.0032401296051841467,0.007200288011521066,0.005760230409216353,0.0010800432017458131,0.0,-0.0001200048001921288,1.4401152069091059,2.174573962437047,-4.089927187632034,-0.24481958517575556,0.316825345520259,0.7200576034562174,0.07200576034929071,0.10080806448356608,-0.08640691241477823,0.20408500000000007,-0.020818000000000003,-0.901991,-0.17627899999999985,-0.051275000000000015,-0.901675,0.3803639999999999,0.030457000000000012,0.00031599999999998296,0.9837107020754845,0.9950288505263641,double,-0.901675
143,1.191667,stand,0.036477081833462884,-0.004919606431487034,-0.010559155267575752,0.14503861169040946,-0.036313700873247076,0.021174470995452513,0.008279337652985986,-0.014998800095997215,-0.005399568034557182,0.0008399328053597516,0.0004799616030722306,0.0004799616030718143,0.43145747310609506,-1.0366876934772773,0.5185313122432039,1.38222549294097,-2.6636774787038773,-1.3390686877577935,-0.028810942690911893,0.057590785105858765,0.07199020917493863,0.20384999999999998,-0.02090200000000003,-0.9019480000000001,-0.17657600000000007,-0.05123,-0.901583,0.38042600000000004,0.030327999999999966,0.0003650000000000597,0.9700617871807595,0.9945501439885011,double,-0.901583
144,1.2,stand,0.026761070442801422,-0.010440417616705213,0.0045601824072942325,-0.09572831393112398,-0.034415893630991616,0.013783884831351264,0.006240249609977374,-0.008280331213246894,-0.008400336013440273,-0.0003600144005730556,-0.0007200288011527728,-0.00024000960038384123,-1.16596800559961,-0.6625238431799149,1.814393096708283,-0.24470035317516267,0.8062485158706807,-0.3601065617284433,-0.14399942468892574,-0.1440046086913494,-0.08640000041469605,0.20367900000000005,-0.020884000000000014,-0.902056,-0.1768019999999999,-0.051149,-0.9016230000000001,0.38048099999999996,0.030264999999999986,0.0004329999999999057,0.9777595060672233,0.9942699439977611,double,-0.9016230000000001
145,1.208333,stand,0.02604104164168126,-0.020640825633025616,0.006360254410172664,-0.07012254015835019,0.06173545991529431,0.09186656585962343,-0.004680187207476244,0.0072002880115208745,0.008160326413056213,0.0009600384015370048,0.0001200048001887948,-0.0002400096003842512,-0.08640691241091422,-1.2240979258754618,0.2160172810366495,-1.3105048382879427,1.8577486169167763,1.9873589855389653,0.1584126727601149,0.10080806448356569,-4.919764148218819e-14,0.20342300000000002,-0.020652000000000004,-0.902041,-0.17701100000000003,-0.05097600000000002,-0.901678,0.38043400000000005,0.030324000000000018,0.0003630000000000022,0.9802558569223472,0.9947086087717663,double,-0.901678
146,1.216667,stand,0.03611711063113636,-0.006479481641468625,0.0015598752099881214,0.037594669470058004,-0.04404413707817791,0.0005153697338986932,0.0005999520038303131,0.0,0.00035997120230376624,0.003479721622277095,-0.0022798176145898256,-0.001439884809215065,1.209031556210138,1.6992253409595945,-0.5759994240682307,0.6335660200751929,-0.8639654441469896,-0.9359677478704818,0.3023377994648594,-0.28795565332117423,-0.14397350717912605,0.20312700000000006,-0.020598000000000005,-0.902051,-0.17728299999999986,-0.050941000000000014,-0.901703,0.3804099999999999,0.03034300000000001,0.00034800000000001496,0.9988339029088117,0.98918301242786,double,-0.901703
147,1.225,stand,0.030481219248766594,-0.011640465618626191,-0.0019200768030740096,0.04903574616580608,-0.03272467839745766,0.003531832262712026,0.0010800432017324612,-0.0006000240009572972,-0.0008400336013440465,-0.0021600864034649224,0.001800072002878553,0.0010800432017278813,-0.6763340192451297,-0.619342850972936,-0.41761094600528864,0.05761324827818789,-0.07200576034528822,-0.14400633669120266,-0.6768040352504403,0.48960633834973083,0.30240345745144637,0.20288200000000012,-0.02050599999999997,-0.902042,-0.1775549999999999,-0.05082900000000001,-0.901678,0.380437,0.030323000000000044,0.00036400000000003097,0.9975099204772179,0.9913398390343482,double,-0.901678
148,1.233333,stand,0.02472098883957187,-0.017760710428415077,0.011160446417857985,-0.20521196007439807,-0.004701874110976537,0.05652057352745324,0.0003600144005730556,-0.0006000240009639748,0.0006000240009602277,0.0032401296051841467,-0.0027601104044156313,-0.0015600624024960088,-0.6912552993153459,-0.734458755524894,1.5697255755348751,-0.08640691241562609,-8.013441954084103e-13,0.17281382482950766,0.6480518431116187,-0.5472437786264521,-0.3168253455206905,0.20267899999999994,-0.02036300000000002,-0.90213,-0.17773400000000006,-0.05070400000000003,-0.901784,0.380413,0.030341000000000007,0.00034599999999995745,0.9984637093987997,0.9889845670756741,double,-0.901784
149,1.241667,stand,0.03659707223422095,-0.013798896088316638,-0.008879289656829605,0.1469127314451261,-0.03140239419268292,0.0903179193705821,0.0013198944084453037,0.0,-0.00035997120230375665,-0.0026397888168906074,0.0026397888168972683,0.00107991360691127,1.4250160060773924,0.475379690436574,-2.404575962885462,0.1151763868337222,0.07199712034604874,-0.11519020917494326,-0.7055337679475293,0.6479360716718093,0.3167717793865201,0.20238499999999993,-0.020247999999999988,-0.902059,-0.17806100000000002,-0.05056699999999997,-0.901701,0.38044599999999995,0.030318999999999985,0.0003580000000000805,0.9977198315632799,0.9899428642745791,double,-0.901701
150,1.25,stand,0.02460098403936309,-0.007080283211325606,-0.0014400576023055455,0.038066937590282936,0.005571179897724103,0.008430498613645587,0.0004800192007685152,-0.0014400576023055455,0.00012000480019171244,0.0007200288011461112,-0.0004800192007685152,-0.0006000240009598112,-1.4395881669096329,0.8062657958707661,0.8927435562851467,-0.10078905648347487,-0.17281382482966023,0.05759942427642787,0.40319424193408726,-0.3743919377974093,-0.2016005769676103,0.20218399999999992,-0.020201000000000024,-0.902046,-0.17826000000000009,-0.050512,-0.901694,0.380444,0.030310999999999977,0.00035200000000001896,0.9974621829792267,0.994724936920005,double,-0.901694
151,1.258333,stand,0.02580103204126439,-0.015360614424579162,0.0007200288011461112,-0.042690740298525244,-0.007296732459983628,0.05201991232401466,0.0009600384015370304,-0.0012000480019146262,-0.0018000720028798502,0.0003600144005730556,-0.0004800192007685152,-0.0004800192007680988,0.14401152068898496,-0.9936794927701466,0.25922073724369094,0.057604608276553414,0.02880230413907614,-0.23041843310591387,-0.04320345620701535,0.0,0.014401152069088386,0.20197700000000007,-0.020082999999999962,-0.902067,-0.17847199999999996,-0.05038799999999999,-0.901704,0.38044900000000004,0.030305000000000026,0.0003630000000000022,0.996055225624366,0.9950893239254722,double,-0.901704
152,1.266667,stand,0.022678185745139582,-0.012239020878328559,0.0003599712023141642,0.03393709927368645,-0.012004687484669806,0.0120232579159694,-0.0015598752099747583,-0.0002399808015361153,-0.001679865610751142,0.0011999040076872372,0.00011999040077138805,-0.00035997120230375665,-0.3747115786086853,0.3745612606492175,-0.04320345558338664,-0.3023654441458807,0.11519884813756942,0.014423613166391572,0.10077869055845635,0.07199539255338357,0.014404607447125179,0.20177500000000015,-0.019982999999999973,-0.902084,-0.1786509999999999,-0.05028499999999997,-0.90171,0.38042600000000004,0.030301999999999996,0.00037399999999998546,0.9961584327829272,0.9941625500996387,double,-0.90171
153,1.275,stand,0.03300132005280544,-0.011520460818431041,-0.0007200288011594343,0.03798151332379753,0.018051760825505154,0.060189773566373804,-0.0002400096003909192,0.00012000480018879799,-0.0010800432017283265,0.00012000480018213638,0.00024000960037759599,-0.0004800192007680988,1.2388256699467124,0.08623065641395945,-0.12960518462421797,0.15839020875841248,0.04320000020699827,0.07198156834547233,-0.12959308862415825,0.014402880067947802,-0.014406336069163956,0.20149800000000007,-0.019886000000000015,-0.902087,-0.178925,-0.05018700000000004,-0.901708,0.38042300000000007,0.030301000000000022,0.0003790000000000182,0.9981452021089829,0.9952934481989449,double,-0.901708
154,1.283333,stand,0.01896075843034918,-0.013920556822273247,0.010080403216125227,-0.06609082295654403,0.04227910753262951,0.025331905863461308,0.0010800432017324612,-0.0010800432017257996,-0.00012000480019170925,0.0008400336013548716,0.0004800192007685024,0.00024000960038383484,-1.6849347920864053,-0.2880230413827149,1.2961036862215856,0.15841267276171336,-0.14401152069057682,0.11520921655305418,0.0864069124172234,0.02880230413907383,0.0864069124147271,0.201349,-0.01977899999999999,-0.902172,-0.179076,-0.05006700000000003,-0.90179,0.380425,0.030288000000000037,0.00038199999999999346,0.9974464687917886,0.9945186087717517,double,-0.90179
155,1.291667,stand,0.04019678425725709,-0.011399088072955789,-0.003959683225336017,0.18200399604677892,-0.03550494063345856,0.07446144882601168,0.0022798176145898256,-0.000719942404608365,-0.0007199424046079488,0.00011999040075806964,0.0002399808015361217,-0.00011999040076764454,2.5481192496890226,0.30255204575444034,-1.6846755989274669,0.14396141262987608,0.043208638962975936,-0.07198675358966294,-0.08639827220984109,-0.028802303723588343,-0.04319654441462518,0.20103300000000002,-0.019689999999999985,-0.902145,-0.17941000000000007,-0.049970000000000014,-0.901758,0.3804430000000001,0.03028000000000003,0.0003870000000000262,0.9958386025024639,0.9956401412401508,double,-0.901758
156,1.3,stand,0.023280931237252382,-0.013920556822273247,0.003480139205574973,-0.046413909831833695,-0.01581732320400511,0.01654948522302248,0.0002400096003775896,-0.0009600384015370048,-0.00024000960038383484,0.000360014400573046,-0.0001200048001887948,-0.0001200048001921256,-2.0299835617429993,-0.30258835345222773,0.8928144042854745,-0.24478675317559107,-0.0288126721383218,0.05759424027650373,0.028804032139082225,-0.043200000206997505,-1.728000057729012e-06,0.20084099999999994,-0.01958199999999999,-0.9021760000000001,-0.17960100000000012,-0.04985499999999998,-0.901788,0.38044200000000006,0.030272999999999994,0.00038800000000005497,0.9983028758401871,0.9954566485078753,double,-0.901788
157,1.308333,stand,0.028321132845302424,-0.009840393615741239,0.0010800432017191667,0.02555667898312439,-0.009674063728440605,0.0021777176804527363,0.0012000480019279496,-0.0004800192007685152,0.0004800192007680988,0.000840033601354894,-0.0004800192007685152,-0.0006000240009602277,0.6048483869014867,0.48963917035065946,-0.28802304138435475,0.11520921655470644,0.05760460827655034,0.0864069124147294,0.057604608278153405,-0.043203456207815155,-0.057604608276503835,0.2006150000000001,-0.01950400000000002,-0.902181,-0.17982999999999993,-0.049777000000000016,-0.901802,0.38044500000000003,0.030272999999999994,0.0003790000000000182,0.9977020830246941,0.9943125575061854,double,-0.901802
158,1.316667,stand,0.032637389008885034,-0.009119270458365721,0.0009599232061444612,-0.08220871908043502,0.004658205559810073,0.057143174790751955,0.0008399328053730732,-0.0009599232061444612,-0.00035997120230375665,0.0008399328053863948,0.00011999040076472725,0.00011999040076805765,0.5179093068853584,0.08652785665652894,-0.014413246409251809,-0.04321036675724425,-0.05758387393519827,-0.10079078510581342,-1.2094548656008615e-05,0.07199539255258434,0.08639481662206382,0.20035000000000003,-0.01943600000000001,-0.902192,-0.1800949999999999,-0.04970000000000002,-0.901809,0.3804449999999999,0.030264000000000013,0.0003830000000000222,0.9977911045082034,0.994741828567989,double,-0.901809
159,1.325,stand,0.02208088323532505,-0.02628105124205289,0.009360374414979384,-0.09238056677251616,0.032315276082035056,0.12249182302468788,0.0008400336013415707,-0.001200048001921288,-0.0004800192007680988,0.0003600144005730556,0.0001200048001954596,0.0004800192007680988,-1.2668313660818529,-2.059496073885435,1.0080944688389535,1.209600005970853e-05,-0.028816128138345012,-0.014406336069163956,-0.05759251227809235,1.7280008079142116e-06,0.043205184207373626,0.20017300000000005,-0.019226999999999994,-0.902274,-0.18027599999999988,-0.04947999999999997,-0.901883,0.3804489999999999,0.030252999999999974,0.0003910000000000302,0.9974308507182963,0.9950701553034953,double,-0.901883
160,1.333333,stand,0.03420136805473248,-0.009240369614783679,-0.005280211208453526,0.03890816560543247,-0.0734003496762747,0.03911895431208156,0.0008400336013415484,0.0001200048001954564,0.000480019200768086,0.0,-0.0006000240009572972,-0.0006000240009602116,1.4545163589832253,2.044963593816022,-1.7569405524340158,-2.6802549805833433e-15,0.158412672760917,0.11520921655300229,-0.0432034562070142,-0.0864069124148259,-0.12961036862213987,0.19989499999999993,-0.01914899999999997,-0.902226,-0.18056099999999997,-0.04940799999999995,-0.901844,0.3804559999999999,0.03025899999999998,0.00038199999999999346,0.9983751273241686,0.9947657298668247,double,-0.901844
161,1.341667,stand,0.032757379409643975,-0.00875929925605845,-0.005759539236853599,0.04366766275822685,-0.0177306726237861,0.05174754711068095,0.00011999040077139125,-0.0008399328053797563,-0.001079913606911715,-0.000479961603085565,-0.00011999040077139125,-0.0009599232061432379,-0.17326477622852546,0.05772382514101723,-0.05751476222703173,-0.08639827220664396,-0.1151832980051873,-0.18717696276455853,-0.057590785107460296,0.057599424068384336,-0.043184449865974694,0.199623,-0.019083000000000017,-0.9021870000000001,-0.18083800000000005,-0.04933599999999999,-0.901804,0.38046100000000005,0.030252999999999974,0.0003830000000000222,0.9977110784852641,0.9943701439884705,double,-0.901804
162,1.35,stand,0.02196087843514233,-0.00888035521420397,0.0015600624024876403,0.01727517393089673,-0.027830545880315173,0.031428877543143593,0.0009600384015370048,-0.000720028801146092,-0.0007200288011519209,0.0,-0.0008400336013415484,-0.00036001440057596045,-1.2956319422178633,-0.014527296069304875,0.8783873322142219,0.1008097924835712,0.014389056070282276,0.04318790420734282,0.057597696278117914,-0.0864086404140339,0.07199193634552586,0.19944799999999996,-0.019015000000000004,-0.902206,-0.1810210000000001,-0.04926900000000001,-0.90182,0.38046900000000006,0.030254000000000003,0.00038599999999999746,0.9976675259431038,0.9946167844502091,double,-0.90182
163,1.358333,stand,0.028801152046084265,-0.010920436817473728,-0.007920316812673838,0.14602968115012713,-0.09672443969220255,0.04123781682670278,0.0006000240009639748,-0.0002400096003842576,0.00036001440057597004,0.0003600144005730556,0.0006000240009573131,-0.0006000240009602277,0.8208656679397571,-0.24481958517578023,-1.137691013459926,-0.04320345620701228,0.05760460827575168,0.129610368622093,0.04320345620701535,0.17281382482885813,-0.028802304138277862,0.19921299999999997,-0.018926,-0.902137,-0.18125800000000014,-0.04917300000000002,-0.901759,0.3804710000000001,0.030247000000000024,0.00037799999999998946,0.9987670678821161,0.9946837093988069,double,-0.901759
164,1.366667,stand,0.031077513798896957,-0.016318694504442517,0.011999040076805766,-0.1137643612594,0.07600322518431328,0.12173817284135247,0.0004799616030722306,-0.0010799136069158492,0.00011999040076805765,0.00311975041997616,-0.0021598272138250376,-0.002279817614591014,0.2731415590127999,-0.6477391033079851,2.3901316162082376,-0.014406335240189977,-0.1007804183503222,-0.028800575930874796,0.3311418309818914,-0.3311556533216138,-0.20155910890698023,0.19895799999999997,-0.01879900000000001,-0.902236,-0.18149100000000007,-0.049055000000000015,-0.9018780000000001,0.38044900000000004,0.030256000000000005,0.00035799999999996945,0.9980202593919193,0.9890422435222261,double,-0.9018780000000001
165,1.375,stand,0.015960638425529815,-0.015840633625347676,0.01932077283090942,-0.24461318978930954,0.035686766478559895,0.04771651200412669,0.0004800192007685152,-0.0002400096003842576,0.0,0.0007200288011461112,-0.0003600144005730556,-0.0006000240009598112,-1.814097608708422,0.05736960027539246,0.8786430762154953,6.9120000341516875e-06,0.10079251248429129,-0.014399424069129816,-0.2879781133841438,0.2159861770373213,0.20158329696762486,0.19882900000000003,-0.01866899999999999,-0.902397,-0.18161800000000006,-0.04892599999999997,-0.9020440000000001,0.3804470000000001,0.03025699999999998,0.0003529999999999367,0.9991055370304804,0.9947966130114614,double,-0.9020440000000001
166,1.383333,stand,0.03612144485778081,-0.0032401296051841467,-0.021000840033605885,0.3019369334796244,0.0017835083625054892,0.10664457913958514,0.0008400336013415707,-0.0007200288011527728,-0.0009600384015361976,0.0003600144005730556,-0.0007200288011527728,0.00024000960038384123,2.419393547612046,1.5121209672583276,-4.83878709522569,0.043203456207015344,-0.05760460827655341,-0.11520921655300688,-0.04320345620701535,-0.04320345620781477,0.10080806448381856,0.19853500000000013,-0.018647999999999998,-0.90223,-0.18191599999999997,-0.048904999999999976,-0.901867,0.3804510000000001,0.03025699999999998,0.0003630000000000022,0.9975585912205037,0.9949699439977611,double,-0.901867
167,1.391667,stand,0.02843772498200635,-0.006239500839932337,0.0059995200383962215,-0.038396748924408856,-0.09666892959896789,0.03203989561279481,0.0008399328053730732,-0.0009599232061378004,0.00035997120230375665,0.0009599232061444612,-0.0007199424046083459,-0.00011999040076764134,-0.9219726272827453,-0.3598957565092593,3.2397840259181545,-1.2094548655813474e-05,-0.028785025796139407,0.1583884813822827,0.07198329800472775,1.03667559907493e-05,-0.04319654441462441,0.19830500000000006,-0.018603999999999954,-0.902277,-0.182145,-0.048858999999999986,-0.901918,0.38045000000000007,0.030255000000000032,0.0003589999999999982,0.9977911045082115,0.994400185660921,double,-0.901918
168,1.4,stand,0.023400936037461784,-0.0075603024120941215,-0.001800072002878601,0.0021218066392806973,0.004023463718649302,0.05093586552492457,0.0003600144005730556,0.0006000240009573131,0.0006000240009602277,-0.0024000960038292525,0.0026401056042268333,0.0,-0.6044388508993892,-0.15850252876056606,-0.9359884844923669,-0.057592512276493694,0.18720115289753123,0.028807488138302317,-0.40321843393420664,0.40322188993582264,0.014399424069079856,0.19811299999999987,-0.018535999999999997,-0.902257,-0.18236000000000008,-0.048773999999999984,-0.901903,0.38047299999999995,0.030237999999999987,0.00035399999999996545,0.9984637093988069,0.990513334634467,double,-0.901903
169,1.408333,stand,0.02688107524298284,-0.012240489619583487,-0.002400096003842512,-0.028539185776080174,-0.026034426032279245,0.09801347114800957,0.0006000240009639587,-0.0010800432017257996,-0.0006000240009602116,0.0002400096003909128,0.0002400096003842512,0.0008400336013440465,0.4176334099989193,-0.5616449306959419,-0.07200576034608187,0.028802304139073434,-0.2016161289671287,-0.14401152069127784,0.3168253455202351,-0.28802304138276014,0.10080806448386317,0.19789400000000013,-0.018442999999999987,-0.902242,-0.1825819999999998,-0.04866999999999999,-0.901876,0.3804759999999999,0.030227000000000004,0.00036599999999997745,0.9977108038037001,0.9948299727118513,double,-0.901876
170,1.416667,stand,0.025557955363573647,-0.012598992080636398,0.001079913606915878,-0.05229655999492041,-0.03273770217240682,0.054395330246547934,0.0005999520038436347,0.00011999040076473045,-0.00035997120230376624,0.0,-0.0005999520038436347,-0.00047996160307182706,-0.15876168459433856,-0.04301685397803193,0.41756774787118506,-8.638963321821571e-06,0.14399251289783452,0.028804031516252694,-0.02879884813905896,-0.10078732952098654,-0.15838675358962068,0.19768600000000014,-0.018336999999999992,-0.902254,-0.18279499999999982,-0.04857,-0.901889,0.38048099999999996,0.03023300000000001,0.0003649999999999487,0.99881687869308,0.9950694775943008,double,-0.901889
171,1.425,stand,0.03876155046202659,-0.008160326413051217,-0.008520340813637586,0.16735597782681222,-0.03568404041815265,0.12884851382123697,0.0006000240009506356,-0.0009600384015370048,0.0001200048001921256,0.0,-0.0001200048001887948,0.0,1.5844947916059895,0.5326611865576747,-1.1520766135309368,8.639998440051405e-06,-0.12960864062183083,0.057599424276477074,0.0,0.05759596827731087,0.057597696276469296,0.197368,-0.018277000000000043,-0.9021819999999999,-0.1831179999999999,-0.04850300000000002,-0.901818,0.3804859999999999,0.030225999999999975,0.00036399999999991994,0.9981025575062061,0.9961599919996853,double,-0.901818
172,1.433333,stand,0.02232089283571597,-0.008400336013442354,0.00036001440058637876,-0.02981540947362549,-0.05726588824372188,0.028240109777299145,0.0009600384015370304,-0.0003600144005730556,-0.0001200048001921288,0.0008400336013282475,-0.0008400336013482324,-0.0001200048001921288,-1.972957833470631,-0.028802304139102293,1.0656852531170102,0.04320345620861611,0.07200576034608841,-0.028802304138276322,0.1008080644819699,-0.08640691241562992,-0.014401152069138353,0.19718999999999998,-0.018210000000000004,-0.902186,-0.18329700000000004,-0.04844000000000004,-0.901822,0.380487,0.030230000000000035,0.00036400000000003097,0.9982794661252367,0.9943699455236213,double,-0.901822
173,1.441667,stand,0.02387808975282682,-0.013798896088316638,0.008759299256058218,-0.040454953250812775,-0.06994704507688457,0.06661132177592766,0.0,-0.00011999040077138805,-0.00011999040076805765,0.0002399808015427761,0.0014398848092166917,0.0,0.1868486821587278,-0.6477753869539529,1.0078335559721352,-0.11519539255303853,0.028800575930125475,1.7277926651243414e-06,-0.07200057592818176,0.27356832380188467,0.014399424069129816,0.19699099999999992,-0.018096,-0.9022600000000001,-0.18349400000000005,-0.048312999999999995,-0.901895,0.38048499999999996,0.030216999999999994,0.0003650000000000597,0.9997171799131281,0.9939170896207068,double,-0.901895
174,1.45,stand,0.0289211568462664,-0.009000360014399668,-0.0002400096003909192,-0.08576221223286853,0.0925121819823457,0.09055557831564617,0.00108004320173249,0.0001200048001954596,-0.0010800432017279101,0.000840033601354894,0.0,-0.0013200528021121676,0.6051922589031113,0.5758473627645523,-1.0799602611843537,0.12961036862264488,0.028800576139067547,-0.11521094455296546,0.07200921634610864,-0.17279308882955777,-0.158412672760372,0.19675900000000002,-0.01801999999999998,-0.9022669999999999,-0.1837279999999999,-0.048238,-0.9019039999999999,0.3804869999999999,0.030218000000000023,0.0003630000000000022,0.9974464687917854,0.9937622147264982,double,-0.9019039999999999
175,1.458333,stand,0.026161046441863393,-0.006600264010556915,-0.0008400336013415484,0.03272100652292946,-0.03069789533293244,0.01701371076716498,0.0004800192007685024,-0.0002400096003842512,0.00036001440057596045,0.00012000480018213318,0.0,0.00036001440057596045,-0.3312264975882586,0.28802304138278056,-0.07200576034448802,-0.07200576034609109,-0.04320345620781285,0.17281382482945462,-0.08640691241722646,0.0,0.20161612896773057,0.19654499999999997,-0.01796700000000001,-0.902257,-0.18394500000000003,-0.04818300000000003,-0.901894,0.38049,0.03021600000000002,0.0003630000000000022,0.9989229239555306,0.9957375191687384,double,-0.901894
176,1.466667,stand,0.036357091432679144,-0.019318454523641143,-0.002039836813060365,0.052478556740429866,0.05859964632804435,0.18821049774465126,0.0007199424046017042,-0.0005999520038436347,-0.0013198944084474205,0.0003599712023008521,0.0005999520038436347,-0.0008399328053755933,1.2234275246959376,-1.5260607767079999,-0.14396486821680338,0.028788481381474253,-0.04318963324446728,-0.2015729312483097,0.028793664761065936,0.07198848138272691,-0.1439821461424978,0.19624799999999998,-0.01781100000000002,-0.9022509999999999,-0.184245,-0.048016999999999976,-0.9018839999999999,0.38049299999999997,0.030205999999999955,0.0003670000000000062,0.9973020683218896,0.994508059039446,double,-0.9018839999999999
177,1.475,stand,0.0297611904476205,-0.00948037921516793,0.005040201608075936,-0.035822181950549765,-0.07326464100940067,0.057307269021405254,0.0006000240009639587,-0.0008400336013415484,0.0,0.0008400336013548716,-0.0002400096003842512,0.0007200288011523372,-0.7915397797982153,1.1806162616672318,0.8496385960801845,-0.014390784067891925,-0.028810944137514644,0.1583936647602781,0.05760979227817246,-0.10079942448432391,0.18720288089858433,0.19600499999999998,-0.017739000000000005,-0.902293,-0.18448599999999993,-0.04793999999999998,-0.90192,0.3804909999999999,0.030200999999999978,0.0003729999999999567,0.9982794661252361,0.9943831282987068,double,-0.90192
