frame_id,timestamp,gait_type,root_linear_velocity_x,root_linear_velocity_y,root_linear_velocity_z,root_angular_velocity_x,root_angular_velocity_y,root_angular_velocity_z,left_linear_velocity_x,left_linear_velocity_y,left_linear_velocity_z,right_linear_velocity_x,right_linear_velocity_y,right_linear_velocity_z,root_acceleration_x,root_acceleration_y,root_acceleration_z,left_acceleration_x,left_acceleration_y,left_acceleration_z,right_acceleration_x,right_acceleration_y,right_acceleration_z,left_pos_rel_x,left_pos_rel_y,left_pos_rel_z,right_pos_rel_x,right_pos_rel_y,right_pos_rel_z,step_length,step_width,step_height,left_contact_prob,right_contact_prob,support_type,max_foot_height
1,0.008333,step_acsent,0.09960398415936607,0.07128285131405057,0.005880235209417588,0.3077577649048146,0.36518686976362086,-0.4904600614677761,0.03984159366374643,0.060842433697352115,-0.014520580823232463,0.46033841353654886,-0.434177367094685,-0.053642145685827786,0.0,0.0,0.0,0.0,0.0,0.0,0.0,0.0,0.0,-0.031032999999999977,-0.05948999999999993,-0.9150130000000001,0.14654900000000004,0.11285900000000004,-0.8920750000000001,0.17758200000000002,0.17234899999999997,0.022938000000000014,0.8763966740005239,0.27061999999999997,single,-0.8920750000000001
2,0.016667,step_acsent,0.10895128389729059,0.05975521958243321,0.049556035517158224,0.00453420729752073,0.23367466695078087,-0.4819892769815231,0.022558195344368363,0.019438444924405503,-0.001799856011519213,0.46820254379649157,-0.4656827453803723,-0.014398848092153704,1.1215862416516098,-1.3832051513819725,5.240676782786253,-2.0738418909740894,-4.968081206257092,1.5263648682161324,0.9436201415817977,-3.7803429668451254,4.708819005720431,-0.03175300000000003,-0.059825999999999935,-0.9154410000000001,0.14954299999999998,0.10848000000000002,-0.8926080000000001,0.181296,0.16830599999999996,0.022832999999999992,0.9502795369664888,0.2716700000000001,single,-0.8926080000000001
3,0.025,step_acsent,0.11472458898355417,0.05064202568103125,-0.005040201608062701,0.42475316095822385,1.1997108887929706,-0.4847081779185539,0.04680187207488317,0.0484819392775663,-0.06324252970118802,0.47665906636265154,-0.4215768630745216,-0.05664226569062765,0.6928243233245633,-1.0936270132487649,-6.551810527447609,2.9093575819650552,3.4853587367287644,-7.373415779391432,1.0148233008712317,5.292917593405822,-5.0694128883324066,-0.03231899999999999,-0.05984400000000001,-0.915926,0.152559,0.104545,-0.893038,0.184878,0.164389,0.02288800000000002,0.845975008982732,0.2711200000000001,single,-0.893038
4,0.033333,step_acsent,0.11940477619105713,0.05496219848793453,0.0019200768030740432,-0.02703381793051472,0.2100997108597573,-0.4683403638353268,0.004320172806916597,0.020760830433214774,-0.0375615024600985,0.4935797431897316,-0.42133685347414396,-0.04800192007680278,0.5616449306975833,0.5184414744873728,0.8352668200092097,-5.098007832469288,-3.3266661279673015,3.0818465427924537,2.0305624417472745,0.028802304137480136,1.036882948976943,-0.03327800000000003,-0.06012899999999999,-0.916255,0.15567699999999995,0.100576,-0.8934540000000001,0.18895499999999998,0.160705,0.02280099999999996,0.9281099906412136,0.27199000000000007,single,-0.8934540000000001
5,0.041667,step_acsent,0.12730981521478024,0.04091672666187133,0.048836093112543215,0.22556141555965806,0.4764918889019123,-0.518659775530898,0.002399808015361171,0.009719222462202751,-0.032637389008879455,0.514638828893687,-0.3849292056635455,-0.07871370290376647,0.9485288005427296,-1.6853217933841131,5.629471599408347,-0.2304253409593743,-1.3248869655641975,0.5908463464385699,2.52688813342397,4.36856825181167,-3.685119129705266,-0.03431899999999999,-0.060389000000000026,-0.916934,0.15890499999999996,0.09702699999999997,-0.894517,0.19322399999999995,0.157416,0.02241700000000002,0.9431028821981361,0.2758299999999999,single,-0.894517
6,0.05,step_acsent,0.13956558262330795,0.06144245769830276,0.021360854434178744,-0.028226612147582864,0.16947677775276643,-0.49995579969825626,-0.003960158406343545,0.003240129605184117,-0.005040201608064367,0.5006600264010638,-0.41737669506780045,-0.07740309612384576,1.4707509190600878,2.4631862518218446,-3.2971605278248495,-0.7632264996645525,-0.7775222437319854,3.3117949598962064,-1.6775234000507833,-3.8938544826899024,0.15727910475467624,-0.035515000000000074,-0.060873999999999984,-0.917154,0.161914,0.09303700000000004,-0.89534,0.19742900000000008,0.15391100000000002,0.021814,0.9880295587763883,0.28186,single,-0.89534
7,0.058333,step_acsent,0.13812552502100242,0.060722428897156656,0.01044041761671178,-0.0025297788745828305,0.3111247182697883,-0.42968937355657644,0.006000240009599723,-0.06552262090482844,0.04500180007200292,0.4665786631465262,-0.40501620064802796,-0.0318012720508822,-0.17281382482965718,-0.0864069124140292,-1.3105048382895672,1.1952956217380617,-8.25186013560693,6.005280412824587,-4.089927187632016,1.4833186631192241,5.472437786267077,-0.03661600000000009,-0.061925999999999926,-0.9168660000000001,0.164651,0.08915600000000001,-0.895692,0.20126700000000008,0.15108199999999994,0.021174000000000026,0.8671427380384499,0.28826,single,-0.895692
8,0.066667,step_acsent,0.14926805855530498,0.04211663066955858,-0.0038396928245778734,0.023852773332492732,0.09436659242562344,-0.48964334724539205,-0.05603551715862672,-0.09023278137748678,0.041756659467242746,0.47468202543796006,-0.41396688264938236,-0.0314374850011997,1.3369970643511586,-2.2325171859368944,-1.7134761748607692,-7.443695364558008,-2.964982058154348,-0.3893857217134836,0.9723256889169521,-1.0739959204888891,0.04365095388558897,-0.038327,-0.063029,-0.916486,0.16736300000000004,0.08535499999999996,-0.895922,0.20569000000000004,0.14838399999999996,0.020564000000000027,0.8097840946872961,0.29436,single,-0.895922
9,0.075,step_acsent,0.14820592823712794,0.048241929677175416,0.005760230409208811,0.1694094508139743,0.7728832049679362,-0.4393095316276265,-0.010800432017271516,-0.024480979239180748,0.021840873634945607,0.4527781111244485,-0.38869554782191224,-0.043081723268930575,-0.1274607366107087,0.7350652835253623,1.1520368695291843,5.428427354056791,7.890531877871845,-2.3899898994716375,-2.628574860615816,3.0326814865558798,-1.3973644867071742,-0.03965199999999991,-0.063635,-0.9163519999999999,0.16990100000000008,0.08171400000000006,-0.8963289999999999,0.209553,0.14534900000000006,0.020023000000000013,0.9424338197905477,0.29977,single,-0.8963289999999999
10,0.083333,step_acsent,0.16116644665787747,0.06756270250811121,0.004440177607112052,-0.15832945378255278,0.1381616811785004,-0.3911130638717454,-0.008160326413064677,-0.0037201488059526245,0.011400456018240464,0.31705268210727466,-0.515660626425056,0.005880235209408423,1.5553244234668802,2.3185854831316184,-0.1584126727585213,0.31682534551864117,2.491399307959691,-1.2529002300138166,-16.287702990180453,-15.236418889132798,5.875670044202443,-0.04106300000000007,-0.06422900000000009,-0.916294,0.1711999999999999,0.07685399999999998,-0.896317,0.21226299999999998,0.14108300000000007,0.019977000000000023,0.9758246663972215,0.30023,single,-0.896317
11,0.091667,step_acsent,0.1741060715142766,0.061075113990878574,-0.016438684905214045,-0.26715171406879923,-0.6516289791150771,-0.4062757744546318,0.0016798656107594818,-0.029637628989680514,0.05255579553635723,0.46436285097192737,-0.29397648188145725,-0.07115430765538801,1.5526307723061121,-0.7784483462002206,-2.5052630804326985,1.180728584572134,-3.109848834140618,4.9382456825194145,17.675806199262396,26.59996934768405,-9.243405671321872,-0.04249999999999998,-0.06498500000000007,-0.915719,0.17361899999999997,0.07389499999999993,-0.8967729999999999,0.21611899999999995,0.13888,0.01894600000000002,0.8994000960203193,0.31054000000000004,single,-0.8967729999999999
12,0.1,step_acsent,0.17352694107763664,0.042601704068161994,-0.02412096483859433,0.11415967245585132,1.001384565790621,-0.36468204734797616,-0.0012000480019279376,-0.03492139685586583,0.03708148325932995,0.3804152166086648,-0.3250930037201439,-0.08028321132845259,-0.0694984323340882,-2.2168978666406534,-0.9219104684243705,-0.3456034576607965,-0.6340775070425191,-1.8569917529133886,-10.074119088355035,-3.734131985921829,-1.0955122612581996,-0.043955999999999995,-0.065631,-0.9152089999999999,0.17534300000000003,0.07083099999999998,-0.897241,0.21929900000000002,0.13646199999999997,0.017967999999999984,0.9150820580029728,0.32031999999999994,single,-0.897241
13,0.108333,step_acsent,0.18360734429377565,0.066002640105597,-0.012120484819394916,-0.3983082630904989,-0.3613380244140133,-0.38627094630076125,-0.01812072482899464,-0.031321252850122036,0.010800432017280676,0.3429737189487615,-0.3032521300851972,-0.08544341773671005,1.2096967738076347,2.8082246534783426,1.4401152069122076,-2.030562441745676,0.4320345620717385,-3.1538523031380414,-4.493159445566221,2.621009676580668,-0.6192495389724542,-0.04563700000000004,-0.066442,-0.915018,0.17667100000000002,0.06775400000000009,-0.897852,0.22230800000000006,0.1341960000000001,0.017166000000000015,0.9370619599175921,0.32833999999999997,single,-0.897852
14,0.116667,step_acsent,0.18742500599951414,0.05723542116631392,-0.035277177825762555,-0.10439534858662516,0.32894578120165074,-0.3395830340075866,-0.00455963522917956,-0.0011999040076739237,0.007799376049916306,0.2993760499160094,-0.2514998800096107,-0.09719222462202994,0.45808275806797355,-1.0519821141448373,-2.7785808742941707,1.6272005759317336,3.614272719276228,-0.36009790825106397,-5.231301779787862,6.209773227212195,-1.409744046714648,-0.04723699999999997,-0.06692900000000002,-0.914659,0.1776040000000001,0.06518099999999993,-0.898368,0.22484100000000007,0.13210999999999995,0.016290999999999944,0.9848104284843172,0.33709,single,-0.898368
15,0.125,step_acsent,0.18612744509781368,0.05952238089522877,-0.005880235209417593,-0.344028404069223,0.20447450134106962,-0.31599164050183304,-0.0048001920076717886,0.006000240009599728,0.0,0.2318492739709511,-0.22488899555981434,-0.12756510260410445,-0.15571353674552604,0.27444614531559486,3.5277742249303956,-0.028867968137792945,0.8640518441466047,-0.9359625644925371,-8.103537254897201,3.19343387133042,-3.644891153495084,-0.04882799999999998,-0.06737499999999996,-0.9146099999999999,0.17798499999999995,0.06281100000000006,-0.899382,0.22681299999999993,0.13018600000000002,0.015227999999999908,0.9871932392547142,0.34772000000000003,single,-0.899382
16,0.133333,step_acsent,0.19692787711508486,0.04344173766951688,-0.04932197287890782,-0.17209347486534096,0.046678329313551904,-0.32005954497322037,-0.0009600384015370207,0.005040201608062698,-0.0034801392055683693,0.1885275411016426,-0.16260650426016968,-0.1888875555022198,1.2961036862199897,-1.929754377260516,-5.213217049020784,0.4608368662108202,-0.11520921655310563,-0.41763341000460413,-5.198815896952892,7.474197923874309,-7.35898870732213,-0.050476999999999994,-0.06769500000000006,-0.914228,0.17791499999999993,0.06109399999999998,-0.900545,0.22839199999999993,0.12878900000000004,0.013683,0.9896671136020743,0.36317,single,-0.900545
17,0.141667,step_acsent,0.19786417086633254,0.048716102711771944,-0.027237820974319385,-0.3815980230740822,-0.46279189865229037,-0.30864712919353393,-0.0004799616030722354,-0.00407967362610734,-0.0035997120230376023,0.11723062155027693,-0.16762658987280837,-0.11771058315334833,0.11234626244872595,0.6328731752165918,2.6498862376516064,0.0576046074471786,-1.0942974843016628,-0.01434759028908487,-8.554945950487863,-0.602362084549881,8.54055343758959,-0.05213000000000001,-0.06813499999999995,-0.914031,0.17724299999999993,0.059291000000000094,-0.9012990000000001,0.22937299999999994,0.12742600000000004,0.012731999999999966,0.9908968829079783,0.47934146314263887,single,-0.9012990000000001
18,0.15,step_acsent,0.19800792031680403,0.04056162246490582,-0.02664106564263234,-0.20939627423734325,0.4776693252896844,-0.3373711347458889,-0.0006000240009639688,-0.005760230409222125,-0.0038401536061447522,0.043681747269894475,-0.058082323292936465,-0.2115684627385086,0.01725062408154229,-0.9785767726948418,0.07161350434261884,-0.014408064069570783,-0.20167488096901273,-0.028854144138623507,-8.826217962364382,13.14583782309754,-11.263396086062667,-0.05378499999999997,-0.06852100000000005,-0.913841,0.17595700000000003,0.05846899999999999,-0.90284,0.229742,0.12699000000000005,0.011001000000000039,0.9884185177872598,0.5171522867594779,double,-0.90284
19,0.158333,step_acsent,0.21900876035042302,0.02508100324013135,-0.06492259690387775,-0.12320721202561308,0.5685773045676638,-0.3334059019521012,0.0033601344053795727,-0.00036001440057305197,-0.006960278411136739,-0.007440297611905249,-0.03672146885875774,-0.15096603864154579,2.5202016120987607,-1.8577486169176116,-4.593967510049847,0.47523801828195583,0.6480518431116127,-0.37442995379718996,-6.134890781447219,2.5634050683041774,7.272581794907328,-0.05558200000000002,-0.06873300000000004,-0.913358,0.17406999999999995,0.05795399999999995,-0.9035569999999999,0.22965199999999997,0.126687,0.00980100000000006,0.9871045239251024,0.6427466076765186,double,-0.9035569999999999
20,0.166667,step_acsent,0.24454043676505668,0.04811615070794148,0.011159107271419444,-0.9522852237276899,-1.5375619016134692,-0.24473650052222426,0.008759299256058275,0.023038156947440578,-0.009239260859130509,-0.04175665946724438,-0.005879529637624873,-0.10343172546196314,3.063556085269215,2.7639965764111,9.129074175101646,0.6478479542451041,2.80755595728505,-0.27345601727786994,-4.117634011919738,3.700736647604132,5.7036612886468205,-0.057547000000000015,-0.06894200000000006,-0.913528,0.17168399999999995,0.057504,-0.904512,0.22923099999999996,0.12644600000000006,0.009016000000000024,0.9561300552068596,0.7236776655930663,double,-0.904512
21,0.175,step_acsent,0.2590903636145345,0.00408016320652569,-0.0861634465378613,-0.38004061047220417,0.1479193593344118,-0.40475912783608237,0.009480379215161457,0.01596063842554303,-0.008760350414017017,-0.05616224648986261,0.06120244809792532,-0.05808232329293166,1.7460610643799204,-5.284529881365162,-11.67917362405868,0.08653305641463861,-0.8493361960755508,0.057471552275710214,-1.7287395922978839,8.050159334639428,5.442145946121635,-0.059626999999999986,-0.06884299999999999,-0.912883,0.169057,0.05798000000000003,-0.904278,0.228684,0.12682300000000002,0.008604999999999974,0.9657881068279143,0.7450195913904851,double,-0.904278
22,0.183333,step_acsent,0.2464898595943836,0.06072242889715661,-0.017640705628226103,-0.1133732437462305,-0.5881156856483286,-0.2219214820805888,0.0022800912036470937,0.008040321612869218,-0.004560182407295853,-0.040321612864514904,0.03456138245529278,0.01800072002880082,-1.5121209672567995,6.79734377662677,8.223057831469475,-0.8640691241466887,-0.9504760365623192,0.5040403224194361,1.9009520731246479,-3.1970557593462763,9.130330411824364,-0.061661999999999995,-0.06928199999999995,-0.912774,0.166667,0.05776199999999998,-0.903981,0.228329,0.12704399999999993,0.00879299999999994,0.984132418520496,0.8186125298334985,double,-0.903981
23,0.191667,step_acsent,0.2644588432925477,0.03515718742500449,-0.00455963522917956,0.2580452833381927,0.6546393089062384,-0.32108594280079317,0.004919606431493727,0.013798896088310069,-0.010919126469882495,-0.022558195344368346,0.04367650587953331,-0.053995680345572186,2.1561055553352637,-3.0675835699726535,1.569602879655211,0.3167164900223939,0.6909736591601686,-0.7630122465306739,2.131439587250605,1.0937273127238452,-8.638876934769971,-0.06382500000000002,-0.06945999999999997,-0.912827,0.16427499999999995,0.05783300000000002,-0.904393,0.22809999999999997,0.127293,0.008434000000000053,0.9695478798602506,0.7939586026851331,double,-0.904393
24,0.2,step_acsent,0.26581063242529285,0.04572182887315065,-0.03876155046201391,-0.05380022820263217,0.9200628641713479,-0.24245246872620566,0.005520220808831208,0.00588023520940426,-0.00396015840633688,-0.013200528021114051,0.02664106564261902,-0.04008160326413065,0.16222118477680778,1.2678076860849814,-4.104394003700266,0.07207660834483144,-0.9502773165613588,0.8351095720083535,1.1229649973904101,-2.044334601813786,1.6697560400145837,-0.065994,-0.06979199999999997,-0.912537,0.16195000000000004,0.057674,-0.904404,0.22794400000000004,0.12746599999999997,0.008133000000000057,0.9850247557523674,0.8354945622722382,double,-0.904404
25,0.208333,step_acsent,0.27697107884315164,0.04116164646586992,-0.018960758430336237,-0.1230047169769973,0.23249502730185115,-0.16229899792015393,0.006720268810745844,0.003480139205575043,-0.0018000720028794217,0.03852154086162313,-0.0010800432017191595,0.016200648025921457,1.3393071424287557,-0.5472437786248334,2.376190091404983,0.14401152069058434,-0.28802304138116197,0.25922073724438544,6.206896541790148,-3.326666127965708,6.754140320419086,-0.06824600000000003,-0.070106,-0.912394,0.15996299999999997,0.057321999999999984,-0.904111,0.228209,0.12742799999999999,0.00828300000000004,0.9870349143000632,0.8474974205034906,double,-0.904111
26,0.216667,step_acsent,0.27081833453324483,0.05351571874249412,-0.04307655387568969,0.0166469764804112,-0.09949008763791155,-0.21608944058651625,0.007079433645312118,0.00227981761458978,0.0007199424046075181,0.051115910727146274,0.0038396928245645486,0.018238540916726567,-0.738270255568371,1.482370083588215,-2.893663960325586,0.04309633244135754,-0.14402706875273116,0.30237753869533684,1.5112034875837694,0.5903210974662471,0.24452758468983773,-0.07044400000000006,-0.07053299999999996,-0.9120290000000001,0.15813199999999994,0.05690799999999996,-0.9036000000000001,0.228576,0.12744099999999992,0.00842900000000002,0.9875462783161771,0.8250300998440775,double,-0.9036000000000001
27,0.225,step_acsent,0.2786511460458338,0.03660146405856228,-0.06948277931117193,-0.5407115784249257,-0.9545939813024238,-0.216033913527052,0.00996039841594326,0.002040081603256177,0.001680067202688121,0.04164166566662497,0.004800192007685103,0.0072002880115201616,0.9399749805098956,-2.0297917537419687,-3.1688738072101543,0.34572960165980304,-0.028769472138917923,0.11521958455305438,-1.1369548854579736,0.11526451255496868,-1.3246433343581419,-0.07268299999999994,-0.07082100000000002,-0.911436,0.156157,0.056643,-0.902961,0.22883999999999993,0.12746400000000002,0.00847500000000001,0.9828249134437069,0.8443644445396812,double,-0.902961
28,0.233333,step_acsent,0.2638905556222321,0.10632425297012513,0.060242409696374774,-0.10886563927239402,-0.8352479645543022,0.03091020462456415,0.010440417616698446,0.005520220808831208,0.0014400576023038656,0.03516140645625675,0.009600384015356884,-0.002640105604224309,-1.7713417045003792,8.367069352161622,15.56764538672106,0.05760460827495335,0.4176334100054036,-0.02880230413827615,-0.7776622117326556,0.5760460827639238,-1.1808944696681223,-0.07479500000000006,-0.07166100000000009,-0.9119259999999999,0.15425099999999992,0.055836999999999914,-0.903485,0.22904599999999997,0.127498,0.00844099999999992,0.9801709441806508,0.8546833766868891,double,-0.903485
29,0.241667,step_acsent,0.2922966162706983,0.06563474922005826,0.026037916966645456,-0.5255049563696396,0.0738650596908799,-0.024472213017529627,-0.010199184065275011,-0.006119510439154349,0.015238780897528488,0.026637868970489084,0.004079673626120662,0.0067194624430046345,3.408454601447834,-4.882349862019074,-4.104210790704272,-2.47655407751062,-1.3966560172768878,1.655714338279896,-1.0227426788778118,-0.6624322521281779,1.1230583210017957,-0.07731600000000005,-0.07225899999999996,-0.9120159999999999,0.15203699999999998,0.05532400000000004,-0.903646,0.22935300000000003,0.127583,0.008369999999999989,0.9677814663907404,0.8700107231127638,double,-0.903646
30,0.25,step_acsent,0.28525141005639754,0.07332293291732002,0.006720268810759145,-0.08219541574881561,-0.05352551805535914,-0.08483682387616667,0.01584063362534752,0.012600504020150081,-0.005880235209408423,0.009240369614783831,0.004800192007671781,0.007440297611904416,-0.845458564058654,0.922618948429348,-2.3182105071266403,3.124903118999461,2.2464915947803212,-2.5343833081647538,-2.0877834340219894,0.08646566441271068,0.08650368041519034,-0.07956099999999999,-0.07276500000000008,-0.9121210000000001,0.149737,0.05475299999999994,-0.90364,0.229298,0.12751800000000002,0.008481000000000072,0.9648702586698537,0.8938602931153881,double,-0.90364
31,0.258333,step_acsent,0.2805712228489088,0.07848313932556511,0.026161046441850595,0.028209402576767798,0.33148291079975933,-0.016145940118709207,0.013800552022078066,0.001920076803074048,0.0020400816032636777,-0.0066002640105637085,0.008040321612869245,0.0048001920076809566,-0.5616449306958793,0.6192495389709713,2.3329866351963875,-0.24481958517574215,-1.2817025341504933,0.9504760365621169,-1.9009520731246345,0.38883110586793135,-0.3168253455206368,-0.08178399999999997,-0.073403,-0.912322,0.14734400000000003,0.05416600000000005,-0.903818,0.229128,0.12756900000000004,0.008503999999999956,0.9765299325385763,0.8958657818554848,double,-0.903818
32,0.266667,step_acsent,0.2771778257739419,0.08123350131989897,0.0011999040076872453,-0.26798947549282226,-0.17219958500412208,-0.07285330373105756,0.015838732901370393,0.0007199424046150115,0.0037197024238064817,-0.00839932805375743,0.017278617710587096,-0.025917926565874813,-0.40717507499002675,0.3300170379570261,-2.995097484300855,0.2445621405438355,-0.14400460744648852,0.20153837539510466,-0.2158704155500024,1.108506851178047,-3.6858793584780103,-0.08396199999999998,-0.07407399999999997,-0.912301,0.14496399999999998,0.05363300000000004,-0.9040440000000001,0.22892599999999996,0.12770700000000001,0.008256999999999959,0.9728573744868689,0.8636599582786585,double,-0.9040440000000001
33,0.275,step_acsent,0.27973118924756535,0.09636385455418155,0.008400336013442242,-0.005143951575009892,0.01663413518174404,-0.066287836032826,0.022800912036484183,-0.01476059042361499,0.014880595223808784,-0.0015600624024876611,0.004320172806903256,-0.017520700828033083,0.3064158734697514,1.8157150167145704,0.8640864041467619,0.8354949160102918,-1.8577382489175491,1.3393607104286878,0.8207447079406864,-1.5550755914657128,1.0077073968368768,-0.08610299999999993,-0.07499999999999996,-0.912247,0.14262000000000008,0.05286599999999997,-0.9042600000000001,0.228723,0.12786599999999992,0.007986999999999966,0.9483820462553094,0.889942040420494,double,-0.9042600000000001
34,0.283333,step_acsent,0.2800912036481536,0.09108364334572855,-0.03012120484819415,-0.3958503339357345,-0.9365448935894986,-0.1339914040617253,0.0320412816512682,0.013920556822260201,-0.007680307212288697,0.003720148805952637,-0.0006000240009506475,-0.014520580823233332,0.04320345620883832,-0.633650691042003,-4.622769814188946,1.1088887093224573,3.441875344518812,-2.7074165889952644,0.633650691040479,-0.5904472348318631,0.36002880172804014,-0.08816999999999997,-0.07564300000000002,-0.9120600000000001,0.14031700000000003,0.05210200000000009,-0.9041300000000001,0.228487,0.1277450000000001,0.007929999999999993,0.940385200593663,0.8956973999471944,double,-0.9041300000000001
35,0.291667,step_acsent,0.2693784497240148,0.11183105351572391,0.018838492920561865,0.06309350645885184,-0.011820324781053142,-0.08299094807812693,0.0221982241420675,-0.010079193664503588,0.012718982481401707,0.0007199424046016899,-0.004679625629950949,-0.02063834893208524,-1.285427636685718,2.489490061194545,5.874693756750176,-1.1810724153108578,-2.879739679237313,2.447718945727188,-0.35999596848463455,-0.48951303443728067,-0.7340734471864533,-0.09022999999999992,-0.07665900000000003,-0.912111,0.13807800000000003,0.05113100000000004,-0.904459,0.22830799999999996,0.12779000000000007,0.007651999999999992,0.9541704906034502,0.8881891977774135,double,-0.904459
36,0.3,step_acsent,0.2785311412456526,0.11112444497779728,0.013920556822273524,-0.06083890621915292,-0.4315553994838955,-0.10220010995460069,0.032641305652218844,-0.013800552022078066,0.009720388815552376,-0.015840633625347572,-0.01824072962919013,-0.010080403216128759,1.098366917273227,-0.08479641640785228,-0.5901759388321556,1.2532199100145651,-0.4465808661435842,-0.35984563372726974,-1.987348617538618,-1.6273975758117385,1.2670041660814242,-0.092279,-0.07769999999999999,-0.912146,0.135625,0.050053000000000014,-0.904659,0.227904,0.127753,0.007487000000000021,0.9387537749571186,0.8815007405754195,double,-0.904659
37,0.308333,step_acsent,0.27313092523701504,0.10692427697107541,-0.03192127685107252,-0.09942849390928517,-0.13835398569701213,-0.21478598274462754,0.040321612864514765,0.012360494419772447,0.006480259210368207,-0.026761070442814387,-0.021600864034556248,-0.025321012840513024,-0.6480518431102275,-0.5040403224195182,-5.501240090405118,0.9216737324248037,3.1394511510680916,-0.3888311058663333,-1.310504838289544,-0.40323225793424966,-1.8289463127786154,-0.09421900000000005,-0.078488,-0.911826,0.13312599999999997,0.04898200000000008,-0.904604,0.22734500000000002,0.12747000000000008,0.007222000000000062,0.928885693623056,0.8566013142554816,double,-0.904604
38,0.316667,step_acsent,0.2621790256779464,0.12658987281017928,0.007439404847613013,0.07771722188149859,-0.19749050608606417,-0.18020373694036604,-0.012119030477563993,-0.06371490280776952,0.023998080153588536,-0.021238300935923174,0.015718742500599108,-0.07883369330453666,-1.3141228172628665,2.359682726074391,4.722903971524569,-6.292373811144595,-9.128317401912936,2.1019703555580067,0.6626793264808309,4.477994544655096,-6.421007975044869,-0.09650500000000006,-0.08007399999999998,-0.911688,0.130764,0.048058000000000045,-0.905323,0.22726900000000005,0.12813200000000002,0.006365000000000065,0.8847422262132771,0.7977769597681152,double,-0.905323
39,0.325,step_acsent,0.26269050762030327,0.11412456498260304,0.005280211208440274,-0.0981805428138621,-0.42053584799097765,-0.21574518154881844,0.044641785671431344,0.008880355214210751,0.02064082563302506,-0.009960398415943227,0.002400096003829221,-0.028681147245889254,0.061380288294358924,-1.4958967751801495,-0.25911360124477745,6.81157040069544,8.711779433814948,-0.40288665793393263,1.3534024384951278,-1.5983015116728467,6.018546268888418,-0.09832200000000002,-0.080951,-0.9115599999999999,0.12849199999999994,0.04712699999999992,-0.9056059999999999,0.22681399999999996,0.12807799999999991,0.005954000000000015,0.9167034511272873,0.8896997190278904,double,-0.9056059999999999
40,0.333333,step_acsent,0.2539301572062897,0.10812432497299074,0.015120604824201465,0.20747298490622615,-0.04089026988126272,-0.2826171189920313,0.04428177127084527,-0.0031201248050019893,0.046441857674306905,-0.007680307212282868,0.001440057602305536,-0.010560422416897272,-1.0512841010456733,-0.7200576034576162,1.1808944696701327,-0.04320345620857769,-1.440115206913809,3.0962476948616233,0.27362188931481624,-0.11520921655150453,2.174573962437541,-0.10006900000000007,-0.081878,-0.9112990000000001,0.12631199999999998,0.046238,-0.9058200000000001,0.22638100000000005,0.128116,0.005479000000000012,0.8929245257109264,0.9233148326998659,double,-0.9058200000000001
41,0.341667,step_acsent,0.24946004319653708,0.09671226301896851,-0.04955603551715818,-0.030640976782107896,0.23096621089913072,-0.34834509674029623,0.032637389008885256,-0.013318934485237835,0.05819534437245007,-0.0013198944084453126,-0.00911927045835912,0.03251739860811137,-0.5363707715085924,-1.3693378874516693,-7.760575994883559,-1.3972140943076554,-1.2237592608874295,1.4103055793308317,0.7631884813819954,-1.2670180058392906,5.168925009000312,-0.10187599999999997,-0.08279500000000006,-0.910401,0.12422200000000005,0.04535599999999995,-0.905136,0.22609800000000002,0.12815100000000001,0.005264999999999964,0.8866018410426806,0.8910205024190269,double,-0.905136
42,0.35,step_acsent,0.22308892355694943,0.08808352334093535,-0.029161166446657127,-0.04786450665625993,-0.23369975128571308,-0.36450162466977104,-0.004440177607098744,-0.0472818912756518,0.12420496819872841,0.010440417616698481,-0.050042001680067415,0.13824552982119323,-3.1646609431882546,-1.0354901809712216,2.4474821877476427,-4.449485973357025,-4.075717843563429,7.921471718022142,1.4112938947730496,-4.910924183572351,12.687883260900291,-0.10377199999999998,-0.08392300000000008,-0.909123,0.12244999999999995,0.04420499999999994,-0.903741,0.22622199999999992,0.12812800000000002,0.005381999999999998,0.7783761536031009,0.7005231098298699,double,-0.903741
43,0.358333,step_acsent,0.23784951398054963,0.08532341293650585,-0.004080163206538986,-0.19057500648178155,0.5186392508136248,-0.3356786951937406,0.016560662426493566,-0.05376215048601969,0.21696867874714862,0.019560782431300078,0.03336133445337805,0.03828153126125027,1.7713417045001967,-0.3312264975914423,3.0098407824454623,2.5202016120955504,-0.7776622117326131,11.132090549432355,1.0944875572544772,10.008800688040937,-11.996159673580047,-0.10561599999999993,-0.08508199999999999,-0.907281,0.12063100000000004,0.04377200000000003,-0.903388,0.22624699999999998,0.12885400000000002,0.0038930000000000353,0.6264285286210316,0.8703770123753758,double,-0.903388
44,0.366667,step_acsent,0.20770338372930602,0.09839212862971468,0.01091912646988999,-0.4160869733771289,-0.14384506285416213,-0.3175728864784861,0.04199664026877383,-0.0523158147348202,0.2555795536357089,0.02903767698583684,0.054835613150952756,-0.00011999040076805845,-3.6172462504491927,1.5681204335503742,1.7997707795091145,3.0520731752196113,0.1735464064314243,4.6329343518790775,1.1371363756343598,2.5767073071243924,-4.607813974324249,-0.10699700000000001,-0.08633800000000003,-0.905242,0.11914199999999997,0.04340900000000003,-0.9034800000000001,0.22613899999999998,0.12974700000000006,0.0017619999999999303,0.5596038068402339,0.8789640981485303,double,-0.9034800000000001
45,0.375,step_acsent,0.20292811712468525,0.09288371534862047,-0.008280331213246839,-0.5583186009187121,0.0383192652800309,-0.34325747513024407,0.0640825633025364,-0.02880115204608407,0.262810512420498,0.01788071522861708,0.04104164166566114,-0.02496099843993764,-0.5730549147510839,-0.6610360351727134,-2.3040270830597476,2.650416780722743,2.821872397544244,0.8677497641652646,-1.3388889664250319,-1.6553427919466757,-2.9810402063086094,-0.10815399999999997,-0.0873520000000001,-0.902983,0.11760000000000004,0.04297699999999993,-0.9036190000000001,0.225754,0.13032900000000003,0.0006360000000000809,0.5402409645732398,0.9145731669331716,double,-0.902983
46,0.383333,step_acsent,0.1700468018720755,0.11520460818432296,0.04980199207967649,-0.37235316386087236,-0.17229288687291414,-0.20714150213341156,0.0648025921036825,-0.044401776071040726,0.3031321252850122,0.008040321612855922,0.028921156846279533,-0.009960398415936631,-3.9459156669398587,2.6786142848556995,6.970157601454875,0.08640691241402941,-1.8721497689855626,4.838787095225523,-1.1808944696701285,-1.4545163589801557,1.8001440086404712,-0.10903099999999999,-0.08868200000000004,-0.900872,0.11624999999999996,0.04225800000000002,-0.904117,0.22528099999999995,0.13094000000000006,0.0032449999999999424,0.46754999999999997,0.9472877406845678,single,-0.900872
47,0.391667,step_acsent,0.14302855771537915,0.1412287017038616,0.1749460043196627,-0.5242207573355175,-1.342589689584872,-0.08876618484822117,0.06959443244540729,-0.06575473962082942,0.3389728821694262,0.0074394048476129635,0.028077753779692374,-0.0002399808015352843,-3.241929944408006,3.12264141103175,15.016080182383742,0.574974843019533,-2.5621506539223273,4.300546782387086,-0.07210424348967576,-0.10120027196870147,1.1663568051837456,-0.10964299999999993,-0.09040700000000002,-0.899505,0.11512,0.04131499999999999,-0.9055770000000001,0.22476299999999994,0.131722,0.006072000000000077,0.43928,0.9515873469080418,single,-0.899505
48,0.4,step_acsent,0.14088563542541743,0.11328453138126149,0.05880235209408237,-0.30574230694586085,0.20998144848869055,-0.30702074352606096,0.11088443537740562,-0.091443657746301,0.3969758790351596,0.008400336013442242,0.023520940837630285,0.002400096003840046,-0.25716096123385385,-3.3534345760950424,-13.937795778900737,4.95499855178185,-3.082793486796049,6.960638049409949,0.11531635255361504,-0.5468394266245133,0.3168218895206191,-0.10989300000000002,-0.092113,-0.896687,0.114016,0.04056699999999991,-0.906047,0.22390900000000002,0.1326799999999999,0.009360000000000035,0.4064,0.9581815842051187,single,-0.896687
49,0.408333,step_acsent,0.12240489619585064,0.11676467058681064,0.09036361454458244,-0.4181017420165534,0.14879908895356753,-0.20633388638587538,0.12828513140526826,-0.11088443537741968,0.3987759510380425,-0.00408016320652569,0.010920436817480316,0.0014400576023038704,-2.2177774186447663,0.41763341000229964,3.7875029941797855,2.0881670500255227,-2.332986635199655,0.21601728103719026,-1.4977198151887632,-1.5121209672566902,-0.11520921655300347,-0.10984399999999994,-0.09400999999999993,-0.894117,0.112962,0.03968500000000008,-0.906788,0.22280599999999995,0.133695,0.012670999999999988,0.37329,0.9804227003639405,single,-0.894117
50,0.416667,step_acsent,0.1312694984401294,0.10499160067195457,0.10007199424046083,-0.22216630501611576,0.47700867979137834,-0.3059976487206467,0.13954883609310212,-0.146868250539957,0.4130069594432442,-0.007319414446841574,0.000599952003830301,-0.002399808015358671,1.0636671759393737,-1.4126553773525397,1.1649123705157638,1.3515364396248917,-4.3177124025122735,1.7075844018720587,-0.3886790545135446,-1.2383591089092878,-0.46074701435835586,-0.10977500000000007,-0.096109,-0.891509,0.11180699999999999,0.03881499999999993,-0.9076420000000001,0.22158200000000006,0.13492399999999993,0.016133000000000064,0.33867,0.9871231421230314,single,-0.891509
51,0.425,step_acsent,0.11712468498739702,0.10848433937357713,0.08376335053401873,-0.6031018425695549,0.05359569502077758,-0.30233194556247844,0.1598463938557546,-0.15876635065402211,0.5136205448217932,0.00756030241208741,0.007680307212296192,0.014760590423616755,-1.6974455121483747,0.4191454100111088,-1.9571155293942322,2.435804363692853,-1.4278291268528913,12.074113209954305,1.7856374485694253,0.8496766120803921,2.0593301858844915,-0.10941900000000004,-0.09833599999999998,-0.887927,0.11089399999999994,0.03797499999999998,-0.908217,0.22031299999999998,0.13631099999999996,0.02029000000000003,0.29710000000000003,0.9695396286093978,single,-0.887927
52,0.433333,step_acsent,0.11100444017760108,0.09480379215168055,0.06924276971078078,-0.5272016580580963,0.058976413532545235,-0.40244441649764895,0.23688947557902593,-0.16464658586343864,0.5787831513260515,-0.03252130085202317,-0.023880955238216657,-0.017160686427456703,-0.7344587555257303,-1.641731335881017,-1.742539400364562,9.245539628377655,-0.7056564513880353,7.819825573533906,-4.809984791084893,-3.787502994181293,-3.8307064503868147,-0.10836999999999997,-0.10049799999999998,-0.8836809999999999,0.10969800000000007,0.03698599999999996,-0.908937,0.21806800000000004,0.13748399999999994,0.025256000000000056,0.24744,0.9269242365976887,single,-0.8836809999999999
53,0.441667,step_acsent,0.10511159107271333,0.08447324214063379,0.07055435565155223,-0.5600434282461075,0.030782860655201832,-0.5122563928540705,0.3347732181425456,-0.19450443964482755,0.6813054955603594,-0.017878569714430838,0.019798416126719783,0.010319174466042271,-0.707085325760474,-1.239566835978741,0.15737772267476102,11.745109498862522,-3.5826558412993865,12.301697172343223,1.756987177536887,5.241105275370373,3.297319521658163,-0.106456,-0.102823,-0.878591,0.10867300000000002,0.03644700000000001,-0.909439,0.21512900000000001,0.13927,0.030847999999999987,0.19151999999999997,0.9523290824208669,single,-0.878591
54,0.45,step_acsent,0.09360374414976595,0.0510020400816041,0.060962438497547324,-0.7553769125132977,-0.3385055662355516,-0.5712678518763007,0.4131765270610909,-0.15588623544942334,0.7646705868234701,-0.021840873634947165,-0.004320172806916579,-0.009960398415936565,-1.3809968706285043,-4.016704915280157,-1.1510761015246447,9.408773421162243,4.634369878243615,10.00421112001805,-0.47549549028156846,-2.894346445894187,-2.4336460916811173,-0.10379299999999991,-0.10454700000000006,-0.872727,0.107711,0.03598599999999996,-0.91003,0.21150399999999991,0.14053300000000002,0.037302999999999975,0.12696999999999992,0.9593491427306623,single,-0.872727
55,0.458333,step_acsent,0.11052442097684663,0.04428177127084527,0.0655226209048286,-0.7772198118529671,-0.36751054034215364,-0.6793981567129248,0.5327013080523199,-0.1527661106444224,0.9163566542661717,-0.0025201008040246953,-0.004560182407294202,0.0014400576023047033,2.0305624417473562,-0.8064645158716964,0.5472437786249,14.34354746084594,0.37442995379826766,18.203056215372857,2.318585483130027,-0.028802304137480313,1.3681094465668184,-0.100275,-0.10618899999999998,-0.865637,0.106769,0.03557900000000003,-0.9105639999999999,0.207044,0.141768,0.04492699999999994,0.05073000000000005,0.9909907551265693,single,-0.865637
56,0.466667,step_acsent,-0.009359251259901898,0.08615310775137938,0.08003359731221173,-0.5896732942056369,-0.36861586776003624,0.04538409544158004,0.5681545476361806,-0.08639308855292216,0.9155267578593701,0.010199184065274976,-0.0019198464122889352,-0.019678425725942437,-14.384889877219633,5.0241584449884895,1.7411778746560005,4.254048426189185,7.964125520938344,-0.09957960244800142,1.5261920889488432,0.31681497420269555,-2.5340152781674012,-0.09546200000000005,-0.10762700000000003,-0.8586739999999999,0.10693200000000003,0.034845000000000015,-0.911395,0.20239400000000007,0.14247200000000004,0.05272100000000002,0.0,0.9629208951888155,single,-0.8586739999999999
57,0.475,step_acsent,0.07272290891635629,0.07056282251290465,0.08076323052922553,-0.9210203518439785,-0.38332846370679313,-0.40197750991999665,0.461298451938087,-0.03288131525260976,0.9609984399376,0.005400216008635768,0.0066002640105637085,-0.005280211208447803,9.85025323128026,-1.870909064979572,0.08755948842119345,-12.823244413547801,6.421669662824017,5.456820122192494,-0.5758992027648171,1.0224541489082761,1.727854856293612,-0.09222399999999997,-0.10848900000000006,-0.851339,0.106371,0.03431200000000001,-0.912112,0.19859499999999997,0.14280100000000007,0.06077300000000008,0.0,0.9832828723597219,single,-0.851339
58,0.483333,step_acsent,0.06804272170886617,0.05088203528140864,0.08172326893076201,-0.97484279442704,-0.3642345028847518,-0.36390684264425927,0.7362294491779642,-0.03516140645625663,1.2234489379575144,0.025561022440899778,-0.006720268810759123,0.04536181447257828,-0.5616449306960388,-2.361788939337085,0.11520921655303937,32.993039390360735,-0.2736218893131956,31.4953195751726,2.4193935476135757,-1.5985278796739202,6.077286173170031,-0.08665599999999996,-0.10920600000000003,-0.841825,0.10601700000000003,0.03383199999999997,-0.9124150000000001,0.19267299999999998,0.143038,0.07059000000000004,0.0,0.9125004429636981,single,-0.841825
59,0.491667,step_acsent,0.002759779217662014,0.08339332853371736,-0.0029997600192047916,-1.7572048837740706,-0.14484569994854007,0.23196744876831027,0.7171826253899694,0.04607631389489448,1.344372450203983,0.0014398848092167015,-0.0032397408207342476,-0.006239500839932378,-7.833326432829865,3.901043106828497,-10.165950197980168,-2.2854360196778027,9.74774662240833,14.509660696720491,-2.894304971404254,0.41762994840711204,-6.191662504500913,-0.08070199999999994,-0.10951699999999998,-0.830596,0.10600600000000004,0.03310999999999997,-0.912442,0.18670799999999999,0.14262699999999995,0.08184599999999997,0.0,0.9880393516084269,single,-0.830596
60,0.5,step_acsent,0.07176287051481926,0.07272290891635629,0.06924276971079457,-1.0611751487576597,-0.2420107108045786,-0.3241468844424843,0.5985839433577349,0.22392895715827768,1.4831393255730243,-0.08664346573862981,0.016680667226689136,-0.14748589943597792,8.28070218374624,-1.2805015741462986,8.66945034561377,-14.232411140313781,21.343170918442777,16.652691151931062,-10.570424882736917,2.390544587474311,-16.950245841359163,-0.07631199999999994,-0.10825700000000005,-0.818814,0.10468600000000006,0.03264299999999998,-0.9142480000000001,0.180998,0.14090000000000003,0.09543400000000002,0.0,0.7135590746052123,single,-0.818814
61,0.508333,step_acsent,0.05580223208928918,0.05520220808832522,0.08400336013439577,-0.8729437053176053,-0.1873251200510981,-0.26630095522504754,0.742589703588137,0.17628705148206497,1.4408976359054324,-0.021720868834751706,0.0447617904716268,-0.18300732029281078,-1.9153532251926095,-2.102568202091803,1.7713417045003166,17.2813824829475,-5.7172573714403585,-5.06920552833214,7.791023269396116,3.369869584175873,-4.262741012460423,-0.07058900000000001,-0.10724800000000001,-0.807507,0.10404000000000002,0.03255600000000003,-0.916473,0.17462900000000003,0.13980400000000004,0.10896600000000001,0.0,0.6839167949296432,single,-0.807507
62,0.516667,step_acsent,0.07055435565155223,0.04703623710102594,0.10067194624430513,-0.8162459335149156,-0.340014254655726,-0.25938835277460803,0.6687065034797315,0.23878089752820478,1.5005999520038469,0.042596592272617737,-0.03395728341733079,0.1291096712263027,1.7701132184141026,-0.979838131425405,2.0000703275629292,-8.865274791025433,7.498661632606211,7.163704835422944,7.7174779346496045,-9.445533224017044,37.45104289886192,-0.065604,-0.10564999999999991,-0.79584,0.10380699999999998,0.03188100000000005,-0.9162359999999999,0.16941099999999998,0.13753099999999996,0.12039599999999995,0.0,0.7664472818583413,single,-0.79584
63,0.525,step_acsent,0.07032281291251326,0.046801872074882976,0.08460338413535974,-1.0195865178300085,-0.2629877278045707,-0.24197311126853902,0.8006720268810732,0.38029521180846804,1.452298091923671,-0.04836193447738396,0.040321612864514765,-0.2454098163926553,-0.027786240134281673,-0.02812492813428082,-1.9283045852568488,15.83649626801166,16.9823970095119,-5.796455067823796,-10.915459828393294,8.9138241067857,-44.94413627972597,-0.05951799999999996,-0.10287099999999993,-0.784443,0.10281799999999996,0.03182700000000005,-0.918986,0.16233599999999992,0.13469799999999998,0.13454299999999997,0.0,0.5777353148653632,single,-0.784443
64,0.533333,step_acsent,0.06192247689907184,0.03888155526220976,0.12360494419777941,-0.8861681508305214,-0.4560935563334756,-0.15350313085688436,0.8012720508820346,0.27577103084123883,1.6504260170406952,0.03096123844953592,0.07848313932557895,0.019440777631105712,-1.0080806448387727,-0.9504760365622572,4.680374422467302,0.07200576034577942,-12.543403452205707,23.776302066125773,9.519161517691181,4.5795663579820625,31.783342616556272,-0.05335699999999999,-0.1008969999999999,-0.7717200000000001,0.10255999999999998,0.0321570000000001,-0.9198540000000001,0.15591699999999997,0.133054,0.148134,0.0,0.8556995295338639,single,-0.7717200000000001
65,0.541667,step_acsent,0.06671466282697344,0.03251739860811365,0.10607151427885639,-1.1061479971842174,-0.4153449331773109,-0.25075283511572244,0.5998320134389173,0.31569474442043666,1.6819054475641821,-0.011879049676021056,0.027237820974319114,-0.03227741780657504,0.5750163100433842,-0.763637707474929,-2.103843282808122,-24.170870823508,4.7904623925123015,3.777229484459642,-5.140423341199503,-6.148946286448217,-6.205686997561838,-0.04891400000000001,-0.09853699999999999,-0.758587,0.10190500000000002,0.03211300000000006,-0.921007,0.15081900000000004,0.13065000000000004,0.16242,0.0,0.9268782899525532,single,-0.758587
66,0.55,step_acsent,0.06324252970119441,0.037081483259330666,0.14760590423616324,-1.161087737043736,-0.4729704996498526,-0.15369095147192227,1.2628105124204987,0.1834873394935793,1.93099723988959,-0.02544101764070432,0.010200408016320819,-0.04464178567142718,-0.4166726419991616,0.5477120666287045,4.984326167923518,79.5606023018815,-15.865523212151304,29.892210767479522,-1.6275012558122173,-2.044571337813299,-1.4837834951220559,-0.03891800000000001,-0.09731699999999999,-0.743726,0.10116599999999998,0.031889000000000056,-0.922609,0.140084,0.12920600000000004,0.17888300000000001,0.0,0.9126917540767882,single,-0.743726
67,0.558333,step_acsent,0.06276251050041341,0.04284171366855334,0.11052442097684737,-0.6245918956854499,-0.2993907324882886,-0.23574534618005227,0.8435137405496239,0.13152526101043993,1.9091563662546651,-0.009360374414979384,0.0006000240009506516,-0.01728069122764906,-0.057604608278051785,0.6912552993187,-4.44995598935752,-50.31762532951861,-6.235698845930617,-2.6210096765780784,1.9297543772621006,-1.1520921655310519,3.283462671760275,-0.032411999999999996,-0.09657800000000005,-0.7287380000000001,0.10056500000000002,0.031536999999999926,-0.923674,0.132977,0.12811499999999998,0.1949359999999999,0.0,0.9672298015087698,single,-0.7287380000000001
68,0.566667,step_acsent,0.0471562275017967,0.040676745860328246,0.09719222462202678,-0.5670500555555495,-0.18835795130849545,-0.2655210144400167,0.8496520278377669,0.12023038156948053,1.9042476601871698,0.011519078473720213,-0.013558915286767202,0.022678185745140415,-1.8726041515018708,-0.2597753549586127,-1.5997355837317588,0.7365355517330193,-1.3552771107462582,-0.5889976082907649,2.505333919930338,-1.698936799582163,4.794681662201724,-0.02572399999999997,-0.09591499999999997,-0.713678,0.10026800000000002,0.03108500000000003,-0.924295,0.125992,0.127,0.21061699999999994,0.0,0.9519596968586519,single,-0.713678
69,0.575,step_acsent,0.0411616464658702,0.06840273610944013,0.14316572662906643,-0.706620048586408,-0.21653442831623107,-0.19539265163701947,0.9104764190567718,0.09936397455897605,1.8930757230289432,0.07524300972039481,-0.0602424096963887,0.11244449777991226,-0.719378499451165,3.327251919970255,5.517040922481708,7.29921891503725,-2.504069004020721,-1.3406860864306638,7.647177636706489,-5.602243418891386,10.772388339706309,-0.018480000000000052,-0.09565699999999999,-0.6990959999999999,0.10055199999999997,0.030013000000000067,-0.924551,0.11903200000000003,0.12567000000000006,0.22545500000000007,0.0,0.7531620891782329,single,-0.6990959999999999
70,0.583333,step_acsent,0.08328333133324967,0.11856474258970176,0.15840633625344802,-1.463520373720117,0.11746270111346735,-0.18856715104993252,1.3176527061082377,-0.12636505460218003,2.051842073682939,0.0033601344053795614,-0.012480499219967906,-0.0010800432017283122,5.054804376260566,6.0196815648939666,1.8289463127782943,48.863108970534526,-27.088567042020298,19.052724187446916,-8.62629008940537,5.731658523511412,-13.623489857391109,-0.008194000000000035,-0.09769799999999995,-0.683318,0.09988600000000003,0.028921000000000086,-0.92588,0.10808000000000006,0.12661900000000004,0.24256200000000006,0.0,0.9783834003265344,single,-0.683318
71,0.591667,step_acsent,0.1005519558435324,0.020518358531321206,0.034437245020402574,-0.2931917575538068,-0.3377403851081161,-0.32242277600086955,0.9096472282217425,0.09767218622509902,1.8311735061194927,0.0040796736261072995,-0.0029997600192047716,-0.0027597792176628283,2.0720691756998555,-11.764624917012215,-14.87510093989015,-48.956740807114485,26.882318313808177,-26.478109858824652,0.08633779946337085,1.1375976962758654,-0.2015521977363215,-0.00145099999999998,-0.097055,-0.668344,0.099082,0.028725,-0.9261900000000001,0.10053299999999998,0.12578,0.257846,0.0,0.9903882770652739,single,-0.668344
72,0.6,step_acsent,0.08568342733709336,0.08736349453978982,0.4383775351013968,-3.109185377018755,-2.244541914439586,-0.042974240019220525,0.8930757230289231,0.07176287051481973,1.7291491659666551,-0.0004800192007685152,-0.006360254410172833,-0.0028801152046077604,-1.784294792564403,8.021737190503927,48.47477380067178,-1.988660169545123,-3.109242254923739,-12.24341055476281,-0.5471850266261679,-0.4032754579344885,-0.014440896069234752,0.005276999999999976,-0.09718500000000008,-0.657588,0.09836400000000001,0.02794399999999997,-0.929867,0.09308700000000003,0.12512900000000005,0.27227900000000005,0.0,0.9883359147871384,single,-0.657588
73,0.608333,step_acsent,0.07608304332173536,0.025561022440886455,0.09240369614785134,-0.7691447626477864,-0.004755205295391649,-0.40225631384238053,0.968318732749305,0.010920436817480244,1.7707908316332568,0.0004800192007685088,-0.005280211208453596,0.0001200048001921272,-1.152092165529576,-7.4165933156009975,-41.518521415281896,9.029522347339682,-7.301384099044671,4.997199767982897,0.11520921655310452,0.12961036862105274,0.3600288017280541,0.012711999999999946,-0.09730699999999992,-0.643602,0.09773399999999999,0.027687000000000017,-0.930636,0.08502200000000004,0.12499399999999994,0.287034,0.0,0.9911610945261785,single,-0.643602
74,0.616667,step_acsent,0.06875449964002135,0.013318934485251246,0.09383249340052242,-0.7538056693412967,-0.2961729399008273,-0.3145416344757042,0.9820014398848111,-0.06875449964003467,1.7128629709623306,-0.010319174466046434,0.03503719702424666,0.02195824334053236,-0.8793548934142132,-1.4689330400330307,0.1714419549641344,1.6417935127797216,-9.560227556697308,-6.950787217533774,-1.2957995760517165,4.837701971766316,2.6203789945212814,0.02032299999999998,-0.09799100000000005,-0.630109,0.09707500000000002,0.027868000000000004,-0.9312349999999999,0.07675200000000004,0.12585900000000005,0.3011259999999999,0.0,0.92897076134947,single,-0.630109
75,0.625,step_acsent,0.06864274570983014,0.025081003240131267,0.11160446417857836,-0.6665276254431672,0.3792069407757461,-0.5461658712695938,0.971438857554307,-0.08160326413056655,1.6878675147005868,-0.0009600384015370176,-0.0009600384015370176,-0.0038401536061439066,-0.013411008063267428,1.4115047107740275,2.1327218022387933,-1.2675605820837714,-1.5419134154004348,-2.999574734398622,1.123141253391261,-4.319841044735813,-3.0959314708599734,0.027846000000000037,-0.09888000000000008,-0.616974,0.096495,0.02765099999999998,-0.932197,0.06864899999999996,0.12653100000000006,0.31522300000000003,0.0,0.9932115033607434,single,-0.616974
76,0.633333,step_acsent,0.08364334573383604,0.0032401296051841034,0.030241209648376084,-0.2517609386466364,0.2789382873512354,-0.4818354387336586,1.057122284891386,-0.10560422416896535,1.584543381735262,-0.0015600624024876611,-0.002760110404415595,0.00048001920076767607,1.8001440086410458,-2.621009676580712,-9.763981102868348,10.282422577352518,-2.880230413824397,-12.399391931516176,-0.0720057603444907,-0.21601728103666984,0.5184414744883673,0.035957999999999934,-0.09978700000000007,-0.604022,0.09578500000000001,0.027600999999999987,-0.932445,0.059827000000000075,0.12738800000000006,0.328423,0.0,0.9946556305388743,single,-0.604022
77,0.641667,step_acsent,0.11171106311493993,0.030357571394282357,0.1792656587473007,-1.6055782523399769,-0.468481493071152,-0.2079957097839383,1.023038156947454,-0.156347492200618,1.4995200383969345,-0.000479961603072237,-0.004559635229192912,0.0031197504199670426,3.3678566571999102,3.253832708075163,17.881503371601326,-4.089768171818106,-6.088705067392961,-10.201985041796028,0.1296017277916283,-0.21592570491688598,0.31674240691137284,0.043553000000000064,-0.10134299999999996,-0.593019,0.0948500000000001,0.027309999999999945,-0.933913,0.05129700000000004,0.1286529999999999,0.34089400000000003,0.0,0.9907573634042786,single,-0.593019
78,0.65,step_acsent,0.055322212888520676,0.01320052802112733,-0.006600264010550342,0.17555128286573396,0.7437613937045231,-0.48686622250051276,1.0334813392535602,-0.22656906276250965,1.4792991719668698,-0.0009600384015370176,-0.0034801392055616963,0.0,-6.766932704478462,-2.0589275618810694,-22.30480292305895,1.2532320060129782,-8.426925544448741,-2.426601035649181,-0.05761152027658449,0.12954470462393033,-0.37438502579707544,0.05170399999999997,-0.10334100000000002,-0.5806370000000001,0.09438100000000005,0.027170999999999945,-0.9338580000000001,0.042677000000000076,0.13051199999999996,0.353221,0.0,0.9939831157420432,single,-0.5806370000000001
79,0.658333,step_acsent,0.08700348013920345,0.006360254410172833,0.1090843633745285,-0.7141318624537738,-0.22910131288701913,-0.4475384074377964,1.0466818672747014,-0.29413176527062457,1.3811352454098347,0.0010800432017191667,-0.005160206408258207,0.0042001680067203446,3.8019041462478174,-0.8208656679412648,13.882710594633373,1.5841267276060547,-8.10784861491846,-11.780142392540021,0.2448195851741513,-0.2016161289687419,0.5040403224193427,0.059701000000000004,-0.10584500000000008,-0.5700369999999999,0.093665,0.02707499999999996,-0.934732,0.033963999999999994,0.13292000000000004,0.3646950000000001,0.0,0.9887656732909447,single,-0.5700369999999999
80,0.666667,step_acsent,0.07583393328534582,0.002039836813046989,0.0807535397168262,-0.7554926636401655,0.11069225259964767,-0.5082771525447912,1.0166786657067433,-0.33897288216941984,1.3064554835612996,-0.0011999040076739157,-0.004679625629950918,0.0011999040076789112,-1.3402384033906336,-0.5184086389639803,-3.3994268847734683,-3.600096180460508,-5.380503587568387,-8.960854553459866,-0.273571779384817,0.057665080190459087,-0.3600028796545969,0.06754199999999999,-0.10868699999999998,-0.559822,0.09302299999999997,0.027019000000000015,-0.935395,0.025480999999999976,0.135706,0.37557299999999993,0.0,0.9917036763008196,single,-0.559822
81,0.675,step_acsent,0.08400336013439577,-0.019320772830909164,0.09660386415455914,-0.5849937918782132,-0.21189815986473115,-0.43637133100771835,1.0350414016560612,-0.42373694947797147,1.2728909156366242,0.0009600384015370176,-0.0036001440057571543,0.004920196807872219,0.9803704367034579,-2.56337569230242,1.9021150171286307,2.2036164585764846,-10.172094960824586,-4.0279092673317285,0.2592034572436006,0.12954297662231595,0.44645299414296075,0.07546700000000006,-0.11205699999999996,-0.55002,0.09233100000000005,0.027150000000000007,-0.936159,0.01686399999999999,0.13920699999999997,0.386139,0.0,0.9897136758505378,single,-0.55002
82,0.683333,step_acsent,0.07668306732270035,-0.014760590423615187,0.09096363854554702,-0.5842108341248284,-0.11381919051320984,-0.4506842655284217,1.0189607584303364,-0.46969878795153247,1.1580463218528838,0.0009600384015370304,-0.0020400816032695203,0.0031201248049920177,-0.8784702762145077,0.5472437786264274,-0.6768541472473502,-1.9297543772620815,-5.51564124247707,-13.781902530150173,1.5352916879070045e-15,0.1872149768975937,-0.21601728103686757,0.08331899999999992,-0.11584800000000006,-0.541128,0.0917,0.027255999999999947,-0.936891,0.008381000000000083,0.143104,0.395763,0.0,0.9935841373925527,single,-0.541128
83,0.691667,step_acsent,0.09995200383968877,0.007919366450685144,0.0752339812815022,-0.60125702421237,0.04621089975715679,-0.43688083987755555,1.0304775617950532,-0.5293976481881375,1.0785937125029945,-0.0002399808015427761,-0.002879769618420062,0.0038396928245745146,2.7920490181171407,2.721377114746839,-1.8874078790550397,1.3819058512979054,-7.163290165179335,-9.533550437951606,-0.14399078510676713,-0.1007545014579476,0.08634125504949501,0.09107399999999999,-0.12032600000000004,-0.5327660000000001,0.09086499999999997,0.027166000000000023,-0.937486,0.00020900000000001473,0.14749200000000007,0.40471999999999997,0.0,0.9919906469904497,single,-0.5327660000000001
84,0.7,step_acsent,0.1054842193687713,0.0289211568462664,0.028681147245888803,-0.37802394132771283,0.7304783824818656,-0.450378217565306,1.0616824672987075,-0.6506660266410628,0.9741989679587223,-0.0016800672026831415,-0.002880115204611091,0.0009600384015361976,0.6638924191866761,2.5203156600961774,-5.586563546815532,3.744738449976548,-14.5527875258522,-12.527870460131187,-0.17281728082807857,-4.147200180355211e-05,-0.3455723536587475,0.09904200000000007,-0.1259889999999999,-0.5248870000000001,0.08997200000000005,0.026901000000000064,-0.937717,0.009070000000000022,0.15288999999999997,0.4128299999999999,0.0,0.9942170357635101,single,-0.5248870000000001
85,0.708333,step_acsent,0.10068402736109812,0.0322812912516589,0.06372254890194959,-1.0238703731113215,0.4021504116774115,-0.46408585361023763,0.9737189487579408,-0.6411856474259061,0.8527541101644032,-0.003960158406343528,-0.0033601344053795614,0.0010800432017274793,-0.5760460827640893,0.4032322579374156,4.2051364041834445,-10.556044466670624,1.137691013459332,-14.573965893953993,-0.2736218893148179,-0.057604608276547266,0.014401152069036501,0.106317,-0.13160100000000008,-0.518312,0.08909999999999996,0.02660399999999996,-0.9382389999999999,0.017217000000000038,0.15820500000000004,0.41992699999999994,0.0,0.991158831911144,single,-0.518312
86,0.716667,step_acsent,0.08999280057595664,0.06803455723541875,0.10967122630189145,-1.227837931158951,1.02486070721441,-0.6891293246818935,0.9658027357811269,-0.7243820494360347,0.7631389488840873,-0.0035997120230350688,-0.00455963522917953,0.0027597792176628283,-1.2828445866500355,4.290048714154017,5.513400215975704,-0.9498695676522602,-9.982769619645781,-10.752959116908471,0.043250105988535736,-0.14392858456922958,0.20155219773642144,0.11361599999999994,-0.13820500000000002,-0.5128659999999999,0.08831999999999995,0.025998999999999994,-0.9391299999999999,0.025295999999999985,0.16420400000000002,0.426264,0.0,0.9892807829107664,single,-0.5128659999999999
87,0.725,step_acsent,0.06900276011040411,0.046201848073919624,0.06876275051002652,-0.9452805596741746,0.4666647589733081,-0.6980225903054718,0.938917556702283,-0.760470418816764,0.6498259930397279,-0.0034801392055617427,-0.004920196807867288,0.0002400096003842576,-2.51890561209081,-2.620029900575942,-4.90921346356238,-3.226350543483025,-4.330777556789832,-13.598098625268264,0.014349312069282033,-0.04326912020733965,-0.3023844494514093,0.120865,-0.14492700000000003,-0.508024,0.08771600000000002,0.025573000000000068,-0.939701,0.033148999999999984,0.1705000000000001,0.431677,0.0,0.9899477324108062,single,-0.508024
88,0.733333,step_acsent,0.26101044041762017,-0.22860914436576582,-0.20232809312371994,3.1796691934891244,-0.6869326969229121,0.2527870880508031,0.9171966878675055,-0.8477139085563338,0.5469818792751695,-0.005280211208453596,-0.005880235209417563,0.0003600144005755489,23.041843310598253,-32.978638238291644,-32.53220252415041,-2.6066085245142734,-10.469637554250497,-12.341787323239883,-0.21601728103826306,-0.11520921655469477,0.014401152069037656,0.12633299999999992,-0.15008600000000005,-0.50178,0.08549699999999993,0.027428999999999926,-0.9380120000000001,0.04083599999999998,0.17751499999999998,0.43623200000000006,0.0,0.9868146328062155,single,-0.50178
89,0.741667,step_acsent,0.08399328053754822,0.0037197024238065065,0.14854811615070415,-1.2070513767597015,-0.4070678934160532,-0.24497502119964162,0.9233261339092934,-0.9269258459323285,0.4773218142548601,-0.006119510439167692,-0.0035997120230351165,0.0009599232061436414,-21.24035995681221,27.877231436233938,42.10177697077347,0.7354746870395877,-9.504672111350516,-8.358539119307633,-0.1007078510576074,0.2736408910946076,0.07198329800433118,0.133328,-0.15784200000000004,-0.49904,0.08474599999999999,0.027367999999999948,-0.939242,0.048582000000000014,0.18520999999999999,0.44020200000000004,0.0,0.9880594310546915,single,-0.49904
90,0.75,step_acsent,0.007800312012478276,-0.019800792031690995,0.08988359534381334,-1.532249148936161,0.5383196523799554,-0.9314917170338821,0.9210368414736669,-1.014760590423615,0.413296531861273,-0.005400216008635731,-0.003000120004806511,0.0006000240009598033,-9.143521963886911,-2.82257223754919,-7.04002409779078,-0.2747260813184289,-10.540590962592837,-7.683341220879251,0.0863187844152115,0.07195392034424614,-0.04318963220734869,0.14093800000000012,-0.16613299999999998,-0.496345,0.08463600000000004,0.027507999999999977,-0.939986,0.056302000000000074,0.19364099999999995,0.443641,0.0,0.9896555057874445,single,-0.496345
91,0.758333,step_acsent,0.07440297611905225,-0.049321972878907654,0.236649465978635,-1.1648615535094595,-1.4078038269753421,-0.10601250277912724,0.8972758910356324,-1.0351614064562566,0.3074522980919234,-0.006000240009599698,-0.0004800192007551856,0.0002400096003842544,7.992639398364778,-3.5426834090023442,17.612608980537747,-2.851428109688516,-2.4481958517510582,-12.701816124966896,-0.07200576034608958,0.30242419345389593,-0.04320345620731399,0.147795,-0.17434800000000006,-0.49575499999999995,0.08396599999999999,0.027915000000000023,-0.941956,0.06382900000000002,0.20226300000000008,0.44620100000000007,0.0,0.9899596780687167,single,-0.49575499999999995
92,0.766667,step_acsent,0.16570674346051997,-0.16150707943365455,-0.3496520278377716,3.149289232219161,0.8929648271269384,-0.36093857694166287,0.8266138708903242,-1.1129109671226272,0.20770338372930075,-0.0045596352291795905,-0.0007199424046150163,-0.0005999520038394636,10.955575634925395,-13.461135895698048,-70.35055121387208,-8.478764116307728,-9.329200943889003,-11.968912210537946,0.17285874495081785,-0.028788481384669076,-0.1007873295204851,0.15330299999999997,-0.1822769999999999,-0.49111,0.08254700000000004,0.02925500000000003,-0.939047,0.07075599999999993,0.21153199999999994,0.447937,0.0,0.9922417547631122,single,-0.49111
93,0.775,step_acsent,0.12240489619584984,-0.027361094443778353,0.0780031201248094,-0.639068028243354,0.005144709911785623,-0.2723738642110589,0.8201128045121778,-1.1491659666386642,0.13248529941197518,-0.0033601344053795614,0.0006000240009639668,0.004800192007680092,-5.196429528941552,16.09816212527009,51.320670582332795,-0.7801591717444348,-4.350773972883344,-9.026531179326204,0.1439458566902705,0.15840230476166778,0.6480432031104684,0.15911699999999995,-0.19162499999999993,-0.49065600000000004,0.08149899999999999,0.02948800000000007,-0.9396570000000001,0.07761799999999996,0.221113,0.44900100000000004,0.0,0.9901832943783251,single,-0.49065600000000004
94,0.783333,step_acsent,0.11268450738029902,-0.034081363254524606,0.017520700828030818,-0.05854250723230199,0.17210824557362292,-0.25587369950735506,0.7965918636745716,-1.2073682947317987,0.08040321612864636,-0.0037201488059526618,0.003360134405379606,0.0008400336013440688,-1.1664933175988128,-0.8064645158701925,-7.258180642839209,-2.8226258055449978,-6.984558753526348,-6.250099997999436,-0.04320345620702072,0.33122649758978334,-0.4752380182810584,0.16481600000000007,-0.20140199999999997,-0.490132,0.08052899999999996,0.02980000000000005,-0.939796,0.08428700000000011,0.23120200000000002,0.44966399999999995,0.0,0.991528533707525,single,-0.490132
95,0.791667,step_acsent,0.1264698824094062,-0.04043676505879879,0.07631389488840473,-0.7574880741935534,-0.19601678779793277,-0.18343847155111537,0.777777777777757,-1.2361411087112977,0.018838492920568398,-0.0037197024238064566,0.0040796736261072995,0.0021598272138233727,1.654112674478892,-0.7625872095361336,7.054618917731397,-2.2575097068411814,-3.452461480621396,-7.387175810904426,5.356157261881068e-05,0.08633779946336549,0.15836256449235586,0.17024399999999995,-0.21136699999999997,-0.49061099999999996,0.07944399999999996,0.03017100000000006,-0.940414,0.09079999999999999,0.24153800000000003,0.449803,0.0,0.9901194949787755,single,-0.49061099999999996
96,0.8,step_acsent,0.08964358574342242,-0.01572062882515201,0.07752310092404088,-0.4341727728113104,0.07354544167973824,-0.277263886357449,0.7477499099964084,-1.2617304692187663,-0.0754830193207714,-0.000120004800195458,0.007680307212282817,0.02328093123724936,-4.419332373212965,2.966054990237211,0.14511052869748542,-3.6034882732927467,-3.0708460947400122,-11.31903423032994,0.43198099407308094,0.4320933140736233,2.5346338681658347,0.1757280000000001,-0.22175,-0.491886,0.07869599999999999,0.030366000000000004,-0.940866,0.09703200000000012,0.252116,0.44898,0.0,0.9591410529551616,single,-0.491886
97,0.808333,step_acsent,0.1437657506300304,-0.04656186247449268,0.03804152166086819,-0.5360724246846789,0.12735950074370742,-0.2642001743353171,0.7344293771750822,-1.3068522740909703,-0.08724348973959437,0.005280211208453667,0.013200528021127506,0.04128165126605067,6.494919583176342,-3.7010960817641845,-4.737979030741997,-1.5985278796743554,-5.414833177991645,-1.4113129027748805,0.6480518431116253,0.662452995181176,2.1601728103685915,0.18064999999999998,-0.23225200000000001,-0.49293000000000003,0.077542,0.030864000000000003,-0.940839,0.10310799999999998,0.263116,0.44790899999999995,0.0,0.9272311631547032,single,-0.49293000000000003
98,0.816667,step_acsent,0.13174946004320073,-0.05039596832254425,0.03191744660427003,-0.336016902085958,-0.09381650998798514,-0.20114887529809522,0.745020398368114,-1.3419726421886113,-0.11267098632108957,0.002159827213818377,0.01967842572593481,0.037317014638828465,-1.4418395232576868,-0.46005589729440144,-0.7348302203741433,1.2708208774936058,-4.214107043153445,-3.0510555053389745,-0.3744161260661466,0.7772855417335321,-0.475718337799637,0.18576099999999984,-0.2430159999999999,-0.494135,0.07646199999999992,0.03144800000000003,-0.940794,0.10929899999999992,0.27446399999999993,0.44665900000000003,0.0,0.9295951218112295,single,-0.494135
99,0.825,step_acsent,0.06192247689907184,-0.02208088323532505,0.03972158886355133,-0.04534853517902579,0.19974138183631365,-0.328550376343718,0.7326293051722168,-1.3224528981159402,-0.19332773310932963,-0.00756030241208746,0.03288131525260998,0.0075603024120966195,-8.379573160221952,3.3979461283114674,0.9365345324950641,-1.4869906631341971,2.342462987240043,-9.679196782460194,-1.1664622135972549,1.5844101196058193,-3.57094830514006,0.1913499999999999,-0.25385199999999997,-0.496077,0.07588300000000003,0.03190599999999999,-0.941062,0.11546699999999988,0.28575799999999996,0.44498499999999996,0.0,0.9423733945061906,single,-0.496077
100,0.833333,step_acsent,0.09588383535341304,-0.04836193447737064,0.031201248049926425,-0.1988809553136658,0.11234867817074658,-0.27550848171267106,0.7311892475699149,-1.3290531621264863,-0.21840873634945165,-0.005640225609026647,0.03204128165126798,0.009480379215168888,4.075526035562349,-3.1538523031375827,-1.0224817969068605,-0.17281382482922347,-0.7920633638000724,-3.009840782445928,0.23041843310462076,-0.10080806448361904,0.23041843310599555,0.19664400000000004,-0.2645240000000001,-0.498157,0.07503700000000002,0.03257599999999994,-0.941243,0.12160700000000002,0.29710000000000003,0.44308600000000004,0.0,0.9435215511888726,single,-0.498157
101,0.841667,step_acsent,0.12814974802015236,-0.051115910727145934,0.03503719702423287,-0.38476848716792633,-0.06902867276417066,-0.2361491475308618,0.7283417326613839,-1.3230141588672781,-0.27141828653707334,-0.0005999520038436186,0.023038156947440425,0.014758819294456105,3.8715997920253273,-0.33045071391591974,0.4602770547523899,-0.3416744550673082,0.7246224213112666,-6.36063717154083,0.6047844498659695,-1.0802885413759884,0.6333621405432177,0.2016460000000001,-0.27512400000000004,-0.5007109999999999,0.07396400000000003,0.033193999999999946,-0.941412,0.12768200000000007,0.308318,0.4407010000000001,0.0,0.9543887390577166,single,-0.5007109999999999
102,0.85,step_acsent,0.11976479059163128,-0.05340213608544735,-0.010920436817467067,-0.04844571514728405,0.10113915588735292,-0.26553682193705863,0.7328693147725811,-1.3223328933157448,-0.3068522740909702,0.003480139205575066,0.007800312012478379,0.014040561622464913,-1.0062351408281718,-0.2743580173168655,-5.515136666470702,0.5433315866071323,0.08175513638945965,-4.25224859641152,0.4896305303514607,-1.8286145367769333,-0.08619436841368035,0.2067549999999999,-0.285698,-0.503177,0.07299500000000003,0.033703999999999956,-0.941204,0.13375999999999988,0.31940199999999996,0.43802700000000006,0.0,0.972609125249434,single,-0.503177
103,0.858333,step_acsent,0.1032041281651228,-0.052322092883714165,-0.009360374414979259,0.003979924211923737,0.1518781913874579,-0.28536405016590516,0.7304692187687688,-1.3252130085203315,-0.32653306132244836,0.00204008160325617,0.002280091203660409,0.002520100804032173,-1.9873589855404314,0.12961036862272698,0.18721497689761207,-0.2880230413791302,-0.34562764965639514,-2.361788939334941,-0.17281382483126004,-0.6624529951779607,-1.3825105986358683,0.21198200000000011,-0.296305,-0.5058199999999999,0.072152,0.03415900000000005,-0.941105,0.13983000000000012,0.33046400000000004,0.43528500000000003,0.0,0.9933936779211464,single,-0.5058199999999999
104,0.866667,step_acsent,0.04619630429565286,-0.024358051355886055,0.07427405807535874,-0.46774925333825895,0.06871184759712537,-0.362682617740302,0.7997360211183057,-1.242020638348939,-0.3416126709863283,0.00011999040077138965,-0.002159827213831727,-0.004199664026877911,-6.840391633005791,3.355416550015391,10.035329072514816,8.311351373834563,9.98228583770015,-1.8094084069930443,-0.2303925128971432,-0.5327475902918359,-0.8063072751272045,0.21826200000000007,-0.30645300000000003,-0.5092860000000001,0.07176800000000005,0.03434399999999993,-0.941759,0.146494,0.34079699999999996,0.4324729999999999,0.0,0.9921266219962215,single,-0.5092860000000001
105,0.875,step_acsent,0.09288371534861985,-0.043321732869321276,0.02664106564261893,-0.264090413083657,0.1383255955215475,-0.3680687762992067,0.6885875435017397,-1.2530901236049399,-0.41077643105723505,0.0002400096003775928,-0.0012000480019146104,-0.00972038881555231,5.602713434893412,-2.275732810924654,-5.716187739438331,-13.338350848021785,-1.3283913663747613,-8.299983207837087,0.014402880067947035,0.1151781125545557,-0.6625134751799323,0.22322600000000004,-0.316534,-0.512931,0.07099599999999995,0.03469500000000003,-0.942062,0.1522300000000001,0.351229,0.42913099999999993,0.0,0.9836714566087577,single,-0.512931
106,0.883333,step_acsent,0.08532341293651917,-0.06924276971078078,-0.004080163206525663,0.08571722249165968,0.13468713464293708,-0.3294019907599935,0.7166686667466509,-1.2289691587663456,-0.420496819872794,-0.008280331213246783,-0.07512300492019834,-0.1045241809672387,-0.9072725803552918,-3.110648846929004,-3.6866949296945233,3.3698695841726956,2.894631565893936,-1.1664933175997765,-1.0224817969067972,-8.871109674580993,-11.376910134607703,0.22848699999999988,-0.32619800000000004,-0.516401,0.07021599999999995,0.034645999999999955,-0.942899,0.15827099999999994,0.360844,0.42649800000000004,0.0,0.7850236824405401,single,-0.516401
107,0.891667,step_acsent,0.11867050635949403,-0.06443484521238454,-0.010559155267575893,-0.009959942415153931,0.1711118896892171,-0.30574684163520227,0.6897048236141251,-1.2090232781377594,-0.42596592272618405,0.004079673626107353,-0.0026397888168906425,-0.012239020878329555,4.001331104268664,0.5769047874245572,-0.7774168539777138,-3.2354023437156116,2.3933142102935285,-0.6562398432193497,1.4830819341677712,8.697290149185038,11.073333344001641,0.23324599999999995,-0.33573700000000006,-0.519863,0.0692609999999999,0.035161,-0.942913,0.16398500000000005,0.37089800000000006,0.42305000000000004,0.0,0.9780527239127796,single,-0.519863
108,0.9,step_acsent,0.14124564982599047,-0.05580223208928918,-0.03600144005761151,-0.012507505431628482,0.19237461139587947,-0.232568093713938,0.6878675147005936,-1.1629665186607356,-0.4468978759150353,0.007440297611905225,-0.006600264010563665,-0.004320172806912415,2.709125581002802,1.0359550129719584,-3.0531963026563673,-0.22048588905934266,5.527032218531575,-2.5119348600565443,0.4032910099361403,-0.475276034282132,0.9502997805612752,0.23780100000000004,-0.34496299999999996,-0.523287,0.06814599999999993,0.03557100000000002,-0.942649,0.1696550000000001,0.380534,0.419362,0.0,0.9819271991775509,single,-0.523287
109,0.908333,step_acsent,0.18552742109683792,-0.055562222488899006,-0.04140165606623447,0.07935867170306553,0.2985172726296027,-0.30274351453638004,0.6665066602663972,-1.1165246609864539,-0.4671786871474944,0.006840273610954672,-0.0072002880115277276,0.0045601824072967305,5.3140251135062835,0.028802304138986757,-0.6480518431084858,-2.5634050683063285,5.5732458507478935,-2.433794699683097,-0.07200576034448072,-0.07200576034610198,1.0656852531152319,0.24180899999999994,-0.353804,-0.526835,0.06665700000000008,0.03597399999999995,-0.942266,0.17515199999999986,0.38977799999999996,0.415431,0.0,0.9817860894041661,single,-0.526835
110,0.916667,step_acsent,0.01523878089752667,-0.0622750179985653,0.017398608111345047,0.2243931180282694,0.39327784236372443,-0.6307204696447182,0.6400287976962,-1.054835613150939,-0.47312215022797505,0.0009599232061444612,-0.007319414446841525,-0.0004799616030722306,-20.433002183742495,-0.8054710234780711,7.055467263928374,-3.1770893412763295,7.402093572775893,-0.7131585169763156,-0.7055856017290816,-0.0142940287153584,-0.6047688997322921,0.24701600000000012,-0.36207599999999995,-0.530923,0.0665380000000001,0.03643200000000002,-0.942415,0.18047800000000003,0.398508,0.41149199999999997,0.0,0.9876705362436661,single,-0.530923
111,0.925,step_acsent,0.09204368174727828,-0.0754830193207714,0.00972038881555231,-0.20688991611142052,-0.026079636292497845,-0.20406196046257058,0.6198247929917008,-1.0632425297011812,-0.4167766710668414,0.001440057602292203,-0.006360254410172749,-0.0013200528021117337,9.216956780241365,-1.5850235596071087,-0.9214231724220215,-2.4245775476418037,-1.0088703408426767,6.761727968454746,0.05761843227501979,0.11510380855259476,-0.1008149764837993,0.2514139999999999,-0.37030699999999994,-0.534477,0.06578299999999992,0.03700800000000004,-0.942507,0.185631,0.407315,0.40803,0.0,0.9889108234124435,single,-0.534477
112,0.933333,step_acsent,0.07524300972038149,-0.07488299531980842,0.009240369614783925,-0.12221023616670908,0.07607843322514071,-0.3328374399119589,0.5936637465498716,-0.9932797311892607,-0.41041641665666745,0.00036001440058637876,-0.005280211208453667,-0.005640225609024225,-2.016161289679221,0.07200576034597095,-0.057604608276537725,-3.139451151065569,8.395871656296782,0.7632610596632687,-0.1296103686194449,0.12961036862103592,-0.5184414744884831,0.255734,-0.37796,-0.537974,0.06515900000000008,0.037587999999999955,-0.942631,0.19057499999999994,0.415548,0.40465700000000004,0.0,0.987109177931653,single,-0.537974
113,0.941667,step_acsent,0.10463162946965301,-0.07715382769377781,-0.005039596832251761,-0.1251278562771344,0.06597652022644614,-0.31248094183943936,0.5765538756899342,-0.96520278377729,-0.3648908087353003,-0.0005999520038436186,-0.004919606431480372,-0.0075593952483801385,3.5263522617316174,-0.2724780866293936,-1.7134588969325146,-2.05302026157155,3.3689641723026806,5.462635939688844,-0.1151867535913115,0.04326911170785836,-0.23028193416797446,0.25966699999999987,-0.38536100000000006,-0.5409729999999999,0.06428199999999995,0.038189999999999946,-0.9426519999999999,0.19538499999999992,0.423551,0.401679,0.0,0.9849346860518007,single,-0.5409729999999999
114,0.95,step_acsent,0.0703228129125142,-0.08592343693748428,-0.04464178567143194,0.20324990137701246,0.1805120755624291,-0.32014300361787285,0.5514220568822955,-0.9321972878915239,-0.3294131765270638,0.0008400336013415707,-0.007200288011514404,-0.004080163206528215,-4.117222675763726,-1.0523952050529881,-4.752452758812018,-3.015938894472451,3.960817939009525,4.257486164434992,0.1728051848296175,-0.27369273731357885,0.4175245460040748,0.263676,-0.392413,-0.5433459999999999,0.06370299999999995,0.03884600000000005,-0.942314,0.19997300000000007,0.43125900000000006,0.3989680000000001,0.0,0.9861358239724693,single,-0.5433459999999999
115,0.958333,step_acsent,0.09240369614783801,-0.0874834993399708,-0.018480739229567604,0.005053466242943947,-0.00353100549255096,-0.3192925230733219,0.533541341653658,-0.8793951758070288,-0.31741269650786,0.0003600144005730508,-0.009840393615747768,-0.0028801152046085544,2.649811980718075,-0.1872149768974572,3.1394511510697503,-2.1457716583028286,6.336506910415808,1.4401152069127248,-0.05760460827655322,-0.31682534552182323,0.1440115206911863,0.26735200000000003,-0.39901200000000003,-0.5458369999999999,0.06293599999999999,0.039493,-0.9421839999999999,0.20441600000000004,0.43850500000000003,0.396347,0.0,0.982900778081925,single,-0.5458369999999999
116,0.966667,step_acsent,0.05579553635709685,-0.10715142788577224,-0.033717302615787564,0.361707335421413,0.1931812752550703,-0.3762654685514033,0.5058795296376248,-0.8218142548596042,-0.28065754739620374,-0.0017998560115175344,-0.010439164866817684,-0.002399808015358655,-4.392627764667733,-2.3599626284858766,-1.8282413470386183,-3.3191519097711684,6.909157781068402,4.410265072192945,-0.25916371635355995,-0.07184680238419867,0.05763225212981709,0.271103,-0.404968,-0.547895,0.062455999999999956,0.040298999999999974,-0.941923,0.20864700000000003,0.44526699999999997,0.39402799999999993,0.0,0.9818973050433724,single,-0.547895
117,0.975,step_acsent,0.07404296171846686,-0.09288371534860776,-0.02700108004320566,0.11597594326855074,0.03351552091971061,-0.28229814951721366,0.4624984999400047,-0.7790711628465207,-0.19740789631585534,-0.0034801392055617427,-0.010800432017271606,-0.0008400336013440688,2.1897786345098016,1.7121939922194422,0.8059789478677504,-5.205931800986504,5.12937621661874,9.990357743951657,-0.20164204896726554,-0.04335379220615929,0.18718041689842801,0.27434000000000003,-0.41068600000000005,-0.549315,0.06181000000000003,0.04098299999999999,-0.9417049999999999,0.21253,0.45166900000000004,0.3923899999999999,0.0,0.9810361193389776,single,-0.549315
118,0.983333,step_acsent,0.0944437777511075,-0.07428297131885679,-0.024720988839544895,-0.08496511526501604,0.0558638973519389,-0.34477875100589106,0.42925717028680266,-0.7148685947437856,-0.23724948997959897,-0.0037201488059526123,-0.008880355214210751,-0.004920196807872219,2.448195851750937,2.2321785707129354,0.2736218893148635,-3.989119123149153,7.704616356982454,-4.781182486948693,-0.028802304139069798,0.23041843310462587,-0.48963917035018995,0.27713,-0.416024,-0.551086,0.060992000000000046,0.04152800000000001,-0.94154,0.21613799999999994,0.457552,0.3904540000000001,0.0,0.9819792902703902,single,-0.551086
119,0.991667,step_acsent,0.09767218622510032,-0.09011279097672924,-0.05159587233021885,0.24379544467215594,0.11270031389023075,-0.3210938184226595,0.41012718982483354,-0.675785937125037,-0.19582433405327954,-0.0035997120230351165,-0.009239260859130571,-0.00443964482841403,0.38737802663700954,-1.8994264048323177,-3.2247280406376424,-2.2954140223145223,4.689543750749802,4.970621061473442,0.014451257849471624,-0.04306523217180494,0.057661624605014616,0.27973400000000015,-0.420905,-0.552288,0.06014800000000009,0.04220200000000007,-0.941147,0.21958600000000006,0.46310700000000005,0.38885899999999995,0.0,0.9818928870579735,single,-0.552288
120,1.0,step_acsent,0.09276371054842439,-0.09816392655706012,-0.04104164166566087,0.12233638739255479,-0.016899762240276287,-0.34005801579259404,0.3687747509900238,-0.633865354614183,-0.19248769950797884,-0.0034801392055750194,-0.008640345613833159,-0.0009600384015361848,-0.5890406428268226,-0.9661749166363672,1.266558342080636,-4.9624911598235375,5.0306711281475796,0.4004121619225591,0.0143493120676943,0.07187270434386299,0.4175694740042998,0.282034,-0.425369,-0.55355,0.05934600000000001,0.042947999999999986,-0.940813,0.222688,0.468317,0.387263,0.0,0.9843929667787341,single,-0.55355
121,1.008333,step_acsent,0.1023640945637826,-0.08484339373575178,-0.03744149765990421,0.10211325034689431,0.01272862955088511,-0.30163018610635867,0.3295331813272459,-0.633745349813996,-0.2136085443417761,-0.004200168006721177,-0.00756030241208746,-0.003720148805951829,1.152092165529618,1.598527879672202,0.4320345620732859,-4.709176726602458,0.014401152068527028,-2.53460276416626,-0.0864069124140363,0.12961036862422998,-0.33122649758978395,0.28392699999999993,-0.42994299999999996,-0.555018,0.05845800000000001,0.043592000000000075,-0.940532,0.22546899999999992,0.47353500000000004,0.385514,0.0,0.9843086107313133,single,-0.555018
122,1.016667,step_acsent,0.10631149508039917,-0.06623470122390121,-0.07487401007920137,0.19473491006044968,0.23210889339102295,-0.2961987213483386,0.2758579313654948,-0.5728341732661344,-0.26469882409406875,-0.003839692824577845,-0.007319414446854847,-0.003359731221502284,0.473650169980385,2.2328644722642705,-4.49154216694227,-6.440514754229745,7.308756485224518,-6.130343142823647,0.04325356157227377,0.02890424348843426,0.043246650401912945,0.2853399999999999,-0.43416499999999997,-0.5566,0.057539999999999925,0.04408299999999998,-0.939936,0.2278,0.47824799999999995,0.383336,0.0,0.9851297404647286,single,-0.5566
123,1.025,step_acsent,0.10572422896916221,-0.07344293771750288,-0.04248169926796696,0.021809775638605592,-0.01996895535355921,-0.25616224989271014,0.25873034921397653,-0.54566182647306,-0.23772950918037064,-0.003120124804988687,-0.0057602304092088585,-0.0014400576023038802,-0.07047475233852857,-0.8650229801514139,3.8872327866596317,-2.0553920738651663,3.260812047650857,3.2364472475337043,0.08635161641535634,0.18710956890027636,0.23037004910577477,0.28661499999999995,-0.4381,-0.558227,0.05663299999999993,0.04464699999999999,-0.939594,0.22998200000000002,0.482747,0.381367,0.0,0.9888210019501058,single,-0.558227
124,1.033333,step_acsent,0.11076443057720868,-0.09072362894515369,-0.058802352094081585,0.1902216473480886,0.13971026641830947,-0.2918356750891303,0.22260890435616315,-0.5282611304452106,-0.23664946597863185,-0.0028801152046110143,-0.004800192007685024,-0.005400216008640655,0.6048483869010417,-2.07376589795398,-1.958556681400977,-4.334746772808442,2.088167050023897,0.1296103686233981,0.02880230413748572,0.11520921655152024,-0.47523801828113593,0.287547,-0.441746,-0.559709,0.05568600000000001,0.04536299999999993,-0.939149,0.23186099999999998,0.48710899999999996,0.37944,0.0,0.9870364571197988,single,-0.559709
125,1.041667,step_acsent,0.12419006479481975,-0.06839452843773473,-0.05735541156707314,0.005056557960222628,0.15574986057416426,-0.2243614992333385,0.19126469882410915,-0.5109191264698902,-0.24874010079194037,-0.003959683225336017,-0.0034797216222637734,-0.006359491240700564,1.6109472303349326,2.6792777186728323,0.1736189737231188,-3.7610037835438677,2.0808740071179153,-1.450760116787707,-0.1295377994630457,0.15844377074889313,-0.11510381954162788,0.2881060000000001,-0.44543399999999994,-0.561304,0.054618000000000055,0.045904000000000056,-0.938724,0.23348800000000003,0.491338,0.37742,0.0,0.9862330223346262,single,-0.561304
126,1.05,step_acsent,0.1405256210248425,-0.07752310092402653,-0.05472218888755598,0.03513020645390303,0.023271676212783327,-0.19015910250215456,0.14712588503539276,-0.46033841353653415,-0.28753150126004645,-0.0028801152046110143,-0.0032401296051840604,-0.0015600624024959674,1.9603451614091523,-1.095472517255687,0.3159993615165146,-5.296869529427052,6.06992834913659,-4.655154262343142,0.12955334462078286,0.028752192137250537,0.5759544987644921,0.288161,-0.448624,-0.5632440000000001,0.053423,0.04652299999999998,-0.938281,0.234738,0.495147,0.37503699999999995,0.0,0.992321151317869,single,-0.5632440000000001
127,1.058333,step_acsent,0.08448337933517873,-0.0969638785551468,-0.017040681627275626,0.1675532871303354,-0.04295342791600994,-0.3335560228641615,0.12324492979720636,-0.38497539901596944,-0.34789391575663164,-0.0021600864034516565,-0.0032401296051841467,-0.0003600144005763864,-6.725338016280366,-2.332986635199862,4.521961749703673,-2.865829261752864,9.043923499407825,-7.24377949076992,0.08640691241562035,-1.0356713420118438e-14,0.14401152069117867,0.2884840000000001,-0.45102400000000004,-0.566001,0.052701,0.04730400000000001,-0.9381419999999999,0.23578300000000008,0.49832800000000005,0.37214099999999994,0.0,0.9934820709881236,single,-0.566001
128,1.066667,step_acsent,0.07343412526997135,-0.09119270458363056,-0.03275737940964311,0.38347216415340196,0.14957341589955128,-0.2481970878961125,0.1119510439164679,-0.3610511159107225,-0.32277417806575537,-0.002639788816903929,-0.003119750419962838,-0.001679865610751142,-1.3258044234709974,0.6924854777437248,-1.885852865654831,-1.35515789305716,2.8706843178841837,3.014127392713713,-0.05755968483948512,0.014444346678822623,-0.15836947566291643,0.288805,-0.45327300000000004,-0.568418,0.052066999999999974,0.048038000000000025,-0.937883,0.236738,0.5013110000000001,0.36946500000000004,0.0,0.9926358080795399,single,-0.568418
129,1.075,step_acsent,0.17340693627745624,-0.09396375855034025,-0.06600264010559756,0.08439495065457399,0.03739467257845943,-0.063880826205311,0.10392415696628361,-0.32965318612744804,-0.32617304692187965,-0.001800072002878601,-0.0022800912036604394,-0.0006000240009598112,11.99721720958668,-0.3325397775962702,-3.9895908671492566,-0.9632649646207083,3.76790229008457,-0.4078805779580359,0.1007700484849797,0.10076313648174803,0.12958617662202576,0.288226,-0.45523700000000006,-0.570586,0.05060699999999996,0.0488019999999999,-0.937338,0.23761900000000002,0.5040389999999999,0.36675199999999997,0.0,0.9950561194070389,single,-0.570586
130,1.083333,step_acsent,0.09996399855993737,-0.10080403216129223,-0.012360494419785605,0.12310766254957234,-0.008529419420308075,-0.24333094613671255,0.08520340813632257,-0.26305052202087287,-0.36145445817832256,-0.0032401296051840604,-0.001800072002878553,-0.0010800432017282976,-8.813505066304762,-0.8208656679409405,6.437314974896317,-2.2465797227841966,7.992639398364815,-4.233938708321408,-0.1728138248296453,0.05760460827815647,-0.057604608276548425,0.288103,-0.45658899999999997,-0.573495,0.049746999999999986,0.04962699999999998,-0.937244,0.238356,0.506216,0.363749,0.0,0.9935654594415209,single,-0.573495
131,1.091667,step_acsent,0.09599232061435543,-0.11171106311495474,-0.031317494600427244,0.25817897561142306,0.12563428726443143,-0.14271474407353074,0.06419486441084261,-0.25329973602112665,-0.333933285337177,-0.0008399328053730955,-0.0010799136069025565,0.0017998560115192474,-0.47656322841156884,-1.3087390153183005,-2.274658049033117,-2.5208235811711495,1.170000719911975,3.3022765588128276,0.2880005759312468,0.08641209454955727,0.3455602607688505,0.2878379999999999,-0.457769,-0.576017,0.048939999999999984,0.050549000000000066,-0.936968,0.23889799999999994,0.508318,0.360951,0.0,0.9962320127027089,single,-0.576017
132,1.1,step_acsent,0.10680427217089186,-0.09768390735629032,-0.04032161286451423,0.35560249173364833,0.18500192245220512,-0.10407465576844575,0.046801872074895674,-0.23868954758189467,-0.39577583103323716,-0.0020400816032561425,-0.0013200528021100508,0.002400096003840014,1.2974860862277977,1.6833260240806645,-1.080537413186947,-2.087242570016397,1.7532927444175836,-7.421402339620677,-0.14402361669063074,-0.028817856139144386,0.07203168034570454,0.287338,-0.45894399999999996,-0.578979,0.04803299999999999,0.051352000000000064,-0.936612,0.239305,0.5102960000000001,0.357633,0.0,0.9943076725186071,single,-0.578979
133,1.108333,step_acsent,0.10164406576262316,-0.10668426737069925,0.0043201728069166365,0.12895706816962577,-0.03506055464958472,-0.1545961484605801,0.029761190447621294,-0.1806072242889773,-0.3558142325693055,-0.0036001440057705256,-0.0004800192007685152,-0.0007200288011519401,-0.6192495389738083,-1.080086405185289,5.357228569714541,-2.044963593816697,6.970157601454207,4.795583639017403,-0.18721497690080371,0.10080806448356454,-0.3744299537971898,0.2867390000000001,-0.45955999999999997,-0.58198,0.047155999999999976,0.05223700000000009,-0.9366540000000001,0.2395830000000001,0.5117970000000001,0.35467400000000004,0.0,0.9938288537059149,single,-0.58198
134,1.116667,step_acsent,0.06551475881929952,-0.10895128389727646,-0.011639068874491601,0.35083797179766374,0.13877851071604694,-0.16322476025203816,0.028917686585065258,-0.13834893208543392,-0.3646508279337642,-0.002159827213818377,-0.0011999040076872372,-0.0015598752099830842,-4.3351700195972365,-0.27202022157153727,-1.9149558053045497,-0.10121236651740215,5.070589417271785,-1.060306619205498,0.17282418909912856,-0.08637926648892687,-0.10077350717916218,0.28643399999999997,-0.4598050000000001,-0.584922,0.04659199999999997,0.05313499999999993,-0.93657,0.239842,0.51294,0.35164799999999996,0.0,0.9951300713295396,single,-0.584922
135,1.125,step_acsent,0.10392415696627029,-0.11760470418817963,0.0045601824072942325,-0.03160211089731166,0.005226251145239751,-0.05668386034941143,0.025561022440900118,-0.09936397455898272,-0.3692547701908106,-0.002400096003842576,0.0003600144005730556,-0.0008400336013440688,4.609312150122539,-1.0384519729873096,1.9439879133308513,-0.4028158099322178,4.678382038455726,-0.5524951706524005,-0.028833408139229702,0.1871976968991128,0.08638444841461922,0.28578100000000006,-0.459653,-0.588037,0.045706000000000024,0.054118,-0.936615,0.24007500000000004,0.513771,0.34857799999999994,0.0,0.9957196418738653,single,-0.588037
136,1.133333,step_acsent,0.09288371534862108,-0.10476419056762518,-0.015720628825152218,0.2583835988659618,0.21436296825506515,-0.011488431525708918,0.01092043681748039,-0.09180367214688194,-0.3130925237009476,-0.001560062402487682,-0.0014400576023055455,0.00048001920076768247,-1.3249059903575313,1.5409232713974044,-2.4337946996815836,-1.7569405524324808,0.9072725803553155,6.739739168350357,0.10080806448516762,-0.21601728103667558,0.15841267276032203,0.2850980000000001,-0.4595449999999999,-0.590515,0.04491900000000004,0.054979,-0.93648,0.24017900000000003,0.514524,0.34596499999999997,0.0,0.9963721834579035,single,-0.590515
137,1.141667,step_acsent,0.10031197504198962,-0.11363090952722738,-0.02027837772977843,0.14264306848296357,0.085308200742938,-0.0201262783974113,-0.00767938564915569,-0.05543556515478935,-0.25953923686105224,-0.0004799616030722306,-0.0016798656107461464,-0.0007199424046075133,0.8913198576156083,-1.063921161459339,-0.5468861176657279,-2.231800151984154,4.363823733152426,6.425880350359365,0.12960172779162984,-0.02877465904014867,-0.1439838739351076,0.28419800000000006,-0.45906,-0.5925090000000001,0.04407900000000009,0.05591199999999996,-0.9363170000000001,0.24011899999999997,0.514972,0.343808,0.057492340560964805,0.9968506487984987,single,-0.5925090000000001
138,1.15,step_acsent,0.07968318732749358,-0.14184567382695634,0.00756030241208746,0.3459373804490137,0.0943418859711443,-0.05186590333107418,-0.039001560062391895,-0.018000720028799336,-0.1872074882995344,-0.0001200048001954596,-0.0022800912036471162,-0.0025201008040322066,-2.475553547881463,-3.3859071522535973,3.3407752480338586,-3.75881128203966,4.492361109563225,8.680157033663566,0.0431965442069812,-0.07202995234621089,-0.21602764903692667,0.28320900000000016,-0.458028,-0.594132,0.043414000000000064,0.05707499999999999,-0.9364009999999999,0.2397950000000001,0.515103,0.34226899999999993,0.17987940083169052,0.9943323223667737,single,-0.594132
139,1.158333,step_acsent,0.09756390255610818,-0.13704548181926754,0.0015600624025009636,0.21516254243598537,0.019054853354112535,-0.03937583086655902,-0.07764310572423531,0.04212168486739278,-0.11160446417856355,-0.0006000240009639587,-0.002040081603269466,0.0002400096003842512,2.1457716583000472,0.5760460827659569,-0.7200576034545052,-4.63717096625978,7.214977186630393,9.072725803548485,-0.05760460827654995,0.028802304137483015,0.3312264975898727,0.281749,-0.456535,-0.595075,0.04259599999999997,0.05819999999999992,-0.936412,0.23915300000000006,0.5147349999999999,0.341337,0.26278089928906906,0.9964333464338215,single,-0.595075
140,1.166667,step_acsent,0.05015598752100281,-0.1514278857691396,0.010199184065275181,0.3077077954877412,0.06283393218013707,-0.03662445644577675,0.0003599712023008521,0.049556035517159175,-0.07655387568994289,-0.0008399328053730955,-0.0032397408207343126,0.001439884809215065,-5.688494724634782,-1.7257504139515636,1.0366116705992778,9.359620461547594,0.8920507139148709,4.205734159901768,-0.028786753588809857,-0.14394759028856124,0.14397350717912605,0.281334,-0.45486000000000004,-0.595798,0.04217099999999996,0.059434999999999905,-0.936485,0.23916300000000001,0.514295,0.34068699999999996,0.3480092645495597,0.9939275952121085,single,-0.595798
141,1.175,step_acsent,0.1509660386415408,-0.11628465138605312,-0.004800192007685024,-0.07131716511877424,0.1310246825701965,0.10504248462824822,0.010440417616698273,0.06180247209888139,-0.10980439217568501,-0.0031201248049886037,-0.0020400816032561425,-0.002400096003840014,12.097690042066029,4.217356820243113,-1.799997128640339,1.2097019578059816,1.4696311750536426,-3.9902215871524707,-0.27363398531326877,0.14396486469196557,-0.46081613021180984,0.28016299999999994,-0.45337600000000006,-0.596673,0.04088700000000001,0.06038699999999997,-0.936465,0.23927599999999993,0.513763,0.339792,0.2892766926181811,0.9926105231401716,single,-0.596673
142,1.183333,step_acsent,0.097443897755902,-0.13632545301812507,-0.03756150246009967,0.458690302297468,0.23238199852001074,0.045433047289555724,-0.016200648025920732,0.020160806432257653,-0.03972158886355799,-0.0014400576023055455,-0.00216008640346498,0.0010800432017283265,-6.422913822829627,-2.4049923955444776,-3.9315145148703885,-3.197055759344684,-4.997199767985614,8.410272808367655,0.20161612896712752,-0.014401152071143479,0.41763341000460485,0.279216,-0.45207200000000003,-0.596691,0.04006300000000007,0.06150499999999992,-0.936143,0.23915299999999995,0.513577,0.339452,0.421000637585128,0.9953136627409529,single,-0.596691
143,1.191667,step_acsent,0.1142308615310843,-0.13030957523398407,0.023158147348211814,-0.15109234961311374,0.03429184992855105,0.11718728689645219,-0.0430765538756894,0.021598272138230394,-0.1664266858651261,-0.0032397408207342263,-0.0026397888168906074,0.000839932805375571,2.014274511060977,0.7218475862900119,7.285775114988124,-3.224850713915102,0.17248208614983562,-15.203395368558574,-0.21594471063458928,-0.057559684836287935,-0.028810942686915485,0.27790499999999996,-0.450806,-0.598271,0.03908400000000001,0.06256899999999999,-0.936329,0.23882099999999995,0.5133749999999999,0.33805799999999997,0.2112290574154953,0.9928956404814331,single,-0.598271
144,1.2,step_acsent,0.09588383535341431,-0.13968558742349135,-0.04116164646585688,0.47623936379062587,0.19607457834482228,0.09468720139699384,-0.04908196327851739,0.0836433457338305,-0.10764430577223627,-0.002640105604220172,-0.0045601824072942325,0.00024000960038342487,-2.201731210568842,-1.1251664693996608,-7.718684005048515,-0.7206779554575836,7.4457066597384705,7.054167777857958,0.07195910434586102,-0.23045644910640137,-0.07199366434563202,0.2766970000000001,-0.44894500000000004,-0.5988249999999999,0.03826300000000005,0.06369499999999995,-0.9359839999999999,0.23843400000000003,0.51264,0.337159,0.258519928530959,0.9912087439594304,single,-0.5988249999999999
145,1.208333,step_acsent,0.08808352334093358,-0.13488539541581593,0.017280691227652762,-0.06402479244345192,0.08787286154881695,0.17201306859211432,-0.011640465618626191,0.08868354734189088,-0.12432497299891554,-0.0009600384015370048,-0.0057602304092220285,-0.002400096003840014,-0.9360748844930508,0.5760460827643514,7.0133610576633405,4.493159445564688,0.6048483869027104,-2.0017601376069813,0.2016161289671352,-0.1440115206921607,-0.31682534552062797,0.27586600000000006,-0.44708200000000003,-0.600005,0.03752100000000003,0.06477099999999991,-0.936148,0.23834500000000003,0.5118529999999999,0.33614299999999997,0.24473885419839758,0.9894772219384961,single,-0.600005
146,1.216667,step_acsent,0.1127909767218573,-0.1291096712263136,-0.049676025917930564,0.3449776562227752,0.23542480958124962,0.046938195746267085,0.0031197504199495995,0.0580753539716815,-0.08555315574754413,-0.0016798656107595126,-0.005759539236853599,0.0002399808015361217,2.9646572331322516,0.6930314602234762,-8.034163324404199,1.7710842378900975,-3.672689389274053,4.652245890493418,-0.08637235531827712,8.293404948753916e-05,0.31678387393522744,0.274952,-0.445522,-0.600304,0.036567000000000016,0.06579900000000005,-0.935732,0.23838499999999996,0.511321,0.33542800000000006,0.32758398147389084,0.9899928037731487,single,-0.600304
147,1.225,step_acsent,0.09912396495859582,-0.14472578903155026,0.01740069602784822,-0.01180142847943439,0.0004666001288793319,0.19729287217864688,0.04956198247929791,0.0050402016080626135,-0.06408256330252846,-0.0032401296051840604,-0.009720388815552181,0.003120124804991935,-1.640107015871983,-1.874009096992247,8.049528614637898,5.57329077875285,-6.364472862548657,2.5765741563680904,-0.18723916889769837,-0.4753209622823128,0.3456311056589179,0.274539,-0.44427400000000006,-0.600983,0.035714000000000024,0.06692399999999998,-0.9358510000000001,0.23882499999999995,0.511198,0.33486800000000005,0.3647187224607895,0.9821487957624837,single,-0.600983
148,1.233333,step_acsent,0.05184207368295967,-0.13824552982119914,-0.03408136325453793,0.46891468269032105,0.20536450399906717,0.04563246886378864,0.08448337933517873,-0.0064802592103682935,-0.06264250570023128,-0.0001200048001954596,0.0008400336013415707,0.009240369614784758,-5.674053915232999,0.77766221173061,-6.178094237655901,4.190735252115821,-1.3825105986356667,0.1728138248286562,0.3744299537967874,1.2673013820825452,0.7344587555253665,0.2748109999999999,-0.443176,-0.601221,0.035280999999999896,0.068083,-0.9354899999999999,0.23953000000000002,0.511259,0.3342689999999999,0.32437794159261596,0.9845345826455272,single,-0.601221
149,1.241667,step_acsent,0.15406767458602616,-0.12203023758099807,0.007439404847612913,-0.37955258491065785,0.04735204533638605,0.20229995668172204,0.0869930405567652,-0.02735781137508384,0.017878569714423937,-0.014038876889839432,-0.00455963522917953,-0.01535877129829556,12.266090821102196,1.9456794144709564,4.982093604769681,0.30113525576991224,-2.505105851297743,9.66175610926981,-1.670131040274042,-0.647908426988368,-2.951660776707479,0.27425200000000005,-0.4423869999999999,-0.6011340000000001,0.03388000000000002,0.06906200000000007,-0.93568,0.24037200000000003,0.511449,0.3345459999999999,0.3451175875813886,0.9644967844357495,single,-0.6011340000000001
150,1.25,step_acsent,0.021840873634947456,-0.04164166566662539,-0.16776671066842952,1.0407724472573838,0.3694495070328572,-0.19327060624649725,0.07920316812671174,-0.03432137285491553,0.08388335533421476,-0.005400216008649127,-0.007800312012478379,-0.007200288011521066,-15.867850828162714,9.647014510305223,-21.02557488492068,-0.9348220844898026,-0.8356608040119707,7.920891110019372,1.0366807729737648,-0.3888967698666601,0.9790571566992162,0.2747299999999999,-0.44232599999999994,-0.599037,0.03365299999999993,0.06934400000000007,-0.934342,0.24107699999999999,0.5116700000000001,0.33530499999999996,0.2993931721412335,0.9801497727496258,single,-0.599037
151,1.258333,step_acsent,0.12060482419297286,-0.14988599543981232,-0.013080523220932045,-0.08818718598317389,0.15381181197138552,0.17282603191576706,0.043441737669503995,-0.011880475219010759,0.06300252010080433,-0.011400456018235581,-0.005400216008649127,-0.006720268810752551,11.852148152889272,-12.989839166349205,18.56308501710055,-4.291543316597632,2.6930154369260744,-2.5058004600276758,-0.7200576034545193,0.28802304138116813,0.05760460827655344,0.27408699999999986,-0.441176,-0.598403,0.03255299999999994,0.07054799999999994,-0.9342889999999999,0.24153399999999992,0.511724,0.3358859999999999,0.37092586322595034,0.9761780479825057,single,-0.598403
152,1.266667,step_acsent,0.08051355891528342,-0.12910967122629682,-0.10883129349651839,0.5651627208743454,0.39973514843722135,0.11487619019634407,0.006359491240710386,0.020398368130549818,0.01775857931365255,-0.0005999520038436186,-0.00035997120230084253,0.006119510439165112,-4.810566987963659,2.4929594688643313,-11.489173299206337,-4.44951361036637,3.8731513498392527,-5.428838587371183,1.295956805182611,0.604780994282247,1.54065025796947,0.27346899999999996,-0.43993000000000004,-0.597348,0.03187699999999993,0.07162099999999993,-0.9333309999999999,0.24159200000000003,0.511551,0.3359829999999999,0.45369474200514015,0.9897343710361479,single,-0.597348
153,1.275,step_acsent,0.16812672506900256,-0.24348973958959283,0.1975279011160508,-1.3350726886296358,-0.7164976919463822,0.49366361942991827,-0.008400336013442354,0.01068042721708947,0.04296171846874214,-0.011520460818431041,0.006720268810759212,-0.01656066242649712,10.514000498466332,-13.726157249885642,36.7645739364661,-1.7712501205031652,-1.1661995575975561,3.024497678517919,-1.3105134782896342,0.8496627880787375,-2.7217296130640154,0.27199799999999996,-0.437812,-0.598636,0.030379999999999963,0.07370600000000005,-0.935115,0.241618,0.511518,0.3364790000000001,0.42490105740377226,0.9645607495391267,single,-0.598636
154,1.283333,step_acsent,0.07824312972518595,-0.1322452898115825,-0.057722308892349125,0.40678167894505257,0.28116048361959456,0.16730741026880636,-0.009840393615734314,0.027481099243966783,0.017640705628225808,-0.01512060482418784,0.007920316812673628,-0.021600864034560956,-10.786462899773795,13.349867968079728,-30.631250451025497,-0.1728138248280252,2.016161289676829,-3.03864308658537,-0.4320345620732913,0.14401152069055503,-0.6048483869031259,0.27126400000000006,-0.43648100000000006,-0.5980080000000001,0.029602000000000017,0.074874,-0.934814,0.24166200000000004,0.511355,0.33680599999999994,0.4431561921375029,0.9541148342870438,single,-0.5980080000000001
155,1.291667,step_acsent,0.05471562275018246,-0.1424286057115517,0.023398128149741893,-0.26579945561187523,0.060468179327039816,0.17494685290161477,-0.014878809695226224,0.022318214542839335,0.012359011279093616,-0.017878569714431074,0.010199184065275181,-0.024958003359731678,-2.823074991001192,-1.2219001559838463,9.733673751151015,-0.6045615646138716,-0.6194966044069529,-0.6337526216861402,-0.33092931248419555,0.2734421949365966,-0.40282449306104945,0.27068400000000004,-0.435108,-0.5981000000000001,0.02899699999999994,0.07614600000000005,-0.935217,0.2416870000000001,0.5112540000000001,0.3371169999999999,0.4507775221253393,0.9460821472996108,single,-0.5981000000000001
156,1.3,step_acsent,0.13632545301812143,-0.15036601464059016,-0.06264250570022961,0.1617670208084694,0.10695557131320643,0.17868976776976533,-0.018840753630140403,0.02112084483379412,-0.007680307212282715,-0.02232089283570205,0.016920676827066394,-0.0292811712468495,9.793571375007506,-0.9525271725715019,-10.325289073559341,-0.47545229028130453,-0.1436901126899309,-2.404814411541579,-0.5331000985564502,0.8066113958707662,-0.5188008984900693,0.26939100000000005,-0.4336789999999999,-0.597642,0.027675000000000005,0.07754000000000005,-0.934939,0.24171600000000004,0.511219,0.33729699999999996,0.45112228402772503,0.9324656764045899,single,-0.597642
157,1.308333,step_acsent,0.0602424096963887,-0.16440657626304991,0.04380175207009037,-0.17817612409400888,-0.05409085765095509,0.1884692375420668,-0.01680067202688471,0.01548061922476796,-0.01680067202688471,-0.0116404656186265,-0.0003600144005730556,-0.015480619224768793,-9.130330411824485,-1.6849347920868698,12.773821885313929,0.24481958517409255,-0.6768541472490354,-1.0944875572545394,1.281702534150444,-2.073765897952671,1.656132487949218,0.268749,-0.43217999999999995,-0.598147,0.02707599999999999,0.07890700000000006,-0.9354330000000001,0.24167300000000003,0.5110870000000001,0.3372860000000001,0.4527367087273576,0.9677131080188308,single,-0.598147
158,1.316667,step_acsent,0.07283417326612773,-0.14110871130308925,-0.05003599712023008,0.30218915570827054,0.12261748142595545,0.2515468329036613,-0.010199184065288231,0.010319174466039636,-0.0273578113750905,-0.004919606431493694,-0.003359731221505614,-0.003119750419967001,1.5108907571081038,2.7955201535829723,-11.259629132507767,0.7921151861766771,-0.6193238251413828,-1.266755381354177,0.806438587368941,-0.3599372235340215,1.4831856017280654,0.268057,-0.430918,-0.597958,0.026428000000000007,0.08005499999999999,-0.935042,0.24162899999999998,0.510973,0.33708400000000005,0.44838823991426136,0.9887919716268949,single,-0.597958
159,1.325,step_acsent,0.12948517940718374,-0.1838473538941548,-0.02664106564263261,-0.0019590132745729585,0.1396347500080058,0.2692283047034308,-0.002880115204611091,-0.0015600624024943435,-0.02616104644185743,-0.0004800192007685152,-0.004680187207489692,-0.0006000240009598112,6.798392672633688,-5.1288422646184975,2.8075040774748214,0.8783233962171135,-1.425565446841964,0.1436175366894373,0.5327717785581686,-0.15846105676036118,0.30237926545148364,0.2669539999999999,-0.42939900000000003,-0.597954,0.02534499999999995,0.08154799999999995,-0.934825,0.24160899999999996,0.510947,0.33687100000000003,0.4560578281138934,0.9920952546720367,single,-0.597954
160,1.333333,step_acsent,0.0669626785071328,-0.14892595703828465,0.023640945637825428,-0.11118764339737629,-0.04768270541875126,0.2688125261355535,-0.00024000960036426637,-0.011040441617662232,-0.019080763230524656,0.0010800432017324612,-0.005880235209404162,0.0015600624024959674,-7.503000228015101,4.190735252114429,6.034082716963537,0.31682534552343433,-1.137691013460665,0.8496679720788012,0.18721497689918987,-0.1440115206905615,0.25922073724417866,0.26639400000000013,-0.42824999999999996,-0.5983099999999999,0.02479600000000004,0.08274000000000004,-0.935009,0.2415980000000001,0.51099,0.3366990000000001,0.46325672846248594,0.9897020155511427,single,-0.5983099999999999
161,1.341667,step_acsent,0.10259179265659545,-0.16666666666666666,-0.03803695704343865,-0.3874891920443644,-0.06564865123422625,0.5817659362908573,0.023758099352042743,-0.008759299256065112,-0.005999520038403042,0.005879529637624991,-0.008999280057601233,0.015238780897528741,4.275151685800734,-2.128714858217224,-7.400756261250931,2.8795427108720264,0.2737151861767655,1.56962361316557,0.5758923009230406,-0.3742554413483478,1.641314914210827,0.265737,-0.42693400000000004,-0.598043,0.023989999999999956,0.08405399999999996,-0.934565,0.24174700000000005,0.510988,0.336522,0.45662928378598333,0.9689187286851186,single,-0.598043
162,1.35,step_acsent,0.11640465618624858,-0.18612744509779694,0.01032041281651614,-0.1970853395510944,-0.23449133719131157,0.3238411195947154,0.024120964838580606,0.009960398415936432,-0.03684147365894592,0.04896195847834727,-0.06876275051001136,0.09300372014880408,1.6576099279554655,-2.3353868272086813,5.803116507854788,0.043545600208551076,2.2464535787832975,-3.701182481764351,5.1700982648171765,-7.171903330422307,9.33216599679275,0.26496799999999987,-0.42530000000000007,-0.598436,0.023428000000000004,0.085032,-0.933876,0.24153999999999987,0.510332,0.33544000000000007,0.4247536515704908,0.7906671895093145,single,-0.598436
163,1.358333,step_acsent,0.12144485779431442,-0.20052802112085735,-0.04956198247929923,0.35724668582016,0.007059202625285834,0.3893893460051991,0.023640945637826056,0.015120604824194904,-0.026521060842430486,-0.005160206408258207,-0.006840273610954672,-0.00048001920076768247,0.6048483869033827,-1.7281382482971972,-7.1861748824932095,-0.05760460827487753,0.6192495389725813,1.2384990779449812,-6.494919583176044,7.4309944676655775,-11.218497461847187,0.26415299999999986,-0.42350299999999996,-0.598244,0.022372999999999976,0.086646,-0.933467,0.24177999999999988,0.510149,0.33522300000000005,0.4356465128910809,0.985696980536181,single,-0.598244
164,1.366667,step_acsent,0.13042956563474212,-0.14698824094071408,-0.0677945764338893,0.5567621239065043,0.48313121654277846,0.06399307441061478,0.018598512119045604,0.028557715382771076,-0.048356131509477276,-0.010919126469889916,-0.0040796736261072995,-0.011639068874489936,1.0780786945557506,6.424259680842676,-2.1877362556503392,-0.6050436187641485,1.6123242810866414,-2.619998880135184,-0.6910151261857049,0.33124549854179886,-1.338978842539257,0.26322100000000004,-0.42204,-0.598082,0.021194999999999964,0.08783699999999994,-0.9329989999999999,0.24202600000000007,0.5098769999999999,0.3349169999999999,0.4014020056620557,0.9725460494632817,single,-0.598082
165,1.375,step_acsent,0.0808832353294082,-0.18444737789511875,0.008400336013442354,-0.28411093500194834,-0.3429998819863235,0.5487257816526131,0.030601224048949542,0.02988119524781009,-0.02700108004320566,-0.006240249609977374,-0.0021600864034516565,0.00048001920076768247,-5.945797468538865,-4.495276245578425,9.143755243889636,1.4403830469103622,0.15882393676215376,2.5627086842999893,0.5614876826968181,0.2303596811059235,1.4543487429806468,0.262802,-0.420254,-0.5983769999999999,0.02046900000000007,0.08935599999999999,-0.933065,0.2423329999999999,0.50961,0.3346880000000001,0.41569929705329073,0.9889650672233955,single,-0.5983769999999999
166,1.383333,step_acsent,0.18276731069243562,-0.18324732989320414,-0.1158046321852877,0.42941430243583434,-0.21424058877624313,0.4252398971576142,0.02496099843993614,0.03612144485779413,-0.020160806432257653,-0.004800192007685152,-0.0037201488059526618,0.0042001680067203446,12.22657810668767,0.14401152069058293,-14.905192391543405,-0.6768541472475041,0.7488599075943952,0.8208656679404861,0.17281382482806135,-0.1872149768991983,0.44643571414288924,0.2614869999999999,-0.41842599999999996,-0.59758,0.01890599999999998,0.09085200000000004,-0.932065,0.24258099999999994,0.509278,0.33448500000000003,0.419476222667323,0.9876934116861296,single,-0.59758
167,1.391667,step_acsent,0.10751139908807308,-0.1819054475641889,-0.05891528677705969,0.4361010526635938,0.2637733595645286,0.23942359707101535,0.022678185745139582,0.027597792176626616,-0.019678425725941473,-0.004679625629950918,0.0013198944084453037,-0.004559635229181195,-9.02998699356395,0.1610129984419532,6.826175354958913,-0.2739156101267749,-1.0227565012199964,0.05788105427359929,0.014466807983469342,0.6047568051833366,-1.0510923009241029,0.2607799999999999,-0.41668,-0.597253,0.01797099999999996,0.09237899999999999,-0.931612,0.24280899999999994,0.5090589999999999,0.33435899999999996,0.4320298537598487,0.9888905332274766,single,-0.597253
168,1.4,step_acsent,0.13836553462138126,-0.176887075483018,-0.04248169926796696,0.055041149301702605,-0.1393790501688586,0.26266863460378,0.018240729629203575,0.020640825633026168,-0.0002400096003842576,-0.004200168006721177,-0.005040201608062748,0.0043201728069116405,3.7026443697718063,0.6022287388900687,1.9721093854665646,-0.5325160345537078,-0.8348693800072616,2.332703243196615,0.05753721627622042,-0.7632420516630397,1.0656195891147147,0.2597790000000001,-0.415034,-0.596901,0.016782999999999992,0.09381099999999998,-0.931222,0.2429960000000001,0.508845,0.334321,0.45408868740147623,0.9869074940205198,single,-0.596901
169,1.408333,step_acsent,0.18372734909396776,-0.1824072962918577,-0.11064442577702654,0.30386845507734306,-0.18456651934293064,0.4717141906306762,0.006240249609977207,0.00948037921516793,0.01248049921996774,-0.0016800672026830968,-0.005640225609026572,0.008880355214208968,5.44363548212957,-0.6624529951805608,-8.179854375262018,-1.4401152069154155,-1.3393071424286622,1.526522119326986,0.3024241934523024,-0.07200576034607145,0.5472437786268147,0.2583,-0.41343499999999994,-0.595875,0.015237999999999974,0.09528400000000004,-0.930226,0.243062,0.5087189999999999,0.33435099999999995,0.47188411056014845,0.9822442904756449,single,-0.595875
170,1.416667,step_acsent,0.16330693544516095,-0.18346532277418187,-0.0677945764338911,0.24956228909701675,-0.016851138064590356,0.2751151044264918,-0.013678905687538954,-0.0009599232061444868,-0.00443964482840826,-0.0015598752099881214,-0.00875929925605845,0.006719462443004746,-2.4502536175674585,-0.12695302163717187,5.141570595528709,-2.390107427107816,-1.25273607167178,-2.0302548654159254,0.014421885372567523,-0.374258896932078,-0.25928638963334083,0.2568250000000001,-0.41191399999999995,-0.595347,0.013863999999999987,0.09674000000000005,-0.929605,0.2429610000000001,0.5086539999999999,0.33425800000000006,0.4759777672669733,0.9814176226216826,single,-0.595347
171,1.425,step_acsent,0.09972398895955978,-0.14112564502579314,-0.03708148325933017,0.2855833602915081,0.14043311132690725,0.26874751183569345,-0.004920196807867157,0.007080283211325418,-0.001200048001921256,-0.013080523220918374,-0.018480739229567358,0.015360614424576254,-7.630258788623552,5.0809645683892946,3.685718609691635,1.0510871090449592,0.964863364630957,0.38876716986522825,-1.3825330626341115,-1.1666194615995125,1.036979716977242,0.2559530000000001,-0.410679,-0.595048,0.012924000000000047,0.09776200000000002,-0.929168,0.24302900000000005,0.508441,0.33412,0.4854914907929827,0.9543994917881404,single,-0.595048
172,1.433333,step_acsent,0.18240729629184924,-0.200168006720271,-0.07164286571462428,0.4073099794359387,-0.3457022232700167,0.36648262095694073,-0.005040201608076071,0.0018000720028852628,0.0004800192007685152,-0.07872314892595655,-0.04896195847833525,0.038401536061442906,9.922393775625851,-7.085366818010128,-4.147531795907168,-0.014401152071152638,-0.633650691040466,0.2016161289679331,-7.877430181811926,-3.6578926255572033,2.7650211972719143,0.25439100000000003,-0.40899599999999997,-0.594447,0.01074800000000009,0.09902200000000005,-0.928251,0.24364299999999994,0.5080180000000001,0.3338040000000001,0.4910441964969433,0.8327569505950922,single,-0.594447
173,1.441667,step_acsent,0.1567074634029301,-0.18454523638109283,-0.12047036237100998,0.1575378683138896,0.2516227530676371,0.2611040207522679,-0.0002399808015427761,0.00959923206143129,-0.016078713702906405,-0.012958963282950226,0.017998560115188664,-0.028797696184304694,-3.0837332480104322,1.8745824741034374,-5.858830892294857,0.5759804183505228,0.9358243410782299,-1.9868889973211894,7.8910709914813815,8.034619461665876,-8.063262808464973,0.25308299999999995,-0.40737799999999996,-0.593577,0.009333999999999953,0.10071000000000008,-0.9274870000000001,0.243749,0.5080880000000001,0.33391000000000004,0.46878711620650015,0.9394196997294677,single,-0.593577
174,1.45,step_acsent,0.1587663506540232,-0.17364694587783383,-0.034201368054720065,0.17859182169800514,-0.25731018345382567,0.2722464091495753,-0.00048001920075519197,-0.006840273610941349,0.0037201488059526618,-0.009000360014393005,0.004440177607098773,-0.014760590423617685,0.24707635318530166,1.3078471742780624,10.352693425691914,-0.028805760135895603,-1.9728195934684731,2.375958539404686,0.4750513942826422,-1.627070983810154,1.68452007208534,0.2517560000000001,-0.40598799999999996,-0.593261,0.007936000000000054,0.10219400000000001,-0.9273250000000001,0.24382000000000004,0.5081819999999999,0.334064,0.48699794154715137,0.9702512051026031,single,-0.593261
175,1.458333,step_acsent,0.17184687387495065,-0.22596903876154267,-0.09600384015360722,0.19859651480574225,-0.12259555602537488,0.24803096767895705,0.0028801152046110143,0.0050402016080626135,-0.009960398415936432,-0.0028801152046110143,-0.005280211208440203,-0.0019200768030715114,1.5697255755342883,-6.278902302137037,-7.416593315598952,0.40323225793425505,1.4257140548426441,-1.6417313358800978,0.7344587555240469,-1.1664933175973606,1.5409232713963696,0.2503480000000001,-0.404063,-0.592544,0.006480000000000041,0.10403300000000004,-0.9265410000000001,0.24386800000000008,0.5080960000000001,0.3339970000000001,0.48078569453318576,0.9894772219385143,single,-0.592544
176,1.466667,step_acsent,0.16594672426206497,-0.18886489080873461,-0.10151187904967957,0.264589949500268,0.08507726581527437,0.3007485478273833,0.00599952003838306,0.0008399328053730955,-0.0003599712023008521,0.0046796256299510425,-0.014998800095997614,0.01499880009599262,-0.7079613166409638,4.452141583010411,-0.6609117945851275,0.3742986361617597,-0.5039919369677943,1.151959108907579,0.9070963324408688,-1.16613737551687,2.0301028196621616,0.249015,-0.40248200000000006,-0.591701,0.005136000000000029,0.10548199999999996,-0.92557,0.24387899999999996,0.5079640000000001,0.33386899999999997,0.4898854742689608,0.9637973717699122,single,-0.591701
177,1.475,step_acsent,0.16704668186727895,-0.22404896195848198,-0.08916356654266605,-0.07853213947120191,0.14735803965775365,0.10343596225881506,0.0008400336013548716,-0.0001200048001887948,-0.0057602304092220285,0.005640225609026572,-0.017400696027834894,0.01800072002880052,0.13200019263338,-4.22225742826674,1.4818567751126004,-0.6191631389689305,-0.11519712055224691,-0.6480570271116143,0.11527660855340364,-0.28823904138212386,0.36024480172901074,0.24763000000000002,-0.40061599999999997,-0.5910059999999999,0.003790999999999989,0.10720400000000008,-0.924677,0.24383900000000003,0.50782,0.33367100000000005,0.49029600426359216,0.95722727086588,single,-0.5910059999999999
178,1.483333,step_acsent,0.1675267010680386,-0.2158886355454232,-0.09180367214687528,0.027736870145666805,0.24652921981853196,0.19052628195882595,0.011520460818417717,0.008160326413058097,-0.010080403216125496,0.005280211208440344,-0.007680307212296243,0.005760230409216353,0.057604608275490396,0.9792783407006902,-0.316825345518931,1.2817025341489192,0.993679492769347,-0.5184414744874003,-0.043203456208596086,1.1664933175973526,-1.4689175110505552,0.24632999999999994,-0.39874899999999996,-0.590325,0.002438999999999969,0.10893900000000001,-0.923864,0.24389099999999997,0.5076879999999999,0.33353900000000003,0.47108794591850695,0.9817389300203769,single,-0.590325
179,1.491667,step_acsent,0.15058795296376248,-0.13702903767698196,0.00959923206143129,-0.3696777520289165,-0.9108681742991062,0.9355036290045506,0.036477081833462884,0.01727861771058032,-0.00707943364530541,0.007199424046083459,-0.008279337652985986,0.01055915526757825,-2.0324871735392356,9.462394752632665,12.167375114987497,2.994554957408804,1.0941074271084896,0.3600875414950879,0.2302871175477683,-0.07187790265055656,0.5758249170100624,0.245379,-0.397463,-0.590464,0.0012440000000000229,0.110012,-0.923856,0.244135,0.507475,0.333392,0.43170231601023257,0.9746209349981623,single,-0.590464
180,1.5,step_acsent,0.1522860914436549,-0.1934477379095251,-0.04560182407296897,-0.12486848717117568,-0.1907620912628242,0.19768577375362034,0.03972158886356465,-0.01632065282610953,0.03132125285010898,0.009360374414979384,-0.0064802592103682935,0.0020400816032645243,0.2037847689778513,-6.770514848499179,-6.624391711796564,0.3893564178689306,-4.032073747352713,4.608266710118174,0.2593244172442031,0.2158980490360865,-1.0223297329069727,0.24444100000000013,-0.3959869999999999,-0.589823,5.300000000008076e-05,0.11157000000000006,-0.9234589999999999,0.24438800000000005,0.507557,0.33363599999999993,0.41141248503728517,0.9807233372550193,single,-0.589823
181,1.508333,step_acsent,0.15804632185287706,-0.26257050282011135,-0.051602064082555424,-0.06277342853994156,-0.1165137988889312,0.004430348818583787,0.01824072962917693,-0.006720268810752551,0.017040681627268964,0.004440177607098773,-0.008400336013442354,0.0016800672026881377,0.6912552993186384,-8.295063591814099,-0.7200576034545192,-2.5778062203753653,1.1520921655294694,-1.713737096224666,-0.5904472348350721,-0.23041843310621368,-0.043203456207415086,0.24327600000000005,-0.39385499999999996,-0.589251,-0.001226999999999978,0.11368800000000001,-0.923015,0.24450300000000003,0.507543,0.33376400000000006,0.45691510123361573,0.983918311990301,single,-0.589251
182,1.516667,step_acsent,0.18838492920567068,-0.2572594192464625,-0.09743220542356956,-0.04898237516757435,-0.03722941799207807,0.3012418908180624,0.02339812814974127,0.009479241660666562,-0.004919606431487034,0.010799136069118528,-0.0014398848092166917,-0.0076793856491481965,3.640341655002806,0.6372790465141354,-5.499177026759514,0.6188383154024837,1.9437857537099819,-2.6350237651494877,0.7630139743244188,0.8351873295207115,-1.1230444986604589,0.24190099999999992,-0.3916319999999999,-0.58848,-0.002707000000000015,0.11582000000000003,-0.922267,0.24460799999999994,0.507452,0.33378699999999994,0.45713292668629374,0.9777846667034598,single,-0.58848
183,1.525,step_acsent,0.20520820832833372,-0.2466098643945682,-0.19656786271451376,0.19023015766635185,0.505455641446858,0.17303570472215055,0.02376095043803484,0.02040081603264191,-0.017520700828030818,0.01068042721708947,0.0016800672026964648,-0.006840273610944679,2.018874249689571,1.2779977021354143,-11.896754745103218,0.043540416211877486,1.3106413502910652,-1.5121918152578782,-0.014245632068769725,0.37440921779829417,0.10069747248332231,0.24038900000000007,-0.389407,-0.586988,-0.0043279999999999985,0.11788900000000002,-0.920686,0.24471700000000007,0.507296,0.33369800000000005,0.4401912534726593,0.9786768582666033,single,-0.586988
184,1.533333,step_acsent,0.157206288251518,-0.26281051242049525,-0.06780271210847436,-0.083777246674865,-0.024665025660830515,0.03825079461977409,0.020400816032641367,0.035161406456256164,-0.03216128645146301,0.009120364814588222,-0.007680307212296038,-0.003000120004799809,-5.760460827650892,-1.9441555293323853,15.452436170171266,-0.4032322579375272,1.7713417045018598,-1.7569405524339297,-0.1872149768992225,-1.1232898613935365,0.46083686621202485,0.23924900000000016,-0.386924,-0.5866910000000001,-0.005561999999999956,0.12001499999999998,-0.920146,0.2448110000000001,0.506939,0.33345499999999995,0.4136083506962368,0.9795082067057168,single,-0.5866910000000001
