frame_id,timestamp,gait_type,root_linear_velocity_x,root_linear_velocity_y,root_linear_velocity_z,root_angular_velocity_x,root_angular_velocity_y,root_angular_velocity_z,left_linear_velocity_x,left_linear_velocity_y,left_linear_velocity_z,right_linear_velocity_x,right_linear_velocity_y,right_linear_velocity_z,root_acceleration_x,root_acceleration_y,root_acceleration_z,left_acceleration_x,left_acceleration_y,left_acceleration_z,right_acceleration_x,right_acceleration_y,right_acceleration_z,left_pos_rel_x,left_pos_rel_y,left_pos_rel_z,right_pos_rel_x,right_pos_rel_y,right_pos_rel_z,step_length,step_width,step_height,left_contact_prob,right_contact_prob,support_type,max_foot_height
1,0.008333,step_acsent,0.12588503540142537,-0.09588383535341344,0.07680307212289511,0.6641102590209602,0.8171573562088321,0.0425897103874173,0.05292211688466503,-0.013200528021114061,0.02268090723628965,0.1575663026520938,0.23172926917076875,0.5135005400216015,0.0,0.0,0.0,0.0,0.0,0.0,0.0,0.0,0.0,0.07182199999999983,0.01455099999999998,-0.91193,-0.1869390000000002,0.09428099999999995,-0.885491,0.258761,0.07972999999999997,0.02643899999999999,0.9015476998088874,0.23560999999999999,single,-0.885491
2,0.016667,step_acsent,0.1477081833453302,-0.15682745380370267,0.05327573794096471,0.15288237337315264,0.7561212449920578,0.4459611427746794,0.0007199424046283338,-0.007919366450685203,-0.003839692824574127,0.20650347972163227,0.08171346292297127,0.4989200863930879,2.618568267807155,-7.312649202098538,-2.823054257491048,-6.263759836817457,0.6336886933559944,-3.1822174299092603,5.871991489025495,-18.000456713198638,-1.7495144742636934,0.07059700000000002,0.015792000000000028,-0.912406,-0.1864490000000001,0.09626900000000005,-0.881777,0.2570460000000001,0.08047700000000002,0.030629000000000017,0.9852824818070713,0.19371000000000005,single,-0.881777
3,0.025,step_acsent,0.04800192007679779,-0.08616344653786108,0.06144245769830276,1.2048687389652555,-0.21399832731428967,-0.12679831372332456,0.0003600144005730523,-0.008880355214210787,-0.0034801392055683724,0.12636505460218056,0.4286571462858538,0.6953078123124925,-11.965230201431947,8.480020072703898,0.980045572703474,-0.043193088210162184,-0.11532326455365224,0.04314816020709882,-9.616995694161972,41.63490739984189,23.56746980912092,0.07020000000000004,0.016436000000000006,-0.912947,-0.18579600000000007,0.10055900000000007,-0.876495,0.2559960000000001,0.08412300000000006,0.03645199999999993,0.9840921326251831,0.13548000000000004,single,-0.876495
4,0.033333,step_acsent,0.08544341773671497,-0.09144365774630138,0.057482299291972544,1.0497669524910287,0.05245693189015402,0.10511576088740394,0.0,-0.007560302412100714,-0.0030001200047998617,0.17868714748590828,0.33913356534261313,0.6069842793711748,4.493159445567885,-0.6336506910404776,-0.47523801828035733,-0.04320345620701455,0.1584126727601192,0.057604608276552345,6.278902302139412,-10.74325944356662,-10.599247922875035,0.069488,0.0171349999999999,-0.913451,-0.18501900000000004,0.10414699999999999,-0.871916,0.25450700000000004,0.08701200000000009,0.04153499999999999,0.9864436471836165,0.08465000000000006,single,-0.871916
5,0.041667,step_acsent,0.11567074634028855,-0.1102711783057359,0.05555555555555449,1.12759205241499,0.38376900888684606,0.2268171585843644,-0.0016798656107728021,-0.005039596832251798,-0.003599712023038426,0.1702663786897119,0.38252939764818433,0.593592512598992,3.626989273286966,-2.2591217373931514,-0.23119075310991755,-0.2015677478729064,0.30246047274405036,-0.07194528656570244,-1.0104114226297554,5.2070833100037435,-1.6068834619849757,0.06850999999999985,0.018011999999999917,-0.913944,-0.18456399999999995,0.10825399999999996,-0.867432,0.2530739999999998,0.09024200000000004,0.046512,0.9893050620293333,0.03488000000000002,single,-0.867432
6,0.05,step_acsent,0.08016320652824804,-0.05952238089524204,0.11268450738029799,0.5657589003370737,0.7802943097013765,0.11970720762585682,-0.002160086403438314,-0.0037201488059526275,-0.001200048001920028,0.21276851074040593,0.5515420616824727,0.8988359534381372,-4.261075220453679,6.090099293230993,6.8557484489071765,-0.05762880027187228,0.15834009675977087,0.28797120138226306,5.1004598644778625,20.282330977353695,36.63067812782253,0.0678240000000001,0.018476999999999966,-0.9148930000000001,-0.18345900000000004,0.11334600000000006,-0.860881,0.25128300000000015,0.09486900000000009,0.05401200000000006,0.9925565846370279,0.0,single,-0.860881
7,0.058333,step_acsent,0.07800312012480973,-0.04200168006719806,0.03864154566181849,0.8582304647489569,0.21865488355902837,0.2175208988766785,-0.003600144005757169,-0.00012000480018213529,-0.003720148805952211,0.3480139205568372,0.43741749669986246,0.79851194047762,-0.2592207372420876,2.1025682020933614,-8.885510826650606,-0.17281382483125587,0.43203456207494206,-0.30242419345160004,16.23009838190703,-13.695495617737933,-12.039363129787253,0.06714400000000009,0.01882600000000001,-0.915246,-0.18120899999999995,0.11734099999999997,-0.854549,0.24835300000000005,0.09851499999999996,0.060697,0.9913694751748544,0.0,single,-0.854549
8,0.066667,step_acsent,0.07175425965923907,-0.02459803215742869,0.015118790496768716,0.3326009994097621,0.22996027592238852,0.28547263065626277,-0.008399328053757437,0.001439884809203381,-0.004199664026877886,0.3113750899927889,0.3840892728581724,0.6948644108471327,-0.7498032716067506,2.0882706875173227,-2.8225048194204185,-0.5758560172786499,0.18717177938391122,-0.057537223533198296,-4.396307963048754,-6.398874951006726,-12.436708618968956,0.06647599999999998,0.01904299999999992,-0.915407,-0.17921200000000015,0.120747,-0.848884,0.24568800000000013,0.10170400000000007,0.066523,0.9841658633574777,0.0,single,-0.848884
9,0.075,step_acsent,0.056282251290031324,-0.09936397455898856,0.039361574462977944,1.183305664962757,0.15879015390330609,0.14710047209187974,-0.051602064082581646,0.012240489619590374,-0.03492139685587421,0.37957518300732385,0.41269650786031115,0.7659906396255857,-1.8567152729158474,-8.972271979066354,2.909250445962948,-5.1845357048871055,1.2961244222233292,-3.68675540969595,8.184338535285612,3.433005520477471,8.535488872969283,0.065577,0.01997300000000002,-0.916026,-0.17651799999999995,0.12501400000000001,-0.842829,0.24209499999999995,0.105041,0.07319699999999996,0.8941685490708664,0.0,single,-0.842829
10,0.083333,step_acsent,0.07752310092405447,-0.027241089643582985,0.02028081123244625,0.9699337378416247,0.034214561357153145,0.2206169497594591,-0.007200288011514332,0.009840393615747801,-0.0036001440057600808,0.3115324612984568,0.28261130445217736,0.6618264730589208,2.5490039162394247,8.655092393544402,-2.289783178990961,5.328426265578696,-0.2880230413827638,3.7587006900412945,-8.165453223192968,-15.610848842929759,-12.500199995999608,0.0648709999999999,0.020282000000000022,-0.916225,-0.17456800000000006,0.127596,-0.837483,0.23943899999999996,0.10731399999999996,0.07874199999999998,0.9788104761980112,0.0,single,-0.837483
11,0.091667,step_acsent,0.05243580513559167,-0.0580753539716871,-0.04403647708183423,0.5601422553634591,-0.3660285312604879,0.4992719987002155,-0.005639548836082105,0.00971922246220276,-0.0016798656107511558,0.44132469402448676,0.2573794096472294,0.8188144948404129,-3.0102346758414704,-3.6998157341137676,-7.717457201137572,0.18727371915433505,-0.014539375275382904,0.2304149742031349,15.573822021361897,-3.0275851697801768,18.837055649327116,0.06438699999999997,0.02084700000000006,-0.915872,-0.171327,0.13022500000000004,-0.830292,0.23571399999999998,0.10937799999999998,0.08557999999999999,0.9810637220002242,0.0,single,-0.830292
12,0.1,step_acsent,0.05916236649464229,-0.0758430337213447,0.04044161766471036,0.9219896043980625,0.481546271598029,0.17482996968047412,-0.009600384015370207,0.007560302412100707,-0.003120124804992403,0.6377055082203332,0.524180967238687,1.1429257170286808,0.8072196518721488,-2.1322068582332387,10.137776880660569,-0.4753192342839432,-0.2590807692430158,-0.17283801682962271,23.56664036911632,32.01746760967927,38.89490245869047,0.06381400000000004,0.02154200000000006,-0.916235,-0.16650599999999982,0.13522499999999998,-0.821105,0.23031999999999986,0.11368299999999992,0.09513000000000005,0.9789801202162942,0.0,single,-0.821105
13,0.108333,step_acsent,0.07572302892116269,-0.11988479539181243,0.06360254410176777,2.2026491665747514,-0.008030637879561493,0.1906669057044326,-0.003960158406330225,0.00648025921036824,0.004080163206528181,0.6635065402615984,0.52994119764791,1.2456498259930409,1.9873589855418703,-5.285222809368507,2.779422349340865,0.6768541472506884,-0.12961036862264114,0.8640691241474366,3.096247694859616,0.6912552993187359,12.327386171170058,0.06315000000000004,0.02259500000000003,-0.9167310000000001,-0.16160799999999997,0.14064,-0.8112550000000001,0.224758,0.11804499999999996,0.10547600000000001,0.9856314052116839,0.0,single,-0.8112550000000001
14,0.116667,step_acsent,0.053155747540193275,-0.08339332853371736,0.09695224382048466,1.5749390670146082,0.03890053930721445,0.28713949597411037,0.0038396928245778704,0.01775857931364601,0.023038156947444325,0.6579073674105951,0.33885289176865735,1.1239500839932794,-2.707857137145355,4.378625732912771,4.001643834739244,0.9359072751269603,1.3532901491813965,2.274777266728597,-0.6718469943608476,-22.92876240451794,-14.602800815906082,0.0627390000000001,0.02343799999999996,-0.9173469999999999,-0.15656800000000004,0.14415899999999998,-0.802696,0.21930700000000014,0.12072100000000002,0.11465099999999995,0.9510991065816321,0.0,single,-0.802696
15,0.125,step_acsent,0.08100324012960299,-0.034561382455306155,-0.07308292331692921,-0.23526141949414284,0.5718960835465547,0.42564093634958344,-0.008520340813624419,0.001800072002878586,0.005160206408256499,0.6767070682827525,0.2354494179767216,1.0219608784351377,3.3418327840405295,5.860067932126635,-20.405036257939997,-1.4832633671189606,-1.91509748119134,-2.1454398822978327,2.256054346832767,-12.408913211560764,-12.239194234746407,0.06199300000000019,0.023741000000000012,-0.916695,-0.15160399999999985,0.14640900000000007,-0.793571,0.21359700000000004,0.12266800000000005,0.12312400000000001,0.9831292332905183,0.0,single,-0.793571
16,0.133333,step_acsent,0.18168726749070133,-0.025801032041277455,0.013080523220931915,0.47500504286108625,1.5546711605525776,-0.057909785963662384,-0.004560182407320834,-0.0009600384015370207,0.006480259210368228,0.540021600864028,0.7181087243489721,1.3093723748949953,12.082566585995231,1.0512841010474852,10.34002718563075,0.47523801827716095,-0.33122649758977607,0.15841267276031787,-16.402912206735202,57.921433622014895,34.49075920555109,0.06044099999999997,0.02394799999999997,-0.9167500000000001,-0.14861799999999992,0.15260800000000002,-0.782769,0.20905899999999988,0.12866000000000005,0.13398100000000002,0.9866968365547861,0.0,single,-0.782769
17,0.141667,step_acsent,0.06419486441084155,-0.026157907367403525,0.030117590592752798,0.4857646490916835,0.09052366429835788,0.12395298202620877,-0.004559635229179576,-0.0002399808015294569,0.006479481641468517,0.7296616270698365,0.4510439164866836,0.9528437724982028,-14.097960532740588,-0.04282161340605604,2.0442845418551623,6.565612446098753e-05,0.08640000000090779,-9.330080390108134e-05,22.754982746077395,-32.04521332640858,-42.780009886824246,0.05986800000000003,0.024163999999999963,-0.9169470000000001,-0.14307199999999987,0.15658499999999997,-0.7750790000000001,0.2029399999999999,0.132421,0.141868,0.9867889412327729,0.0,single,-0.7750790000000001
18,0.15,step_acsent,0.09588383535344,-0.003960158406343541,-0.14724588983559067,-1.0567012589059754,-0.22007553625713772,-0.017664062931719415,-0.0013200528021100728,-0.004080163206525676,0.00432017280691243,0.8977559102364172,2.1192847713908485,2.500540021600861,3.802828626256862,2.6638364287843475,-21.284469030162406,0.3887654418660147,-0.46084032221243443,-0.25912742524373994,20.17212086482426,200.1969104649182,185.73097913148408,0.05905799999999983,0.024163000000000046,-0.915684,-0.13639,0.174278,-0.753015,0.19544799999999984,0.15011499999999994,0.16266900000000006,0.9898546447034137,0.0,single,-0.753015
19,0.158333,step_acsent,0.06180247209886244,-0.041881675267002566,0.05712228489138612,0.9217972093156519,0.08911378685011559,0.0401087146199409,-0.004920196807867239,-0.019440777631104685,0.006840273610944611,0.7070682827313096,1.3754950198007942,1.8329533181327249,-4.089927187636809,-4.550764053841233,24.525161973716145,-0.43203456207334257,-1.8433474648480734,0.30242419345159954,-22.883430637838405,-89.25834052442741,-80.11360896053469,0.058502000000000054,0.024349999999999983,-0.916103,-0.13101299999999982,0.18608899999999995,-0.7382169999999999,0.18951499999999988,0.16173899999999997,0.1778860000000001,0.9646862666546634,0.0,single,-0.7382169999999999
20,0.166667,step_acsent,0.08207343412528537,0.10103191744659198,-0.021118310535151643,-0.681420406288582,0.6277405606453899,-0.016813428930842964,0.0027597792176753356,-0.020758339332864122,0.012958963282937407,0.7934965202783746,0.6785457163426944,1.4346052315814715,2.432320857502148,17.14825926489014,-9.388120401552397,0.9215234011930127,-0.15809475663060185,0.7341840259170614,10.37055886093891,-83.62722623687294,-47.79794655042633,0.05784100000000003,0.023334999999999995,-0.915819,-0.12508399999999997,0.19090200000000007,-0.726085,0.182925,0.16756700000000008,0.18973400000000007,0.9589559937195735,0.0,single,-0.726085
21,0.175,step_acsent,0.04152166086642965,-0.0152406096243836,0.0670826833073296,0.6199281083727304,0.15715658423369464,-0.09927166498842875,0.005160206408258173,-0.02100084003359242,0.012000480019200725,0.760830433217332,0.6053042121684874,1.4046561862474525,-4.866407447360592,-13.953261378972265,10.584542642803488,0.2880627853813564,-0.02910124813732132,-0.11502259255210413,-3.920087250815151,-8.789332074187836,-3.594029201250337,0.05753800000000009,0.023287000000000058,-0.916278,-0.11908999999999992,0.19607300000000005,-0.714939,0.176628,0.172786,0.20133900000000005,0.958779908722148,0.0,single,-0.714939
22,0.183333,step_acsent,-0.09036361454458215,0.014640585623432905,-0.0022800912036470937,-0.15604926703672062,-0.9295575973996086,0.16016908547448547,0.0012000480019012912,-0.016080643225725114,0.009240369614784248,0.7233889355574123,0.5413416536661446,1.324732989319571,-15.826866123966361,3.5858868652125864,-8.323865895953034,-0.4752380182835567,0.5904472348334695,-0.3312264975898806,-4.493159445568178,-7.675814052843241,-9.591167278036895,0.058300999999999936,0.023031000000000024,-0.916182,-0.11230899999999999,0.20046199999999997,-0.703881,0.17060999999999993,0.17743099999999995,0.21230100000000007,0.9690245781851986,0.0,single,-0.703881
23,0.191667,step_acsent,0.060835133189349015,-0.03143748500119801,0.09407247420206458,1.0205299602324454,0.4917117619814838,-0.11584997990672127,-0.05831533477321646,-0.04655627549796671,0.03755699544036483,0.8430525557955327,1.0760739140868691,1.5598752099832012,18.142398336204824,-5.528926160862835,11.561382938050345,-7.14127463104364,-3.656783330002588,3.39772328120717,14.358485749714454,64.16273823142836,28.214809294892007,0.057307999999999915,0.022904999999999953,-0.916653,-0.10579000000000005,0.20969199999999993,-0.691665,0.16309799999999997,0.18678699999999998,0.22498800000000008,0.8607690471388708,0.0,single,-0.691665
24,0.2,step_acsent,0.0021600864034383117,0.002040081603256177,0.03852154086163632,0.39229434957000414,-0.2745545956793006,-0.3126268205771552,0.04668186727468767,0.015120604824188092,0.04428177127085095,0.8870754830193278,0.8213128525141019,1.3904956198247902,-7.041287265799911,4.01746869128215,-6.666378655997625,12.600168252478586,7.401521699526551,0.8070053798735286,5.28296258535882,-30.57255029074367,-20.326363873564244,0.057679000000000036,0.02301399999999998,-0.916605,-0.09841599999999984,0.21651900000000002,-0.680399,0.15609499999999987,0.19350500000000004,0.23620600000000003,0.8898397040497503,0.0,single,-0.680399
25,0.208333,step_acsent,0.03384135365416011,-0.017520700828030703,0.06780271210848902,0.7602716490321092,0.20347679773849695,-0.3171361374448267,-0.002160086403438319,-0.005280211208440308,0.0201608064322571,0.857194287771501,0.7349093963758591,1.4012960518420763,3.801904146252476,-2.347387787265922,3.5138811048665284,-5.861268892130818,-2.4481958517494844,-2.8946315658939046,-3.5858868652138383,-10.368829489768759,1.2961036862217827,0.05737900000000007,0.023116000000000025,-0.9170020000000001,-0.09155500000000005,0.22278900000000001,-0.6692870000000001,0.14893400000000012,0.199673,0.24771500000000002,0.965079267552745,0.0,single,-0.6692870000000001
26,0.216667,step_acsent,0.051115910727146274,-0.014158867290610914,0.09851211903047274,1.084278033823419,0.4175816713635574,-0.39177443901241443,-0.01619870410367124,0.06503479721621441,-0.09551235901127877,0.9337652987760917,0.7344612431005497,1.4086873050156008,2.0727810262762354,0.4033877534700967,3.6848340439145297,-1.6844993640788224,8.437126040875288,-13.879669479665917,9.187786297647069,-0.05377409110983167,0.8868794304685034,0.056818000000000035,0.02377599999999991,-0.918619,-0.08419900000000013,0.22902799999999995,-0.6583680000000001,0.14101700000000017,0.20525200000000005,0.2602509999999999,0.8055311108322363,0.0,single,-0.6583680000000001
27,0.225,step_acsent,0.030361214448584965,-0.028801152046083977,0.12024480979238528,0.8843320072754556,0.7111681091969634,-0.3933640268439717,-0.02052082083285049,0.020520820832837166,0.030361214448577888,0.9243969758790362,0.7176287051482035,1.3276131045241786,-2.490663179954553,-1.7571444564350234,2.608027212518002,-0.5186747544916891,-5.34189084163893,15.105433032504088,-1.1242437173953512,-2.019985353695688,-9.729293230699886,0.05639399999999983,0.02418699999999996,-0.919368,-0.07674900000000018,0.23524799999999996,-0.648307,0.133143,0.211061,0.271061,0.929999771466645,0.0,single,-0.648307
28,0.233333,step_acsent,-0.00228009120367374,-0.020400816032641707,-0.036961478459135326,0.6875603506703827,-1.0002260755080044,-0.4917480117087713,0.006960278411150062,0.009840393615747801,0.0,0.9121564862594459,0.7189487579503203,1.2642505700228017,-3.9171133628055537,1.008080644838865,-18.86550921055088,3.2978638238330165,-1.2817025341520887,-3.643491473488283,-1.4689175110512822,0.15841267276092366,-7.603808292496916,0.05647100000000016,0.02443899999999999,-0.91906,-0.069129,0.24140899999999998,-0.637464,0.12560000000000016,0.21697,0.28159599999999996,0.9799113892083673,0.0,single,-0.637464
29,0.241667,step_acsent,0.025917926565874067,-0.046916246700267714,0.012718982481407577,0.8690352294311808,-0.025213831000520753,-0.5086537015955305,0.06167506599470898,-0.0206383489320928,-0.004799616030717358,0.9428845692344806,0.7393808495320393,1.2582193424526062,3.3834914530295026,-3.181597152342941,5.961178418591675,6.56524929008388,-3.6571565332182234,-0.5759078510579997,3.6870749910048937,2.4516548574176915,-0.723689413270397,0.05676900000000007,0.024657999999999958,-0.9192060000000001,-0.06148699999999985,0.24796200000000002,-0.627084,0.11825599999999992,0.22330400000000006,0.2921220000000001,0.8913109490573012,0.0,single,-0.627084
30,0.25,step_acsent,0.11256450258011576,-0.03216128645146355,0.10752430097203974,0.8036025653746456,1.4084393011429215,-0.39418257779588983,-0.00036001440057305197,0.003000120004806521,-0.005640225609024585,0.9456378255130061,0.751590063602539,1.2437297491899646,10.398005041910672,1.770666056498758,11.377093302607955,-7.444507427730947,2.8367297416175807,-0.1008771844842465,0.3304039695818451,1.4651642950317623,-1.738820744346771,0.05582799999999999,0.024951000000000056,-0.920149,-0.054545000000000066,0.254493,-0.617616,0.11037300000000005,0.22954199999999997,0.30253299999999994,0.9893356154351978,0.0,single,-0.617616
31,0.258333,step_acsent,0.0670826833073296,-0.010080403216125428,0.010200408016320887,0.6179765392247047,0.13903415964167268,-0.6651062763151513,0.002520100804038019,0.032641305652232167,-0.03540141605664237,0.9684387375495069,0.7749909996399899,1.2025681027241122,-5.458036634199721,2.64981198071981,-11.679334328059415,0.3456276496593157,3.557084561073529,-3.5714857131426685,2.7362188931358293,2.808224653480249,-4.93959515970869,0.05529000000000006,0.02530700000000008,-0.920529,-0.04703400000000002,0.261035,-0.60768,0.10232400000000008,0.23572799999999994,0.31284900000000004,0.9196351029926544,0.0,single,-0.60768
32,0.266667,step_acsent,0.09083273338134365,0.1389488840892718,-0.451523878089761,-4.684004312134729,-2.0444783341477404,-0.9923883352401166,0.0032397408207342476,0.0020398368130470023,-0.008879289656827582,0.9491240700744031,0.7792176625869922,1.1607871370290386,2.8497780266395525,17.882083909934856,-55.402482134159044,0.0863498940120264,-3.6718825101014083,3.1824005759316965,-2.3175746910371706,0.5071589809218087,-5.013314818223371,0.05455999999999994,0.02416600000000002,-0.91684,-0.039881000000000055,0.266371,-0.594243,0.094441,0.242205,0.322597,0.9838842175682725,0.0,single,-0.594243
33,0.275,step_acsent,0.014040561622455566,0.02256090243610659,0.0008400336013415596,0.11432348223360406,-0.6682337972482301,-0.7235487374748273,-0.009360374414979259,0.007080283211332174,-0.018120724828992886,0.9587183487339482,0.8043921756870258,1.1209648385935376,-9.215429228235662,-13.967116483039089,54.28584083656555,-1.5120743112580648,0.6048777629047342,-1.1090165813230848,1.1513594935251479,3.0210624145005998,-4.778866966938778,0.054365,0.024036999999999975,-0.916998,-0.032008999999999954,0.27288599999999996,-0.5849089999999999,0.08637399999999995,0.248849,0.3320890000000001,0.9640174545450872,0.0,single,-0.5849089999999999
34,0.283333,step_acsent,0.04452178087122286,0.1380055202208073,-0.11400456018240834,-2.0298798243778853,-1.240688651339012,-0.577624375884173,0.003840153606148096,-0.00240009600384256,-0.006360254410176539,0.9398775951037872,0.8414736589463622,1.0860434417376725,3.657892625557107,13.85390829049574,-13.781902530151228,1.5841267276043907,-1.1376910134615092,1.4113129027740763,-2.2609808748543223,4.449955989359948,-4.1907352521139,0.05402600000000013,0.02286699999999997,-0.9161009999999999,-0.024548000000000014,0.278748,-0.5749089999999999,0.07857400000000014,0.255881,0.34119200000000005,0.9869871776154095,0.0,single,-0.5749089999999999
35,0.291667,step_acsent,0.06431485481162605,0.07235421166306931,0.040916726661871294,-0.10201496123541763,-0.11966705351977036,-0.5194410680608649,0.005399568034539317,-0.0014398848092167015,-0.007559395248380189,0.866210703143758,0.9301655867530566,1.0958723302135822,2.3749788745384173,-7.87752682478257,18.589067295929866,0.1871147622259683,0.1152161260650177,-0.14388538975325763,-8.839319889612325,10.64217996240633,1.1793722673277742,0.05353499999999989,0.02225199999999994,-0.916505,-0.01786500000000002,0.28589699999999996,-0.566117,0.07139999999999991,0.263645,0.35038800000000003,0.9843321755973282,0.0,single,-0.566117
36,0.3,step_acsent,0.08556342253689733,0.06540261610463315,0.02952118084723018,-0.17922073198068433,-0.05219670435393868,-0.6327354664013322,0.008880355214224133,-0.0070802832113322205,-0.005040201608063963,1.0014400576023121,0.9777991119644797,1.1117244689787613,2.54993012423753,-0.8342248360057819,-1.3675201985648797,0.4177111700089793,-0.676874883249194,0.3023153294511259,16.228171661893008,5.716251675437799,1.9023327451313023,0.052896000000000054,0.021648,-0.916793,-0.010232999999999937,0.29350000000000004,-0.557099,0.06312899999999999,0.27185200000000004,0.35969399999999996,0.9792907192481379,0.0,single,-0.557099
37,0.308333,step_acsent,0.06684267370696488,0.045841833673345954,0.03996159846394172,0.018590311769902862,-0.11435176915068643,-0.5636266704879587,0.00204008160325617,-0.002280091203647086,-0.005040201608064346,0.9137165486619439,0.8521540861634459,0.9075963038521486,-2.246579722780796,-2.347387787265944,1.2529002300145802,-0.8208656679428699,0.5760460827655244,-4.590261927911729e-14,-10.527242162530651,-15.078006216372643,-24.496359669580205,0.05235599999999985,0.021247000000000016,-0.917168,-0.0031760000000000677,0.30021900000000007,-0.5498689999999999,0.055531999999999915,0.27897200000000005,0.36729900000000004,0.9901731121272597,0.0,single,-0.5498689999999999
38,0.316667,step_acsent,0.04535637149027977,0.019558435325177006,0.04667626589872509,0.7829273275379656,3.0487719672137464e-05,-0.7162533652070063,0.004919606431480438,-0.004199664026878744,-0.0022798176145910442,0.9674826013918859,0.8874490040796736,0.9061675065994775,-2.578150014001108,-3.1537555013401843,0.8056956365230871,0.34551533815986135,-0.23033031236281123,0.33121958165026605,6.451410214775902,4.235051345839686,-0.1714419549641344,0.052018999999999815,0.021048999999999984,-0.917576,0.004508999999999874,0.307452,-0.5427059999999999,0.04750999999999994,0.286403,0.37487000000000004,0.9885693791197208,0.0,single,-0.5427059999999999
39,0.325,step_acsent,0.061562462498497963,0.0337213488539511,0.05592223688948464,0.7940973447519147,0.07958366937349787,-0.5659710362904165,0.0012000480019279335,-0.004560182407294172,0.0007200288011519304,0.98307932317292,0.9075963038521553,0.8456738269530777,1.9448087133347087,1.6996176081572107,1.1095609013271945,-0.44636486614094434,-0.043263936207299486,0.35999596972794456,1.8716814809833242,2.417772683605131,-7.259531938845505,0.051515999999999895,0.020730000000000026,-0.9180360000000001,0.012187999999999866,0.31473400000000007,-0.536125,0.03932800000000003,0.29400400000000004,0.3819110000000001,0.9920498392278285,0.0,single,-0.536125
40,0.333333,step_acsent,0.06804272170886663,0.05916236649466914,0.0711628465138553,0.6799210578218775,0.023415985004432732,-0.5608458703489478,0.008400336013442297,-0.006840273610941304,0.0032401296051845414,0.9860794431777464,0.8714748589943608,0.7931117244689778,0.7776622117327116,3.053044238655718,1.8289463127769943,0.8640691241466916,-0.273621889313229,0.3024241934516521,0.3600288017312396,-4.334746772806257,-6.307704606276252,0.051018999999999926,0.020179999999999976,-0.918602,0.019838000000000022,0.321503,-0.5301089999999999,0.031180999999999903,0.301323,0.3884930000000001,0.9811546183030262,0.0,single,-0.5301089999999999
41,0.341667,step_acsent,0.06743460523157559,0.08507319414446352,0.0221982241420675,0.29661586344248414,0.03285065516469021,-0.3432792387067881,0.005759539236866806,-0.007559395248384352,0.005759539236860977,0.9523638108951108,0.873530117590593,0.7415406767458619,-0.07296813982373952,3.1090505939278077,-5.875284661841582,-0.3168702635679732,-0.08628769347768753,0.30230497140345974,-4.0455522297378925,0.2466113026436431,-6.188030684319161,0.05050500000000002,0.01940799999999998,-0.918739,0.02721299999999993,0.32807400000000003,-0.524114,0.02329200000000009,0.30866600000000005,0.394625,0.9814790628264445,0.0,single,-0.524114
42,0.35,step_acsent,0.08508340333614214,0.09312372494899807,0.018840753630154104,0.41025725258962414,-0.045016055115834855,-0.4146681388308715,0.012600504020163448,0.015000600024006007,0.021000840033601163,0.9915996639865777,0.843873754950198,0.6835473418936749,2.117940490167599,0.9661023406377739,-0.4029125779327257,0.8209486119400766,2.7073077249958497,1.8290292567790982,4.708490710604468,-3.558905873082326,-6.959478561404906,0.04990099999999997,0.018757000000000024,-0.918721,0.03476699999999999,0.33433,-0.518575,0.01513399999999998,0.315573,0.400146,0.9521336935726396,0.0,single,-0.518575
43,0.358333,step_acsent,0.09048361934476398,0.10512420496819684,0.039001560062391374,0.182339209734861,0.27210022457996474,-0.3753480720880443,0.007080283211332174,-0.004080163206525663,0.0066002640105603345,0.8933157326293022,0.8191527661106408,0.5773430937237477,0.6480518431083423,1.4401152069121235,2.4193935476103667,-0.6624529951795572,-2.2897831789909504,-1.728138248294824,-11.794543544614799,-2.9666373262399013,-12.745019581174462,0.04920600000000008,0.017847000000000057,-0.918991,0.04145700000000008,0.34028,-0.514089,0.007749000000000006,0.32243299999999997,0.404902,0.9824927295139629,0.0,single,-0.514089
44,0.366667,step_acsent,0.08147348212144175,0.06203503719702294,0.0759539236861044,1.1798290683444161,-0.17064003854253817,-0.5370504478698515,0.00839932805375743,-0.0019198464122889352,0.006119510439165153,0.9378449724021857,0.8489320854331642,0.6036717062634993,-1.0811299764005553,-5.170286509620094,4.433928920531916,0.15827271927348874,0.25921727792617305,-0.05768581370232555,5.343081326239913,3.573232460105999,3.159180770308565,0.048597,0.01731400000000005,-0.919573,0.048593999999999804,0.34683800000000004,-0.5096909999999999,3.0000000001972893e-06,0.329524,0.4098820000000001,0.9823866425359373,0.0,single,-0.5096909999999999
45,0.375,step_acsent,0.08724348973958046,0.08280331213249503,0.1344053762150501,1.1355935587886563,0.25450205744095844,-0.7826683988828741,0.010440417616698481,-0.02124084963398334,-0.01104044161766495,0.9486379455178292,0.8502340093603775,0.568702748109925,0.6924286113211003,2.4922926839640156,7.014454881668769,0.2449405451747337,-2.3186131311285796,-2.0592766178843327,1.2952085822205162,0.15623712075042506,-4.196442836142367,0.04795700000000003,0.01644699999999999,-0.920785,0.05577199999999993,0.35323299999999996,-0.506072,0.007814999999999905,0.336786,0.414713,0.9564726342688487,0.0,single,-0.506072
46,0.383333,step_acsent,0.08088323532942099,0.07356294251769785,0.0577223088923636,0.8583780229058501,-0.028499665620461526,-0.4889232346052949,-0.013440537621518336,-0.015600624024969978,0.05736229449177972,0.9246369854794302,1.0372014880595264,0.668666746669871,-0.7632610596615249,-1.1088887093240378,-9.202336172169291,-2.8658292617564953,0.6768541472474952,8.208656679400557,-2.880230413824443,22.43699492369487,11.99615967358049,0.04717099999999985,0.01570399999999994,-0.920788,0.06280299999999994,0.361263,-0.500981,0.01563200000000009,0.34555900000000006,0.41980700000000004,0.8984227120901201,0.0,single,-0.500981
47,0.391667,step_acsent,0.06395488360929856,0.05363570914326551,0.07367410607151462,0.9494196982034041,0.101377605547079,-0.5496808872805639,0.009959203263745522,0.012119030477563911,0.002639788816894788,0.9517638588912938,0.8179745620350352,0.47108231341492457,-2.0312397072381105,-2.391076718794375,1.9140625364952006,2.807744286688725,3.326092452907831,-6.56617538695523,3.2549644122706467,-26.305126712801897,-23.70823533176701,0.04672100000000001,0.015357999999999983,-0.9213800000000001,0.0702020000000001,0.367633,-0.49766900000000003,0.023481000000000085,0.352275,0.42371100000000006,0.9734887280596365,0.0,single,-0.49766900000000003
48,0.4,step_acsent,0.07680307212288147,0.08364334573383604,0.06408256330252264,0.5143749404657745,-0.06862782746718118,-0.5973760207808911,0.0033601344053662383,0.002880115204611053,-0.003840153606144323,0.9546381855274092,0.8463938557542271,0.3132125285011389,1.5418442954017586,3.6010604332857805,-1.1510311735259733,-0.7919199398031029,-1.1087141813215913,-0.7776241957325194,0.3449329936535952,3.4104516643695932,-18.945131994934,0.046108999999999956,0.014684999999999948,-0.9219459999999999,0.07751700000000006,0.37398899999999996,-0.49559299999999995,0.0314080000000001,0.359304,0.426353,0.9902343648820154,0.0,single,-0.49559299999999995
49,0.408333,step_acsent,0.08484339373575123,0.08076323052921221,0.05256210248410543,0.5669360971493206,0.00970063911714863,-0.5378412068105807,-0.007920316812660463,0.0056402256090266846,-0.0052802112084482196,0.912276491059631,0.852874114964601,0.44065762630505434,0.9648771886319186,-0.3456276496608474,-1.3825105986340143,-1.3537082944949872,0.33122649758978023,-0.1728138248294612,-5.0836066804006075,0.777662211733336,15.294023497409787,0.04533600000000004,0.014059000000000044,-0.922428,0.08441199999999993,0.38042300000000007,-0.492359,0.03907599999999989,0.366364,0.43006900000000003,0.9815590888285904,0.0,single,-0.492359
50,0.416667,step_acsent,0.07763378929686388,0.08315334773218791,0.0638348932085405,0.4409800528860358,0.07059161561821191,-0.7069955743083036,-0.00227981761458978,-0.014518838492925082,-0.005519558435325277,0.8538516918646647,0.8526517878569674,0.3783297336213053,-0.8650833260004013,0.2867911210673987,1.3526266767980626,0.6768057593077367,-2.4188941806997537,-0.028719369675672766,-7.01041507019034,-0.026677118746531156,-7.478748822144108,0.04466999999999999,0.013244999999999951,-0.923006,0.09088099999999999,0.38683599999999996,-0.489738,0.046211,0.373591,0.433268,0.9738349382201078,0.0,single,-0.489738
51,0.425,step_acsent,0.05688227529099539,0.2581303252130108,-0.36457458298331846,-4.5534400083304725,-0.9300052731595747,0.039249425833337834,0.05712228489138631,-0.016680667226689136,-0.01896075843033707,0.8678747149885904,0.82575303012121,0.3726149045961877,-2.4902812919559025,20.998077220787632,-51.411193590766835,7.128537442214837,-0.25942982524469693,-1.6130085197422088,1.6828300880746077,-3.2279800474927884,-0.6858069152907261,0.044672000000000045,0.010954999999999937,-0.920126,0.09763900000000003,0.39156599999999997,-0.483595,0.052966999999999986,0.38061100000000003,0.436531,0.8959072201965712,0.0,single,-0.483595
52,0.433333,step_acsent,0.07716308652348117,0.05364214568582423,0.061442457698302505,0.2081555050066257,0.3772925354916589,-0.821741881963928,0.043801752070076465,-0.03888155526220924,-0.03432137285491424,0.8396735869434913,0.8220328813152485,0.33241329653185925,2.4337946996862705,-24.53956312578732,51.12408984538811,-1.5985278796723614,-2.6642131327877125,-1.8433474648478467,-3.3842707362413287,-0.44643571414394373,-4.824385943157118,0.04439399999999982,0.01018399999999997,-0.920924,0.103993,0.397969,-0.48133699999999996,0.05959900000000018,0.38778500000000005,0.439587,0.8868589196982771,0.0,single,-0.48133699999999996
53,0.441667,step_acsent,0.034557235421147775,0.11039116870650793,-0.06635469162466016,-1.0185964321020955,0.024984971322944315,-0.46542945700108773,0.017998560115202226,-0.0405567554595574,-0.028197744180465615,0.9104871610271144,0.7866570674346072,0.2736981041516734,-5.11229314882813,6.809338015440847,-15.334431164262465,-3.0961353437574255,-0.20100794304633668,0.7347766588011351,8.496949134104092,-4.2447580850301865,-7.045259464865153,0.04425600000000007,0.00892599999999999,-0.920606,0.11129300000000009,0.40360499999999994,-0.478503,0.06703700000000001,0.39467899999999995,0.442103,0.9123784755564233,0.0,single,-0.478503
54,0.45,step_acsent,0.0016800672027097656,0.048721948877943684,-0.06480259210368207,-0.40308621444229675,-0.12973962757743465,-0.5050160694197394,-0.006960278411123393,-0.05268210728430054,0.028081123244929868,0.8574342973718861,0.7679107164286558,0.2527301092043667,-3.9454180029326618,-7.40060240352382,0.18625939289308638,-2.995180430376277,-1.4551004229860902,6.753734240417046,-6.366598302559461,-2.249652106798424,-2.5162600440785527,0.044184,0.008081000000000005,-0.9198320000000001,0.11842399999999986,0.409598,-0.47585700000000003,0.07423999999999986,0.401517,0.44397500000000006,0.8998279343361323,0.0,single,-0.47585700000000003
55,0.458333,step_acsent,0.05844233769349639,0.06768270730829357,-0.030361214448585066,-0.3189109144399602,0.18511863156965708,-0.6006759194810644,0.024360974438972005,-0.03900156006239164,-0.0027601104044164457,0.8739949597983855,0.747629905196208,0.21768870754830036,6.811744928691559,2.2753820269230682,4.133130643837403,3.7587006900390585,1.6417313358825076,-3.7010960817648373,1.9873589855393472,-2.433794699681735,-4.205136404184142,0.04390000000000005,0.007192000000000087,-0.919602,0.1252199999999999,0.415264,-0.47379,0.08131999999999984,0.40807199999999993,0.44581200000000004,0.9232211514159524,0.0,single,-0.47379
56,0.466667,step_acsent,0.08111351091911426,0.07427405807535824,0.11903047756179409,0.15814580595217131,-0.1626200912963923,-0.7456885890862777,0.0227981761458978,-0.04715622750181034,0.0015598752099830946,0.8740100791936718,0.7283417326613888,0.17206623470122265,2.720323161221244,0.7908988201421484,17.925568995725826,-0.18752079350542392,-0.9784818141851083,0.5183568051835297,0.0018141822997734041,-2.314395552534097,-5.474258800945244,0.043414000000000064,0.006179999999999963,-0.920581,0.13182800000000006,0.420715,-0.473348,0.08841399999999999,0.41453500000000004,0.447233,0.9126644428010149,0.0,single,-0.473348
57,0.475,step_acsent,0.08004320172809275,0.13812552502100275,-0.026761070442814564,-1.1089935556602777,0.4794819253945059,-0.5869135517495951,0.030361214448585066,-0.045481819272773207,0.0057602304092167315,0.8174726989079631,0.716428657146288,0.15528621144846042,-0.12844224061220597,7.6624825327786725,-17.495685587976602,0.9076009003584884,0.20093702496545493,0.5040627864194944,-6.784757024566037,-1.429626246861973,-2.0136833376649794,0.04299999999999993,0.004649999999999932,-0.92031,0.1379729999999999,0.42553399999999997,-0.471831,0.09497299999999997,0.42088400000000004,0.44847899999999996,0.9083548588679404,0.0,single,-0.471831
58,0.483333,step_acsent,0.053522140885628774,0.061442457698302505,0.09960398415936565,0.680616514081246,-0.17021440899263424,-0.8489726588639331,0.020400816032641638,-0.040081603264123855,0.002760110404416011,0.8155526221048837,0.6900276011040386,0.10944437777510675,-3.1826546072799546,-9.202336172170877,15.164413128786716,-1.195295621738076,0.6480518431116439,-0.36002880172815405,-0.23041843310686147,-3.1682534552081236,-5.501240090406033,0.042723999999999984,0.0038040000000000296,-0.921117,0.14432299999999998,0.43077200000000004,-0.47174900000000003,0.101599,0.426968,0.44936799999999993,0.9249010574037883,0.0,single,-0.47174900000000003
59,0.491667,step_acsent,0.0794336453083681,0.09335253179746289,0.060835133189349015,0.04632257007612334,-0.20635713857131435,-0.7071835524895463,0.014278857691382303,-0.03635709143269174,0.00719942404607643,0.8144948404127681,0.6691864650827926,0.06203503719702294,3.109131800184702,3.828902579692867,-4.651889965204775,-0.7345762348523314,0.4469056673184682,0.53267502299741,-0.12692364916193496,-2.500736263648431,-5.688665776107963,0.042181000000000024,0.00272299999999992,-0.921564,0.15044900000000005,0.43557099999999993,-0.4717390000000001,0.10826800000000003,0.432848,0.449825,0.9338025768164508,0.0,single,-0.4717390000000001
60,0.5,step_acsent,-0.051602064082555084,0.08760350414016684,-0.15420616824674124,-0.9401480530667626,0.14352025180577527,-0.0633696780930278,0.010320412816516345,-0.028921156846266206,0.0036001440057600925,0.7535101404056089,0.6582263290531659,0.04080163206528355,-15.72491412347576,-0.6899109153121408,-25.80598841186737,-0.4750323862793673,0.8923478442848374,-0.43193088207324454,-7.318456739128683,-1.315268934312573,-2.548110540230343,0.042696999999999985,0.0017519999999999758,-0.920249,0.1571579999999999,0.440326,-0.470114,0.11446099999999992,0.438574,0.450135,0.9484704704160416,0.0,single,-0.470114
61,0.508333,step_acsent,0.03948157926317321,0.11688467538700531,0.06744269770791553,-0.007153440834191723,-0.09773614138792441,-0.7069704158554619,0.008520340813624377,-0.027361094443778353,0.008040321612864611,0.726869074762985,0.6283451338053485,0.014760590423621652,10.930474420464169,3.513881104864797,26.598927871673567,-0.21601728103827675,0.18721497689761749,0.5328426265576023,-3.1970557593452305,-3.5858868652126823,-3.125049998999374,0.042438999999999893,0.0005500000000000504,-0.920744,0.16288599999999986,0.44458800000000004,-0.470553,0.12044699999999997,0.444038,0.450191,0.950393983665174,0.0,single,-0.470553
62,0.516667,step_acsent,0.057955363570916,0.07715382769379216,0.05471562275018173,0.6255813145016192,0.014656925525763738,-0.6902282619079538,0.002879769618433422,-0.0202783777297787,0.00743940484761218,0.7141828653707692,0.6067914566834695,-0.02363810895128436,2.2166767827865246,-4.7673203375586,-1.5271268247820822,-0.6768143982710568,0.8498580170386002,-0.07210424349081285,-1.5222233491979644,-2.586234355877031,-4.60747532696259,0.041979999999999906,-0.00026199999999998447,-0.921138,0.1683549999999998,0.449002,-0.471206,0.1263749999999999,0.449264,0.449932,0.9636815618875698,0.0,single,-0.471206
63,0.525,step_acsent,0.05064202568101772,0.10212408496339033,0.07332293291730645,0.4344654494549643,-0.045027914940119956,-0.7280982913171523,0.004680187207476307,-0.01236049441978577,0.008760350414016542,0.6572662906516444,0.5917436697467863,-0.04056162246489902,-0.8776356522138781,2.9965507343811435,2.2329665387165054,0.21605875303526667,0.9501840045593299,0.15851980876087313,-6.83026217678202,-1.805806664668561,-2.030902857748061,0.041596999999999884,-0.0012159999999999949,-0.9216759999999999,0.17341000000000006,0.45308200000000004,-0.47215499999999994,0.13181300000000018,0.45429800000000004,0.449521,0.973572441048167,0.0,single,-0.47215499999999994
64,0.533333,step_acsent,0.09252370094804803,0.1220448817952784,0.061922476899085165,0.008387714075224359,0.1584082489384488,-0.6294449626764238,0.006720268810759212,-0.008040321612855976,0.012120484819392935,0.7326293051722168,0.5413416536661534,-0.060962438497541474,5.026002072126568,2.3905912434763303,-1.368109446564429,0.244819585177358,0.5184414744905597,0.4032322579354883,9.043923499408743,-6.048483869030763,-2.448195851751187,0.04088199999999986,-0.0022999999999999687,-0.922091,0.17874400000000001,0.456576,-0.473179,0.13786200000000015,0.45887599999999995,0.448912,0.9732961230039034,0.0,single,-0.473179
65,0.541667,step_acsent,0.006599472042226519,0.08675305975522242,-0.018478521718260896,0.42954936469675264,-0.08737473606810642,-0.5424325044039006,0.008279337652999309,-0.00659947204223984,0.012598992080633148,0.6585073194144343,0.5213582913366877,-0.13018958483321266,-10.310082662085536,-4.234679870417053,-9.647348046237756,0.18707329520519372,0.17288811742454094,0.0574162780465814,-8.89392677679169,-2.397811654603502,-8.306593032837853,0.04089600000000004,-0.003078000000000025,-0.921832,0.18417700000000004,0.460198,-0.47411000000000003,0.143281,0.463276,0.44772199999999995,0.9725715544726661,0.0,single,-0.47411000000000003
66,0.55,step_acsent,0.046921876875078435,0.12108484339372644,-0.0007200288011594248,-0.05039094899424864,0.0037596667151085753,-0.5199823668659498,0.01176047041880848,-0.007680307212282817,0.013920556822273014,0.6061442457698183,0.512180487219486,-0.10848433937357639,4.838882135227619,4.119978835773896,2.1311043942279366,0.4177526420027789,-0.1297054086215015,0.1585941127612938,-6.283820190161501,-1.1013805492861715,2.604733644502122,0.040602999999999945,-0.004150999999999905,-0.9217099999999999,0.18883699999999992,0.463457,-0.475008,0.14823399999999998,0.4676079999999999,0.44670199999999993,0.9670405263328818,0.0,single,-0.475008
67,0.558333,step_acsent,0.042961718468722154,0.12216488659547386,-0.005040201608062748,0.05739955268275107,0.020716141740070998,-0.5629274963626227,0.010200408016334279,-0.005400216008649127,0.00828033121324856,0.5955838233529457,0.48217928717149383,-0.10908436337453516,-0.4752380182834893,0.12961036862443742,-0.5184414744873831,-0.18721497689598163,0.2736218893116178,-0.6768541472488306,-1.2673013820800074,-3.600288017279778,-0.07200576034546632,0.0403300000000002,-0.005214000000000052,-0.921599,0.1934420000000001,0.466457,-0.475875,0.15311199999999991,0.47167100000000006,0.44572399999999995,0.976325439013758,0.0,single,-0.475875
68,0.566667,step_acsent,0.04883609311255617,0.1429085673146068,0.013798896088309977,-0.17871210061783968,0.2527774654260061,-0.5957294377547913,0.0061195104391409665,-0.0040796736261072995,0.004919606431485368,0.5537556995440366,0.4611231101511826,-0.13522918166546444,0.7048685677746546,2.489042562890902,2.2605108826940943,-0.4896685357803313,0.1584524097122411,-0.40325471343450514,-5.018973339201918,-2.526539119307781,-3.137127224733511,0.039973999999999954,-0.0064389999999999725,-0.921673,0.1976500000000001,0.469109,-0.47711699999999996,0.15767600000000015,0.47554799999999997,0.444556,0.9852526205387173,0.0,single,-0.47711699999999996
69,0.575,step_acsent,0.06684267370696577,0.13164526581063538,-0.0074402976119053235,-0.24404141869141652,-0.14247499877389996,-0.4379067561940131,0.004680187207503015,-0.006360254410172833,0.0001200048001921288,0.5183007320292813,0.4327373094923834,-0.14088563542541932,2.1608761063734265,-1.3516502464864426,-2.5488051962337086,-0.1727256968244287,-0.2736806413135191,-0.5759752347645846,-4.254766292422372,-3.406432336349389,-0.6788016032587224,0.039455999999999936,-0.007588999999999957,-0.9216099999999999,0.20141199999999992,0.471618,-0.47822899999999996,0.161956,0.47920699999999994,0.44338099999999997,0.9868374067892436,0.0,single,-0.47822899999999996
70,0.583333,step_acsent,0.043801752070076465,0.14556582263290707,-0.034801392055670254,-0.42426124023887335,0.21610184138157215,-0.4937273126941859,0.006840273610941258,-0.005280211208453596,-0.001200048001920023,0.4958598343933766,0.4221768870754821,-0.14580583223328467,-2.7650211972745957,1.6705336400181972,-3.2834626717586484,0.25922073724207767,0.12961036862105274,-0.15841267276036797,-2.6930154369260273,-1.2673013820834347,-0.5904472348332324,0.03914799999999996,-0.00884600000000002,-0.9213300000000001,0.205179,0.473923,-0.479154,0.16603100000000004,0.482769,0.44217600000000007,0.9854598172977501,0.0,single,-0.479154
71,0.591667,step_acsent,0.03767698584112348,0.08567314614830657,0.05615550755938437,0.7208878551178831,-0.18768570829727899,-0.6503892310086183,0.0029997600191914503,-0.00455963522917953,-0.005399568034557182,0.43688504919606164,0.37568994480441215,-0.18766498680105567,-0.7349131544219989,-7.18654625445165,10.913954837419478,-0.46082476502877107,0.08646220053684438,-0.5039020917491154,-7.076408111028861,-5.577986833581668,-5.022696732393891,0.03885899999999998,-0.009597999999999995,-0.921843,0.20850600000000008,0.47634,-0.48118599999999995,0.1696470000000001,0.485938,0.440657,0.9872041490496457,0.0,single,-0.48118599999999995
72,0.6,step_acsent,0.07608304332173638,0.14172566902676087,-0.049681987279481366,-0.16463132744782602,0.27753317129563093,-0.34377213516260907,0.004800192007685152,-0.003360134405379606,-0.006120244809792323,0.4179767190687549,0.36193447737909906,-0.1828873154926244,4.608911254123755,6.726571808286909,-12.701007420960842,0.2160604810384877,0.14394585669025978,-0.08648467241511429,-2.2690903788919865,-1.650722119922382,0.5733434907513869,0.03826499999999999,-0.010807000000000011,-0.9214800000000001,0.21135499999999996,0.478175,-0.48229600000000006,0.17308999999999997,0.488982,0.439184,0.9858785286546563,0.0,single,-0.48229600000000006
73,0.608333,step_acsent,0.04908196327854338,0.13836553462139276,0.03504140165606117,-0.03237921452328428,0.12032314185572918,-0.6879447786156643,0.0014400576023188495,-0.003840153606134747,-0.008160326413056739,0.39997599903996356,0.35065402616104424,-0.22812912516500397,-3.240259215551768,-0.40323225793448947,10.167213360799495,-0.403232257934272,-0.05760460827494765,-0.24481958517513588,-2.160172810367365,-1.3537082944983527,-5.429234330058727,0.03786800000000001,-0.011992000000000003,-0.92184,0.2142789999999999,0.4799439999999999,-0.484489,0.17641099999999987,0.49193599999999993,0.437351,0.9847783530617726,0.0,single,-0.484489
74,0.616667,step_acsent,0.04811615070792848,0.10883129349651983,0.052435805135591936,0.3672143817719042,-0.13276860252497008,-0.5576522053222632,0.0016798656107461687,-0.0007199424046150163,-0.009359251259899046,0.374010079193671,0.3447324214062895,-0.20770338372930075,-0.11588823741479536,-3.5438254289504547,2.0871614446281335,0.02877465903855538,0.3743953925509657,-0.14385947286324857,-3.1156611286648292,-0.7105357277123544,2.4508929008523324,0.0374810000000001,-0.012905000000000055,-0.922355,0.21699500000000005,0.48190999999999995,-0.486657,0.17951399999999995,0.494815,0.43569800000000003,0.9841066182814939,0.0,single,-0.486657
75,0.625,step_acsent,0.05472218888755671,0.11808472338893325,-0.024000960038398793,0.039419692882978995,0.043426682654049545,-0.4092857542316663,-0.0006000240009639668,-0.0008400336013415596,-0.008760350414016542,0.35125405016199324,0.30229209168366694,-0.25033001320053083,0.7927562918070558,1.1104560053298183,-9.17277873202813,-0.2735976973131076,-0.014411520067987852,0.07187097634495399,-2.730832717110007,-5.093043288446225,-5.115400152553691,0.03702000000000005,-0.01389600000000002,-0.922228,0.21946599999999994,0.48344499999999996,-0.48854300000000006,0.18244599999999989,0.497341,0.433685,0.9852983915629129,0.0,single,-0.48854300000000006
76,0.633333,step_acsent,0.0348013920556969,0.15432617304692237,-0.022800912036484183,-0.47525336096874954,0.22514083213474995,-0.3861836952497411,-0.002160086403464951,0.0003600144005730508,-0.009480379215168888,0.327493099724012,0.30721228849153753,-0.23364934597383516,-2.390591243472906,4.349147924875671,0.14401152069058015,-0.18721497689919328,0.14401152069058026,-0.08640691241477785,-2.8514281096821206,0.5904472348338619,2.0017601376089766,0.036711999999999856,-0.015179000000000054,-0.9221170000000001,0.22190500000000002,0.48471899999999996,-0.4903,0.18519300000000016,0.499898,0.43181700000000006,0.9837833098918926,0.0,single,-0.4903
77,0.641667,step_acsent,0.05615550755938512,0.09227261819053433,0.016438684905200805,0.41767463592525905,-0.14392899310130144,-0.4931753029260159,-0.0032397408207342692,0.0031197504199628797,-0.009599232061434749,0.33249340052794246,0.29409647228222013,-0.2582193424526104,2.562288877332415,-7.445830916293303,4.708374963005185,-0.1295481662190214,0.3311418309803029,-0.014261200655850856,0.5999880974238617,-1.5737720433546285,-2.9481637243550987,0.036216999999999944,-0.01592199999999999,-0.922334,0.22420799999999996,0.4864010000000001,-0.492589,0.18799100000000002,0.5023230000000001,0.429745,0.9823322312106616,0.0,single,-0.492589
78,0.65,step_acsent,0.07128285131405028,0.08820352814113022,0.08676347053882469,0.9374348104761145,0.0068543985106884475,-0.7182446393258044,-0.004320172806903256,0.0037201488059526123,-0.008040321612864611,0.30433217328694145,0.25969038761550345,-0.26521060842433464,1.8153538647144,-0.48831033834202403,8.43931184850877,-0.1296570246212627,0.07205068834630146,0.18707673689789167,-3.3794824482180355,-4.1288953158186175,-0.8389854760259445,0.035587000000000035,-0.01662600000000003,-0.9231240000000001,0.22615000000000007,0.48783,-0.495522,0.19056300000000004,0.504456,0.42760200000000004,0.9835725355427231,0.0,single,-0.495522
79,0.658333,step_acsent,0.06708268330733005,0.10740429617184535,0.09972398895956243,0.7888714888922835,0.000999729368211756,-0.7185075710059338,-0.0030001200047932272,0.003960158406343581,-0.00648025921036871,0.2763710548421895,0.24744989799592143,-0.2866914676587059,-0.5040403224193285,2.304184331059079,1.5553244234654817,0.15841267276011528,0.0288023041390821,0.1872149768985858,-3.3554684321075507,-1.4689175110502977,-2.57780622037339,0.03500300000000012,-0.017487999999999948,-0.9240090000000001,0.22789400000000004,0.488997,-0.498742,0.19289099999999992,0.506485,0.42526700000000006,0.9863906349564331,0.0,single,-0.498742
80,0.666667,step_acsent,0.025797936165115744,0.14110871130310257,-0.10931125509959061,-0.8122637878764771,0.17428219526332497,-0.08743432819707309,-0.005279577633807858,0.007319414446841525,-0.003839692824573682,0.26997840172786997,0.2387808975281966,-0.27513798896087976,-4.953773355197264,4.044206279248495,-25.082222709281428,-0.27351303443899855,0.40307847858146373,0.31684261888589005,-0.7670570091576044,-1.0401968403797426,1.3863065392159886,0.034743999999999886,-0.018603000000000036,-0.92313,0.22992900000000005,0.489811,-0.500124,0.19518500000000016,0.508414,0.423006,0.9836538308239855,0.0,single,-0.500124
81,0.675,step_acsent,0.053042121684873586,0.13188527541101122,-0.02496099843993581,-0.059030900171813006,0.2952488971324264,-0.4091007444580149,-0.003960158406330205,0.004200168006721121,-0.0030001200048002654,0.24768990759628406,0.22200888035521216,-0.2826113044521764,3.269433039692515,-1.1068565813142097,10.122435696586397,0.1583366407629483,-0.37432454579627883,0.1007527684835489,-2.6747262848416904,-2.01272256966091,-0.8968337323048865,0.03426899999999988,-0.01966699999999999,-0.9229470000000001,0.23155099999999984,0.490562,-0.502271,0.19728199999999996,0.510229,0.42067600000000005,0.9891570573475552,0.0,single,-0.502271
82,0.683333,step_acsent,0.09492379695187728,0.09888395535822087,0.04140165606623447,0.7085249487697559,0.1031218336140354,-0.5477189360787852,-0.003360134405366283,0.0021600864034516565,0.0007200288011519401,0.2118084723388975,0.19824792991719858,-0.3115324612984599,5.026002072123374,-3.960316819007639,7.963837094224275,0.07200576034608512,-0.24481958517574498,0.44643571414283445,-4.305944468665174,-2.8514281096860423,-3.470677648659997,0.03344999999999998,-0.020473000000000074,-0.9232859999999999,0.23252499999999987,0.49138999999999994,-0.505212,0.1990749999999999,0.5118630000000001,0.41807399999999995,0.9932351155945264,0.0,single,-0.505212
83,0.691667,step_acsent,0.07463402927764527,0.18838492920565736,-0.17890568754499744,-1.2961930242192534,0.5208402137351589,-0.10515320221168693,-0.0035997120230350688,0.0007199424046150068,0.0,0.215382769378447,0.18802495800335817,-0.29169666426685176,-2.4345773547194445,10.739257721074612,-26.434766452031464,-0.028747014359105354,-0.17280345558394994,-0.08639654441467898,0.4288813342391984,-1.2266584969810823,2.38010523537413,0.032798000000000105,-0.022036999999999973,-0.9217949999999999,0.23369799999999996,0.491387,-0.5061519999999999,0.20089999999999986,0.513424,0.415643,0.9938816660504073,0.0,single,-0.5061519999999999
84,0.7,step_acsent,0.05436217448698438,0.12876515060602428,-0.0076803072122829195,0.14024820650438863,0.16567160289005886,-0.2970007678791729,-0.002640105604246818,0.00024000960037759599,0.0014400576023042965,0.16956678267132144,0.16548661946478074,-0.32677307092284363,-2.432719883674676,-7.1546596183407685,20.547867554628116,0.1151573765496531,-0.05759424027810094,0.17281382482951035,-5.498138330388333,-2.704708812981835,-4.209337172205952,0.03232299999999988,-0.023108000000000017,-0.921719,0.23465800000000003,0.491693,-0.508811,0.20233500000000015,0.5148010000000001,0.41290799999999994,0.9949718768390505,0.0,single,-0.508811
85,0.708333,step_acsent,0.08784351374054385,0.06072242889715641,0.15504620184806844,1.6211001600551593,-0.510848449781407,-0.5801323557654707,-0.0030001200047931873,0.0019200768030740352,-0.0001200048001921272,0.19320772830911828,0.1911676467058671,-0.2827313092523652,4.01792142728421,-8.165453223193039,19.52796220573031,-0.043203456203812274,0.2016161289687306,-0.187214976898646,2.8370269576139133,3.081846542792063,5.2852228093697615,0.03156599999999998,-0.023598000000000008,-0.9230119999999999,0.23553599999999997,0.49278,-0.512459,0.20396999999999998,0.516378,0.41055299999999995,0.9940600654406587,0.0,single,-0.512459
86,0.716667,step_acsent,0.06215502759779391,0.10439164866811024,0.030837532997367502,0.6634925457826787,0.0872514150922803,-0.42160908543058195,-0.002039836813046989,0.0013198944084453037,0.0007199424046075133,0.1567074634029301,0.15790736741060568,-0.31917446604271366,-3.082371747390177,5.239887181539896,-14.90384795424766,0.11522476502834067,-0.072016126065362,0.10078560172781786,-4.3796814142294105,-3.9909142422919577,-4.372828988522697,0.03103100000000003,-0.024457000000000062,-0.9232630000000001,0.23632399999999998,0.49322599999999994,-0.5153760000000001,0.20529299999999995,0.517683,0.407887,0.9957765954559874,0.0,single,-0.5153760000000001
87,0.725,step_acsent,0.11268450738029902,0.11184447377894413,0.039481579263173736,0.6153616634551129,-0.06992264536074694,-0.41308933013528043,-0.001560062402501005,0.0,0.0009600384015361976,0.15420616824672895,0.17100684027361365,-0.3056522260890489,6.063780125105672,0.8943747882916071,1.0373270449785568,0.057575232274809575,-0.15839366476002828,0.028812672138327913,-0.3001674254411584,1.5719996235459128,1.6227337037879364,0.030078999999999967,-0.025388999999999995,-0.9235840000000001,0.23666999999999994,0.493719,-0.518252,0.20659099999999997,0.519108,0.405332,0.9969470103759133,0.0,single,-0.518252
88,0.733333,step_acsent,0.06120244809792492,0.12888515540621803,0.014400576023028617,0.2883552051051679,0.030702596210528316,-0.29891461944786096,-0.002280091203647086,0.0006000240009639668,-0.0010800432017283122,0.12612504500181576,0.13968558742349615,-0.3345733829353175,-6.178094237654372,2.0449635938166124,-3.0098407824486992,-0.0864069124140259,0.07200576034608955,-0.24481958517514713,-3.3698695841729354,-3.7587006900416857,-3.4706776486581656,0.029549999999999965,-0.02645799999999998,-0.9237129999999999,0.23721100000000006,0.493809,-0.52116,0.2076610000000001,0.520267,0.40255299999999994,0.9956777905546272,0.0,single,-0.52116
89,0.741667,step_acsent,0.05063594912406105,0.15370770338372736,-0.03155747540195629,-0.03002189741669317,0.09464227761209439,-0.007185170979014691,-0.0011999040076872533,0.0008399328053730844,-0.0008399328053751658,0.13414926805855037,0.1340292776577873,-0.31641468682505586,-1.267878446587944,2.9784674799027435,-5.5145250089975,0.12961209454761685,0.02878675358880717,0.02881094268696277,0.9628297404289249,-0.6787028756550142,2.1788692236935163,0.029117999999999977,-0.02773199999999998,-0.9234570000000001,0.2379070000000001,0.493645,-0.523534,0.2087890000000001,0.521377,0.39992300000000003,0.9971859756660457,0.0,single,-0.523534
90,0.75,step_acsent,0.05892235689427783,0.1654866194647802,-0.060362414496583354,-0.6255325970419153,0.35044599311474595,-0.13771474831960442,-0.0021600864034383048,0.0007200288011594248,-0.002520100804032173,0.10704428177125755,0.12228489139565604,-0.3313332533301334,0.9944087087743598,1.4135264707851654,-3.456730960593657,-0.11522649654998769,-0.014389056067881805,-0.20162822496783872,-3.25272846361367,-1.4093827267648156,-1.7902995925930032,0.028609000000000107,-0.029104999999999936,-0.922975,0.23830799999999996,0.49328500000000003,-0.525792,0.20969899999999986,0.5223899999999999,0.39718299999999995,0.9943393848961781,0.0,single,-0.525792
91,0.758333,step_acsent,0.07332293291733309,0.13716548661946482,-0.02532101284050886,-0.10765622133175758,0.11231505724692381,-0.2009694993925838,-0.0003600144005730508,0.0004800192007685088,-0.0012000480019204393,0.10752430097203938,0.10944437777511008,-0.33577343093723216,1.7281382482965564,-3.398671888313363,4.205136404185089,0.21601728103507098,-0.02880230413907536,0.15841267276031779,0.05760460827815094,-1.5409232713963645,-0.5328426265569101,0.027994999999999992,-0.030243999999999938,-0.9227740000000001,0.23859299999999983,0.493054,-0.528379,0.21059799999999984,0.5232979999999999,0.39439500000000005,0.9977638425762038,0.0,single,-0.528379
92,0.766667,step_acsent,0.11387089032875834,0.07811375089992331,0.06959443244539444,0.16052872675642613,-0.04864640195393097,-0.6174478870795821,-0.0034797216222770488,-0.001319894408458643,-0.003359731221501912,0.11459083273338667,0.1154307655387581,-0.34149268058555693,4.865365660118249,-7.085641435030219,11.388942318922947,-0.374334919810897,-0.21597235531883394,-0.25914125504937424,0.8479159780834331,0.7183090669124129,-0.6862550573943841,0.02701700000000007,-0.03090599999999999,-0.9233819999999999,0.238599,0.49336500000000005,-0.531805,0.21158199999999994,0.524271,0.39157699999999995,0.9916436355428336,0.0,single,-0.531805
93,0.775,step_acsent,0.11304452178087057,0.07068282731309963,0.048121924876993044,0.43551632988185834,0.06847005710138611,-0.656101189067277,-0.0014400576023188495,-0.0002400096003775928,-0.0021600864034562075,0.10500420016800138,0.09672386895475793,-0.3399735989439533,-0.09916819247423105,-0.8917465002788489,-2.5768039803673717,0.24476947317390985,0.12959136062415047,0.1439631366909516,-1.1504419255232512,-2.244917386775482,0.1822970888759907,0.026062999999999947,-0.031497,-0.923801,0.23853199999999997,0.49358199999999997,-0.5350389999999999,0.21246900000000002,0.525079,0.38876200000000005,0.9956547139920668,0.0,single,-0.5350389999999999
94,0.783333,step_acsent,0.025321012840509197,0.06816272650906254,-0.0014400576022922224,0.28154482405663606,-0.07975756321666921,-0.35737348746024167,-0.002640105604220172,-0.0008400336013415707,-0.0033601344053762754,0.09000360014400999,0.0916836673466948,-0.3319332773310952,-10.527242162529962,-0.3024241934521926,-5.947675804546469,-0.14401152068898757,-0.07200576034609185,-0.1440115206912371,-1.8001440086393294,-0.604848386903058,0.9648771886305277,0.02583000000000002,-0.03207199999999999,-0.923817,0.23907100000000003,0.493778,-0.537793,0.213241,0.5258499999999999,0.38602400000000003,0.9927416107397847,0.0,single,-0.537793
95,0.791667,step_acsent,0.05939524838014524,0.08339332853371681,0.02687784977201827,0.15431523503475347,0.06687056713978376,-0.4675708713208256,-0.002279817614589765,-0.0019198464122889224,-0.003959683225342156,0.07955363570915229,0.07163426925845881,-0.3422126229901607,4.088581178262032,1.827526040875229,3.3978770547528527,0.04323110026762711,-0.129567171939926,-0.0719401031876501,-1.2538954205492703,-2.4057353117633586,-1.233422805263432,0.025315999999999894,-0.03278300000000001,-0.9240740000000001,0.23923899999999998,0.49368,-0.540869,0.21392300000000009,0.526463,0.383205,0.9917399102359551,0.0,single,-0.540869
96,0.8,step_acsent,0.02628105124204588,0.08412336493459123,-0.000240009600390916,0.05716694266601651,-0.06247305229681835,-0.3495502514301691,-0.0021600864034383048,-0.000120004800195458,-0.0034801392055679413,0.058562342493704775,0.06516260650426012,-0.324612984519381,-3.97386261107635,0.08760787241982687,-3.254273295620914,0.014368320070977993,0.2159896330365363,0.057547584276276556,-2.519055948091615,-0.776630595727669,2.112041098137483,0.025079000000000073,-0.03348499999999999,-0.924101,0.23950800000000005,0.493522,-0.5435719999999999,0.21442899999999998,0.527007,0.380529,0.9931703783835657,0.0,single,-0.5435719999999999
97,0.808333,step_acsent,0.04632185287411508,0.10788431537261386,-0.035041401656061635,-0.47658991639820025,0.16458550217318246,-0.24682355260388045,-0.0033601344053929296,-0.0003600144005730556,-0.0033601344053762754,0.05748229929195974,0.05616224648985965,-0.3140525621024846,2.404992395544148,2.85142810968713,-4.176334100044526,-0.14401152069538412,-0.02880230413747747,0.014401152069082804,-0.12961036862415012,-1.0800864051842731,1.2673013820828587,0.024664999999999937,-0.034386999999999945,-0.923837,0.23960099999999995,0.49309100000000006,-0.5458970000000001,0.21493600000000002,0.527478,0.37793999999999994,0.9920573904349321,0.0,single,-0.5458970000000001
98,0.816667,step_acsent,0.01583873290137029,0.02447804175667044,-0.014398848092153596,-1.0048938442945705,-0.1286675898093939,-0.7887758588305993,-0.005159587233023149,-0.00155987520998808,-0.0032397408207342263,0.052915766738650144,0.043916486681065806,-0.31197504199663684,-3.6576817821867724,-10.007952197737316,2.476908275006945,-0.21591706595034862,-0.14397177938745082,0.014446074471088092,-0.5479400711914523,-1.4693736271650772,0.2492824701041227,0.0244899999999999,-0.03460400000000008,-0.923744,0.23990999999999985,0.49325299999999994,-0.548377,0.21541999999999994,0.527857,0.375367,0.9895184723771026,0.0,single,-0.548377
99,0.825,step_acsent,0.05892235689427861,0.12912516500659735,-0.07020280811233205,-1.0188440382671704,0.3575533590014601,-0.12257865350429421,-0.0025201008040380353,-0.0006000240009506516,-0.002400096003840494,0.03768150726030846,0.03252130085203359,-0.29989199567983343,5.170241688816599,12.558157116275995,-6.696743072144361,0.3167510415198773,0.11518675255459464,0.10076140848358815,-1.8281842647716098,-1.3674769985638207,1.45002355895878,0.023977999999999833,-0.03568499999999997,-0.923179,0.23973299999999997,0.492448,-0.550291,0.21575500000000014,0.528133,0.372888,0.9941141889797296,0.0,single,-0.550291
100,0.833333,step_acsent,0.018600744029749736,0.1314052562102427,-0.0639625585023405,-0.9577680022144751,0.4155337942256549,-0.05720879123989714,-0.002400096003829221,-0.002280091203660409,-0.0033601344053762307,0.03264130565223195,0.030361214448578203,-0.2430097203888144,-4.838787095227254,0.27362188931301484,0.7488599075952863,0.014401152071140528,-0.20161612897032885,-0.11520921655295005,-0.6048483869046545,-0.25922073724413536,6.8261460807654855,0.02380300000000002,-0.036799000000000026,-0.922674,0.23985000000000012,0.49160600000000004,-0.5517829999999999,0.2160470000000001,0.528405,0.3708910000000001,0.9921383879327033,0.08822544470128119,single,-0.5517829999999999
101,0.841667,step_acsent,0.06563474922007091,0.12550995920326175,-0.07703383729300642,-1.0996396071840828,0.19801586645076466,-0.032794746760130264,-0.004679625629937597,0.001679865610759468,0.0010799136069116863,0.029157667386608035,0.015358771298296393,-0.1963042956563425,5.643629132507898,-0.7073790505136693,-1.5684279806414463,-0.2735216733991311,0.4751568051859667,0.5327631404233122,-0.4180031516227369,-1.8001491661005156,5.604202631686052,0.023217000000000043,-0.03783099999999995,-0.922023,0.23954600000000004,0.490688,-0.5527770000000001,0.216329,0.528519,0.36924599999999996,0.9915201123721783,0.16824775845874013,single,-0.5527770000000001
102,0.85,step_acsent,0.07380295211808927,0.12840513620545124,-0.043081723268930935,-1.2389321848158177,0.3433724582125062,-0.08650124494325652,-0.002880115204611091,-0.0009600384015370304,-0.0004800192007680988,0.00540021600862248,-0.010200408016320954,-0.16392655706228806,0.9802235567044796,0.34743513766824957,4.074416659555477,0.21594988903474405,-0.31680115352172356,-0.18719942489857186,-2.85100820568652,-3.0672242067223787,3.8854840506485937,0.022577999999999987,-0.03890899999999997,-0.921668,0.23897599999999986,0.489533,-0.553784,0.21639799999999987,0.528442,0.367884,0.9948772957018768,0.22611272205656702,single,-0.553784
103,0.858333,step_acsent,0.06408256330250932,0.11784471378855566,-0.030721228849157914,-0.8859882530632631,0.2278309365595115,-0.16137239343913923,-0.003000120004819834,-0.04548181927277291,-0.035041401656066166,-0.002520100804038002,0.0016800672026881154,-0.14736589463578564,-1.166493317602293,-1.2673013820827486,1.4833186631192812,-0.014401152071131941,-5.342827417644989,-4.147531795907587,-0.9504760365607161,1.425714054843276,1.9873589855397038,0.02201900000000001,-0.04027000000000003,-0.921704,0.238421,0.48856499999999997,-0.554756,0.21640199999999998,0.528835,0.36694799999999994,0.9041775885292332,0.25433830604493723,single,-0.554756
104,0.866667,step_acsent,0.04211663066957214,0.11075113990880878,-0.02951763858890927,-0.8100125801886673,0.051025115623047956,-0.16179772113690966,-0.000959923206144474,-0.006359491240697149,-0.006839452843772716,-0.017758579313632804,0.016198704103671347,-0.13822894168466437,-2.6357010598676864,-0.8511607727078137,0.14441927768762297,0.24480403151852312,4.6943038195435545,3.3839631404239996,-1.82847114345991,1.7420970603531696,1.0963466464028462,0.02165999999999979,-0.041246000000000005,-0.9215150000000001,0.23792199999999997,0.48777699999999996,-0.5556620000000001,0.21626200000000018,0.529023,0.365853,0.9843526096776145,0.2661612291369969,single,-0.5556620000000001
105,0.875,step_acsent,0.08220328813150388,0.05796231849274081,0.06564262570502363,0.5507760002075436,0.08772966807674853,-0.5800741858910796,-0.008640345613806511,0.04092163686546541,0.017880715228609467,-0.03768150726030795,0.016560662426496897,-0.09912396495859714,4.810591319084551,-6.334911966406786,11.419688502812013,-0.9216875564216974,5.673962331232733,2.966538830239059,-2.390846987480507,0.04343673620851416,4.692784918524789,0.020903000000000116,-0.04138800000000009,-0.921913,0.236923,0.487432,-0.557035,0.21601999999999988,0.5288200000000001,0.36487800000000004,0.9241903715958031,0.32111679820398153,single,-0.557035
106,0.883333,step_acsent,0.06216248649946193,0.11616464658585922,-0.021960878435142623,-0.6849285227528571,0.032368659972476205,-0.11822948987432505,-0.002880115204611053,-0.002640105604220137,-0.0027601104044164275,-0.016800672026884483,-0.025441017640705985,-0.10956438257530221,-2.404992395540845,6.984558753524321,-10.512841010460324,0.6912552993154247,-5.227618201090287,-2.4769981558893326,2.505800460029207,-5.040403224193293,-1.2529002300138037,0.020361000000000073,-0.04237800000000003,-0.9217529999999999,0.23626499999999995,0.486252,-0.557765,0.21590399999999987,0.52863,0.363988,0.9920272285179434,0.310454770215532,single,-0.557765
107,0.891667,step_acsent,-0.04067674586031547,0.11351091912647082,-0.025317974562030526,0.37437644781804935,0.23759386715696376,-0.5779417919340362,-0.003959683225335964,-0.0017998560115175582,-0.0002399808015357022,-0.0022798176145897952,-0.02399808015358687,-0.08003359731221892,-12.339720705516918,-0.318421821380899,-0.40281930968177615,-0.129537799463033,0.10082188537348012,0.3023913610368058,1.7423631404241384,0.1731386473625057,3.5434107587093187,0.02066699999999999,-0.043339000000000016,-0.921544,0.23658499999999982,0.485106,-0.5582210000000001,0.21591799999999983,0.528445,0.36332299999999995,0.9927397268775915,0.3606913686355585,single,-0.5582210000000001
108,0.9,step_acsent,0.057602304092141114,0.11412456498260304,-0.02496099843993581,-0.4101109909830805,0.29707008112391636,-0.1469849569439567,-0.00528021120846692,-0.0004800192007685088,0.0018000720028798262,0.005880235209430887,-0.02364094563782574,-0.08508340333612825,11.793957752604847,0.07364044835379985,0.0428388482052938,-0.1584696967635846,0.15838675275999567,0.24481612917502937,0.9792455087028259,0.042857856205583675,-0.6060009629076342,0.020143000000000022,-0.044294000000000056,-0.9213210000000001,0.2361540000000002,0.48395799999999994,-0.5587219999999999,0.21601100000000018,0.528252,0.3625990000000001,0.9906679602005484,0.35249616765781655,single,-0.5587219999999999
109,0.908333,step_acsent,0.05496219848794836,0.1041641665666612,0.006960278411136808,-0.08967950600325036,0.07118524426913277,-0.15605378225796945,-0.0021600864034383334,0.00108004320173249,0.002760110404416464,0.02136085443417894,-0.011400456018240577,-0.053762150486020406,-0.3168253455169542,-1.1952956217379003,3.830706450386765,0.3744299538015859,0.18721497689919753,0.11520921655305971,1.8577486169144601,1.468917511050675,3.7587006900405777,0.0196670000000001,-0.045153,-0.9213560000000001,0.23587400000000014,0.48299499999999995,-0.5592280000000001,0.21620700000000004,0.528148,0.362128,0.9938874727829519,0.4017284752944464,single,-0.5592280000000001
110,0.916667,step_acsent,0.05963522918166137,0.12083033357331083,-0.024958003359729346,-0.45253596715958216,-0.08960028669193133,-0.0587603332682523,-0.004079673626120621,-0.0004799616030722306,0.0020398368130548987,0.04043676505877215,0.004439644828413137,-0.022198224142067353,0.560718825739498,1.999780058393268,-3.829887421510189,-0.2303320401586601,-0.18718560172842677,-0.08642591689003597,2.288926160858299,1.9006600487945278,3.787368171820592,0.019136000000000042,-0.04616399999999998,-0.921131,0.23571399999999998,0.482025,-0.559205,0.21657799999999994,0.528189,0.3619260000000001,0.9923560055780913,0.4227629268334202,single,-0.559205
111,0.925,step_acsent,0.06252250090003499,0.11256450258010206,-0.010920436817480244,-0.08634117723757519,-0.0807629349073573,-0.1992533648978172,-0.005040201608049358,0.003960158406330205,0.0019200768030719533,0.039121564862600156,0.01164046561862468,-0.011160446417857836,0.3464864656634588,-0.9919393967609184,1.6845753680846087,-0.11526796855018988,0.5328357145568723,-0.014371776068996155,-0.15783033675410924,0.8641330601477875,1.3245863103575508,0.018573000000000173,-0.04706900000000003,-0.921024,0.23551900000000003,0.481184,-0.559207,0.21694599999999986,0.5282530000000001,0.36181699999999994,0.9888478724273614,0.4294751257167041,single,-0.559207
112,0.933333,step_acsent,0.05628225129005844,0.12612504500180413,-0.009240369614783925,-0.40143911703526364,0.19178505609420968,-0.020981174452222324,-0.00528021120846699,0.004680187207489692,0.0013200528021121676,0.04284171366854002,0.019200768030722286,0.02052082083283071,-0.748859907593496,1.6273301838116159,0.2016161289687188,-0.028802304142281857,0.08640691241563586,-0.07200576034558875,0.4464357141413533,0.9072725803549352,3.80190414624851,0.018059999999999965,-0.04808100000000004,-0.920936,0.23540699999999992,0.48029299999999997,-0.558959,0.21734699999999996,0.528374,0.361977,0.9880362443067573,0.4146057182066635,single,-0.558959
113,0.941667,step_acsent,0.05267578593713401,0.09695224382049733,-0.023038156947440425,0.04933759602146819,-0.08141369226936238,-0.17280766183913782,-0.005159587233023149,0.003959683225349233,0.000839932805375571,0.03467722582195867,0.017278617710581985,0.03971682265419045,-0.43274122305308393,-3.500456105268368,-1.655602031756227,0.0144737191557284,-0.08645356157192868,-0.05760979082512515,-0.9796601687762526,-0.23063958724985434,2.3033359516870164,0.01757799999999987,-0.04885600000000001,-0.920737,0.23525700000000005,0.47962899999999997,-0.5584359999999999,0.21767900000000018,0.528485,0.3623010000000001,0.9890701836477467,0.4075264809310259,single,-0.5584359999999999
114,0.95,step_acsent,0.04680187207487028,0.109564382575297,-0.0074402976119053235,0.028527064029481883,-0.15295697366408043,-0.11308280023452989,-0.0034801392055484196,0.0027601104044156313,-0.0020400816032641075,0.025561022440873472,0.013560542421697231,0.0520820832833306,-0.70489785938603,1.5135171912636256,1.8718179929839487,0.20154182496996814,-0.14395449669190116,-0.34561555365891095,-1.0939881652568435,-0.44618688214146024,1.4838906311220768,0.017159000000000146,-0.04974599999999996,-0.920692,0.23507999999999996,0.478829,-0.55794,0.2179209999999998,0.528575,0.36275199999999996,0.9918535093986334,0.40069970378631414,single,-0.55794
115,0.958333,step_acsent,0.04128165126606511,0.126005040201607,-0.019560782431300078,-0.2631463345462718,0.04498253990627803,-0.027420344534006436,-0.0034801392055750194,0.004680187207489629,-0.001200048001920023,0.020400816032641638,0.005520220808832855,0.05316212648505572,-0.6624529951764244,1.972957833470529,-1.4545163589817236,-3.1921056161957583e-12,0.23041843310620305,0.10080806448386909,-0.6192495389693763,-0.9648771886312665,0.12961036862175856,0.016785999999999968,-0.05075699999999994,-0.920539,0.23490599999999984,0.477825,-0.557334,0.21811999999999987,0.528582,0.363205,0.9900758940517095,0.40465154803754716,single,-0.557334
116,0.966667,step_acsent,0.05687544996398606,0.09575233981281009,0.0157187425005989,0.1879722481303805,-0.22971996031157219,-0.060349861065352374,-0.0011999040076872372,0.006239500839925676,-0.0011999040076793276,0.017638588912901144,-0.002759779217663661,0.04883609311255617,1.871106155258079,-3.630033643964084,4.233204335481007,0.27360633523971256,0.18710266767890987,1.7277926649314773e-05,-0.331440739109728,-0.9935205215378513,-0.5190824781016942,0.01630200000000004,-0.051502999999999965,-0.9206799999999999,0.2345790000000001,0.47700400000000004,-0.5570579999999999,0.21827700000000005,0.5285070000000001,0.363622,0.9892231072831804,0.41333813810327036,single,-0.5570579999999999
117,0.975,step_acsent,0.055682227289094464,0.10512420496821157,-0.021600864034556536,0.05864236834760829,-0.2113688326589941,-0.14878197649805566,-0.0002400096003909192,0.005040201608062748,-0.0020400816032641075,0.012960518420736587,-0.006840273610944679,0.03924156966278281,-0.14319244868494008,1.1246688054004035,-4.478531925495713,0.11519193655302135,-0.1439216646901403,-0.10082534448395387,-0.5613909146963398,-0.4896789143503007,-1.1513888695275947,0.01583599999999996,-0.05233700000000008,-0.920517,0.23422300000000007,0.4760709999999999,-0.556551,0.2183870000000001,0.528408,0.363966,0.9909288047758341,0.43018546055588347,single,-0.556551
118,0.983333,step_acsent,0.07332293291733309,0.14148565942636807,-0.02952118084722998,-0.4606078073772523,-0.17121989368905535,0.0031717012912092805,-0.002640105604220137,0.007440297611905225,-0.005040201608064346,0.00804032161286919,-0.011040441617664045,0.026161046441857082,2.116969354162793,4.3635490769418395,-0.9504760365622721,-0.2880230413811602,0.2880230413827513,-0.3600288017280962,-0.5904472348334784,-0.5040403224192185,-1.5697255755341024,0.015202999999999856,-0.053454,-0.920313,0.23367899999999997,0.4748,-0.556087,0.21847600000000011,0.528254,0.36422600000000005,0.9843891225240315,0.45081388876916284,single,-0.556087
119,0.991667,step_acsent,0.038876889848811234,0.11387089032877167,-0.015718742500599108,0.15807400792228019,-0.22597163902958248,-0.06761696169091058,-0.002039836813047016,0.009719222462202809,-0.0011999040076793436,-0.0069594432445540975,-0.005279577633789612,-0.000959923206144474,-4.133194512661634,-3.3135072111346964,1.6561601087870113,0.07202649282134918,0.27344910610722306,0.4607988481383518,-1.7998277966670713,0.6912483781946803,-3.254256017278823,0.01486199999999993,-0.05432199999999998,-0.920192,0.23329699999999987,0.47380700000000003,-0.5559640000000001,0.21843499999999993,0.5281290000000001,0.3642279999999999,0.9833280017593292,0.4853533049967013,single,-0.5559640000000001
120,1.0,step_acsent,0.06312252490097231,0.13260530421217065,-0.0008400336013548828,-0.29651628980759726,-0.22608112871078592,-0.016698346266785707,-0.002880115204611053,0.01008040321612536,-0.004920196807872635,-0.004920196807867223,-0.009840393615744437,0.011400456018242092,2.9095925899629154,2.2482195947916606,1.7855164885688424,-0.1008374404853034,0.04334342420767437,-0.4464529941429588,0.24471936117687101,-0.5473198106270019,1.4833048391199466,0.014312000000000102,-0.05534300000000003,-0.920226,0.2327300000000001,0.47262000000000004,-0.555862,0.218418,0.5279630000000001,0.364364,0.980698450751609,0.4735943987126467,single,-0.555862
121,1.008333,step_acsent,0.05556222248891233,0.11700468018721566,-0.015240609624383703,0.10297765447758742,-0.16338339690298795,-0.17844158324875878,-0.004080163206539041,0.013440537621505102,-0.005040201608063997,-0.07956318252731144,-0.03132125285011397,0.022440897635904768,-0.90727258035042,-1.8721497689853752,-1.728138248293406,-0.14401152069218753,0.40323225793589,-0.014401152069046321,-8.957516586996869,-2.5778062203731826,1.3249059903591476,0.01381499999999991,-0.05620600000000009,-0.920141,0.23160399999999992,0.47138399999999997,-0.5555479999999999,0.217789,0.52759,0.36459300000000006,0.9751281386348045,0.3526633222411997,single,-0.5555479999999999
122,1.016667,step_acsent,0.07979361651066842,0.21298296136308587,-0.19738420926325834,-0.8232475471318177,0.7196832509408048,0.30229442013957397,-0.007439404847612913,0.014878809695225826,-0.007439404847612497,-0.013798896088296656,-0.01007919366450685,-0.00911927045835906,2.907534679836322,11.516472423310471,-21.85548351798335,-0.4030767507887985,0.17257884253908254,-0.2878813582371588,7.891083086034832,2.5488431948172496,-3.7869172179341954,0.013087999999999989,-0.05785700000000005,-0.918558,0.23082400000000014,0.46952499999999997,-0.553979,0.21773600000000015,0.527382,0.364579,0.9696287568889348,0.46771822100304605,single,-0.553979
123,1.025,step_acsent,0.059162366494669535,0.15600624024960755,-0.015120604824188243,0.0553294963262704,0.18419568477372045,-0.07343447869702031,-0.01068042721708947,0.05256210248410578,-0.013560542421696815,-0.023040921636862083,-0.008760350414017074,-0.03996159846394225,-2.4758490358813243,-6.837480032818774,21.87250743298593,-0.38893824186686515,4.522176021706504,-0.7345658915257859,-1.1090874293250343,0.158267520759605,-3.7012274097664073,0.012505999999999906,-0.058718999999999966,-0.918545,0.2301390000000001,0.468152,-0.5541860000000001,0.2176330000000002,0.526871,0.3643589999999999,0.9077934918261698,0.42174548005518325,single,-0.5541860000000001
124,1.033333,step_acsent,0.036241449657988624,0.16560662426497344,-0.0602424096963871,-0.4200564854841464,0.13075486877687562,0.20574148429994465,-0.010800432017271318,0.019560782431299818,-0.00612024480979216,-0.02604104164168126,-0.004800192007680028,-0.05052202088083491,-2.7506200452034695,1.152092165530508,-5.414833177990888,-0.014401152067904202,-3.960316819009407,0.8928714282856743,-0.3600288017303643,0.4752380182811685,-1.267301382082381,0.012113999999999958,-0.05993599999999999,-0.918094,0.22961999999999994,0.466732,-0.5541050000000001,0.21750599999999998,0.5266679999999999,0.3639889999999999,0.9613875762071852,0.4049320084393121,single,-0.5541050000000001
125,1.041667,step_acsent,0.11747060235182166,0.16822654187665478,-0.025557955363573647,-0.3667077305069717,0.20323623286241377,-0.09240903710150596,-0.006719462443011408,0.051355891528676756,0.028797696184305877,-0.0259179265658745,0.0002399808015361217,-0.05375569954403797,9.746718585773289,0.3143649642046309,4.161801575811628,0.4896771747372196,3.815107883054661,4.189817733873134,0.014772627286628575,0.604772355317524,-0.38801039875247423,0.011078999999999839,-0.06091000000000002,-0.9176409999999999,0.22842499999999988,0.46533199999999997,-0.55434,0.21734600000000004,0.526242,0.3633009999999999,0.9012313860616104,0.4005365541500009,single,-0.55434
126,1.05,step_acsent,0.05916236649464131,0.16152646105843452,-0.037201488059525625,-0.3672987525793244,-0.050095560859945404,0.10857136023100283,-0.012120484819381369,0.028561142445692585,-0.0007200288011523372,-0.02376095043800756,-0.0020400816032644696,-0.06600264010560246,-6.997268193589264,-0.8040418598608123,-1.3972798147068013,-0.6481486111088284,-2.735479309130418,-3.542268689002484,0.2588474892435981,-0.2736184333133987,-1.469691655053915,0.010485000000000078,-0.06201800000000002,-0.917337,0.2277340000000001,0.46396899999999996,-0.55458,0.21724900000000003,0.525987,0.362757,0.9482752087288867,0.38303498624261956,single,-0.55458
127,1.058333,step_acsent,0.08460338413538751,0.15360614424576496,-0.07152286091442882,-0.3405688090700874,0.13573883837193226,0.027776514669496724,-0.013560542421700562,0.02748109924397418,-0.0009600384015357813,-0.016920676827066845,0.0010800432017291591,-0.06960278411136142,3.0530442386591186,-0.9504760365618176,-4.118729491768091,-0.17281382483129795,-0.12961036862095465,-0.028802304138179073,0.8208656679396109,0.37442995379739075,-0.4320345620735624,0.00966699999999987,-0.06306899999999993,-0.916749,0.22688799999999998,0.46269800000000005,-0.5545640000000001,0.2172210000000001,0.525767,0.362185,0.948900402258587,0.3806030970802701,single,-0.5545640000000001
128,1.066667,step_acsent,0.06659467242618873,0.18382529397649114,-0.05735541156707161,-0.49345730616339206,0.2044474716690407,0.08024452066699121,-0.011639068874491601,0.023998080153584886,0.005279577633789125,-0.008999280057600994,0.004199664026877022,-0.05699544036477077,-2.160872535301013,3.626007887056149,1.6999579250488484,0.23055838099459391,-0.417928856538189,0.7486940287166857,0.950491573010054,0.3743245530534964,1.5127602287725648,0.009014999999999995,-0.06440100000000004,-0.916227,0.22625800000000007,0.46120099999999997,-0.5545610000000001,0.21724300000000007,0.525602,0.36166599999999993,0.9546847549777289,0.4035763911766314,single,-0.5545610000000001
129,1.075,step_acsent,0.07260290411616131,0.13668546741869814,-0.008400336013442354,0.2993490082219065,-0.08421051375084099,-0.02990486661379612,-0.00852034081362449,0.019800792031677936,0.0037201488059522454,-0.0019200768030740608,0.0028801152046077604,-0.048361934477377945,0.7210166434624549,-5.6570054671538985,5.874844060197972,0.3742623377975687,-0.5036947224177354,-0.1871389448982232,0.8495383720781228,-0.15835219276002324,1.0360621489731074,0.008339000000000096,-0.06537500000000007,-0.916126,0.2256370000000001,0.46008599999999994,-0.554894,0.217298,0.5254610000000001,0.361232,0.9635419921995294,0.4191905797413219,single,-0.554894
130,1.083333,step_acsent,0.1261250450018141,0.18024720988839277,-0.038881555262208725,-0.613417801471297,0.18765601726209422,0.09618540854040322,-0.009720388815552181,0.018120724828994312,0.0030001200048002255,0.006240249609977207,0.0004800192007685024,-0.028801152046083498,6.422913822831135,5.227618201091308,-3.657892625556923,-0.1440115206921481,-0.20161612896719,-0.08640691241473747,0.9792783406997629,-0.2880230413823612,2.347387787266783,0.0072069999999999634,-0.06672600000000006,-0.9157770000000001,0.2246379999999999,0.45858799999999994,-0.55481,0.21743099999999993,0.5253140000000001,0.36096700000000004,0.9653651048195913,0.4508777745253528,single,-0.55481
131,1.091667,step_acsent,0.07583393328533453,0.18586513078952976,-0.07355411567075802,-0.49458090449979214,0.036384360096856826,0.2887955339902313,-0.009719222462202937,0.011039116870648276,0.0013198944084474205,0.007799376049913964,-0.004079673626109073,-0.023638108951284674,-6.034450649925669,0.6740965804100196,-4.160374419072469,0.00013995120581285637,-0.8497249770033802,-0.20161094268692548,0.18708020637590425,-0.5471193696757455,0.6195156101270605,0.006494,-0.068183,-0.915153,0.2240709999999999,0.45700500000000005,-0.5543939999999999,0.2175769999999999,0.525188,0.36075900000000005,0.9753881516900751,0.45796052785851976,single,-0.5543939999999999
132,1.1,step_acsent,0.09480379215169261,0.13548541941677988,0.0636025441017666,0.9275963770048423,-0.3223008918250102,-0.09043024743718904,-0.008040321612869085,0.008520340813637586,-0.003360134405376186,0.007080283211332079,-0.006000240009601284,-0.006960278411136623,2.276474122927848,-6.04580719701776,16.459457551004707,0.20147616096649737,-0.3022652174499755,-0.5616259226957309,-0.08629459241352119,-0.23047718510646548,2.001419721606595,0.005636999999999892,-0.069241,-0.9157109999999999,0.22333999999999987,0.455826,-0.554982,0.21770299999999998,0.525067,0.36072899999999997,0.9796876144487942,0.4806653185753032,single,-0.554982
133,1.108333,step_acsent,0.11388455538220033,0.22512900516020712,-0.07476299051961297,-0.8360908566868736,0.3401924919173324,0.23309287279142032,-0.005640225609013399,0.005760230409222182,-0.00576023040921677,0.003960158406330258,-0.010080403216128827,0.005760230409215521,2.2897831789881056,10.757660595635192,-16.60452833569913,0.2880230413843403,-0.33122649758975503,-0.288023041382528,-0.3744299537983739,-0.4896391703501236,1.5265221193270444,0.004641000000000117,-0.07106899999999994,-0.9151360000000001,0.22242399999999996,0.453866,-0.554311,0.21778299999999984,0.5249349999999999,0.36082500000000006,0.9834863142906016,0.47955511215960905,single,-0.554311
134,1.116667,step_acsent,0.1102711783057484,0.20746340292776186,-0.06479481641469785,-0.335052126638972,-0.12063489708843853,0.18525509614027816,-0.005999520038409543,0.003719702423793135,-0.008879289656827107,0.0021598272138316985,-0.009839212862970736,0.016318694504442517,-0.43357056352914586,-2.119702691678081,1.1960852057733427,-0.043111882576930806,-0.24484377074982377,-0.3742571691397064,-0.21602246130292124,0.028940527136799645,1.2669143382801675,0.0036719999999998976,-0.07276700000000003,-0.91467,0.22152299999999991,0.45205500000000004,-0.5536349999999999,0.21785100000000002,0.524822,0.3610350000000001,0.9810943709424145,0.46803757615549074,single,-0.5536349999999999
135,1.125,step_acsent,0.14436577463096772,0.21132845313812895,-0.03480139205567072,-0.40051475767660427,0.2735649256271049,0.09172012127551281,-0.006240249609977374,0.004440177607112096,-0.010920436817472895,-0.004920196807867288,-0.005760230409215521,0.017160686427457765,4.091515219635142,0.46382457822718454,3.59935489727918,-0.0288887041363054,0.08646048041749277,-0.2449474571757839,-0.8496368680786093,0.48949747434960433,0.10104307248473006,0.0024170000000001135,-0.07449099999999997,-0.914471,0.2202790000000001,0.45024600000000004,-0.553202,0.217862,0.524737,0.36126900000000006,0.9777694009263795,0.4687359920437018,single,-0.553202
136,1.133333,step_acsent,0.09420376815073117,0.1876875075003029,-0.01092043681748039,0.1658362433645602,-0.23995082922518637,0.17703988441882001,-0.007320292811723187,0.005400216008635803,-0.010560422416896925,-0.008400336013442354,-0.0013200528021134166,0.011160446417851324,-6.019681564891037,-2.8370269576174554,2.865829261753336,-0.12961036862424372,0.115209216551508,0.04320345620736515,-0.41763341000541204,0.5328426265573196,-0.7200576034569178,0.001570999999999989,-0.07601000000000002,-0.914468,0.21942400000000006,0.448671,-0.553018,0.21785300000000007,0.5246810000000001,0.36144999999999994,0.9767697789379755,0.4766153095674854,single,-0.553018
137,1.141667,step_acsent,0.16474682025438664,0.24910007199423456,-0.10955123590112006,-1.2460899605286333,0.431163894004914,0.28838546030988627,-0.00455963522917953,0.00455963522917953,-0.010799136069114364,-0.010559155267589073,0.005039596832253425,0.01583873290137029,8.464489093311126,7.368918225813676,-11.834749110107861,0.33125240971245934,-0.10086162460478366,-0.028643346798348658,-0.259037587490605,0.7630969083713456,0.5613494700646663,0.00015999999999993797,-0.078048,-0.913645,0.2179629999999999,0.44663700000000006,-0.551973,0.21780299999999997,0.5246850000000001,0.361672,0.9790369447542165,0.4671806816663966,single,-0.551973
138,1.15,step_acsent,0.1124444977799081,0.17244689787591921,0.025921036841473174,0.7587605805082058,-0.36260128874351816,-0.07336463277317046,-0.008880355214197546,0.004800192007685152,-0.00828033121324856,-0.012480499219954748,0.010440417616705213,0.012000480019199556,-6.276529758127807,-9.198748844151693,16.257323022032217,-0.5185071384877062,0.028867968139400506,0.30226867345083736,-0.23057049710376723,0.648124419110985,-0.4606087702113006,-0.0008509999999999351,-0.07944499999999999,-0.91393,0.21692200000000006,0.445287,-0.552089,0.217773,0.524732,0.36184099999999997,0.9782395339968921,0.4663029550635492,single,-0.552089
139,1.158333,step_acsent,0.10596423856953699,0.196687867514704,0.014280571222846292,0.47589462792681486,-0.33052700974392923,0.09995435378091064,-0.012240489619590149,0.008160326413051217,-0.012000480019200486,-0.012120484819408016,0.014400576023040082,0.002640105604226763,-0.7776622117329891,2.9090327179628406,-1.3969117507052295,-0.4032322579374227,0.4032322579342381,-0.44643571414278904,0.043203456203855205,0.47523801828090717,-1.1232898613911713,-0.0018359999999999488,-0.08101600000000009,-0.914149,0.21593799999999996,0.44376799999999994,-0.5521860000000001,0.2177739999999999,0.524784,0.3619629999999999,0.9683582539292513,0.46832224318520055,single,-0.5521860000000001
140,1.166667,step_acsent,0.15718742500601984,0.2624190064794793,-0.11051115910728079,-0.9216227860388162,0.24485578244877734,0.17888802402496848,-0.010799136069105493,0.005399568034566068,-0.008039356851452167,-0.00899928005757459,0.01739860811135217,-0.004079673626114068,6.14629066912453,7.887105707316602,-14.973809734836747,0.17294859017094827,-0.33126450425788356,0.4752967563892962,0.37451461025119825,0.35973507179171405,-0.8063090029206815,-0.0032360000000000166,-0.08315799999999995,-0.913295,0.214553,0.441726,-0.551299,0.217789,0.524884,0.361996,0.9758242584059538,0.46665240543979386,single,-0.551299
141,1.175,step_acsent,0.1429257170286717,0.1974078963158501,0.027241089643595857,0.8479383333984878,-0.3711709601706388,-0.05263987039420311,-0.010680427217089186,0.004080163206525609,-0.005040201608064279,-0.006360254410185988,0.01680067202688093,-0.010200408016320684,-1.7114734162183947,-7.801645285446786,16.530931087348403,0.014245632067239259,-0.15833491276136286,0.35991302572756934,0.3166957455164473,-0.07175520034456125,-0.7345175075250819,-0.0045159999999999645,-0.08476899999999998,-0.913564,0.21330899999999997,0.44022100000000003,-0.5516110000000001,0.21782499999999994,0.52499,0.36195299999999997,0.979175142418697,0.46556956528751986,single,-0.5516110000000001
142,1.183333,step_acsent,0.1644065762630366,0.12804512180487818,0.10116404656185465,-0.20790974371463097,-0.15233411642783545,-0.1543325140296,-0.0064802592103682935,0.006360254410172833,-0.003360134405375859,0.001800072002865278,0.017520700828032483,-0.015840633625341015,2.577806220372624,-8.323865895952544,8.87110967457812,0.5040403224194085,0.273621889313242,0.20161612896777092,0.9792783406997888,0.08640691241468366,-0.6768541472483358,-0.005939999999999834,-0.08578300000000005,-0.914435,0.21195399999999998,0.43929999999999997,-0.552586,0.2178939999999998,0.525083,0.361849,0.9838636797859717,0.46051931237324867,single,-0.552586
143,1.191667,step_acsent,0.14014878809695813,0.2620590352771715,-0.14026877849771618,0.43649271837905324,-0.02510905549147205,0.02222793453088261,-0.002519798416132541,0.00611951043916761,-0.006599472042236926,0.00767938564915569,0.016558675305975303,-0.018718502519797012,-2.9107017237914894,16.080383186020196,-28.969621437433286,0.4752172779260526,-0.028886965563381484,-0.3886894212696235,0.7054612006587913,-0.11543382794062552,-0.3453166420033568,-0.007128999999999941,-0.087916,-0.913321,0.21084999999999998,0.43725400000000003,-0.551573,0.21797899999999992,0.52517,0.36174800000000007,0.9844230562734808,0.45642550987036296,single,-0.551573
144,1.2,step_acsent,0.22236889475580482,0.23952958118324924,0.019080763230531823,-0.5542248853150158,-0.19534019013554346,0.2759979742308696,-0.001320052802110086,0.0006000240009639748,-0.0090003600144005,0.0074402976119053235,0.011040441617665856,-0.02640105604224169,9.866807471360547,-2.7036426369761752,19.122709915786565,0.1439752326920036,-0.6623648671791295,-0.28811808138288686,-0.02869171213852974,-0.6622145311783868,-0.9219433004253865,-0.008993000000000029,-0.08990699999999996,-0.913555,0.20905899999999988,0.43535,-0.551952,0.2180519999999999,0.525257,0.361603,0.9848059726106577,0.45072004182979997,single,-0.551952
145,1.208333,step_acsent,0.18852754110163947,0.2672506900275939,0.0009600384015370048,0.3292365721355838,-0.05105152711625033,-0.1672709395096033,-0.004320172806929845,-0.013080523220931697,-0.0018000720028802186,0.009360374414979136,0.007200288011519208,-0.022320892835715377,-4.061124883495111,3.326666127966418,-2.1745739624378375,-0.36002880173043394,-1.6417313358808872,0.8640691241473847,0.23041843310617766,-0.4608368662122381,0.4896391703499628,-0.010600000000000165,-0.09224299999999996,-0.913578,0.20756599999999992,0.43318300000000004,-0.552146,0.21816600000000008,0.525426,0.361432,0.9768456723489117,0.457912689507376,single,-0.552146
146,1.216667,step_acsent,0.1987041036716956,0.287497000239994,-0.09767218622510161,0.4461357750917465,-0.2932602934266949,0.1585447311618361,0.0033597312215190253,0.023278137748983824,0.007439404847612279,0.010199184065288502,0.00431965442764686,-0.020758339332851213,1.2210898212210626,2.4293628764579465,-11.834920161583932,0.9215147622329032,4.362690301165853,1.1086485301767066,0.1006491061086372,-0.34564837819443284,0.18749142103002092,-0.012227999999999906,-0.094445,-0.912702,0.20599500000000015,0.43082299999999996,-0.551505,0.21822300000000006,0.525268,0.361197,0.958886868972844,0.46078579403421505,single,-0.551505
147,1.225,step_acsent,0.19416776671067934,0.3013320532821176,-0.07812312492500381,-0.16191377899814918,0.12368273948496351,0.1325751805077321,-0.0012000480019279175,0.005640225609026572,-0.0015600624024959674,0.005520220808831116,-0.001920076803072344,-0.02496099843994214,-0.5443822106103671,1.6602727759658378,2.3459811952595055,-0.5471953946294088,-2.1166341221597196,-1.0799792691837382,-0.5614980506969044,-0.7487976995942752,-0.5043392664215594,-0.01385600000000009,-0.09690899999999991,-0.912064,0.20442300000000002,0.428296,-0.5510619999999999,0.2182790000000001,0.5252049999999999,0.36100200000000005,0.99004369897623,0.4572731226981988,single,-0.5510619999999999
148,1.233333,step_acsent,0.2139685587423358,0.2840513620544924,-0.0721228849153928,-0.013758378522786833,-0.3227672988819471,0.1505514737187454,-0.0012000480019279496,0.007200288011514404,0.0001200048001921288,0.006360254410159511,-0.004560182407295898,-0.02148085923436774,2.376190091402454,-2.0737658979509623,0.7200576034574662,-3.851240166275198e-15,0.18721497689761749,0.2016161289677321,0.10080806448198756,-0.31682534552065017,0.4176334100053322,-0.015649000000000024,-0.09921600000000003,-0.911462,0.202693,0.42589099999999996,-0.55064,0.21834200000000004,0.525107,0.360822,0.987832344354378,0.4618965074072203,single,-0.55064
149,1.241667,step_acsent,0.17962562994961245,0.3117350611951007,-0.15502759779218395,-0.4412707915597365,-0.46834269547673724,0.38089334467146196,-0.0010799136069025276,0.010919126469876594,-0.001679865610751142,0.008159347252214599,-0.005999520038397887,-0.02171826253899512,-4.12082178938362,3.321778154620602,-9.94776972363697,0.01441497420511411,0.44622491701009853,-0.21596717193943568,0.215873871136918,-0.17270669919630166,-0.028486117665872467,-0.01715500000000003,-0.10172300000000006,-0.910184,0.2012639999999999,0.423243,-0.5495289999999999,0.21841899999999992,0.524966,0.36065500000000006,0.9814995882377868,0.4600607365287241,single,-0.5495289999999999
150,1.25,step_acsent,0.2308892355694293,0.27589103564142764,-0.08328333133325078,-0.7156790105731332,-0.04924331331475993,0.01773510971055863,-0.00012000480018213638,0.012240489619590475,0.0007200288011519401,0.008160326413078081,-0.005400216008639134,-0.019320772830916082,6.15187874952806,-4.301455124645791,8.609656361326513,0.11519366455303012,0.15856992076249765,0.28799884938234777,0.00011750400377801229,0.07191936034546483,0.28771027338042254,-0.019079999999999986,-0.10392000000000001,-0.909484,0.19940800000000003,0.420899,-0.548996,0.21848800000000002,0.524819,0.3604879999999999,0.9795629402015564,0.463904235286463,single,-0.548996
151,1.258333,step_acsent,0.1550462018480572,0.3192127685107428,-0.12984519380775678,-0.5348983829924844,-0.4437924357401651,0.18864082787159422,-0.002640105604220172,0.014040561622469076,-0.003960158406336086,0.0064802592103682935,-0.0019200768030723952,-0.0234009360374418,-9.101528107689044,5.198815896953747,-5.587647002820884,-0.30242419345230515,0.21601728103667564,-0.5616449306957961,-0.20161612897033518,0.4176334100044126,-0.4896391703499046,-0.0203939999999998,-0.10646299999999997,-0.908435,0.19817000000000018,0.418223,-0.548109,0.21856399999999998,0.524686,0.36032600000000004,0.9752911181691537,0.4594042879319714,single,-0.548109
152,1.266667,step_acsent,0.23434125269979345,0.27321814254859084,-0.11255099592032485,-0.722428434164729,-0.493765414003781,0.053259819973553245,-0.0026397888169172505,0.014398848092153596,-0.00443964482841397,0.0067194624429845855,0.002879769618430053,-0.023158147348211814,9.514644930613828,-5.518913602370006,2.075137735472978,3.8011435435734364e-05,0.04299093708717507,-0.057533767947909736,0.02870209174661509,0.5759354957406302,0.029132312122628325,-0.022369000000000083,-0.10861999999999994,-0.907534,0.19627299999999992,0.41597,-0.547364,0.218642,0.52459,0.36017,0.974504588779912,0.45952558979980196,single,-0.547364
153,1.275,step_acsent,0.28225129005159383,0.2660506420256864,0.010080403216138819,0.016331587977092703,-0.8418759395742671,-0.31327594212623633,-0.0008400336013282475,0.013920556822273616,-0.0046801872074880265,0.009840393615761223,0.008040321612864302,-0.021720868834751998,5.749434459594482,-0.8601344681272652,14.7163565506378,0.21597926504128398,-0.05739724827552914,-0.028866240138492608,0.37452672180207197,0.6192910109725545,0.17248032082801268,-0.02472799999999986,-0.11072099999999996,-0.907657,0.19400300000000015,0.41381999999999997,-0.547629,0.218731,0.5245409999999999,0.360028,0.9754829021683822,0.4580583652530783,single,-0.547629
154,1.283333,step_acsent,0.29305172206888425,0.29917196687867265,-0.08364334573383493,0.2983216808228114,-0.2786864014121683,-0.11711888758368938,-0.0006000240009639587,0.015000600023992384,-0.015600624024960923,0.0032401296051840604,0.009960398415936432,-0.027241089643582534,1.2961036862222763,3.9747179710771228,-11.247299765987293,0.028802304135879586,0.1296103686209947,-1.3105048382902562,-0.7920633638037977,0.23041843310597573,-0.66245299517946,-0.02717499999999995,-0.11308900000000005,-0.90709,0.1915880000000001,0.41140999999999994,-0.547159,0.21876300000000004,0.524499,0.359931,0.9639153195074527,0.45135774181068145,single,-0.547159
155,1.291667,step_acsent,0.2961363090952944,0.3132949364050905,-0.06419486441084261,0.5608039315521464,-0.2950361452023114,-0.03138072284777877,0.00011999040075806964,0.003479721622277095,-0.0087592992560597,0.004799616030722434,0.006719462443004746,-0.027957763378934866,0.3701208335025484,1.6946207735082923,2.3336310682736605,0.08639481662131535,-1.382394816620531,0.8208933008040981,0.18712340119251294,-0.3888812062553092,-0.0859939687247835,-0.029642000000000168,-0.11567099999999997,-0.906628,0.18916,0.40885499999999997,-0.546857,0.21880200000000016,0.5245259999999999,0.35977099999999995,0.9842901142480616,0.4514137644458093,single,-0.546857
156,1.3,step_acsent,0.268930757230277,0.33145325813031784,-0.1300852034081309,0.7904941515038637,-0.046157359090985735,0.011992513754003929,0.004200168006721065,-0.002400096003842512,-0.01224048961958432,0.008400336013415484,0.0024000960038408465,-0.025921036841472483,-3.264796815674663,2.179085770458063,-7.907156965953094,0.489640898351485,-0.705606339387916,-0.41775955400510734,0.43210368207044125,-0.5183447064879184,0.2444169611739286,-0.0318480000000001,-0.11845299999999997,-0.9056460000000001,0.18698899999999985,0.406113,-0.5459890000000001,0.21883699999999995,0.524566,0.359657,0.9780637629683278,0.45441045877424563,single,-0.5459890000000001
157,1.308333,step_acsent,0.27829113164526353,0.36205448217928954,-0.10536421456858916,0.938593783041824,0.22012525302651503,-0.09581939576118371,-0.04188167526700299,-0.03288131525260998,-0.03144125765030652,0.011160446417871308,0.003960158406335254,-0.012960518420736587,1.123289861392852,3.6722937776277425,2.9666373262380854,-5.530042394542718,-3.657892625557152,-2.304184331059927,0.33122649759460576,0.18721497689840652,1.5553244234652603,-0.03451599999999999,-0.12174399999999996,-0.90503,0.184763,0.403129,-0.545219,0.219279,0.5248729999999999,0.359811,0.8969384178358346,0.47073998478280865,single,-0.545219
158,1.316667,step_acsent,0.21790256779457956,0.3752099832013466,-0.18778497720182705,-2.0658956936268655,-0.09546729168779643,0.27926048836125456,0.024118070554342952,-0.009359251259901835,-0.014758819294456105,0.005759539236866767,0.0010799136069125188,-0.025557955363572967,-7.246047978243762,1.5785338399396371,-9.889700339961275,7.919335951685317,2.8224218853741263,2.0017324641049057,-0.6480570171591673,-0.3456017277925022,-1.5115715074197604,-0.036131000000000135,-0.12494900000000003,-0.903588,0.18299500000000002,0.400011,-0.543867,0.21912600000000015,0.52496,0.35972099999999996,0.9503596362048694,0.4562981189069436,single,-0.543867
159,1.325,step_acsent,0.3032521300851997,0.38665546621864594,-0.10740429617184535,0.30458228010500227,0.14054879572222814,-0.048329601417414,0.018240729629203575,-0.013800552022078158,-0.011880475219009094,0.00972038881555244,0.0033601344053762754,-0.018720748829952106,10.242357169161275,1.3735129025920398,9.646067566300543,-0.705309123381667,-0.5329774105575859,0.3454151056578708,0.4753209622807763,0.2736374413133058,0.8204976039386684,-0.03850599999999993,-0.12828599999999996,-0.902792,0.18054900000000007,0.39681700000000003,-0.543128,0.219055,0.525103,0.359664,0.9570424904718731,0.4644002614436151,single,-0.543128
160,1.333333,step_acsent,0.23616944677786336,0.4033361334453311,-0.21324852994119733,-0.9516240345977278,0.4920921043300844,0.15762328037320997,0.01980079203167741,-0.006480259210368121,-0.009600384015360472,0.009120364814588222,0.006120244809791744,-0.018840753630140403,-8.050244006640485,2.0017601376076875,-12.701816124967014,0.18721497689593253,0.8784702762162377,0.27362188931340237,-0.0720057603461187,0.331226497589754,-0.014401152068678197,-0.04030899999999993,-0.13170099999999996,-0.901095,0.17865700000000007,0.39350700000000005,-0.5415079999999999,0.218966,0.525208,0.3595870000000001,0.9617670699760559,0.46365243213720364,single,-0.5415079999999999
161,1.341667,step_acsent,0.2535397168226628,0.39848812095033376,-0.17602591792656874,-1.134602662103521,0.1655217577206707,0.24981917373365956,0.019438444924405874,-0.0065994720422400165,-0.0032397408207343126,0.008279337652972885,0.00515958723302162,-0.02063834893208648,2.084265664122842,-0.5817149622027149,4.4663561332648545,-0.043478174618615466,-0.014304395472989909,0.7632161260650684,-0.10091518617894803,-0.11526968763740598,-0.21569418069907756,-0.042259999999999964,-0.135077,-0.899655,0.1766129999999999,0.390229,-0.5402129999999999,0.21887299999999987,0.525306,0.35944200000000004,0.9653629095356422,0.4619536021916204,single,-0.5402129999999999
162,1.35,step_acsent,0.3156126245049639,0.37729509180366316,-0.04056162246489182,0.7330057081965202,-0.2958874106930595,-0.27281430400214385,0.014280571222846292,-0.0057602304092220285,0.0027601104044159743,0.007800312012504818,0.005880235209407492,-0.02160086403456262,7.449046883751353,-2.543265228209555,16.25636571002935,-0.6189696029712578,0.10071302448313611,0.7200109474559201,-0.057485376271217956,0.08648121641495972,-0.11550643255443686,-0.044770999999999894,-0.13826900000000003,-0.899294,0.1740480000000002,0.38713400000000003,-0.540055,0.2188190000000001,0.5254030000000001,0.3592390000000001,0.9739267496452209,0.46048842080231966,single,-0.540055
163,1.358333,step_acsent,0.31501260050403496,0.36697467898716346,-0.02208088323532505,0.9609893421739661,-0.06350318688137079,-0.2894448085559639,0.010560422416907333,0.002760110404428955,0.006840273610944679,0.011760470418808637,0.008400336013440689,-0.01848073922956785,-0.07200576034188905,-1.2384990779430933,2.2177774186447783,-0.44643571414124483,1.0224817969100037,0.4896391703502631,0.4752380182771938,0.30242419345172444,0.3744299537975278,-0.047307999999999906,-0.14130399999999993,-0.8990530000000001,0.17152100000000003,0.384146,-0.540025,0.21882899999999994,0.52545,0.3590280000000001,0.9785310253478846,0.4608985638200082,single,-0.540025
164,1.366667,step_acsent,0.26229901607871425,0.4080873530117611,-0.10379169666426663,-0.5200806440419586,0.061184982528925,-0.05568687807559963,0.012958963282936905,0.00803935685144321,0.01691864650827906,0.014878809695225826,0.007919366450685144,-0.018838492920568398,-6.325124121108748,4.9331262328530485,-9.804513250412882,0.28780187977316457,0.6334588969299514,1.2093080030398733,0.3741707795076992,-0.057711730592217556,-0.0429270087593646,-0.04938599999999993,-0.14463800000000004,-0.898047,0.16945900000000003,0.380811,-0.539317,0.21884499999999996,0.525449,0.35873,0.9620377897104144,0.4578697733725374,single,-0.539317
165,1.375,step_acsent,0.29797191887675933,0.3942157686307467,-0.07596303852154092,0.05617586916179156,-0.018929906121529932,-0.23384652586911295,0.004320172806903313,0.012840513620541127,0.0229209168366737,0.0193207728308961,0.006240249609984035,-0.01056042241689401,4.280919572548351,-1.6646567119902203,3.3395725600295174,-1.0366963249770396,0.5761618587661059,0.7203012514574215,0.5330568985563797,-0.20150208096737363,0.9934081967688063,-0.05183300000000002,-0.14781600000000006,-0.8972230000000001,0.16713699999999987,0.37757799999999997,-0.538772,0.2189699999999999,0.525394,0.3584510000000001,0.9556243587916586,0.4618571581055998,single,-0.538772
166,1.383333,step_acsent,0.29041161646464525,0.4081363254530203,-0.04740189607584757,-0.04124131611904424,-0.17076678814378576,-0.17142243773133398,-0.003480139205575066,0.015840633625347676,0.027841113644545983,0.0196807872314958,0.004560182407295898,-0.007560302412100783,-0.9072725803569126,1.6705336400184494,3.4274741924509313,-0.9360748844927937,0.36002880172885837,0.5904472348340729,0.04320345621021298,-0.20161612896773706,0.3600288017272597,-0.05428199999999994,-0.15108500000000002,-0.8965960000000001,0.16488100000000006,0.374215,-0.53844,0.219163,0.5253,0.35815600000000003,0.9462990624044401,0.4640491530697183,single,-0.53844
167,1.391667,step_acsent,0.2819774418046624,0.41084713222941643,-0.08087353011759758,-0.3882057484831394,-0.013104852257060434,-0.060943720084883794,0.004919606431480372,0.01319894408447968,0.039836813054955594,0.02075833933285066,0.0017998560115191995,-0.009959203263738794,-1.0120199975981279,0.32527079150421206,-4.016274783027328,1.0078888453390178,-0.31697738671321996,1.4393687797467627,0.12929590848990313,-0.33121267047956293,-0.28784507459059194,-0.05659100000000006,-0.15439899999999995,-0.89559,0.16270399999999996,0.370806,-0.537849,0.21929500000000002,0.5252049999999999,0.357741,0.9295769465073687,0.46150996293525204,single,-0.537849
168,1.4,step_acsent,0.2985719428777233,0.39877595103804764,0.08532341293652031,0.8501478973912044,-0.15496268275015376,-0.4252036087682993,-0.0016800672026831415,0.0038401536061481215,0.05304212168486763,0.02472098883957187,-0.0022800912036487816,-0.01452058082323093,1.991419785558752,-1.4485996869517468,19.94443094373208,-0.7919925158002609,-1.123099781391053,1.5847004236064033,0.4755369622850408,-0.4896132503501762,-0.5473872026271663,-0.05909300000000006,-0.15768999999999994,-0.895859,0.16042200000000006,0.367464,-0.538681,0.21951500000000013,0.5251539999999999,0.357178,0.9113208643110102,0.4520656301529785,single,-0.538681
169,1.408333,step_acsent,0.24804992199688045,0.4478579143165664,-0.1303252130085085,-1.2693966803686763,0.08536720955196019,0.11803981548234307,0.035041401656060706,0.01596063842552939,0.04488179527181001,0.025801032041263702,-0.003360134405376186,-0.018840753630147065,-6.0628850211018825,5.89007119627,-25.878870268213735,4.40675253315051,1.4545163589800858,-0.9792783407005259,0.12961036861776237,-0.12961036862203115,-0.5184414744889068,-0.060868000000000144,-0.16128900000000002,-0.894399,0.15856999999999988,0.36370399999999997,-0.537752,0.21943800000000002,0.524993,0.35664700000000005,0.9014406924769472,0.446459834522513,single,-0.537752
170,1.416667,step_acsent,0.2901367890568847,0.42248620110391927,0.07799376049915296,0.618672572002105,0.08908044890809685,-0.29779947046366934,0.029397648188151593,0.007799376049913964,0.05711543076553993,0.026877849772018986,-0.0019198464122856431,-0.03755699544036641,5.050020045596962,-3.0443620365547903,24.99627711875035,-0.6771962404498704,-0.9792731432224118,1.4679188257415596,0.12920779106735109,0.17282073351218746,-2.2457693556779104,-0.06304100000000012,-0.16474500000000003,-0.894573,0.15637599999999985,0.360167,-0.538715,0.21941699999999997,0.524912,0.3558579999999999,0.8921520564084233,0.4229604624393406,single,-0.538715
171,1.425,step_acsent,0.24144965798630355,0.45529821192847153,-0.0655226209048273,-1.172756179715647,0.3975489993942795,0.07536204000041571,0.03132125285012147,0.013680547221895656,0.062282491299651146,0.031081243249730554,0.0006000240009589626,-0.021480859234367166,-5.84268943604708,3.9375988028983184,-17.222654674664316,0.23084179310810513,0.7057687713886462,0.6200720669760139,0.5044273944211561,0.30239654545116545,1.9292135132604062,-0.06479199999999996,-0.168425,-0.8935080000000001,0.15462299999999995,0.356378,-0.538348,0.21941499999999992,0.5248029999999999,0.35516000000000003,0.8815928988747006,0.4370222476628685,single,-0.538348
172,1.433333,step_acsent,0.2643705748229899,0.466818672746908,0.10476419056761185,-0.33580228720448807,0.13815143347060313,-0.13239352875772384,0.039121564862600676,0.01260050402016353,0.08748349933997404,0.027601104044156315,0.0002400096003842576,-0.021000840033599224,2.7506200452041982,1.3825105986363375,20.43523478608433,0.9360748844928933,-0.12961036862260109,3.0242419345161555,-0.4176334100053126,-0.04320345620721328,0.05760460827648464,-0.06666899999999987,-0.17220999999999992,-0.8936519999999999,0.15264999999999995,0.35249,-0.539396,0.21931899999999982,0.5246999999999999,0.3542559999999999,0.8389045124810541,0.4421949196969908,single,-0.539396
173,1.441667,step_acsent,0.2566594672426322,0.4739620830333548,-0.05267578593712069,-0.9217798388475051,0.7045385591703319,0.10573203904011644,0.04919606431485701,0.005279577633781215,0.10811135109191213,0.023038156947467067,0.001679865610751142,-0.025677945764337694,-0.9252588889318025,0.8571406631205565,-18.891285877697545,1.2088432268126061,-0.8784408910945837,2.4751441986966554,-0.5475098508146404,0.17276889973204626,-0.5612077910653269,-0.06839799999999996,-0.176116,-0.892312,0.15070300000000003,0.34855400000000003,-0.539171,0.219101,0.52467,0.35314100000000004,0.8018404758857893,0.44243516885085665,single,-0.539171
174,1.45,step_acsent,0.2240489619584613,0.4866194647785993,0.16764670586823405,-0.606020871013199,0.22274598276886756,-0.05211176862833217,0.04716188647544333,0.002880115204611091,0.09048361934477435,0.02388095523819033,0.0010800432017274938,-0.026881075243010203,-3.913417170787378,1.5189465672920457,26.439756606907086,-0.2441111051738511,-0.2879470093807927,-2.1154124261535987,0.10113984048041179,-0.07198156834557226,-0.14438131269321008,-0.06987199999999993,-0.180147,-0.8929549999999999,0.14903500000000003,0.344508,-0.5407919999999999,0.21890699999999996,0.524655,0.352163,0.8298707683255946,0.44004495381662045,single,-0.5407919999999999
175,1.458333,step_acsent,0.22224888995561676,0.5027001080043112,0.013200528021127153,-1.5703591125001328,0.8930348410080715,0.2094403983862346,0.05088203528140796,-0.017760710428421266,0.15132605304211924,0.021240849633996237,0.006000240009601284,-0.02844113764551045,-0.21601728103258278,1.9297543772604846,-18.534282712961023,0.4464357141443133,-2.476998155890075,7.301384099045221,-0.31682534551710645,0.5904472348342379,-0.1872149768991022,-0.07130000000000014,-0.18448400000000004,-0.891804,0.14735999999999994,0.340369,-0.541139,0.21866000000000008,0.524853,0.350665,0.7322729484955964,0.43999826660101743,single,-0.541139
176,1.466667,step_acsent,0.26709863210941703,0.44912407007440214,0.3486921046316318,1.6940641126517835,0.0954710209517953,-0.5157873404011551,0.0703143748500104,0.006479481641468625,0.15238780897528492,0.01835853131750332,0.0016798656107511866,-0.0287976961843013,5.381538535373306,-6.428610262768188,40.255768731762785,2.331694212695321,2.90859036115795,0.1274005199382891,-0.3458505299367617,-0.5184034555855747,-0.04278360196674572,-0.07294,-0.18817300000000003,-0.89344,0.14528700000000017,0.33664,-0.5442849999999999,0.21822700000000017,0.524813,0.3491550000000001,0.7200786850779023,0.4430115770497284,single,-0.5442849999999999
177,1.475,step_acsent,0.24756990279612529,0.5291011640465522,0.12396495859834916,-1.4190779033979317,0.9535037910014641,0.036247351114776144,0.08196327853113851,0.011280451218053144,0.17916716668666408,0.013200528021100508,-0.001920076803072344,-0.021240849633989575,-2.3435412592453386,9.597635182065117,-26.96833625744374,1.3979243587096977,0.5761393947659228,3.213651471424299,-0.6189851549745256,-0.4320103700736191,0.9068578603518053,-0.07432000000000016,-0.192488,-0.89298,0.14333399999999985,0.332215,-0.5454950000000001,0.21765400000000001,0.524703,0.34748499999999993,0.6710872235438958,0.4581964140247876,single,-0.5454950000000001
178,1.483333,step_acsent,0.22668906756270812,0.5070202808112345,0.3753750150005925,-0.2020401226604894,0.2453081125420058,-0.14508856276909168,0.09900396015841632,0.013560542421700562,0.18564742589703798,0.018360734429385715,-0.005880235209409315,-0.028321132845309085,-2.5058004600284836,-2.649811980717371,30.17041358481287,2.0449635938171093,0.2736218893132652,0.7776622117333446,0.6192495389757895,-0.4752380182811721,-0.8496679720772321,-0.07538400000000012,-0.19659999999999994,-0.8945609999999999,0.1415979999999999,0.32794100000000004,-0.548859,0.216982,0.5245409999999999,0.34570199999999995,0.6486113295476541,0.44289920460404997,single,-0.548859
179,1.491667,step_acsent,0.2824574034077213,0.504679625629951,0.34437245020398577,0.38106662027517685,0.46668375068406004,-0.40270187633324045,0.0874730021598241,0.041876649868002165,0.22966162706983254,0.005759539236866767,0.00011999040076805765,-0.03155747540196919,6.691664968204074,-0.28085615326176516,-3.7200101747787975,-1.3836042714893364,3.397661080669713,5.28128163820425,-1.5120224613053577,0.7199694756632262,-0.38833004039597774,-0.0770090000000001,-0.20045700000000005,-0.895517,0.13929199999999997,0.32373599999999997,-0.551992,0.21630100000000008,0.524193,0.34352499999999997,0.5845028317405537,0.44653503370162295,single,-0.551992
180,1.5,step_acsent,0.2379695187807349,0.49885995439817643,0.5257410296411866,0.8484340958942772,0.3650675275472967,-0.4271596371385253,0.03768150726028181,0.15720628825153551,0.31225249009960687,0.011160446417844663,0.0032401296051841467,-0.03792151686067273,-5.33875970562664,-0.6983884833522822,21.765100136469762,-5.975218396680997,13.840110210432547,9.911300015573634,0.6481347871088378,0.374431681797206,-0.7637155236653785,-0.07867800000000003,-0.20330399999999998,-0.897296,0.13740200000000002,0.319606,-0.556689,0.21608000000000005,0.52291,0.340607,0.5,0.4338962212141171,flight,-0.556689
181,1.508333,step_acsent,0.22992919716789229,0.5412216488659612,0.38929557182287944,-0.6869148505119679,0.6233868507924509,-0.1092489698147762,0.09660386415458708,0.03732149285970875,0.23688947557902493,0.01380055202209148,0.0003600144005763864,-0.04284171366854668,-0.9648771886286692,5.083606680401441,-16.374109902593116,7.070965665943334,-14.386750917056025,-9.043923499409892,0.31682534552344194,-0.34562764965892073,-0.5904472348342727,-0.07978899999999989,-0.20750300000000005,-0.898566,0.13560100000000008,0.315099,-0.56029,0.21538999999999997,0.522602,0.338276,0.5691035699363327,0.42498153418915197,single,-0.56029
182,1.516667,step_acsent,0.2360211183105396,0.5385169186465032,0.41684665226781265,-0.8331918976586574,0.6349533274027302,-0.14998394809891955,0.13198944084471687,0.05147588192944678,0.2729781617470581,0.017398608111358366,0.007559395248380971,-0.0389968802495821,0.7309720593529235,-0.32454166300192355,3.3058651841772253,4.245929528453266,1.6983908171031816,4.330295916490626,0.4317321921366521,0.8638565932090869,0.46134310282751956,-0.08065600000000006,-0.21156200000000003,-0.8997649999999999,0.1337790000000001,0.310674,-0.564089,0.21443500000000015,0.522236,0.335676,0.5,0.42772328079730043,flight,-0.564089
183,1.525,step_acsent,0.25645025801032945,0.4987399495979876,0.5588623544941875,0.3734989416337207,0.5324869274938846,-0.367031430262854,0.0996039841593803,0.06528261130445144,0.30217208688347885,0.008400336013442354,0.018720748829952106,-0.05484219368774623,2.451594827767915,-4.773427222910829,17.042565969803935,-3.8864102586507703,1.656873799952573,3.5034111528166374,-1.0798358451837387,1.3394160064288054,-1.901513673126638,-0.08196300000000001,-0.21517400000000003,-0.9019039999999999,0.13171200000000005,0.306674,-0.5692029999999999,0.21367500000000006,0.5218480000000001,0.332701,0.5,0.40240818724035127,flight,-0.5692029999999999
184,1.533333,step_acsent,0.23892955718226558,0.5466218648745892,0.5195007800311954,-1.01644446485365,0.8837513668297189,-0.08874604362722688,0.12576503060121438,0.06624264970598671,0.3034921396855817,0.01728069122763944,0.012840513620545781,-0.0434417376695095,-2.102568202095711,5.746059675579112,-4.7235778786741225,3.1394511510660785,0.11520921655289294,0.15841267275924895,1.0656852531137562,-0.7056564513868021,1.368109446566247,-0.08290599999999992,-0.21917700000000007,-0.9037040000000001,0.12986500000000012,0.302226,-0.573894,0.21277100000000004,0.5214030000000001,0.32981000000000005,0.5,0.41919354998429004,flight,-0.573894
185,1.541667,step_acsent,0.21694264458844087,0.5254379649628089,0.5344372450204035,-1.1755910941764605,0.6586540780234319,0.09244847387513687,0.20086393088552737,0.0887928965682851,0.24718022558195807,0.022678185745140186,0.005999520038396382,-0.03191744660427088,-2.6382184537827125,-2.541864640242461,1.7922324201113955,9.011147142346342,2.7058131584231835,-6.75688914130366,0.6476475302976781,-0.8208535615730177,1.3828043034843818,-0.08304,-0.22281599999999996,-0.906098,0.12824600000000008,0.297897,-0.578614,0.21128600000000008,0.520713,0.327484,0.5,0.4339819522336109,flight,-0.578614
186,1.55,step_acsent,0.2395295811832562,0.49213968558741744,0.7134285371414839,0.443113762039122,0.23343702524914522,-0.22601869114092943,0.23244929797192412,0.10980439217568501,0.26341053642145257,0.024120964838580606,0.009000360014401092,-0.033481339253573064,2.7105408130103137,-3.9959533631814352,21.47981424709916,3.790395666194192,2.5214803321012296,1.9477152093476797,0.17314041682952058,0.36011520172862804,-0.18767462490125505,-0.08309900000000003,-0.22600199999999998,-0.9098480000000001,0.12645099999999987,0.293871,-0.5848380000000001,0.2095499999999999,0.519873,0.32501,0.5,0.42960769645634145,flight,-0.5848380000000001
