frame_id,timestamp,gait_type,root_linear_velocity_x,root_linear_velocity_y,root_linear_velocity_z,root_angular_velocity_x,root_angular_velocity_y,root_angular_velocity_z,left_linear_velocity_x,left_linear_velocity_y,left_linear_velocity_z,right_linear_velocity_x,right_linear_velocity_y,right_linear_velocity_z,root_acceleration_x,root_acceleration_y,root_acceleration_z,left_acceleration_x,left_acceleration_y,left_acceleration_z,right_acceleration_x,right_acceleration_y,right_acceleration_z,left_pos_rel_x,left_pos_rel_y,left_pos_rel_z,right_pos_rel_x,right_pos_rel_y,right_pos_rel_z,step_length,step_width,step_height,left_contact_prob,right_contact_prob,support_type,max_foot_height
1,0.008333,step_decsent,0.029041161646464926,0.09648385935437075,0.007440297611905255,0.1654531792324555,0.17235236129505216,-0.089090403842193,0.0007200288011527661,0.0009600384015370216,0.0010800432017258185,0.0014400576023055323,0.0003600144005730523,-0.002760110404415606,0.0,0.0,0.0,0.0,0.0,0.0,0.0,0.0,0.0,0.003064000000000011,-0.10704199999999997,-0.915736,0.019509,0.12423100000000004,-0.906517,0.016444999999999987,0.231273,0.009218999999999977,0.9973091675572885,0.9025867651277248,double,-0.906517
2,0.016667,step_decsent,0.030717542596593015,0.09239260859131183,0.005399568034565965,-0.07352925365599781,0.28661279313611226,-0.015837401188206365,0.0005999520038369624,0.001919846412282276,-0.00011999040076472815,-0.0004799616030722342,0.0002399808015294563,-0.0022798176145964427,0.201149622045607,-0.49091081870157327,-0.24486795984392723,-0.01440806303285382,0.11516774786960095,-0.14399251289783377,-0.23038387393541712,-0.014402879654859129,0.05763052433635269,0.002812999999999982,-0.107796,-0.9157820000000001,0.01924899999999999,0.12346299999999999,-0.9065810000000001,0.016436000000000006,0.231259,0.009201000000000015,0.9966416975394568,0.9040864680233618,double,-0.9065810000000001
3,0.025,step_decsent,0.0036001440057605,0.0961238449537977,-0.011760470418835175,0.030770506072110373,-0.304676012680699,0.06522826129494952,0.001200048001921277,0.0021600864034582983,-0.0020400816032695016,0.0002400096003842554,0.00012000480019545849,-0.0026401056042201477,-3.2542179996198866,0.4477662741492691,-2.059286985887572,0.07201440034613159,0.02882995213920824,-0.2304201611070171,0.08640000041479533,-0.014397696067922454,-0.04323628820637285,0.00279299999999999,-0.10857899999999998,-0.9157009999999999,0.019220999999999988,0.12266300000000002,-0.9065049999999999,0.016427999999999998,0.231242,0.009195999999999982,0.9946593744058398,0.9036171542086752,double,-0.9065049999999999
4,0.033333,step_decsent,0.03804152166086451,0.09900396015840876,0.012240489619590364,-0.01566904915250799,0.18934450839213263,-0.07117658998323469,0.0018000720028785845,-0.000840033601341563,0.004800192007685108,0.0002400096003842554,-0.0003600144005730523,-0.002400096003842554,4.133130643838235,0.34562764965931436,2.8802304138276176,0.07200576034529071,-0.36002880172805246,0.8208656679412707,0.0,-0.05760460827655236,0.028802304137476753,0.0024909999999999932,-0.10941099999999998,-0.9157629999999999,0.018906000000000006,0.12183500000000003,-0.906627,0.016415000000000013,0.231246,0.009135999999999922,0.9913417093396024,0.9045753571277018,double,-0.906627
5,0.041667,step_decsent,0.023158147348211987,0.10439164866810437,-0.002039836813047004,-0.20115563010182363,-0.08352199330698563,-0.03531140372884899,0.0008399328053764098,0.00035997120230084524,-0.00011999040077138896,0.0009599232061444684,-0.00035997120230084524,-0.0017998560115175478,-1.785862048554418,0.6464709034911934,-1.713502091749144,-0.11520748710129285,0.14398905731250397,-0.5903746590420561,0.08638272207345968,5.183377994607136e-06,0.07202303723602184,0.0023050000000000015,-0.11027799999999999,-0.9157470000000001,0.018721000000000015,0.12096200000000007,-0.906625,0.016416000000000014,0.23124000000000006,0.009122000000000074,0.9984638937389271,0.9053277408804052,double,-0.906625
6,0.05,step_decsent,0.028081123244931235,0.09624384975399315,-0.0018000720028919079,0.038380341346811286,0.13149511222764318,-0.04856890827042057,0.0006000240009606385,0.001200048001921277,0.0003600144005797139,0.0001200048001921277,0.000600024000950646,-0.0026401056042268094,0.590780738835863,-0.9777749806925735,0.02877292813573697,-0.02879020813821809,0.10081324848439117,0.057602880277343435,-0.10079424048390023,0.11520403255148101,-0.10083398448449077,0.0020759999999999945,-0.11107,-0.9157289999999999,0.018488000000000004,0.12016499999999997,-0.9066319999999999,0.01641200000000001,0.23123499999999997,0.009097000000000022,0.9976847400090385,0.9045131834110814,double,-0.9066319999999999
7,0.058333,step_decsent,0.0352814112564489,0.09624384975398649,-0.010680427217089372,0.04662006899350251,0.01833602530578789,-0.012650715630117632,0.0001200048001921277,0.001200048001921277,-0.0013200528021167354,-0.0004800192007685108,0.00108004320173248,-0.002760110404415606,0.864069124147086,-7.9939255343225e-13,-1.0656852531138203,-0.05760460827655236,0.0,-0.20161612896873268,-0.07200576034569044,0.057604608278151205,-0.01440115206873835,0.0017830000000000068,-0.11186199999999996,-0.915651,0.01819000000000001,0.11937200000000003,-0.906566,0.016407000000000005,0.231234,0.00908500000000001,0.9970199479127592,0.9041458014307765,double,-0.906566
8,0.066667,step_decsent,0.0009599232061444684,0.11087113030957953,0.00575953923686681,-0.23972871108845228,-0.30487491010017315,0.009649263268351896,0.001319894408448644,-0.0002399808015361171,0.0007199424046083513,0.0007199424046083513,-0.00023998080154277791,-0.002519798416125899,-4.118249106108043,1.7551332560106834,1.9726381634216679,0.14397523497198417,-0.17278963324422772,0.2447798424196168,0.14398387393530862,-0.15839020917629684,0.0288351317842221,0.0017860000000000098,-0.112788,-0.915693,0.01818800000000001,0.11844599999999994,-0.906635,0.016402,0.23123399999999994,0.00905800000000001,0.9974624874929081,0.9050340084394324,double,-0.906635
9,0.075,step_decsent,0.03528141125644893,0.10764430577222872,-0.0068402736109412915,0.09951917428724089,-0.0032532520600775413,-0.1203203158998456,0.0016800672026864583,0.0008400336013415638,0.0019200768030740447,-0.000600024000960639,0.001560062402500992,-0.002280091203647097,4.118743315769169,-0.3872344338594514,-1.5120380232579038,0.043222464207106015,0.1296069126218267,0.14402188869143098,-0.1584023047604694,0.21601382503825411,0.028766016138101782,0.0015060000000000073,-0.113678,-0.91562,0.017889000000000016,0.117562,-0.906597,0.01638300000000001,0.23124,0.009023000000000003,0.9955232150714837,0.9050581239291979,double,-0.906597
10,0.083333,step_decsent,0.031321252850115326,0.09924396975879293,0.0021600864034649584,-0.06318475790247839,0.06967054399103143,-0.04939861274220478,-0.0007200288011527656,0.0014400576023055312,-0.0024000960038425517,0.00012000480019212759,0.00048001920076851036,-0.001800072002878583,-0.4752380182807633,-1.0080806448380872,1.0800864051849564,-0.28802304138236196,0.07200576034608987,-0.5184414744889707,0.08640691241482851,-0.12961036862264258,0.05760460827655271,0.0012389999999999901,-0.11449300000000001,-0.9156580000000001,0.017629000000000006,0.11673899999999998,-0.90663,0.016390000000000016,0.231232,0.009028000000000036,0.9951831694952581,0.9066086057070093,double,-0.90663
11,0.091667,step_decsent,0.02915766738660828,0.11339092872569886,-0.05159587233023191,0.3735675519020789,-0.014809672599997136,-0.05833433263111126,0.0019198464122889385,0.00011999040076472824,0.003959683225342605,0.0,0.001559875209988093,-0.001559875209988093,-0.25960948686189694,1.697499276086626,-6.45019903212106,0.3167596848382177,-0.1583953925534922,0.7631124585055389,-0.014399424069129791,0.12957235531792458,0.028821309442103458,0.0010120000000000129,-0.11543700000000001,-0.915195,0.017386000000000013,0.11580700000000005,-0.9062129999999999,0.016374,0.23124400000000006,0.008982000000000046,0.9926630124278659,0.9065033388707089,double,-0.9062129999999999
12,0.1,step_decsent,0.03228129125165235,0.09348373934957746,-0.03492139685585251,0.5068928610591295,0.2169580349109525,-0.18631899536541535,-0.0003600144005763828,0.0012000480019212759,-0.0037201488059526245,-0.0003600144005763828,0.0012000480019146143,-0.00192007680306738,0.37484985779960006,-2.388958283465905,2.0010170976094313,-0.27359424131349086,0.12961209662265052,-0.9216167084237638,-0.0432034562074142,-0.04318099220850574,-0.04322592020632265,0.0007399999999999907,-0.11620600000000003,-0.914935,0.01711399999999999,0.11503799999999997,-0.9059380000000001,0.016374,0.231244,0.008996999999999922,0.9934575674091766,0.9062088525192031,double,-0.9059380000000001
13,0.108333,step_decsent,0.01824072962918344,0.07956318252729745,0.012000480019199455,-0.2743742562206466,0.16700317579618312,-0.25474652979474954,0.0004800192007685112,0.001200048001921278,0.0002400096003842556,0.0007200288011527668,0.0012000480019146163,-0.0014400576023055336,-1.684934792087954,-1.6705336400192032,5.630850459024601,0.10080806448396673,2.602189301537274e-16,0.47523801828115725,0.12961036862224296,2.341970371383547e-16,0.05760460827575264,0.0005920000000000092,-0.11685899999999999,-0.9150330000000001,0.01696800000000001,0.11438499999999996,-0.90605,0.016376,0.23124399999999995,0.008983000000000074,0.9978090221308624,0.9068232260229077,double,-0.90605
14,0.116667,step_decsent,0.042356611471081336,0.07235421166306931,-0.012239020878335302,-0.034851391209250356,0.22610174128001698,-0.319287140250577,0.0004799616030722338,-0.0002399808015361169,0.0032397408207342476,-0.0016798656107528183,0.001799856011530868,-0.0007199424046083507,2.8936743270815786,-0.8650073031231265,-2.9085074271099995,-6.911170659632288e-06,-0.1727896332442277,0.3599389513258926,-0.28796429228528714,0.07197120345767352,0.0864069111707682,0.00024300000000002098,-0.11746400000000001,-0.914904,0.016601000000000005,0.11379700000000004,-0.905954,0.016357999999999984,0.23126100000000005,0.008950000000000014,0.9945268649774401,0.9062248303482696,double,-0.905954
15,0.125,step_decsent,0.004440177607105397,0.0880835233409352,-0.00324012960518412,0.011609272929061167,-0.33122485871310603,-0.14221720252669326,-0.0008400336013448946,0.002400096003842556,-0.0010800432017258194,-0.0002400096003842556,0.00036001440057305256,-0.0006000240009573081,-4.55015406983991,1.8875929050601101,1.07991014918411,-0.15840576076048596,0.31682188952102186,-0.518394818487948,0.17278963282954085,-0.17278790483113124,0.014390784069487903,0.00019900000000000473,-0.118178,-0.9148860000000001,0.016561999999999993,0.113066,-0.905932,0.01636299999999999,0.231244,0.008954000000000129,0.9953954700455108,0.9092270678821273,double,-0.905932
16,0.133333,step_decsent,0.02508100324012802,0.09144365774630796,0.0030001200047931973,0.13296500010915482,0.2522672535731879,-0.3067561068631951,0.0007200288011527656,0.0007200288011527656,0.00048001920076851036,-0.0003600144005763828,0.0012000480019146143,-0.003240129605184114,2.476998155888948,0.40323225793504874,0.7488599075935811,0.18721497689879502,-0.2016161289679334,0.18721497689839534,-0.014401152069138019,0.10080806448356666,-0.3168253455210373,-3.999999999976245e-06,-0.11893399999999998,-0.9149069999999999,0.016350000000000003,0.11231399999999997,-0.9059839999999999,0.01635399999999998,0.23124799999999995,0.008923000000000014,0.9981237586464147,0.90498012247445,double,-0.9059839999999999
17,0.141667,step_decsent,0.039356851451886665,0.11207103431725374,-0.002279817614589788,-0.05761929514843947,-0.07416188936084742,-0.03295671657767422,0.0017998560115175524,-0.0004799616030722354,0.002279817614589788,-0.001319894408445317,0.0015598752099880956,-0.00035997120230750696,1.7129647482311832,2.475087181538976,-0.6335418309794814,0.12956889973179617,-0.14398732952063878,0.21595853297591575,-0.1151763868333257,0.04317581090394554,0.3455913610363108,-0.0003170000000000117,-0.11987199999999998,-0.9148689999999999,0.016010999999999997,0.11139300000000002,-0.905968,0.01632800000000001,0.231265,0.008900999999999937,0.9950932548810582,0.9075319533505688,double,-0.905968
18,0.15,step_decsent,0.041521660866432844,0.10908436337453406,-0.0037201488059393014,-0.028178866017106438,0.25243743469756685,-0.18194211495210966,0.00012000480019212759,0.0031201248049886558,0.0015600624024943279,-0.0015600624024976588,0.0022800912036470937,-0.001800072002878583,0.2597875212463911,-0.35841484972034976,-0.1728466568282146,-0.2015902089674095,0.4320276500733095,-0.08637408041467172,-0.02882131213876655,0.08642937641413627,-0.17281900882888215,-0.0006619999999999959,-0.120755,-0.9148250000000001,0.015652,0.11050300000000002,-0.9059520000000001,0.016313999999999995,0.23125800000000002,0.00887300000000002,0.9941825514731659,0.9057743275074879,double,-0.9059520000000001
19,0.158333,step_decsent,0.043081723268930505,0.12360494419777152,0.006720268810732499,-0.05738813340423257,0.11568050783770432,-0.032122599969437296,-0.0003600144005763828,0.0012000480019212759,0.0007200288011527656,0.00012000480019212759,0.00036001440057305197,-0.0014400576023055312,0.18721497689879513,1.7425394003645078,1.2529002300098155,-0.057604608276552255,-0.2304184331054096,-0.10080806448356673,0.2016161289679329,-0.23041843310620905,0.04320345620701446,-0.0010239999999999971,-0.12177500000000002,-0.9148749999999999,0.015294000000000002,0.10947599999999996,-0.9060199999999999,0.016318,0.23125099999999998,0.008854999999999946,0.9975915847476291,0.9089679659894403,double,-0.9060199999999999
20,0.166667,step_decsent,0.039596832253419326,0.13942884569234404,0.001799856011530868,-0.16036034766581678,-0.21321191826965258,0.029786902082821743,-0.0005999520038402923,0.0011999040076805846,-0.0008399328053730787,-0.0004799616030722338,0.0007199424046150115,-0.0023998080153545083,-0.4181534695837744,1.8987162820461372,-0.5904023037198975,-0.028790209174935116,-1.7277926648820533e-05,-0.18718041834963314,-0.0719902091749893,0.043187905452598895,-0.11516083669894123,-0.001358999999999999,-0.12292700000000001,-0.9148970000000001,0.014960000000000001,0.10832000000000003,-0.906055,0.016319,0.23124700000000004,0.008842000000000017,0.997362029845958,0.907328281812364,double,-0.906055
21,0.175,step_decsent,0.05364214568582792,0.12552502100083932,0.0031201248050019893,-0.05234266889887304,0.21297804427077832,-0.1015369422876564,0.00120004800192128,0.001080043201725821,0.002400096003835898,-0.003000120004799869,0.0019200768030607246,-0.0018000720028852506,1.6855050320903189,-1.6685257040087313,0.15843859276024536,0.21600864103703069,-0.014383872069454432,0.3888190098654728,-0.30243110545153506,0.14402188868903348,0.07197120034432487,-0.001795999999999992,-0.12396400000000002,-0.9149030000000001,0.014488000000000001,0.10728999999999994,-0.9060960000000001,0.016283999999999993,0.23125399999999996,0.00880700000000001,0.9951790188434826,0.9052784182774103,double,-0.9060960000000001
22,0.183333,step_decsent,0.033721348853954544,0.13176527061082285,-0.0036001440057838127,0.07148596192634857,-0.009766155067164722,-0.06863675862263084,-0.0007200288011527656,0.0008400336013482239,0.0012000480019212759,-0.0019200768030707108,0.0021600864034649584,-0.0024000960038358904,-2.3905912434745415,0.7488599075943279,-0.8064645158749305,-0.23041843310620952,-0.02880230413747713,-0.14401152069058218,0.12961036862224376,0.02880230414067365,-0.0720057603444905,-0.0020830000000000015,-0.12505499999999997,-0.914863,0.01419100000000001,0.10621000000000003,-0.906086,0.01627400000000001,0.231265,0.008777000000000035,0.9972795970821307,0.9059687592133661,double,-0.906086
23,0.191667,step_decsent,0.04439644828413833,0.12634989200864233,0.009719222462202743,0.022129213384061867,0.07636838548447862,-0.050544466235381634,-0.0007199424046083507,0.0035997120230350926,0.0013198944084519733,-0.0011999040076805846,0.0005999520038436226,-0.0017998560115242072,1.2809094588653438,-0.6497934487857596,1.5981961204687476,1.0366755989305328e-05,0.33113491980883925,0.014380418350215658,0.08641382234102778,-0.18720115186241112,0.07202303723442316,-0.0024590000000000167,-0.12607800000000002,-0.9149329999999999,0.01381099999999999,0.10516200000000003,-0.9061819999999999,0.016270000000000007,0.23124000000000006,0.008750999999999953,0.9934982128601695,0.9087486419218631,double,-0.9061819999999999
24,0.2,step_decsent,0.03444137765510398,0.1320052802112071,-0.0006000240009373224,-0.0444663190003897,-0.15511766330737978,-0.1079645791046839,-0.0007200288011494347,0.0026401056042268073,0.00012000480018879679,-0.0015600624024943279,0.0024000960038292286,-0.0024000960038358904,-1.1946562617345902,0.6786737312570235,-1.2383591099412044,-1.0367999650064167e-05,-0.11515737655205623,-0.14399251269208874,-0.04322073620709744,0.21602592103511395,-0.0720316803446157,-0.0027519999999999767,-0.127156,-0.914927,0.013511000000000023,0.10408199999999995,-0.9061970000000001,0.016263,0.23123799999999994,0.008729999999999905,0.9954347325050921,0.9064739979934278,double,-0.9061970000000001
25,0.208333,step_decsent,0.03600144005760509,0.1204848193927766,-0.0061202448097951966,0.058455222351430886,-0.006930698668488303,-0.08535488272341124,0.001560062402494333,-0.000480019200768512,0.00360014400576384,-0.00060002400096064,0.002040081603269507,-0.002040081603262845,0.1872149768992096,-1.3825105986356105,-0.6624529951827538,0.27362188931282533,-0.37442995379759114,0.41763341000540644,0.11520921655270494,-0.043203456205414936,0.043203456207013824,-0.003039000000000014,-0.128164,-0.914846,0.013205999999999996,0.10309499999999999,-0.906163,0.01624500000000001,0.231259,0.008682999999999996,0.9934118688379489,0.9082585918805468,double,-0.906163
26,0.216667,step_decsent,0.030597552195821602,0.11975041996640244,-0.007919366450698519,-0.18603907853344043,-0.029343568115933163,-0.19781316230889984,-0.0015598752099814294,0.0035997120230350926,0.0008399328053730787,-0.002519798416125897,0.0015598752099880903,-0.002039836813060324,-0.6484146702403987,-0.08812088149437895,-0.2158773267222607,-0.3743625644919318,0.4895285845696665,-0.3311988481390399,-0.23035450145971384,-0.05762015758116343,2.937247450455689e-05,-0.0033069999999999766,-0.12913200000000002,-0.914773,0.012930000000000025,0.10211000000000003,-0.906114,0.016237,0.23124200000000006,0.008658999999999972,0.9933132335424031,0.9074138139546503,double,-0.906114
27,0.225,step_decsent,0.05400216008640413,0.12252490099603904,0.003240129605184114,-0.024602660425396907,0.1280685171178559,-0.08711908718853545,-0.0009600384015370207,0.0022800912036470937,-0.00024000960038425518,-0.0016800672026897863,0.002040081603256177,-0.004320172806909932,2.80866529348164,0.33295104159805494,1.3391930944296921,0.07198329634518279,-0.15836083275987015,-0.12959827262178483,0.10077177648339253,0.05762707227506133,-0.2736512653125652,-0.0037649999999999906,-0.13013400000000003,-0.9148019999999999,0.012466000000000005,0.10110599999999997,-0.906177,0.016230999999999995,0.23124,0.008624999999999883,0.9958573712594097,0.9053092832329335,double,-0.906177
28,0.233333,step_decsent,0.033721348853954544,0.113404536181444,-0.01428057122284653,-0.057562289576487825,-0.017384956434044318,-0.21262096465940933,-0.0008400336013448932,0.0026401056042268073,0.0012000480019212759,-0.0028801152046077313,0.001800072002878583,-0.0028801152046110624,-2.4337946996819353,-1.0944875572536936,-2.102568202091759,0.01440115206913806,0.043203456207813906,0.17281382482965676,-0.14401152069098092,-0.02880230413747673,0.17281382482885735,-0.004053000000000001,-0.13105699999999998,-0.914673,0.012161000000000005,0.10017599999999999,-0.906082,0.016214000000000006,0.23123299999999997,0.008590999999999904,0.9949679004658499,0.906668112998407,double,-0.906082
29,0.241667,step_decsent,0.04319654427645789,0.11807055435565668,0.002639788816890634,-0.0902056982940165,0.20713818504347356,-0.1232373859423978,-0.00035997120230417656,0.003359731221498987,0.0011999040076805885,-0.002279817614589788,0.002039836813060331,-0.003719702423799833,1.136932496100716,0.5598773907142658,2.03028078230588,0.057602879654513765,0.08634816621936423,-1.7277926648352253e-05,0.07202994840628088,0.02876947566375673,-0.1007424069100999,-0.004416000000000003,-0.13201300000000005,-0.914685,0.011782000000000015,0.09920899999999999,-0.9061349999999999,0.016198000000000018,0.23122200000000004,0.008550000000000058,0.9940238569724531,0.9064731892487095,double,-0.9061349999999999
30,0.25,step_decsent,0.04572182887315398,0.12288491539661209,-0.00684027361094128,-0.12840640744359244,0.09314786808527355,-0.20683522440331487,-0.0037201488059526245,0.005520220808837869,-0.00252010080403801,-0.0027601104044189346,0.0030001200047931973,-0.003240129605184114,0.30304627345446883,0.5777464347720395,-1.137652997459727,-0.4032374419354908,0.2592691212455155,-0.44641843414359716,-0.05763744027710865,0.11523859255164592,0.05755104027549723,-0.004827999999999999,-0.13299099999999997,-0.914649,0.011378,0.09820999999999996,-0.9061049999999999,0.016205999999999998,0.23120099999999993,0.008544000000000107,0.9881369793780947,0.9058809432562352,double,-0.9061049999999999
31,0.258333,step_decsent,0.02784111364454705,0.1009240369614764,-0.020280811232432992,0.10914168423999254,0.05134605128830908,-0.15583853937634193,0.002640105604226816,0.013200528021120756,-0.011400456018235505,-0.003000120004799869,0.0031201248050019893,-0.003240129605184125,-2.145771658299169,-2.635410828649436,-1.612929031740279,0.7632610596639212,0.9216737324232456,-1.0656852531138266,-0.028802304137877717,0.014401152071137917,-1.3010946507686392e-15,-0.005037999999999987,-0.13372199999999995,-0.9145750000000001,0.011120999999999992,0.09739500000000006,-0.9059630000000001,0.01615899999999998,0.23111700000000002,0.008612000000000064,0.9705988239529633,0.904868535280547,double,-0.9059630000000001
32,0.266667,step_decsent,0.04643628509719199,0.14134869210463297,0.017998560115175463,-0.18844289440344605,-0.0035352391018219293,-0.09733660002082893,-0.00011999040076805845,0.0037197024238064817,0.0005999520038369618,-0.0017998560115175463,0.00299976001919147,-0.004439644828414832,2.231242074951395,4.850570571533061,4.593157109144279,-0.33118502579732084,-1.1376080630326693,1.4399337679472588,0.1440201575812721,-0.014442618887751254,-0.14393031236269568,-0.005425999999999986,-0.13486899999999996,-0.91472,0.010719000000000006,0.096242,-0.90615,0.016144999999999993,0.23111099999999996,0.008569999999999967,0.9937171913957263,0.9048795010692687,double,-0.90615
33,0.275,step_decsent,0.04176167046682029,0.11340453618145029,-0.010680427217089328,0.15781152040379068,0.12234611196522328,-0.1082221344398721,0.0,0.00552022080883119,0.003120124804995307,-0.004320172806913249,0.0038401536061480703,-0.0037201488059526123,-0.5609761946923894,-3.3534328480958315,-3.4416161445175413,0.014399424069129719,0.21607084903692553,0.30243283345233823,-0.3024501134520211,0.100851264485371,0.08634297641452257,-0.005774000000000001,-0.135768,-0.9146049999999999,0.010334999999999983,0.095329,-0.9060919999999999,0.016108999999999984,0.231097,0.008512999999999993,0.9894317014171575,0.9034135389482574,double,-0.9060919999999999
34,0.283333,step_decsent,0.035641425657025376,0.13464538581543437,-0.0007200288011461063,-0.20382035124295977,-0.049598168351694255,-0.12941185954550033,0.000120004800192128,0.005640225609020023,0.002640105604220154,-0.004560182407294202,0.006240249609977332,-0.002160086403458304,-0.7344587555256127,2.5490039162347453,1.195295621738059,0.014401152069138161,0.01440115206874281,-0.05760460827734959,-0.028802304137880007,0.2880230413811674,0.1872149768983934,-0.006069999999999992,-0.13684300000000005,-0.914577,0.010000000000000009,0.09425899999999993,-0.906104,0.01607,0.23110199999999997,0.008472999999999953,0.9896188333354541,0.9018948621966576,double,-0.906104
35,0.291667,step_decsent,0.04811615070794148,0.11867050635948659,-0.0013198944084453126,-0.026587763862498545,0.12866731078471155,-0.07563983304255535,-0.0002399808015361169,0.004319654427650105,0.0033597312215056367,-0.038636909047278185,0.0437964962803047,-0.025557955363573137,1.4968472583292647,-1.9168321881386803,-0.07197811462673454,-0.04319481662205958,-0.15845586529516648,0.08634816622096014,-4.088880086391163,4.506389089312134,-2.807519673639886,-0.006472999999999979,-0.13779599999999997,-0.9145380000000001,0.009277000000000007,0.09363500000000002,-0.9063060000000001,0.015749999999999986,0.231431,0.008232000000000017,0.9908705605867333,0.8114288181827196,double,-0.9063060000000001
36,0.3,step_decsent,0.034681387255491684,0.1328453138125558,-0.007320292811723138,-0.04540019017596593,-0.06839117959724018,-0.10028712642408892,-0.001440057602305536,0.003120124804988666,0.002640105604220154,-0.004440177607105405,0.005040201608062714,-0.005040201608062714,-1.612236103738129,1.7010449361657554,-0.7200766114577992,-0.14401497669139832,-0.14394931269188063,-0.08635852841539472,4.103771923697692,-4.650941398324983,2.46222893981885,-0.006774000000000002,-0.13887700000000003,-0.914455,0.008950999999999987,0.09256999999999999,-0.906287,0.01572499999999999,0.231447,0.008168000000000064,0.9927775230668231,0.9043237265195262,double,-0.906287
37,0.308333,step_decsent,0.04704188167526723,0.1264850594023755,0.006960278411150039,-0.09810688618329085,0.225935876070113,-0.09641447141227817,-0.0001200048001921272,-0.004200168006721121,0.018000720028805754,-0.006720268810752461,0.007320292811709766,-0.002280091203647086,1.4833186631195843,-0.7632610596640179,1.7137370962286231,0.15841267276051882,-0.8784702762162194,1.8433474648488584,-0.2736218893132182,0.2736218893132176,0.33122649758977757,-0.007167000000000007,-0.13996600000000003,-0.914363,0.008502999999999983,0.09157699999999996,-0.9063640000000001,0.01566999999999999,0.231543,0.007998999999999978,0.9691922748688562,0.9030175575921,double,-0.9063640000000001
38,0.316667,step_decsent,0.040436765058796,0.13450923926085787,0.006119510439167692,-0.09086615352357712,0.03947154498825658,-0.049997514796641405,-0.00635949124070048,-0.0021598272138184057,0.00143988480921005,-0.00635949124070048,0.005999520038396301,-0.005519558435324065,-0.7925505899293577,0.9628245570533245,-0.10088408591100935,-0.74867847858272,0.24482130944357172,-1.9871412550510918,0.04328984521862057,-0.15848005439326524,-0.3887049714035274,-0.007557000000000008,-0.14110499999999998,-0.9144020000000002,0.008112999999999981,0.09050599999999998,-0.9064610000000001,0.01566999999999999,0.23161099999999996,0.007941000000000087,0.9885518984230414,0.9033576906451358,double,-0.9064610000000001
39,0.325,step_decsent,0.04956198247929857,0.127925117004681,-0.015480619224774415,0.002195511657901369,-0.020715809172058855,-0.09944061663239057,-0.0002400096003842544,0.006960278411136715,0.0085203408136377,-0.005280211208446935,0.004800192007685088,-0.0034801392055683576,1.0950698932560339,-0.790126275792251,-2.5921192444428196,0.7343671715248049,1.09445645325274,0.8496887080796376,0.12951878462180968,-0.14392512069017263,0.24474009717457085,-0.007972000000000007,-0.142113,-0.914202,0.007655999999999996,0.08948,-0.906361,0.015628000000000003,0.231593,0.007840999999999987,0.9816591464098623,0.9083576907820096,double,-0.906361
40,0.333333,step_decsent,0.03996159846393865,0.12492499699988201,-0.013320532821309553,-0.03978684319614833,-0.1274472101023469,-0.04135917059277624,-0.000480019200768512,0.0016800672026831304,0.002040081603262845,-0.003960158406336893,0.002760110404415613,0.001080043201725821,-1.1520921655298142,-0.36002880172795043,0.25922073724527395,-0.028802304138276513,-0.6336506910420735,-0.7776622117334538,0.15841267276011584,-0.24481958517574462,0.5472437786264479,-0.00830900000000001,-0.14314000000000004,-0.914074,0.007289999999999991,0.08846199999999999,-0.9062410000000001,0.015599000000000002,0.23160200000000003,0.007832999999999979,0.9955232150714897,0.9134258846971786,double,-0.9062410000000001
41,0.341667,step_decsent,0.044036477081834155,0.12419006479481061,-0.022318214542838888,-0.04960105381328114,-0.2305220708276549,-0.09338852183206485,0.002039836813056994,0.0034797216222703644,0.004919606431487066,-0.0011999040076772541,0.0013198944084453126,-0.0008399328053730787,0.4889463184419845,-0.08818480982378177,-1.0796354357486593,0.3023585329764223,0.21594125505006387,0.34551533815985336,0.331204031516635,-0.17281209454887198,-0.23037869055662324,-0.008659,-0.144146,-0.9138470000000001,0.0069130000000000025,0.08743800000000002,-0.906062,0.015572000000000003,0.231584,0.007785000000000042,0.9893970753205219,0.9188639275407721,double,-0.906062
42,0.35,step_decsent,0.048001920076801236,0.12972518900756047,0.008400336013442297,-0.16154226080996092,0.20268039066596907,-0.031136407616037677,-0.0025201008040346877,0.0070802832113322205,0.003480139205568381,-0.000120004800192128,-0.002760110404415613,0.010320412816509684,0.4758721942838222,0.6642414751889926,3.686373521694619,-0.5472144026271082,0.4320846740743868,-0.17274297682931575,0.12959308862176033,-0.4896201623498063,1.339295046427792,-0.009080000000000005,-0.14516799999999996,-0.913888,0.006512000000000018,0.08633400000000002,-0.9060460000000001,0.015592000000000023,0.23150199999999999,0.007841999999999905,0.986196549615595,0.9037736706555877,double,-0.9060460000000001
43,0.358333,step_decsent,0.042601704068161855,0.1327253090123661,0.012960518420736413,-0.11195508359572202,0.19400077427670986,-0.06706533071346048,-0.0009600384015336867,0.0038401536061414086,0.007080283211325512,0.021840873634943834,-0.030721228849157914,0.033001320052805004,-0.6480518431104474,0.3600288017287424,0.5472437786264367,0.1872149768991953,-0.3888311058671305,0.4320345620733369,2.63541082864945,-3.3554684321063464,2.7218177410650695,-0.00944299999999998,-0.14624200000000004,-0.913937,0.006339000000000011,0.08497199999999994,-0.9058790000000001,0.01578199999999999,0.23121399999999998,0.008057999999999899,0.9864805835304513,0.8359217500454917,double,-0.9058790000000001
44,0.366667,step_decsent,0.051595872330215176,0.1293496520278338,-0.010319174466046365,-0.16833934117619115,-0.08743129546156518,-0.07579775467081133,0.004199664026875385,-0.007799376049913808,0.011159107271419444,-0.0075593952483810215,0.004559635229192882,-0.004679625629950949,1.0792138543380503,-0.4050464344291205,-2.7933396792395913,0.6191147622281098,-1.3966318281803702,0.48941973363258073,-3.5277500459952993,4.233365020200475,-4.521351773788807,-0.009838000000000013,-0.147385,-0.9137580000000001,0.00584599999999999,0.08393200000000006,-0.905832,0.015684000000000003,0.23131700000000005,0.0079260000000001,0.9762540576681658,0.904087203606448,double,-0.905832
45,0.375,step_decsent,0.04608184327373052,0.12912516500660315,-0.002400096003855883,-0.0696031078603445,0.09180001945071083,-0.06677408289737945,-0.0024000960038392293,0.007320292811709816,0.003120124804988666,-0.007560302412094071,0.005640225609013362,-0.005160206408258173,-0.6617099551763672,-0.026939520128483392,0.9503274285600025,-0.7920028838011077,1.8144328407084676,-0.964716484631081,-0.00010886400012596992,0.1296760326197627,-0.05767200027687807,-0.010242000000000001,-0.14840000000000003,-0.9137119999999999,0.005399000000000015,0.08290299999999995,-0.9058549999999999,0.015641000000000016,0.23130299999999998,0.007857000000000003,0.9861473702380779,0.9035105779127541,double,-0.9058549999999999
46,0.383333,step_decsent,0.0366014640585624,0.11376455058202409,-0.005400216008622444,0.06694223988481572,-0.14689193204934686,0.003132207741157317,-0.0021600864034549733,0.00240009600384256,0.009840393615747834,-0.006840273610944634,0.004680187207489661,-0.004920196807867256,-1.137691013460716,-1.8433474648480859,-0.36002880172405716,0.028802304138276322,-0.5904472348334655,0.8064645158717371,0.08640691241442922,-0.1152092165515065,0.02880230413907566,-0.010564999999999991,-0.14932800000000002,-0.9135850000000001,0.005037000000000014,0.08199399999999996,-0.905851,0.015602000000000005,0.23132199999999997,0.00773400000000013,0.9827389503496953,0.9065957339277959,double,-0.905851
47,0.391667,step_decsent,0.04919606431485401,0.12778977681785236,-0.009959203263745522,-0.17197131914802655,-0.0013178293605449888,-0.035657477391746184,-0.0007199424046083507,0.002039836813053663,0.007559395248377691,-0.0075593952483810215,0.004199664026878715,-0.006719462443004612,1.5112311322644105,1.6828925168980395,-0.5470347078381418,0.17280345558514773,-0.043227644683092925,-0.27369790825175677,-0.08628769347688822,-0.05765816901979182,-0.2158946046481107,-0.01098099999999999,-0.150376,-0.913439,0.0045640000000000125,0.08096399999999998,-0.905824,0.015545000000000003,0.23134,0.007615000000000038,0.986895324433725,0.9055976934499546,double,-0.905824
48,0.4,step_decsent,0.0376815072602913,0.12132485299411735,-0.01944077763110462,0.007980153414894777,-0.2905832171364906,-0.011505012280655183,0.000600024000960636,0.006000240009599698,0.01104044161766904,-0.00852034081363437,0.005640225609026647,-0.00804032161286919,-1.3818021186322647,-0.7758218917238667,-1.1378344374605853,0.15840230476046815,0.47526739428129344,0.41774227400592046,-0.11531808055362341,0.17287430482994434,-0.15850944076137924,-0.011289999999999994,-0.151337,-0.9131849999999999,0.004178999999999988,0.08000000000000002,-0.905729,0.015468999999999983,0.23133700000000001,0.007455999999999907,0.9790334750874103,0.9037698000227419,double,-0.905729
49,0.408333,step_decsent,0.047041881675267544,0.12732509300372455,-0.01860074402974986,-0.05827505234882029,-0.2655028942760008,-0.0555307834493819,0.001560062402494333,-0.005520220808831226,0.011040441617662452,-0.007560302412094071,0.005520220808831226,-0.00648025921036825,1.123289861391608,0.7200576034570033,0.10080806448515063,0.11520921655270605,-1.3825105986356596,-7.906491973790867e-13,0.11520921655349822,-0.014401152069533355,0.1872149768991893,-0.011669000000000013,-0.15244400000000002,-0.912938,0.003724000000000005,0.07898499999999997,-0.9056280000000001,0.015393000000000018,0.231429,0.007309999999999928,0.9792636937025002,0.9079245209565572,double,-0.9056280000000001
50,0.416667,step_decsent,0.03239740820734248,0.11867050635948659,-0.0009599232061444676,-0.0011373978500262064,-0.10054681616260057,0.0014492372924114897,0.0021598272138250523,-0.002879769618426742,0.014158867290617575,-0.007799376049917138,0.004919606431480405,-0.008039356851449925,-1.75719624045177,-1.0384673199229604,2.1167291604998053,0.07196602007807999,0.3168287965448142,0.3741811462629134,-0.028686541615438797,-0.07206795984531081,-0.18707675078973768,-0.011920999999999987,-0.15345699999999995,-0.9128120000000001,0.003389000000000003,0.07803699999999997,-0.9056870000000001,0.01530999999999999,0.23149399999999992,0.007124999999999937,0.9756511778974085,0.9083604566019166,double,-0.9056870000000001
51,0.425,step_decsent,0.041401656066244186,0.12060482419297205,-0.018720748829958642,0.03375242641976426,-0.31847907275012566,-0.06036481199417842,0.003360134405376253,-0.002160086403458304,0.012120484819388273,-0.007920316812673786,0.003720148805952637,-0.006840273610947965,1.0805529651868149,0.2321274251152611,-2.1313843302309157,0.14404262469113208,0.08636544041382933,-0.24461568117476384,-0.014513472069680549,-0.14394067269024013,0.14389574469002323,-0.012237999999999999,-0.15448,-0.912555,0.0029779999999999807,0.07706299999999994,-0.9055880000000001,0.01521599999999998,0.23154299999999994,0.0069669999999999455,0.9787303927875673,0.9118187220094085,double,-0.9055880000000001
52,0.433333,step_decsent,0.04116164646585633,0.12564502580102727,-0.02052082083285042,-0.08868609845142797,-0.1517294258956005,-0.06587290379485393,0.0032401296051841034,0.004320172806909917,0.00900036001440621,-0.00804032161286253,0.004200168006721121,-0.009240369614783802,-0.02880230413870825,0.604848386902099,-0.21601728103825385,-0.014401152069140642,0.7776622117326526,-0.3744299537959979,-0.014401152068731889,0.057604608276548876,-0.2880230413819545,-0.012553999999999982,-0.155491,-0.9123089999999998,0.0025680000000000147,0.07605099999999998,-0.9054939999999999,0.015121999999999997,0.23154199999999997,0.0068149999999999045,0.9825064445732407,0.9102685899479332,double,-0.9054939999999999
53,0.441667,step_decsent,0.03683705303575756,0.10979121670266431,-0.0064794816414685385,-0.0155320151218742,-0.028114127927440863,-0.0055561832957085515,0.005639548836092124,0.004199664026878744,0.013438924886009314,-0.006719462443004657,0.0035997120230484383,-0.009719222462202809,-0.5189096988359485,-1.9023049074109724,1.684825916892484,0.2879072751269539,-0.014459896811995932,0.5325851777781534,0.15849042114925363,-0.07204895412439237,-0.05745774507067546,-0.012813999999999992,-0.15637099999999998,-0.9121429999999999,0.0022050000000000125,0.07516600000000007,-0.9055209999999999,0.015019000000000005,0.23153700000000005,0.006622000000000017,0.9747211995326163,0.9131933007177495,double,-0.9055209999999999
54,0.45,step_decsent,0.03816152646105981,0.11040441617665044,-0.026881075243009846,0.07149215699139827,-0.26133984048999076,-0.05929801196263218,0.012960518420736413,-0.0016800672026897807,0.02244089763590447,-0.00720028801152097,0.002760110404415595,-0.009480379215168056,0.15894316876302003,0.07358688035354859,-2.4482891637514963,0.8785514922169998,-0.7055959713870755,1.0802799411850614,-0.05770137627700838,-0.10075622448492019,0.028662336137615717,-0.013024000000000008,-0.15730500000000003,-0.9117319999999999,0.0018269999999999953,0.07426900000000003,-0.905376,0.014851000000000003,0.23157400000000006,0.006355999999999917,0.956718250245727,0.9160725459128757,double,-0.905376
55,0.458333,step_decsent,0.041881675267009366,0.11400456018240834,-0.03408136325452438,0.03138938016639883,-0.22063144082747482,-0.05202698166026189,0.0106804272170894,-0.011880475219004018,0.021960878435136107,-0.006600264010560378,0.0030001200047932073,-0.011400456018242166,0.4464357141425136,0.43203456207343294,-0.8640691241467118,-0.27362188931321485,-1.2240979258747466,-0.05760460827653464,0.07200576034568505,0.028802304137479064,-0.23041843310621807,-0.01328399999999999,-0.158354,-0.911265,0.0014230000000000076,0.07334399999999996,-0.905187,0.014706999999999998,0.23169799999999996,0.006078000000000028,0.954738494445803,0.9167024387991574,double,-0.905187
56,0.466667,step_decsent,0.034317254619631414,0.10895128389728384,-0.023998080153585045,-0.02582208606637138,-0.0583126996236205,-0.11319597345964977,0.01667866570674347,-0.021118310535158304,0.02243820494360362,-0.006599472042236554,0.0014398848092167015,-0.014398848092147032,-0.9076578650561489,-0.6063446466432083,1.2098971803382916,0.7197310402752659,-1.1084515618135682,0.057274599048177444,9.502859657114082e-05,-0.18721324640946777,-0.3597782666072549,-0.013430999999999998,-0.15943799999999997,-0.910878,0.0010819999999999996,0.07244800000000001,-0.9051069999999999,0.014512999999999998,0.23188599999999998,0.005771000000000082,0.9416039867535692,0.915782499704968,double,-0.9051069999999999
57,0.475,step_decsent,0.03228129125164912,0.11676467058682397,-0.04392175687025889,0.04340417016092676,-0.25727749324623317,-0.09444929323343561,0.01956078243129688,-0.049201968078725844,0.01716068642745765,-0.007800312012481658,0.001320052802110077,-0.01548061922477452,-0.2443253771729626,0.9376439085011574,-2.3909368434746066,0.34586784166007617,-3.3701737121766002,-0.6333275550397194,-0.14410656069184055,-0.014380416069437739,-0.12981772862444382,-0.013536999999999993,-0.160821,-0.9103690000000001,0.0007479999999999987,0.071486,-0.9048700000000001,0.014284999999999992,0.23230699999999999,0.005499000000000032,0.9072346593877563,0.91603505975105,double,-0.9048700000000001
58,0.483333,step_decsent,0.0344413776551072,0.1078843153726191,-0.046441857674323246,0.040355279599227085,-0.32311428420749205,-0.167281733020368,0.013800552022081304,-0.06780271210848192,0.011640465618626345,-0.006120244809791825,-0.0008400336013415596,-0.01728069122764633,0.25922073724445804,-1.0656852531147043,-0.30242419345545946,-0.6912552993178388,-2.232178570713548,-0.662452995179561,0.20161612896793785,-0.25922073724368505,-0.21601728103585777,-0.013708999999999999,-0.162285,-0.9098849999999999,0.0004099999999999937,0.07057999999999998,-0.904627,0.014118999999999993,0.232865,0.005257999999999985,0.883057903155281,0.9168338129265833,double,-0.904627
59,0.491667,step_decsent,0.028197744180463762,0.101751859851207,-0.04703623710102563,-0.05652287858245702,-0.03460459492046791,-0.14350330831077185,0.05147588192944379,-0.019318454523640758,0.06311495080393213,-0.008159347252217983,-0.002759779217662014,-0.020038396928242448,-0.7491760828705821,-0.7358357957057952,-0.07131982561823617,4.520677934648722,5.817645498541051,6.176444106708152,-0.24467271927359688,-0.2303510458747843,-0.33089821221455673,-0.013515,-0.163294,-0.9089670000000001,0.00010700000000002374,0.06970900000000002,-0.9044019999999999,0.013622000000000023,0.23300300000000002,0.004565000000000152,0.8604922730079203,0.9179979910242484,double,-0.9044019999999999
60,0.5,step_decsent,0.025321012840515692,0.10860434417377259,-0.0282011280451201,0.10278355886927291,-0.012389827391141448,-0.12329779311605553,0.04872194887795733,-0.008160326413058042,0.05484219368775253,-0.04980199207968315,0.057362294491777224,-0.06900276011041032,-0.34522156965655554,0.8223310119483509,2.260303498848623,-0.33048518558579876,1.3390289344273063,-0.9927705647641449,-4.997317271986713,7.214937442630432,-5.875958620204967,-0.013319999999999999,-0.16426700000000005,-0.9082749999999999,-0.0005189999999999917,0.06928199999999995,-0.904742,0.012801000000000007,0.233549,0.0035329999999998973,0.8769814214785367,0.7936270217482608,double,-0.904742
61,0.508333,step_decsent,0.028201128045119914,0.09096363854553915,-0.03816152646106314,0.060551953377062824,-0.08211704723241595,-0.14467863560928051,0.05316212648505905,-0.002880115204604391,0.08688347533900682,-0.007320292811713097,-0.0008400336013415596,-0.01908076323052491,0.34562764965849146,-2.1169693541621695,-1.1952956217380293,0.5328426265572664,0.633650691042077,3.845107602454597,5.098007832469684,-6.984558753524365,5.990879260756654,-0.013111999999999985,-0.165049,-0.907233,-0.0008149999999999824,0.068517,-0.9045829999999999,0.012297000000000002,0.233566,0.002650000000000041,0.8301696512938981,0.9394099285894313,double,-0.9045829999999999
62,0.516667,step_decsent,0.02819774418046728,0.08639308855291607,-0.037916966642666756,0.010076447162532995,0.03837028526797216,-0.10898977496590705,0.03323734101271911,0.044996400287978924,0.03299736021118632,-0.005879529637628242,-0.0015598752099881005,-0.016678665706743583,-0.0004060312758139426,-0.5484221253447461,0.02934483062111653,-2.3907829940412837,5.744722281327524,-6.4658165500144955,0.17287775067012992,-0.08637408311093653,0.2882286445621958,-0.013069999999999998,-0.16539399999999999,-0.906642,-0.0010989999999999889,0.06778399999999996,-0.904406,0.01197100000000001,0.23317799999999994,0.0022359999999999047,0.8917535905473767,0.9480511521952859,double,-0.904406
63,0.525,step_decsent,0.027001080043201973,0.09864394575782863,-0.01908076323053157,0.10107956175863382,0.033469304515732184,-0.11305762404963109,0.07284291371654793,-0.015600624024963212,0.13080523220928542,-0.007920316812673734,-0.0006000240009506435,-0.017400696027841788,-0.1436054406894638,1.4701616710563437,2.260434826849287,4.752858838812991,-7.271933794904823,11.737414136337296,-0.244904257175745,0.11518675255459654,-0.08664710441596095,-0.012688000000000005,-0.166346,-0.905393,-0.0013900000000000023,0.06695700000000004,-0.904392,0.011298000000000002,0.23330300000000004,0.0010010000000000296,0.7491155737417803,0.9581102053946654,double,-0.904392
64,0.533333,step_decsent,0.036361454458178386,0.08580343213728882,-0.03732149285970875,0.026113556797607004,-0.17516002590255028,-0.16730219192623386,0.06948277931117262,0.014760590423615187,0.1374054962198509,-0.006960278411136808,-0.0019200768030740608,-0.016320652826116194,1.1232898613916353,-1.5409232713956473,-2.1889751145058622,-0.4032322579353575,3.643491473488381,0.7920633638024178,0.1152092165530943,-0.15841267276172197,0.12961036862181732,-0.012412000000000006,-0.16693800000000003,-0.903937,-0.0017510000000000026,0.06622600000000001,-0.904217,0.010661000000000004,0.23316400000000004,0.000280000000000058,0.7393994631832462,0.9702559119244375,double,-0.903937
65,0.541667,step_decsent,0.034797216222700086,0.09395248380129256,-0.05483561315093907,-0.052477839821926636,-0.31812558148054565,-0.2302589017575442,0.07643388528917612,0.03191744660427003,0.16822654187665032,-0.0031197504199661683,-0.005759539236866767,-0.014398848092153596,-0.18769357277157273,0.9778079750424385,-2.1015263128425947,0.8340659920810468,2.058658049034643,3.6982296204462655,0.4608264928210476,-0.46069863616422807,0.23059812022589196,-0.012064999999999992,-0.16745500000000002,-0.9020780000000002,-0.0020669999999999855,0.06539499999999998,-0.9038800000000001,0.009998000000000007,0.23285,0.0018019999999999703,0.6694587491229516,0.9736354635666267,double,-0.9020780000000002
66,0.55,step_decsent,0.02784111364454686,0.09468378735149176,-0.02856114244571961,-0.031209292974802655,-0.1629225153301847,-0.19681507163127654,0.08388335533421364,0.050522020880835586,0.16452658106324317,-0.0045601824072975024,-0.004920196807867223,-0.012120484819388192,-0.8347657000063838,0.0877599364213598,3.1530626071306074,0.8939721642910697,2.232638218716606,-0.4440130581311813,-0.17285875282987256,0.10072512048476426,0.2734145293130199,-0.011597999999999997,-0.167823,-0.900469,-0.0023370000000000057,0.06456500000000004,-0.903743,0.009260999999999991,0.23238800000000004,0.003273999999999999,0.6481558382685058,0.9769114174155642,double,-0.900469
67,0.558333,step_decsent,0.044041761670467965,0.08844353774151566,-0.03792151686067273,-0.07368842475986344,-0.26696464561921496,-0.24446142955546787,0.10596423856954314,0.054842193687752894,0.1818072722908919,-0.008160326413054765,-0.001320052802110086,-0.010320412816516415,1.9441555293317234,-0.7488599075934427,-1.12328986138884,2.649811980718793,0.5184414744890612,2.0737658979537867,-0.4320345620733584,0.4320345620733433,0.21601728103585668,-0.011082000000000009,-0.168103,-0.8986379999999999,-0.0027719999999999967,0.06381700000000001,-0.903513,0.008310000000000012,0.23192000000000002,0.004875000000000074,0.5888123796125485,0.9779618772684396,double,-0.8986379999999999
68,0.566667,step_decsent,0.040196784257259345,0.0861531077513788,-0.023878089752800178,-0.012310974903281476,-0.3768413797192352,-0.2392480529334707,0.13990880729541535,0.07415406767458636,0.19654427645788528,-0.005519558435327322,-0.002519798416132541,-0.010559155267575752,-0.4613603807545705,-0.27482961244742504,1.685076446828947,4.07302240531221,2.317239499260058,1.7682990361163007,0.3168668079826521,-0.1439579570461298,-0.028646802382929656,-0.01025100000000001,-0.168203,-0.8968010000000001,-0.003153000000000017,0.06307799999999997,-0.903402,0.007097999999999993,0.23128099999999996,0.006600999999999968,0.513332602057121,0.9797028553360256,double,-0.8968010000000001
69,0.575,step_decsent,0.019920796831873394,0.09264370574823017,-0.009600384015370304,0.012776947835797685,-0.06985471497144405,-0.1950962198179565,0.15720628825153218,0.08472338893555632,0.22692907716308572,-0.006960278411136808,0.0003600144005730556,-0.010800432017278268,-2.4332158196791234,0.7789029157388005,1.7133932242205694,2.075780745963877,1.2683692860878504,3.6463219375015865,-0.17289331282965312,0.3455913616591411,-0.028954368139027707,-0.009107000000000004,-0.168269,-0.89483,-0.003377000000000019,0.06230899999999995,-0.903412,0.005729999999999985,0.23057799999999995,0.008581999999999979,0.432895042364485,0.9785767249048425,single,-0.89483
70,0.583333,step_decsent,0.03972158886355413,0.07968318732749252,-0.023400936037434827,-0.08062429884892276,-0.21681509489703826,-0.23088084615123516,0.17604704188167405,0.05088203528140864,0.22128885155406272,-0.004560182407294172,-0.0018000720028785772,-0.00804032161286919,2.376190091405335,-1.5553244234654493,-1.6561324879472537,2.260980874852009,-4.061124883493045,-0.6768541472486468,0.28802304138277046,-0.2592207372436846,0.3312264975889914,-0.007971000000000006,-0.16850900000000002,-0.8927910000000001,-0.0037459999999999993,0.06162999999999996,-0.9032840000000001,0.0042250000000000065,0.23013899999999998,0.010492999999999975,0.41621053821205495,0.9843047871380304,single,-0.8927910000000001
71,0.591667,step_decsent,0.0430765538756894,0.07511399088073083,0.00755939524837098,0.06659379458879786,-0.29748475113737644,-0.21093189632275394,0.19906407487400782,0.0489560835133209,0.24406047516198281,-0.005879529637628164,0.003839692824577845,-0.007199424046076798,0.4025635963685194,-0.5482597128343725,3.714942558891957,2.7618230132389714,-0.2310957245125662,2.7323762428509624,-0.15830900291984432,0.6767176418834149,0.10089963604420282,-0.00667100000000001,-0.16872700000000002,-0.89082,-0.004153999999999991,0.06103599999999998,-0.9034070000000001,0.0025170000000000192,0.229763,0.012587000000000126,0.37412999999999985,0.9832382863228517,single,-0.89082
72,0.6,step_decsent,0.04776191047642063,0.07020280811231873,-0.014640585623419728,-0.16277699145454477,-0.168012353176838,-0.1861110097980634,0.23088923556942598,0.054722188887557435,0.26833073322933354,-0.006240249609987367,-0.0001200048001954596,-0.004920196807867288,0.5622652826990607,-0.5893655068297303,-2.664104268785661,3.8191720503322273,0.6919603233213237,2.912547469980913,-0.04328812820823302,-0.4751827222816921,0.2735182093135163,-0.005145000000000011,-0.16885599999999995,-0.8884620000000001,-0.004604000000000025,0.060450000000000004,-0.9033260000000001,0.0005409999999999859,0.22930599999999995,0.014863999999999988,0.3513600000000001,0.9867540936119069,single,-0.8884620000000001
73,0.608333,step_decsent,0.0410416416656642,0.0699627985119402,0.027961118444728997,0.11775309629869185,-0.20342725626192804,-0.09702719063733303,0.27349093963758475,0.062042481699266475,0.25633025321012387,-0.007560302412094021,0.0009600384015370176,-0.002880115204611053,-0.8064645158714029,-0.028802304137588268,5.112408984537208,5.112408984538413,0.8784702762161297,-1.4401152069134309,-0.15841267275970822,0.12961036862264164,0.24481958517415414,-0.0032079999999999886,-0.16892199999999996,-0.886559,-0.005008999999999986,0.05987500000000001,-0.903583,0.001800999999999997,0.22879699999999997,0.01702400000000004,0.32976000000000016,0.986421533603351,single,-0.886559
74,0.616667,step_decsent,0.07175425965922949,0.0639548836093123,-0.008639308855300266,-0.18527957911099688,-0.2577247242758366,-0.19036522792115101,0.3414926805855536,0.07355411567074371,0.23170146388289262,-0.005879529637628242,0.0045596352291795905,-0.005519558435324065,3.6852193416805212,-0.7208921169459972,-4.391699940008336,8.159556149264366,1.381285573731378,-2.955218301803623,0.20167659880798994,0.4319170659518351,-0.3167078510574787,-0.0009600000000000164,-0.168842,-0.8845559999999999,-0.005655999999999994,0.05937999999999999,-0.9035569999999999,0.004695999999999978,0.22822199999999998,0.019001000000000046,0.3099900000000001,0.9845597327038211,single,-0.8845559999999999
75,0.625,step_decsent,0.07512300492019501,0.050642025681031044,-0.008640345613806511,-0.27591090693530435,-0.1554028234724896,-0.12325355517959825,0.3721348853954167,0.07980319212768798,0.20712828513140502,-0.008400336013442242,0.003000120004806511,-0.002640105604226798,0.4042656019399382,-1.5976068556679706,-0.00012441599738930207,3.677211665650186,0.7499191716001729,-2.9488994061547453,-0.3025088654522967,-0.18714931289728468,0.3455481616581369,0.0015150000000000163,-0.168599,-0.882758,-0.0063519999999999965,0.05898300000000001,-0.9035070000000001,0.007867000000000013,0.227582,0.020749000000000017,0.2925099999999998,0.9844958318522401,single,-0.882758
76,0.633333,step_decsent,0.07920316812672401,0.05028201128045133,0.018360734429358823,-0.12865932683913214,-0.29156611836220936,-0.0773667204975533,0.4220568822752883,0.08880355214208085,0.14772590903635868,-0.006000240009599698,0.0008400336013415596,0.0008400336013482211,0.489639170350292,-0.043203456207813816,3.240259215548449,5.990879260754996,1.0800864051833479,-7.128570274216499,0.2880230413827593,-0.2592207372452829,0.4176334100054008,0.004372000000000015,-0.16827800000000004,-0.8816799999999999,-0.007061999999999985,0.058570999999999984,-0.9036529999999998,0.011434,0.22684900000000002,0.02197299999999991,0.28027000000000035,0.9898054762691517,single,-0.8816799999999999
77,0.641667,step_decsent,0.08483321334293463,0.055675545956319544,0.010559155267589214,-0.2758198920139133,-0.2453407990871693,-0.08060741405907537,0.448764098872092,0.080873530117592,0.18046556275498127,-0.007319414446844953,0.0007199424046016947,-0.005399568034559336,0.6755513818347314,0.6471723873132043,-0.9361146102435389,3.204609622846634,-0.9515265208170021,3.9284441707010767,-0.15828826940787888,-0.014409790825517825,-0.7486923009248371,0.007404999999999995,-0.168068,-0.8802639999999999,-0.007830000000000004,0.05811299999999997,-0.903786,0.015234999999999999,0.22618099999999997,0.023522000000000043,0.2647800000000001,0.9847933238464097,single,-0.8802639999999999
78,0.65,step_decsent,0.07152286091443454,0.05940237609504634,0.021960878435142623,-0.07706188822208462,-0.2613691751842989,-0.029418097703204558,0.5072602904116154,0.08244329773190812,0.17328693147725846,-0.00252010080403134,-0.004320172806903256,-0.0014400576023055264,-1.5973061836673512,0.44723750614745933,1.368261510566826,7.01982377769388,0.18837964890388875,-0.8614702121352188,0.5759406747646217,-0.6048380189013476,0.4751602582807864,0.011036000000000018,-0.16787600000000003,-0.879003,-0.008446999999999982,0.05758200000000002,-0.903981,0.019483,0.22545800000000005,0.024978000000000056,0.25022,0.9913255536452776,single,-0.879003
79,0.658333,step_decsent,0.07956318252730478,0.06768270730829402,-0.007200288011514404,-0.17310420767563078,-0.05611025428115306,0.009982354047321262,0.5727829113164579,0.10800432017280932,0.1760470418816764,-0.004080163206529049,0.0032401296051841467,0.017160686427457765,0.9648771886319834,0.9936794927694421,-3.499479952796987,7.863029029742362,3.067445390723802,0.33122649759006106,-0.18721497689880268,0.9072725803537107,2.232178570714444,0.015145999999999993,-0.16754000000000002,-0.8774760000000001,-0.009144000000000013,0.05704500000000001,-0.9037780000000001,0.024290000000000006,0.22458500000000003,0.026301999999999937,0.23698000000000008,0.9701096759286816,single,-0.8774760000000001
80,0.666667,step_decsent,0.09779217662586707,0.05003599712023008,0.011039116870647982,-0.22908477350522605,-0.1842646627295441,0.026857443989562177,0.6408687305015531,0.09719222462203345,0.15586753059755035,-0.0025197984161258805,-0.0002399808015427761,0.0034797216222703414,2.18730430748286,-2.1174358277014407,2.188553501579343,8.16964473063292,-1.2973476782788331,-2.4213476462834067,0.18722879654465518,-0.417579842419834,-1.641584449866489,0.019671999999999995,-0.167147,-0.8762690000000001,-0.009979999999999989,0.056625999999999954,-0.9038410000000001,0.029651999999999984,0.22377299999999994,0.02757200000000004,0.22428000000000015,0.9928284052967598,single,-0.8762690000000001
81,0.675,step_decsent,0.10356414256570251,0.039121564862593494,0.040441617664710224,-0.07329187116605153,-0.14308676369647658,0.11651577219534857,0.6819872794911793,0.11556462258490191,0.14640585623424862,-0.005640225609026647,-0.002280091203647086,0.010320412816509616,0.6926636193250224,-1.3097842622868765,3.5284412329367716,4.93442325568535,2.2047759465820698,-1.1354463414498603,-0.3744662417977624,-0.24482304117416312,0.8209157799399072,0.024492000000000014,-0.16651,-0.8753860000000001,-0.01089000000000001,0.05628099999999997,-0.9040920000000001,0.035382000000000025,0.22279099999999996,0.02870600000000001,0.2129399999999999,0.9800332302784487,single,-0.8753860000000001
82,0.683333,step_decsent,0.11004440177607219,0.04296171846873548,0.028441137645484563,-0.2406144865227723,-0.10521592228424252,0.1329265357330145,0.7124684987399559,0.09000360014400333,0.08832353294132018,-0.010200408016317624,0.003480139205575066,0.007560302412100783,0.7776622117328382,0.4608368662116906,-1.440115206915369,3.657892625558243,-3.067445390723487,-6.970157601455535,-0.5472437786260672,0.6912552993186373,-0.3312264975889666,0.02951200000000001,-0.166118,-0.874887,-0.011891999999999986,0.05595200000000006,-0.9042659999999999,0.041403999999999996,0.22207000000000005,0.029378999999999933,0.20621000000000012,0.978058292812295,single,-0.874887
83,0.691667,step_decsent,0.11819054475642023,0.0345572354211673,0.03251739860812697,-0.27277953496367535,-0.10043399154220688,0.19510700752220558,0.7513798896088243,0.07583393328533916,0.08015358771298257,-0.012359011279099948,0.011039116870647982,0.008159347252221259,0.9774589609248826,-1.0084572891250434,0.4891121865421615,4.66899338479339,-1.7002240051192772,-0.9803150022003297,-0.2590116706002289,0.9070047594279889,0.07187963044402101,0.03478899999999999,-0.16577399999999998,-0.87449,-0.01298000000000002,0.05575600000000003,-0.904469,0.047769000000000006,0.22153,0.029978999999999978,0.20021000000000022,0.9692148029501608,single,-0.87449
84,0.7,step_decsent,0.11472458898355854,0.03900156006240522,0.0289211568462664,-0.1964376717712119,-0.09815288424573274,0.14748658558601913,0.7932317292691786,0.08700348013920345,0.005160206408258207,0.01740069602784202,-0.005760230409222182,-0.014400576023042132,-0.41593132999660576,0.5333402905601773,-0.43156627407423503,5.0224216561088095,1.3403992384332641,-8.999565739196575,3.5713077291422346,-2.016002313676985,-2.7072990849950314,0.04044300000000001,-0.16537400000000002,-0.8746879999999999,-0.013790999999999998,0.05538299999999996,-0.90483,0.054234000000000004,0.22075699999999998,0.030142000000000113,0.19857999999999998,0.9611505374548794,single,-0.8746879999999999
85,0.708333,step_decsent,0.12588503540141485,0.04188167526700909,0.011640465618626345,-0.2739397926961509,-0.15778067865722079,0.15388742772596817,0.7711508460338367,0.05940237609504634,0.028081123244931117,0.0019200768030707043,-0.0031201248049886453,0.0044401776071053755,1.3393071424284486,0.34562764965844944,-2.073765897952716,-2.6498119807202536,-3.3122649758978753,2.7506200452025458,-1.857748616917227,0.31682534552184394,2.260980874852686,0.04582,-0.16522799999999999,-0.874551,-0.014824000000000004,0.055008,-0.90489,0.060644,0.220236,0.030339000000000005,0.19660999999999995,0.9904058682705643,single,-0.874551
86,0.716667,step_decsent,0.1243100551955845,0.02783777297816273,0.03395728341733034,-0.13181406533278678,-0.1660144816172425,0.3007692146619788,0.8099352051835799,0.03215742740580615,-0.008279337652992647,0.014398848092153596,-0.02375809935205543,0.02591792656587381,-0.1889825060991534,-1.6851334639844313,2.6778039115315364,4.653750797905317,-3.269132312123828,-4.362906275248798,1.4973327680684902,-2.47635883694104,2.57712370515578,0.051533999999999996,-0.165192,-0.874903,-0.015740000000000004,0.05457799999999996,-0.904957,0.067274,0.21976999999999997,0.030054000000000025,0.1994600000000003,0.9366773467628535,single,-0.874903
87,0.725,step_decsent,0.125405016200648,0.04776191047642063,0.024240969638790032,-0.10927871017544118,-0.17438262339722943,0.19398685904982266,0.8420736829473268,-0.009360374414979384,-0.07272290891635677,0.02928117124684945,-0.04464178567141862,0.02616104644185743,0.1314005766306877,2.3909921394765488,-1.1660042935965917,3.8567716025137635,-4.982335511914786,-7.7335378931194905,1.7859502165721814,-2.5061426040277666,0.029175552140120145,0.057506000000000015,-0.16566800000000004,-0.8757110000000001,-0.016541,0.05380800000000002,-0.904941,0.07404700000000002,0.21947600000000006,0.029229999999999867,0.20770000000000022,0.9009114261484927,single,-0.8757110000000001
88,0.733333,step_decsent,0.12972518900755958,0.024840993639747014,0.02328093123725269,-0.23335111699947217,-0.09731702215992942,0.2843546972980696,0.8696747869914748,-0.012480499219967906,-0.12888515540621137,0.005400216008642393,-0.006720268810759123,0.00252010080403134,0.5184414744883665,-2.7506200452026306,-0.11520921655314262,3.3122649758967895,-0.37442995379677296,-6.739739168349258,-2.865829261755305,4.550764053841275,-2.837026957617424,0.063672,-0.16597900000000004,-0.8769790000000001,-0.01757699999999998,0.053544999999999954,-0.9051140000000001,0.08124899999999999,0.219524,0.02813500000000002,0.2186499999999998,0.9850300992830299,single,-0.8769790000000001
89,0.741667,step_decsent,0.1465082793376538,0.02327813774897685,0.025797936165089443,-0.20210090696310337,-0.0421979346881319,0.3087316112979788,0.8772498200144037,-0.02651787856971112,-0.17818574514039148,-0.0008399328053764147,0.00035997120230084735,-0.0002399808015361185,2.0138097348325323,-0.1875277046760467,0.30201643002600986,0.9089312482516052,-1.6843507739072827,-5.915597520300023,-0.7487579570456975,0.8495608367002653,-0.3311832980042566,0.069762,-0.166394,-0.878679,-0.01880499999999999,0.05335399999999996,-0.9053309999999999,0.08856699999999999,0.21974799999999994,0.026651999999999898,0.2334799999999999,0.9984253243992463,single,-0.878679
90,0.75,step_decsent,0.13692547701908056,0.026521060842436793,0.02844113764551083,-0.02706639033743727,-0.08008769259963594,0.3122855090606643,0.8861154446177812,-0.03456138245529932,-0.23388935557422608,0.0010800432017291448,-0.0010800432017191524,0.0,-1.1499822775198862,0.38916633786870625,0.3171968655251862,1.06391750910567,-0.9652590766336454,-6.684700640085727,0.23040633710615044,-0.17280864082803235,0.02879884813825963,0.076005,-0.16690300000000002,-0.880865,-0.019936999999999983,0.053124000000000005,-0.9055679999999999,0.09594199999999999,0.22002700000000003,0.02470299999999992,0.25297000000000025,0.997454313760288,single,-0.880865
91,0.758333,step_decsent,0.14316572662906452,0.03276131045241409,0.016680667226702348,-0.06416620963156835,-0.13051765457897602,0.2982350706140781,0.8935557422296865,-0.04440177607104043,-0.2755310212408443,0.0015600624024943227,-0.0015600624025009842,0.0007200288011527632,0.7488599075943753,0.7488599075935759,-1.411312902773123,0.8928714282857557,-1.1808944696677146,-4.997199767984882,0.057604608276152144,-0.057604608278150705,0.08640691241482781,0.08225800000000001,-0.16754599999999997,-0.8833000000000001,-0.021116999999999997,0.052837999999999996,-0.9057010000000001,0.10337500000000001,0.22038399999999997,0.022401000000000004,0.27598999999999996,0.9961320293600078,single,-0.8833000000000001
92,0.766667,step_decsent,0.1677465802735803,0.025917926565874154,-0.0015598752099881005,-0.2396904304771239,-0.1779150465129048,0.28269913330446267,0.9188864890808786,-0.05783537317015127,-0.3075353971682328,0.0005999520038402962,-0.002039836813047016,0.0,2.9494664800235095,-0.8211403751547843,-2.18868999720309,3.0394464664257526,-1.6119026996773362,-3.840217893855137,-0.11520403151596256,-0.05756832379962019,-0.0863965444147789,0.088518,-0.168244,-0.88585,-0.022510000000000002,0.05260500000000007,-0.905688,0.111028,0.22084900000000007,0.019838000000000022,0.30162000000000033,0.9964562744687211,single,-0.88585
93,0.775,step_decsent,0.15792631705268284,0.020520820832837097,0.03336133445337805,0.029971910573744542,-0.1120711238492718,0.352008379428422,0.9402376095043756,-0.041521660866429375,-0.3332533301332008,-0.0002400096003842544,0.002160086403451628,-0.001200048001921272,-1.1784787256567169,-0.6476785951082485,4.190712788115445,2.56223694029725,1.9577237853980352,-3.086275406812419,-0.10079942448392501,0.5040109464176918,-0.14401152069137968,0.09503699999999998,-0.168761,-0.8889050000000001,-0.023828000000000016,0.052452,-0.9059760000000001,0.118865,0.221213,0.01707100000000006,0.32928999999999997,0.9958622023149827,single,-0.8889050000000001
94,0.783333,step_decsent,0.19164766590663648,0.014400576023042132,0.010800432017271606,-0.2840596969685392,-0.24640356721455278,0.3438074220224327,0.9926797071882968,0.08700348013920345,-0.6200648025921066,0.001200048001921288,-0.004680187207489692,-0.0014400576023055455,4.046723731423731,-0.7344587555256235,-2.7074165889963577,6.293303454208766,15.423633866030723,-34.41875344520682,0.17281382482965987,-0.8208656679396834,-0.028802304138278622,0.101712,-0.16815600000000003,-0.8941619999999999,-0.025414999999999993,0.05229299999999998,-0.9060779999999999,0.127127,0.220449,0.011916000000000038,0.3808399999999996,0.9915972832762877,single,-0.8941619999999999
95,0.791667,step_decsent,0.1879049676025918,-0.0035997120230417297,0.037317014638822636,-0.13568750036309857,-0.012402628231398332,0.4180829141951896,0.9643628509719152,-0.03719702423805791,-0.38444924406047704,0.008759299256058218,0.03251739860811365,-0.038156947444202366,-0.4490878694558035,-2.15986177658792,3.181735375756039,-3.3977509258916925,-14.902868295807584,28.271605295371703,0.9070375874894255,4.463353229613999,-4.405674327081418,0.10818299999999999,-0.16843599999999997,-0.897677,-0.026908000000000015,0.05259400000000003,-0.9067069999999999,0.13509100000000002,0.22103,0.009029999999999982,0.4097000000000002,0.9151789600597602,single,-0.897677
96,0.8,step_decsent,0.18060722428896822,0.013080523220931872,0.02208088323532476,0.02841189898346872,-0.06991611220633367,0.39949307501189013,0.9855994239769548,-0.05448217928717245,-0.3528141125645009,0.0010800432017291448,0.0034801392055616963,-0.013560542421693718,-0.8757642282039525,2.001708297608728,-1.8284089047759287,2.548490700232746,-2.0743015779568545,3.796367634222489,-0.9215475884230219,-3.484610512726729,2.9516866701678324,0.11489100000000001,-0.168999,-0.900801,-0.028403999999999985,0.05251399999999995,-0.9070039999999999,0.143295,0.22151299999999996,0.0062029999999999585,0.4379700000000004,0.9765973545549129,single,-0.900801
97,0.808333,step_decsent,0.15900636025441411,0.03300132005279878,-0.009000360014379682,0.1406119428079901,0.0007482591694381535,0.35710415033057347,0.9801992079683279,-0.05880235209408315,-0.34273370934837344,0.002400096003839245,-0.001320052802110086,-0.0025201008040380353,-2.5922073724414143,2.3905912434737897,-3.729898385900003,-0.6480518431089505,-0.5184414744882685,1.2096967738062592,0.15841267276012386,-0.5760460827639298,1.3249059903583085,0.12173399999999998,-0.16976399999999997,-0.9035820000000001,-0.029709000000000013,0.052228,-0.9069500000000001,0.151443,0.22199199999999997,0.0033680000000000376,0.4663199999999996,0.993796526893363,single,-0.9035820000000001
98,0.816667,step_decsent,0.1651067914566808,0.04055675545956352,-0.009599232061444612,0.2680544899387192,0.09144791238620872,0.3904773526347492,0.9971202303815621,-0.03299736021118588,-0.3636909047276197,0.0029997600191981107,-0.0014398848092166917,-0.0035997120230350688,0.7319931848172122,0.9065797224339671,-0.07185889693603621,2.0303602607672175,3.096351317842222,-2.514662272527733,0.07195392552902104,-0.014378690557547973,-0.12954298284101576,0.128668,-0.170377,-0.906533,-0.031060000000000004,0.05187799999999998,-0.9069,0.159728,0.22225499999999998,0.0003670000000000062,0.49632999999999994,0.9918299743157319,single,-0.906533
99,0.825,step_decsent,0.18516740669626822,0.03588143525740987,-0.03756150246009967,-0.019446460228006664,-0.09349728001258491,0.36717031910532516,0.9992799711988568,-0.04056162246489956,-0.33577343093724327,0.004200168006721177,-0.0010800432017191667,-0.0026401056042268333,2.407370123555453,-0.5610608666931111,-3.3556066721055218,0.25917926524598256,-0.9077477803568647,3.3502308640797684,0.14405472069159697,0.043182720208511736,0.1151573765520514,0.13545200000000002,-0.171014,-0.909018,-0.032567999999999986,0.05157000000000006,-0.906609,0.16802,0.22258400000000006,0.0024089999999999945,0.5,0.9674479831988052,single,-0.906609
100,0.833333,step_decsent,0.21732869314772585,0.07716308652346118,-0.00972038881555231,0.44503328490599836,-0.054907259884263246,0.7772464842034172,1.0046801872074842,-0.03432137285491507,-0.3187327493099701,0.00504020160806268,-0.0012000480019279335,-0.002880115204604391,3.8595087545250806,4.953996311778608,3.341067280036871,0.6480518431090084,0.7488599075944394,2.044963593816526,0.10080806448355929,-0.014401152071134803,-0.028802304137472312,0.142013,-0.171943,-0.911593,-0.034337000000000006,0.05091699999999999,-0.906552,0.17635,0.22286,0.005040999999999962,0.5,0.9397103335851632,single,-0.906552
101,0.841667,step_decsent,0.19654427645788194,0.010799136069111866,-0.02123830093590957,-0.04611961927389407,-0.05641269307765462,0.43196802255279715,1.0019198464122794,-0.015358771298291397,-0.33069354451643385,0.006239500839932337,-0.0014398848092166917,-0.005759539236860106,-2.493930488342182,-7.963037011560932,-1.3820388913315542,-0.3312143982727139,2.275330160381993,-1.435180610326814,0.14390439547271985,-0.028778114625480727,-0.3455032436111943,0.148725,-0.17216099999999995,-0.9141720000000001,-0.03592300000000001,0.050815,-0.9064230000000001,0.184648,0.22297599999999995,0.007749000000000006,0.5,0.9081556615911328,single,-0.9064230000000001
102,0.85,step_decsent,0.20784831393256056,0.015360614424579162,-0.03228129125165933,-0.05917648226297116,-0.009387618079054524,0.4321652358375245,0.998319932797321,-0.024480979239174288,-0.3116524660986487,-0.0002400096003809268,-0.001320052802110086,0.0008400336013415707,1.3565387585117872,0.5473992986280256,-1.3252118463638378,-0.4320069140715715,-1.0947087412556071,2.285020810966675,-0.7775723557318279,0.014380416069435596,0.7919804198010005,0.155312,-0.172493,-0.9165000000000001,-0.037656999999999996,0.050676,-0.906147,0.192969,0.223169,0.010353000000000057,0.5,0.8938317132768823,single,-0.906147
103,0.858333,step_decsent,0.20220808832353115,0.020400816032641638,-0.018720748829958517,0.18666707905458862,0.08825858899154823,0.45060582747924754,0.9680787231489218,0.019200768030720367,-0.3616944677787116,0.013800552022077974,0.0008400336013415596,-0.00504020160806268,-0.6768541472494162,0.6048483869029707,1.6273301838114431,-3.629090321420741,5.242019353161464,-6.005280412824035,1.6849347920867446,0.25922073724368616,-0.7056564513865626,0.161694,-0.17250300000000002,-0.919358,-0.03922700000000001,0.050512999999999975,-0.906033,0.20092100000000002,0.223016,0.013325000000000031,0.5,0.8422231142521683,single,-0.906033
104,0.866667,step_decsent,0.2139428845692365,0.023878089752820478,-0.06383489320854091,0.04197776705448379,0.12265020740821912,0.4501263467989893,0.9728821694264513,0.0025197984161325748,-0.28629709623230293,0.0027597792176653627,-0.0002399808015294577,-0.0015598752099881005,1.4080629044522923,0.417239467264082,-5.413264264288776,0.5763674439080293,-2.0015562292522064,9.046960828702797,-1.3247867535892337,-0.12959136103563995,0.4176057593082073,0.168019,-0.17268099999999997,-0.921212,-0.040986999999999996,0.05031200000000002,-0.905514,0.209006,0.222993,0.01569799999999999,0.5,0.8377213673708065,single,-0.905514
105,0.875,step_decsent,0.20904836193447573,0.026161046441857082,-0.039721588863564125,0.35831410884606346,0.22147166831849352,0.574972323855663,0.948997959918393,0.025681027241088575,-0.3555742229689165,0.00552022080883119,0.0008400336013415596,0.0015600624025009842,-0.5873662108197211,0.273965761314844,2.8937122698879976,-2.8662197897585817,2.779458637340202,-8.31358775190367,0.3312662415895614,0.12960691262102636,0.37440748979828053,0.174185,-0.17268499999999998,-0.9238439999999999,-0.042683,0.05010100000000001,-0.9051699999999999,0.216868,0.22278599999999998,0.01867399999999997,0.5,0.8035973156292803,single,-0.9051699999999999
106,0.883333,step_decsent,0.22944917796711736,0.02628105124205254,-0.07308292331691553,0.06073686770833614,-0.18750876640623432,0.46744850600160814,0.9403576143045685,0.027361094443778353,-0.3194527781111228,0.0075603024120973516,0.003000120004806511,0.0038401536061414086,2.448195851751055,0.014401152069537735,-4.003520275213161,-1.0368829489768863,0.2016161289679313,4.334746772806135,0.2448195851753454,0.2592207372452829,0.2736218893124223,0.18010900000000002,-0.172676,-0.9258970000000001,-0.04453199999999999,0.049907000000000035,-0.9045290000000001,0.22464099999999998,0.22258300000000003,0.021367999999999943,0.5,0.771328736588306,single,-0.9045290000000001
107,0.891667,step_decsent,0.23782097432205698,0.01703863690904443,-0.06143508519319305,-0.0023442882594614974,-0.14400574480332,0.4985600170509291,0.9438444924406099,0.016558675305972194,-0.3048956083513355,0.009479241660666689,0.0045596352291795905,0.007319414446848284,1.004535199776778,-1.1090009998809893,1.3976287645455416,0.4183919049725625,-1.2961866016086179,1.746720633523807,0.230254289485163,0.18712685677622853,0.4174779026526152,0.185993,-0.17268,-0.927926,-0.046435000000000004,0.04980300000000004,-0.903956,0.232428,0.22248300000000004,0.023970000000000047,0.5,0.7389419333656115,single,-0.903956
108,0.9,step_decsent,0.2700108004320164,0.07656306252250387,-0.045481819272759585,0.45875100118132384,-0.8641142635137866,0.6076310199968765,0.8961958478339099,0.04200168006720455,-0.29653186127444986,0.01392055682227343,0.006480259210368207,0.012600504020156701,3.862933650541138,7.143216802287195,1.9144684891915758,-5.718066075446986,3.053282702655976,1.0036897968181455,0.5329791385583491,0.23048409710651724,0.6337560990409691,0.191211,-0.172968,-0.9300180000000001,-0.048569,0.04921900000000001,-0.903472,0.23978,0.22218700000000002,0.02654600000000007,0.5,0.7014345974853007,single,-0.903472
109,0.908333,step_decsent,0.3408136325453027,0.07044281771270966,-0.14436577463099437,0.02068657327390131,-0.788711577592972,0.5381433659240811,0.8879155166206725,0.03168126725068869,-0.3030121204848221,0.017040681627265634,0.005880235209404319,0.03168126725068869,8.496679720783266,-0.7344587555255335,-11.86654930496048,-0.9936794927682147,-1.2384990779450318,-0.7776622117331481,0.3744299537972197,-0.07200576034608107,2.2897831789910192,0.19577,-0.17329100000000003,-0.9313400000000001,-0.05126699999999998,0.048680999999999974,-0.9020050000000001,0.24703699999999998,0.221972,0.029335,0.5,0.6458985781819492,single,-0.9020050000000001
110,0.916667,step_decsent,0.2212622990160785,-0.008159347252221259,-0.07283417326614106,0.24223056131503096,0.019345731499795543,0.554037648409812,0.8633309335253114,0.03227741780657754,-0.2853371730261547,-0.004919606431487034,0.010319174466046297,-0.003959683225335912,-14.345012422512998,-9.431505275369608,8.583105515341105,-2.949913978325037,0.07153234411913138,2.1208240291177463,-2.635023765149088,0.5326301003890023,-4.27657193136841,0.201121,-0.172954,-0.933111,-0.053152000000000005,0.04883500000000002,-0.901431,0.25427299999999997,0.22178900000000001,0.03168000000000004,0.5,0.6630362963370618,single,-0.901431
111,0.925,step_decsent,0.23388935557422275,-0.020760830433221352,-0.07752310092402756,0.2545223393358422,-0.0395428301400341,0.5871469266008463,0.8544341773670913,0.03252130085202983,-0.2818912756510237,0.019200768030720367,0.012840513620540955,0.027121084843387436,1.5153073992732746,-1.5122384712588552,-0.5626938266994462,-1.0676534451242203,0.029267136139720866,0.4135242259847592,2.894560717893592,0.3025728014514157,3.7298413619012623,0.20629199999999998,-0.17251,-0.934814,-0.05494100000000002,0.04911500000000002,-0.9005590000000001,0.261233,0.22162500000000002,0.034254999999999924,0.5,0.5980759146014057,single,-0.9005590000000001
112,0.933333,step_decsent,0.23640945637825725,-0.009360374414972722,-0.10332413296531964,0.2417297689942811,-0.22873184684629083,0.57691661196896,0.8247929917196768,0.028801152046084265,-0.25465018600744416,0.02724108964358659,0.015240609624383703,0.03444137765511099,0.3024241934518812,1.3681094465677108,-3.0962476948628725,-3.557084561072212,-0.44643571414203775,3.26906151969036,0.9648771886315008,0.2880230413827877,0.878470276217883,0.211195,-0.172192,-0.9360750000000001,-0.05668400000000001,0.049319999999999975,-0.8994110000000001,0.267879,0.221512,0.03666400000000003,0.5,0.5558902632300348,single,-0.8994110000000001
113,0.941667,step_decsent,0.2247420206383455,-0.04811615070794782,-0.09947204223664319,0.25691867136854135,-0.10518424633115087,0.7129997981203111,0.8072954163666842,0.024958003359729346,-0.2540196784257216,0.028677705783535803,0.00155987520998808,0.04691624670026059,-1.3999802903661696,-4.65032112946662,0.4622139103283448,-2.099541079072766,-0.4611409510864998,0.07565485741811334,0.17238014638219373,-1.6415568051830476,1.4968645362550401,0.21605000000000002,-0.17158299999999999,-0.937363,-0.05831800000000001,0.049734000000000056,-0.898191,0.274368,0.22131700000000004,0.039171999999999985,0.5,0.516598512953852,single,-0.898191
114,0.95,step_decsent,0.22764910596424182,-0.028801152046077604,-0.12444497779910765,0.20032047368206152,-0.11405432449141986,0.6336595307398429,0.7815912636505521,0.02532101284051586,-0.23748949957998639,0.02640105604224502,0.004200168006721177,0.038281531261252444,0.34886419367530785,2.3178925551266523,-2.9968721423814584,-3.0846217108043166,0.04356288020959025,1.9837008095206243,-0.27320889731078907,0.3168478095203554,-1.0362073009730257,0.22066599999999997,-0.171132,-0.938305,-0.05999499999999999,0.050009000000000026,-0.8968349999999999,0.280661,0.22114100000000003,0.04147000000000001,0.5,0.5074801794896145,single,-0.8968349999999999
115,0.958333,step_decsent,0.2437297491899655,-0.02676107044282105,-0.14496579863192977,0.18873842578883124,-0.22453727021511968,0.6257044596577248,0.7607104284171349,0.02160086403456291,-0.22560902436097263,0.02160086403455958,0.017880715228603638,0.02364094563782574,1.929754377261926,0.24481958517419253,-2.462597003818796,-2.5058004600284565,-0.4464357141429178,1.425714054843838,-0.5760460827655611,1.6417313358793237,-1.7569405524332944,0.224974,-0.17072899999999996,-0.9389770000000001,-0.061846,0.05038100000000001,-0.8954300000000001,0.28682,0.22110999999999997,0.043547,0.5,0.5034014556861122,single,-0.8954300000000001
116,0.966667,step_decsent,0.23266138708903067,-0.030717542596589455,-0.16222702183825408,0.19874523165220453,-0.24803224257966816,0.686850235259528,0.729301655867525,0.021118310535158166,-0.23374130069594318,0.012359011279096617,0.01991840652747759,0.019438444924405357,-1.3280972043358241,-0.4747386793578566,-2.0711810902716796,-3.7687512058566823,-0.05790178778554592,-0.9757950965887309,-1.1089336159662695,0.24450339559322481,-0.5042597448308557,0.229113,-0.17029699999999998,-0.939573,-0.063682,0.05080299999999999,-0.893916,0.292795,0.22109999999999996,0.04565699999999995,0.5,0.4926762037689724,flight,-0.893916
117,0.975,step_decsent,0.23304932197288264,-0.020040801632068856,-0.1900876035041455,0.05394587451536167,-0.27637981713462845,0.6743354710676102,0.7043081723268995,0.017280691227646562,-0.2157686307452344,0.014400576023042132,0.01836073442937239,0.014280571222846672,0.046554048224165825,1.2812601661491296,-3.343403536048443,-2.999337998395033,-0.46053273821092505,2.156806666351728,0.24499756917623114,-0.18692812889778168,-0.6189696029711667,0.23304,-0.16998599999999997,-0.939787,-0.065504,0.051122999999999974,-0.892213,0.29854400000000003,0.22110899999999994,0.047574000000000005,0.5,0.4786643169370366,flight,-0.892213
118,0.983333,step_decsent,0.24144965798631843,-0.03516140645625663,-0.19488779551182803,0.09555553674248005,-0.16971183467979808,0.6528403365554014,0.6840273610944405,0.019560782431293416,-0.220928837153483,0.01692067682707328,0.014520580823237398,0.018960758430342773,1.008080644838084,-1.8145451607089536,-0.5760460827652117,-2.4337946996830513,0.2736218893131939,-0.6192495389713886,0.30242419345147453,-0.4608368662108453,0.5616449306967576,0.236728,-0.16953000000000001,-0.940004,-0.067375,0.051537,-0.890431,0.304103,0.221067,0.04957299999999998,0.5,0.4554885448492676,flight,-0.890431
119,0.991667,step_decsent,0.2720182385409172,-0.05555555555555482,-0.21550275977920794,0.09149200854596351,-0.24629969071328323,0.5494979511935038,0.6424286057115465,0.014878809695226026,-0.23974082073434258,0.015958723302135228,0.014518838492925177,0.01703863690904443,3.667936231653344,-2.4471021237458968,-2.4735978242596626,-4.991451329840926,-0.5617917849852913,-2.2572574491072346,-0.1154251889774488,-0.0002090629124335314,-0.23063613166526933,0.239815,-0.168943,-0.9402060000000001,-0.069509,0.05212100000000003,-0.888493,0.309324,0.22106400000000004,0.05171300000000012,0.5,0.4541805272977619,flight,-0.888493
120,1.0,step_decsent,0.272170886835473,-0.05568222728909372,-0.2386895475819045,-0.011424233550723148,-0.2858020449563869,0.5781011060843904,0.6114244569782769,0.003120124804995307,-0.22836913476538823,0.009480379215168056,0.011520460818430887,0.015840633625347468,0.018318528087819634,-0.015201216073311473,-2.78252583735707,-3.720646673859293,-1.4110986307729114,1.3646569025506188,-0.7774323877315666,-0.3598197137278624,-0.14376614468942234,0.242642,-0.16845299999999996,-0.9401200000000001,-0.07169800000000001,0.05268100000000003,-0.8863719999999999,0.31434,0.221134,0.05374800000000013,0.5,0.46373231154989947,flight,-0.8863719999999999
121,1.008333,step_decsent,0.26209048361934617,-0.043081723268930935,-0.24432977319092108,0.13884313448217175,-0.3792178904037818,0.5548217768738302,0.5795031801272104,0.0074402976119053235,-0.24348973958958617,0.009120364814595126,0.013080523220932045,0.023640945637826056,-1.209696773806186,1.5121209672582385,-0.6768541472478864,-3.8307064503860295,0.5184414744881863,-1.8145451607101981,-0.04320345620700022,0.18721497689921668,0.9360748844928188,0.245287,-0.16803199999999996,-0.9401130000000001,-0.07380599999999998,0.05314900000000006,-0.884139,0.31909299999999996,0.22118100000000002,0.05597400000000008,0.5,0.4524729476819519,flight,-0.884139
122,1.016667,step_decsent,0.27177825773937914,-0.06503479721622064,-0.24682025437967145,0.13495405995370094,-0.07111395499988413,0.5464427965636575,0.5553155747540146,0.007679385649149029,-0.24322054235660973,0.025557955363569636,-0.005639548836095379,0.016198704103671132,1.1624398992120102,-2.634158141023463,-0.2988338359431661,-2.9022804623464804,0.028688269407691844,0.03230108387046322,1.9723530776307157,-2.2462289485273916,-0.8929975442950404,0.24764999999999998,-0.16742599999999996,-0.9400829999999999,-0.075858,0.053644000000000025,-0.8819469999999998,0.323508,0.22107,0.058136000000000077,0.5,0.4486999131449941,flight,-0.8819469999999998
123,1.025,step_decsent,0.2727709108364356,-0.07740309612384647,-0.28705148205927894,0.06172164608112011,-0.12853901595622075,0.49066100922930783,0.49057962318493287,-0.01068042721708947,-0.30373214928597486,0.02316092643705754,0.006960278411136808,-0.0001200048001954596,0.11912313657224205,-1.484255239124677,-4.82794043917051,-7.768624933287211,-2.2032656745756234,-7.261683298855837,-0.2876549773805493,1.5120397512579267,-1.9583234014000648,0.249465,-0.16686999999999996,-0.9402219999999999,-0.077938,0.054347000000000034,-0.879556,0.327403,0.221217,0.06066599999999989,0.5,0.45969255685858595,flight,-0.879556
124,1.033333,step_decsent,0.2745709828393086,-0.06408256330252846,-0.29161166446656545,0.08248988736581304,-0.07824340785097941,0.483487922445223,0.47665906636264654,0.012240489619583487,-0.3052922116884611,0.014280571222849623,0.015840633625347256,0.003840153606148019,0.21601728103599352,1.5985278796733202,-0.5472437786255162,-1.6705336400199302,2.750620045202515,-0.1872149768974214,-1.0656852531150562,1.0656852531153596,0.47523801828194046,0.251149,-0.166234,-0.9403360000000001,-0.08010699999999998,0.055013000000000034,-0.877094,0.331256,0.22124700000000003,0.06324200000000002,0.5,0.46388263083969716,flight,-0.877094
125,1.041667,step_decsent,0.27909767218623144,-0.08147348212143006,-0.2794576433885373,0.35734739768828977,0.18876541679533607,0.5082622021892045,0.4096472282217501,-0.019558435325177266,-0.37221022318215174,0.010919126469880216,0.014038876889839806,-0.0034797216222704343,0.5431592688892414,-2.086743318802728,1.4583658600945988,-8.040777314722549,-3.8155657481115144,-8.029519017721611,-0.40334110306809107,-0.21619351277987572,-0.8783147622292528,0.252237,-0.16571800000000003,-0.941109,-0.08234200000000001,0.05580899999999994,-0.874794,0.334579,0.22152699999999997,0.06631500000000001,0.5,0.4697957945458559,flight,-0.874794
126,1.05,step_decsent,0.2865714628585095,-0.06408256330253512,-0.30829233169326753,0.15537268795711545,0.06341752593937387,0.43663672561695355,0.39829593183726514,-0.011160446417857689,-0.39109564382574763,-0.014880595223806919,0.010200408016320684,-0.006840273610947828,0.896890756303602,2.0869937380168775,-3.4603010086079125,-1.3622100545403524,1.0077989808375651,-2.2663411308767016,-3.096090446860276,-0.46063469020989506,-0.40328236993607763,0.253168,-0.165277,-0.9417989999999999,-0.084854,0.05642799999999998,-0.872282,0.338022,0.22170499999999999,0.06951699999999994,0.5,0.4678428433321068,flight,-0.872282
127,1.058333,step_decsent,0.2780511220448843,-0.05352214088563615,-0.31741269650786424,0.16489711276026506,-0.1169604103294848,0.4442479559318203,0.3604944197767952,-0.0038401536061414597,-0.41101644065763143,-0.013080523220928715,0.0016800672026964648,-0.009240369614783925,-1.0224817969069075,1.267301382083171,-1.094487557253906,-4.536362901772506,0.8784702762170041,-2.390591243475817,0.21601728103662796,-1.0224817969067919,-0.2880230413819896,0.253855,-0.16486299999999998,-0.942579,-0.08728,0.05688800000000005,-0.8697139999999999,0.34113499999999997,0.22175100000000003,0.07286500000000007,0.5,0.47316163897222163,flight,-0.8697139999999999
128,1.066667,step_decsent,0.29793616510678905,-0.10019198464122489,-0.3314134869210355,0.25006307949444645,0.19341614366232002,0.3659883155935765,0.33513318934484865,-0.019558435325176746,-0.43316534677225516,-0.015478761699066115,-0.0027597792176619956,-0.009239260859130448,2.386014286285649,-5.599933256010125,-1.6799604527443188,-3.0431042034972826,-1.886042922850392,-2.6576561212651253,-0.2877655961287955,-0.5327389513269051,0.00013304003521441655,0.254165,-0.16419100000000003,-0.943427,-0.08989200000000001,0.05770000000000003,-0.867029,0.344057,0.22189100000000006,0.07639799999999997,0.5,0.4696057211939769,flight,-0.867029
129,1.075,step_decsent,0.3049321972878945,-0.07572302892115666,-0.3686547461898466,-4.446086125906716e-05,0.42797053199977314,0.2665212282806838,0.30061202448098284,-0.02052082083283071,-0.4468978759150413,-0.012960518420736587,-0.002640105604233495,-0.0055202208088312625,0.8395574440304228,2.936392142093898,-4.469129877452472,-4.14270549188361,-0.11549088055369884,-1.6479694159109912,0.3022012814508041,0.014361408067742904,0.4463026581422321,0.254129,-0.16373100000000002,-0.9440790000000001,-0.09254100000000001,0.058308999999999944,-0.8640030000000001,0.34667000000000003,0.22203999999999996,0.08007600000000004,0.5,0.4761126467029325,flight,-0.8640030000000001
130,1.083333,step_decsent,0.2798511940477571,-0.04632185287411385,-0.3033721348854004,0.6447998747745816,-0.07097528805159811,0.5066798642556727,0.30061202448097485,-0.011280451218046482,-0.4258970358814241,-0.009120364814591553,-0.007200288011514212,0.003960158406336814,-3.0098407824477333,3.5282822569353534,7.834226725602435,-9.592710641186832e-13,1.1088887093224606,2.520201612098509,0.4608368662120445,-0.5472437786248215,1.1376910134606877,0.25430200000000003,-0.163439,-0.9450999999999999,-0.094949,0.05863499999999999,-0.8614419999999999,0.349251,0.222074,0.08365800000000001,0.5,0.4795394650605343,flight,-0.8614419999999999
131,1.091667,step_decsent,0.26133909287257506,-0.04787616990641298,-0.31317494600432577,0.678064114992008,-0.15147689983383938,0.5546738423641291,0.29085673146148644,-0.012598992080636398,-0.445524358051367,-0.00575953923686026,-0.004919606431480503,0.01739860811135217,-2.2212744390667614,-0.18650312362600968,-1.1762432348122844,-1.17054151901711,-0.15821224653107047,-2.3550902531729383,0.4032668079831242,0.2736598968123053,1.6124849658046092,0.254548,-0.16314499999999998,-0.9462029999999999,-0.097175,0.05899300000000007,-0.858687,0.351723,0.22213800000000006,0.08751599999999993,0.5,0.46837342960095774,flight,-0.858687
132,1.1,step_decsent,0.296651866074638,-0.08820352814112238,-0.3705748229929108,0.2557450533681805,0.38836459713354254,0.3492481085605395,0.24156966278650902,-0.021720868834751418,-0.5090603624144838,0.003120124804991935,-0.006240249609990531,0.032281291251645146,4.237702292339172,-4.839476567227732,-6.888260769060842,-5.914684828390323,-1.0946689972536734,-7.6246255085942325,1.0656023091146092,-0.15848352076203104,1.7859934165717888,0.254089,-0.16259099999999999,-0.947357,-0.099621,0.05967600000000001,-0.8553299999999999,0.35370999999999997,0.222267,0.09202700000000008,0.5,0.44495563257024046,flight,-0.8553299999999999
133,1.108333,step_decsent,0.29293171726869327,-0.10596423856954647,-0.3924156966278548,0.02679652313780989,0.5710821496808532,0.36424151763934753,0.24216968678747275,-0.022920916836673282,-0.49693987759510905,0.016080643225728605,-0.0027601104044156313,0.049801992079683485,-0.44643571414193783,-2.131370506231159,-2.6210096765803703,0.07200576034606254,-0.14401152069145268,1.4545163589793457,1.5553244234653532,0.417633410005392,2.1025682020927037,0.253666,-0.16189899999999996,-0.9482280000000001,-0.101928,0.060536000000000034,-0.8516450000000001,0.35559399999999997,0.222435,0.09658299999999997,0.5,0.4126557940752891,flight,-0.8516450000000001
134,1.116667,step_decsent,0.2720182385409136,-0.09179265658746752,-0.35565154787618986,0.3359361555136968,0.4312028714344716,0.45814066825398886,0.23818094552435798,-0.026517878569717428,-0.5122390208783285,0.03251739860811032,-0.007199424046083459,0.053635709143271815,-2.50941669399802,1.7004538015453372,4.411344942604352,-0.4786106627207511,-0.4316008798949026,-1.8357503339596049,1.9722528656565386,-0.5326750229982955,0.46000924689084477,0.253384,-0.16135500000000003,-0.949533,-0.103924,0.061240999999999934,-0.8482339999999999,0.357308,0.22259599999999996,0.10129900000000003,0.5,0.3947753433239186,flight,-0.8482339999999999
135,1.125,step_decsent,0.2739709588383569,-0.13656546261850933,-0.4074162966518476,0.28810900399099004,0.39769028980370824,0.4750459387750907,0.23388935557422252,-0.02040081603264191,-0.5033001320052819,0.020880835233410427,0.025081003240131603,0.062282491299651556,0.2343358091255645,-5.3729516417907375,-6.212018333812337,-0.5150113944720381,0.73407686752377,1.0727095731485294,-1.3964434627025082,3.873806226594907,1.0376553649801776,0.25305,-0.160387,-0.9503320000000001,-0.106033,0.06258799999999998,-0.8443200000000001,0.359083,0.22297499999999998,0.106012,0.5,0.3828086236810881,flight,-0.8443200000000001
136,1.133333,step_decsent,0.2773310932437315,-0.16956678267130812,-0.4218168726749297,0.3422613676253476,0.512775240462602,0.5413279045406041,0.19692787711508683,-0.03588143525740987,-0.5594623784951449,0.05004200168006775,-0.004920196807867288,0.05124204968198903,0.4032322579352709,-3.9603168190086517,-1.7281382482997987,-4.435554837289815,-1.8577486169168487,-6.739739168350357,3.4994799527970226,-3.600288017280591,-1.3249059903591294,0.25238,-0.159273,-0.951479,-0.107927,0.06396000000000002,-0.8403779999999998,0.360307,0.22323300000000001,0.11110100000000012,0.5,0.3803458929015774,flight,-0.8403779999999998
137,1.141667,step_decsent,0.2469402447804162,-0.15862730981521236,-0.4512838972882019,0.33582870358579625,0.05411224174264145,0.5999416551819493,0.204343652507799,-0.028557715382771076,-0.5587952963762883,0.043916486681065806,-0.015958723302141677,0.04439644828413471,-3.646610086790865,1.3126317321929053,-3.5357600927852166,0.8898218613765448,0.8787760828700186,0.08004345078672566,-0.7350029996402563,-1.3245172179354816,-0.8214064552260947,0.252025,-0.15818900000000002,-0.952375,-0.109619,0.06514899999999996,-0.836247,0.36164399999999997,0.22333799999999998,0.11612800000000001,0.5,0.3925758242592531,flight,-0.836247
138,1.15,step_decsent,0.2796111844473803,-0.17760710428417076,-0.4722188887555572,0.2200188557356611,0.5718902361559599,0.5487441283039549,0.1777271090843662,-0.01632065282610953,-0.6095043801752126,0.033721348853954884,-0.02496099843993614,0.043441737669503995,3.9206695868192014,-2.2776664429327456,-2.512299468061379,-3.1941129753309796,1.468506247049281,-6.085333469209734,-1.2234654778724368,-1.080316229184513,-0.11456985654994847,0.251176,-0.156845,-0.953519,-0.11166799999999999,0.06642099999999995,-0.83195,0.362844,0.22326599999999996,0.12156900000000004,0.5,0.39934429718376857,flight,-0.83195
139,1.158333,step_decsent,0.2742109684387322,-0.1533661346453833,-0.5069002760110323,0.14411148660496942,0.41890878638579837,0.5604259391284904,0.17724708988358964,0.004080163206525609,-0.6403456138245427,0.018600744029759482,-0.03348133925355974,0.038161526461062634,-0.6480518431114846,2.909032717963164,-4.161932947974857,-0.05760460827751732,2.448195851750244,-3.7010960817628193,-1.8145451607098448,-1.0224817969066904,-0.6336506910405939,0.250368,-0.15553300000000003,-0.954631,-0.113798,0.06742000000000004,-0.8274079999999999,0.364166,0.22295300000000007,0.12722300000000009,0.5,0.40988757240549484,flight,-0.8274079999999999
140,1.166667,step_decsent,0.285457163426932,-0.16582673386129357,-0.5471562275017979,0.07157570102955557,0.32922758554636805,0.49899477637989204,0.1893448524118135,-0.006239500839932503,-0.6220302375810046,0.02123830093592679,-0.038996880249583143,0.03203743700503561,1.3494354437485,-1.4951522937257637,-4.830327752671757,1.4516153741569588,-1.2382606247250187,2.197669335677756,0.31648151021926535,-0.6618119745648556,-0.734831948167403,0.249567,-0.15420300000000003,-0.9552550000000001,-0.11599999999999999,0.06847700000000001,-0.8225810000000001,0.365567,0.22268000000000004,0.13267399999999996,0.5,0.4087400010699445,flight,-0.8225810000000001
141,1.175,step_decsent,0.2785311412456454,-0.1644065762630522,-0.5661826473058823,0.19871904533085766,0.14059238624235673,0.5978784543649015,0.16668666746669258,0.017280691227652762,-0.7051482059282239,0.01836073442937523,-0.04056162246490514,0.0444017760710465,-0.8311559079907005,0.17042572881811513,-2.283261706958363,-2.7190909570527455,2.8225359495481643,-9.974555183873496,-0.34532179365792737,-0.18777657690171246,1.4837800391228453,0.248635,-0.15268899999999996,-0.9564130000000001,-0.11816800000000001,0.06950899999999999,-0.817493,0.366803,0.22219799999999995,0.13892000000000004,0.5,0.39520019741278534,flight,-0.817493
142,1.183333,step_decsent,0.2673706948277948,-0.17808712348493927,-0.5835833433337461,0.2605900753636773,0.2127699017692299,0.498713538018002,0.18168726749070313,0.022560902436093568,-0.690867634705396,0.02616104644185743,-0.04872194887795766,0.05928237129485167,-1.3393071424277787,-1.6417313358798997,-2.0881670500256715,1.8001440086416276,0.6336506910405442,1.713737096223211,0.9360748844932523,-0.9792783406999391,1.7857428565709,0.247921,-0.151017,-0.957307,-0.12017800000000001,0.07058699999999996,-0.812136,0.368099,0.22160399999999997,0.14517100000000005,0.5,0.3648804212749561,flight,-0.812136
143,1.191667,step_decsent,0.25341972642188465,-0.21214302855771278,-0.5454763618910372,0.6278969093596763,-0.005218144438744446,0.5720677472428913,0.16498680105591276,0.048476121910248665,-0.7372210223182069,0.03263738900887838,-0.04931605471561508,0.07163426925846048,-1.6739822901259949,-4.086381698196934,4.572471975366998,-2.003895660521987,3.1095775706929323,-5.561961556612728,0.777098940127298,-0.07128699755908514,1.4821091868980933,0.247184,-0.148845,-0.9589050000000001,-0.12201800000000002,0.07194400000000001,-0.8069930000000001,0.36920200000000003,0.220789,0.15191200000000005,0.5,0.3451816391682748,flight,-0.8069930000000001
144,1.2,step_decsent,0.24660986439457735,-0.21048841953678074,-0.5105004200168296,0.8276857836011393,-0.05322404324229481,0.633407912236027,0.16764670586823738,0.03672146885875144,-0.7601104044161844,0.05412216488659679,-0.0367214688587581,0.09924396975878726,-0.8172161319221598,0.19856102495284417,4.1972809161415965,0.319201345532778,-1.410614790771311,-2.7468357251863362,2.5782762363756877,1.5114107592532215,3.3132965919029203,0.246526,-0.14678500000000005,-0.9609849999999999,-0.12362200000000001,0.07339199999999996,-0.801912,0.37014800000000003,0.220177,0.1590729999999999,0.5,0.3019046207516314,flight,-0.801912
145,1.208333,step_decsent,0.27829113164526115,-0.1988479539181556,-0.6162246489859354,0.30083213028007244,0.3560016420418429,0.5383321928631963,0.1675267010680408,0.06552262090484062,-0.758070322812898,0.0753630145205816,-0.046561862474491435,0.11040441617664896,3.8019041462478382,1.3969117507050206,-12.687414972891393,-0.01440115206967244,3.456276496590505,0.2448195851777699,2.5490039162347817,-1.1808944696667663,1.3393071424290788,0.24560300000000002,-0.144582,-0.962167,-0.12531299999999998,0.07466100000000003,-0.795857,0.370916,0.21924300000000002,0.16630999999999996,0.5,0.2640814282072122,flight,-0.795857
146,1.216667,step_decsent,0.3754499640028869,-0.18058555315575506,-0.8447324214062958,-0.7794760417147951,1.1988761605989704,0.7303048844212598,0.16978641708663625,0.06659467242620383,-0.7890568754499788,0.08939284857211541,-0.02891768658507935,0.14050875929925605,11.65812723273669,2.19131278646519,-27.41873919130846,0.27114423069300414,0.1286358916922519,-3.7180888693402236,1.683445410551245,2.1171317361905952,3.6122321961372275,0.24388900000000002,-0.14252199999999998,-0.9617030000000001,-0.127697,0.07592500000000002,-0.7876460000000001,0.37158599999999997,0.218447,0.17405700000000002,0.5,0.21828883283934675,flight,-0.7876460000000001
147,1.225,step_decsent,0.3019320772830866,-0.23256930277210625,-0.6848673946957913,0.20120822607226108,0.30035605045235775,0.5823421567665027,0.17520700828032684,0.09720388815552847,-0.8011520460818311,0.07860314412576233,-0.0178807152286034,0.152766110644426,-8.822499306348137,-6.238299485941471,19.18457058808373,0.6504969631213847,3.6732528176315973,-1.451478534963647,-1.294816326215395,1.3244895423587855,1.4709409990603304,0.242833,-0.13977399999999995,-0.962672,-0.129558,0.07771400000000006,-0.7806659999999999,0.372391,0.21748800000000001,0.1820060000000001,0.5,0.21211663817824306,flight,-0.7806659999999999
148,1.233333,step_decsent,0.2734909396375876,-0.23832953318132796,-0.6667466698667881,0.6338919386597396,0.217823622169462,0.7133110987923065,0.18132725309012673,0.09672386895475589,-0.7997119884795468,0.06864274570983106,-0.01092043681748039,0.16020640825632873,-3.4130730403815255,-0.6912552993185851,2.1745739624388984,0.7344587555262146,-0.057604608277040885,0.1728138248271074,-1.1952956217366328,0.835266820007569,0.8928714282854678,0.242065,-0.136982,-0.9637800000000001,-0.131265,0.07960899999999999,-0.7737750000000001,0.37333,0.21659099999999998,0.19000499999999998,0.5,0.20894265682752772,flight,-0.7737750000000001
149,1.241667,step_decsent,0.30081593472521995,-0.20398368130549152,-0.6921046316294638,-0.012813689423781286,0.8616422906237192,0.7096501065297305,0.15790736741060402,0.10919126469882588,-0.842092632589386,0.07571394288456777,0.004919606431493694,0.17938564914806968,3.278737111546935,4.121172531297837,-3.042711994561494,-2.8101614686252145,1.4959678118634385,-5.085270471542944,0.8484757829057665,1.9006531376258653,2.3013248010248137,0.24087399999999998,-0.134372,-0.96503,-0.133141,0.08135000000000003,-0.7665120000000001,0.374015,0.21572200000000002,0.19851799999999997,0.5,0.1753805013949976,flight,-0.7665120000000001
150,1.25,step_decsent,0.32425297011880727,-0.3522140885635483,-0.5928237129485167,2.1944986914949953,-0.535017941763149,0.6057891725143709,0.1417256690267642,0.11688467538701354,-0.8754350174007035,0.08916356654266176,0.010080403216125496,0.18888755550221753,2.8125567495004846,-17.78836040538319,11.914186809186132,-1.9418814813200485,0.9232462124310246,-4.00124622720722,1.6140193997472834,0.6193203869713008,1.140274373472692,0.239353,-0.130463,-0.9673850000000002,-0.1351,0.08436900000000003,-0.7599980000000002,0.37445300000000004,0.21483200000000002,0.207387,0.5,0.15147029159302383,flight,-0.7599980000000002
151,1.258333,step_decsent,0.3313332533301362,-0.2556102244089745,-0.7537501500060315,0.3996586997714671,0.8105301420458668,0.6662173774412947,0.14676587063482696,0.12108484339373471,-0.9013560542421767,0.086283451338054,0.020760830433214965,0.19572782911316555,0.8496679720783612,11.592927415645585,-19.31194492469895,0.604848386903013,0.5040403224194417,-3.1106488469306868,-0.3456276496589212,1.281702534152114,0.8208656679404878,0.237815,-0.12732400000000005,-0.9686149999999999,-0.137142,0.08667199999999997,-0.7520859999999999,0.374957,0.21399600000000002,0.21652899999999997,0.5,0.14182085044074982,flight,-0.7520859999999999
152,1.266667,step_decsent,0.2991360691144688,-0.270098392128628,-0.7146628269738187,0.6077316958588207,0.3697040824129697,0.7934960160379511,0.07919366450683812,0.14266858651307734,-0.9694024478041686,0.08303335733141264,0.047036237101025315,0.185625149988002,-3.8633530376370433,-1.7384410510743207,4.69010355558106,-8.108016094071074,2.5898419869621394,-8.164914034316224,-0.38998008239036935,3.152796576411105,-1.212224517058252,0.235982,-0.12388400000000005,-0.9707380000000001,-0.138943,0.08931499999999992,-0.744583,0.374925,0.21319899999999997,0.2261550000000001,0.5,0.15213491464834078,flight,-0.744583
153,1.275,step_decsent,0.30229209168367016,-0.26293051722069105,-0.741869674787014,0.8978125668674389,-0.4518175527450556,0.6939476230949184,0.09420376815072784,0.13320532821312972,-0.943597743909766,0.0997239889595591,0.04860194407777552,0.16944677787111265,0.3787378578184762,0.860179396128289,-3.2649523356769024,1.8012844886463282,-1.1356364214505834,3.096688334861734,2.0029559136141386,0.1878923529041429,-1.9414823133192731,0.234248,-0.12058300000000005,-0.9724189999999999,-0.140631,0.09191100000000002,-0.7369889999999999,0.374879,0.21249400000000007,0.23543000000000003,0.5,0.1624465742983635,flight,-0.7369889999999999
154,1.283333,step_decsent,0.33409336373454374,-0.26281051242049525,-0.696627865114573,1.283776360555278,0.9078413482013947,0.8898740726982238,0.09588383535341176,0.12420496819872676,-0.953198127925101,0.0999639985599407,0.07332293291730548,0.15852634105364136,3.8163052983166947,0.014401152069579178,5.429234330066036,0.2016161289672254,-1.0800864051845442,-1.152092165526791,0.0288023041379576,2.966637326236592,-1.3105048382900635,0.232263,-0.11735800000000002,-0.9745570000000001,-0.14258200000000001,0.09471199999999996,-0.7298630000000002,0.374845,0.21206999999999998,0.24469399999999997,0.5,0.16459123484444416,flight,-0.7298630000000002
155,1.291667,step_decsent,0.3264938804895668,-0.24166066714663476,-0.7396208303335944,0.39690739573965156,-0.703781660792011,0.6067320938873063,0.007679385649149233,0.14314854811615338,-1.0164386849052276,0.08339332853371903,0.06755459563236164,0.14698824094073132,-0.9118650401940352,2.5377784105904597,-5.15874312683252,-10.583687269530142,2.273047746271536,-7.588259776833196,-1.9883213374396433,-0.692145102585066,-1.384461256648699,0.229606,-0.114151,-0.9768640000000001,-0.14460800000000001,0.09728900000000007,-0.7224740000000001,0.37421400000000005,0.21144000000000007,0.25439,0.5,0.19666843585756244,flight,-0.7224740000000001
156,1.3,step_decsent,0.366734669386769,-0.2631705268210683,-0.8177127085083378,0.25203446369295307,0.45757754738152223,0.7067057863675805,-0.011040441617665563,0.13512540501620018,-1.0406816272650705,0.06768270730829222,0.06612264490579126,0.14760590423616127,4.82908783117743,-2.581286412388474,-9.371400236978522,-2.2464691307829674,-0.9628156846217514,-2.9092694539592583,-1.8853499610496263,-0.1718409608268767,0.07412256035400672,0.226458,-0.11083199999999999,-0.9787219999999999,-0.1471,0.10003300000000004,-0.7144299999999999,0.373558,0.21086500000000002,0.26429199999999997,0.5,0.20778310945420025,flight,-0.7144299999999999
157,1.308333,step_decsent,0.3885755430217246,-0.2967718708748381,-0.7598703948158001,1.5620239276899162,-0.48295114352463064,0.43778647050292946,-0.00984039361574457,0.12540501620065134,-1.0230409216368754,0.06444257770310988,0.05928237129485167,0.15156606264250877,2.621009676581756,-4.032322579355587,6.941355297316477,0.14401152069134818,-1.1664933175985763,2.116969354157596,-0.38883110586611935,-0.8208656679394752,0.47523801828243595,0.223138,-0.10731399999999996,-0.980915,-0.149801,0.10300000000000004,-0.7068349999999999,0.372939,0.210314,0.2740800000000001,0.5,0.20826421432172715,flight,-0.7068349999999999
158,1.316667,step_decsent,0.4235661147108201,-0.2868970482361361,-0.8806095512358926,0.48956622909864306,0.9086983441966652,0.5653663441153166,-0.07799376049916087,0.1408687305015598,-1.0601151907847286,0.08039356851451536,0.060595152387805835,0.1750659947204196,4.198532720073826,1.184883925930155,-14.487539767229608,-8.177749806025412,1.8554972763268942,-4.448556413229288,1.9139657801062349,0.15752112946414137,2.819766268047833,0.21895799999999999,-0.10374899999999998,-0.9824109999999999,-0.15266100000000002,0.10589599999999999,-0.698037,0.37161900000000003,0.20964499999999997,0.2843739999999999,0.5,0.16341997460216973,flight,-0.698037
159,1.325,step_decsent,0.40513620544822126,-0.31573262930517443,-0.9359174366974632,0.5933874447717876,1.0189594235788242,0.6614121037023794,-0.18324732989319747,0.10656426257050378,-1.0645625825033103,0.1309252370094826,0.08100324012960367,0.20004800192008218,-2.2116775786150273,-3.460408144610416,-6.637211743858289,-12.630933564627092,-4.11670081975955,-0.5337083545639868,6.06404278110737,2.4490684917554324,2.9979607823908343,0.214055,-0.10022999999999999,-0.9834830000000001,-0.154946,0.10920199999999997,-0.688571,0.369001,0.20943199999999995,0.29491200000000006,0.5,0.07927923726821745,flight,-0.688571
160,1.333333,step_decsent,0.3862954518180661,-0.3009720388815512,-0.9770790831633207,0.41166574541156375,0.8729502587859475,0.6650518958213794,-0.22176887075482493,0.07500300012000188,-1.1135245409816192,0.13500540021600807,0.07824312972518595,0.22860914436576943,-2.2609808748535714,1.7713417045029343,-4.939595159709204,-4.622769814187781,-3.787502994179928,-5.875670044198742,0.48963917034986076,-0.3312264975900239,3.427474192450108,0.208988,-0.09709699999999999,-0.9846199999999999,-0.15703999999999999,0.11236199999999996,-0.6785239999999999,0.366028,0.20945899999999995,0.30609600000000003,0.5,0.03868970937747451,flight,-0.6785239999999999
161,1.341667,step_decsent,0.405687544996408,-0.2994960403167801,-0.9455243580513604,0.7005833806988807,0.40504513955476307,0.5411193162194458,-0.27297816174706535,0.03575713942884217,-1.0743940484761427,0.1540676745860336,0.08267338612911733,0.2459803215742783,2.326865032198496,0.17710565931978944,3.786264112306328,-6.144623349201031,-4.70912655281503,4.695283477979032,2.2872899412078103,0.531588241412463,2.0843745150598987,0.203332,-0.09430300000000003,-0.9856940000000001,-0.159137,0.11554700000000001,-0.6685940000000001,0.36246900000000004,0.20985000000000004,0.31709999999999994,0.5,0.0,flight,-0.6685940000000001
162,1.35,step_decsent,0.3826953078123058,-0.27769110764429883,-1.0686427457098293,-0.9670082360570095,0.6986579495472901,0.8225665404802653,-0.3122524900995977,0.0021600864034582606,-0.9386775471018671,0.19188767550701896,0.08436337453498102,0.2438497539901594,-2.759178829245386,2.616696588561252,-14.774797510916452,-4.713107926620865,-4.031807635351413,16.286631630177993,4.538581653784315,0.20280672097247854,-0.2556783372277517,0.19754100000000002,-0.09197100000000002,-0.9846109999999999,-0.16072699999999998,0.118564,-0.6576569999999999,0.35826800000000003,0.21053500000000003,0.32695399999999997,0.5,0.0,flight,-0.6576569999999999
163,1.358333,step_decsent,0.38365534621385206,-0.2811712468498813,-1.0710428417136604,0.13314290993480163,-0.15403443207606982,0.5051756770054763,-0.2901716068642776,-0.05760230409216187,-0.9086763470538916,0.22584903396135989,0.1036841473658927,0.2432497299892019,0.11520921655421168,-0.4176334100063027,-0.2880230413813857,2.649811980717664,-7.1717737304236975,3.600288017277793,4.075526035562371,2.318585483128747,-0.07200576034531311,0.191926,-0.09010799999999997,-0.9832580000000001,-0.162042,0.12177100000000002,-0.6467050000000001,0.353968,0.21187899999999998,0.336553,0.5,0.0,flight,-0.6467050000000001
164,1.366667,step_decsent,0.3167746580273554,-0.2726181905447539,-1.0772738180945625,-0.7435295462438712,-0.285746957925327,0.679741662089389,-0.53191744660427,-0.15766738660907456,-0.5933525317974506,0.23818094552435465,0.10919126469881923,0.22906167506599226,-8.02504057913321,1.026284653842976,-0.7476573531199951,-29.007180194383313,-12.006849354081105,37.83583096429548,1.479711010678506,0.6608012158539114,-1.702430396353437,0.184853,-0.08915000000000001,-0.9792249999999999,-0.162697,0.12495299999999998,-0.6358179999999999,0.34755,0.214103,0.343407,0.5,0.0,flight,-0.6358179999999999
165,1.375,step_decsent,0.36145445817833044,-0.2826113044521802,-1.0405616224648928,0.2706089908151974,0.11820555585219293,0.583621405909797,-0.5271810872434922,-0.15588623544941876,-0.6710668426737131,0.23244929797192365,0.06780271210848948,0.16584663386535545,5.361790489736645,-1.1992216377566771,4.405639701148445,0.568385858727686,0.21374668902625868,-9.326090348765531,-0.6878252193004979,-4.966824983838969,-7.586108388412024,0.17744800000000002,-0.088094,-0.9761460000000001,-0.16377199999999997,0.12787300000000001,-0.625765,0.34121999999999997,0.21596700000000002,0.35038100000000005,0.5,0.010853947449184886,flight,-0.625765
166,1.383333,step_decsent,0.36493459738389866,-0.2965318612744538,-1.0519620784831551,0.9893743602405491,-0.062481257478210324,0.6526883235422475,-0.4737789511580515,-0.1701668066722654,-0.6132245289811653,0.24168966758670424,0.10392415696628361,0.20724828993159658,0.4176334100045907,-1.6705336400184494,-1.368109446569356,6.408512670759773,-1.7137370962254626,6.941355297317689,1.1088887093220534,4.334746772806247,4.968397463847535,0.170459,-0.08704099999999998,-0.97249,-0.164799,0.13121000000000005,-0.615272,0.335258,0.21825100000000003,0.3572179999999999,0.5,0.0,flight,-0.615272
167,1.391667,step_decsent,0.38216942644588137,-0.3107751379889563,-1.049796016318674,1.6393871262027548,0.03112169887376159,0.6230003339001852,-0.4737221022318187,-0.09791216702663513,-0.49664026877849354,0.220182385409166,0.09275257979360532,0.18586513078953812,2.0680140463142034,-1.7090564812217872,0.25990666720436933,0.0068213254419019044,8.669863168422093,13.988992104952109,-2.5806674079119376,-1.3404820221596119,-2.5657738351401846,0.163326,-0.08526699999999998,-0.9678800000000001,-0.166149,0.13457299999999994,-0.6049740000000001,0.32947499999999996,0.21983999999999992,0.36290599999999995,0.5,0.0,flight,-0.6049740000000001
168,1.4,step_decsent,0.3115324612984549,-0.300732029281175,-1.0342013680547333,1.3475538448874973,-0.7752616351254178,0.51203328056018,-0.3426137045481846,-0.07488299531981508,-0.4724588983559389,0.2006480259210395,0.0879635185407538,0.1660866434657397,-8.4767748886868,1.2052212537839184,1.8714326489788526,15.733637067518934,2.7636111492644018,2.9018805259276204,-2.34421690725149,-0.574710338755739,-2.3735134193926073,0.157875,-0.08338499999999999,-0.963199,-0.167073,0.13781200000000005,-0.5949720000000001,0.324948,0.22119700000000003,0.36822699999999997,0.5,0.04179703660872852,flight,-0.5949720000000001
169,1.408333,step_decsent,0.29797191887674973,-0.2706108244329734,-1.0816032641305655,0.31221324523704247,-1.375841678367896,0.2764324750469884,-0.232329293171722,-0.039721588863556936,-0.34945397815912,0.16056642265690083,0.07464298571942884,0.16944677787110815,-1.6273301838119456,3.6146891693509002,-5.68845506730246,13.234658751525346,4.2195375562531545,14.761180870852845,-4.8099847910882,-1.5985278796741529,0.40323225793452405,0.153456,-0.081461,-0.9570979999999999,-0.168218,0.14068900000000006,-0.5845469999999999,0.321674,0.22215000000000007,0.37255099999999997,0.5,0.09152940425137207,flight,-0.5845469999999999
170,1.416667,step_decsent,0.31389488840893326,-0.2703383729301713,-1.2035037197024314,-0.2308248863451486,-0.5423200585402034,0.2935944634762954,-0.1391888648908107,0.04547636189105177,-0.3963282937365087,0.17902567794577026,0.11159107271418335,0.13222942164626983,1.9106034955824132,0.032691565011049896,-14.626884517862758,11.175957317124197,10.222936255652787,-5.6244679118538015,2.214933439989175,4.433415766109336,-4.465725488941568,0.14968,-0.07882899999999998,-0.9503710000000001,-0.169342,0.14387200000000006,-0.573415,0.31902200000000003,0.22270100000000004,0.37695600000000007,0.5,0.08504558208042018,flight,-0.573415
171,1.425,step_decsent,0.29341173646945357,-0.312852514100555,-1.0738029521180739,0.452232893488014,0.18329916750880137,0.453519812019128,-0.12708508340333444,0.026521060842436443,-0.3516140645625766,0.14052562102483585,0.0938437537501423,0.10932437297492316,-2.458076555799752,-5.101901016486609,15.564714698710583,1.4525118789722848,-2.2747271149183956,5.365922137757266,-4.620191638177576,-2.129763466223538,-2.74871578919312,0.146176,-0.07600099999999999,-0.944353,-0.17061600000000002,0.14726099999999998,-0.563556,0.316792,0.22326199999999996,0.38079700000000005,0.5,0.1645652952730457,flight,-0.563556
172,1.433333,step_decsent,0.1180847233889369,-0.19332773310932963,-1.1744869794791888,-5.041452516130563,-0.4842675438794478,0.8727220870393805,-0.11748469938797751,-0.015840633625347676,-0.31069242769711086,0.13500540021601165,0.10500420016800278,0.09744389775590866,-21.040083172989114,14.343547460845606,-12.082566585997341,1.152092165529463,-5.083606680401357,4.910792855570156,-0.6624529951787166,1.3393071424289678,-1.425714054843947,0.144213,-0.07452199999999998,-0.937155,-0.170475,0.14974699999999996,-0.5529569999999999,0.31468799999999997,0.22426899999999994,0.38419800000000004,0.5,0.17192627289369738,flight,-0.5529569999999999
173,1.441667,step_decsent,0.22186225101991672,-0.2444204463642903,-0.9001679865610693,-0.7430381312923229,-0.0050047145300756764,0.1141608506929757,-0.052195824334051795,0.08579313654907796,-0.1808255339572822,0.11591072714182712,0.09227261819054641,0.0920326373890103,12.452307131146991,-6.130635139784052,32.915645898502206,7.834038283408354,12.1950768147858,15.582780626329214,-2.291177474704149,-1.5276676238848421,-0.6492993000837916,0.141929,-0.07176999999999994,-0.93116,-0.171358,0.152553,-0.544688,0.313287,0.22432299999999994,0.38647200000000004,0.6552668500299585,0.2093133651781311,single,-0.544688
174,1.45,step_decsent,0.2214088563542561,-0.210728429137165,-0.7745109804392198,-0.9132353018689043,0.5357848722872692,-0.1213746922233094,-0.03876155046202096,0.12336493459738183,-0.16164646585863593,0.11976479059162462,0.10440417616705212,0.0819632785311407,-0.054409536260723625,4.043203795406891,15.079443912378572,1.6121773517377842,4.508796117641213,2.3015802350469765,0.46250611422027255,1.455845190988338,-1.2083713978002746,0.139761,-0.06898599999999999,-0.926053,-0.172205,0.155179,-0.537551,0.31196599999999997,0.224165,0.388502,0.654992170752994,0.20203553486405507,single,-0.537551
175,1.458333,step_decsent,0.14856594263770284,-0.2024480979239127,-0.7041881675266869,-0.48687089222773894,-0.8355012995958705,-0.5304627952294257,-0.04056162246489515,0.09324372974918499,-0.14916596663866222,0.1082443297731907,0.0738029521180873,0.08088323532941272,-8.741499305958477,0.9936794927699703,8.439075112508307,-0.21601728103614007,-3.6146891693503322,1.4977198151894269,-1.382510598635991,-3.67229377762682,-0.12961036862210074,0.138185,-0.06652200000000003,-0.921428,-0.172541,0.15748100000000004,-0.5310090000000001,0.310726,0.22400300000000006,0.39041899999999996,0.6991210839807527,0.24338848846540473,single,-0.5310090000000001
176,1.466667,step_decsent,0.1748260139188898,-0.1546676265898739,-0.6076313894888606,-0.838312831120659,0.005068460039488537,-0.6948222555502969,-0.024238060955124978,0.11303095752340675,-0.1141108711303118,0.11975041996640483,0.05819534437244624,0.08579313654907358,3.150956477224317,5.733197904252424,11.585886493619881,1.9586706875174564,2.3742773907153993,4.206274959005409,1.3806203735558364,-1.8727631084282883,0.589141015078109,0.136526,-0.06429099999999999,-0.917315,-0.173,0.15925499999999998,-0.52523,0.30952599999999997,0.22354599999999997,0.392085,0.7292768333413819,0.23601702776038586,single,-0.52523
177,1.475,step_decsent,0.2613704548181881,-0.18024720988839277,-0.4140165606624136,0.850484555599437,0.5029457632470369,-0.8045228795443199,-0.021240849633986245,0.09156366254649524,-0.08448337933517232,0.1220448817952685,0.024240969638789387,0.08544341773670683,10.385748337849128,-3.0696727827335195,23.234708847527138,0.35967974572647077,-2.5761784443671107,3.555441233065999,0.2753464333209684,-4.074687955556973,-0.04196793620145805,0.13417099999999998,-0.062026000000000026,-0.914569,-0.174161,0.16095900000000002,-0.5210680000000001,0.308332,0.22298500000000004,0.3935009999999999,0.7893626116337428,0.2484318326533257,single,-0.5210680000000001
178,1.483333,step_decsent,0.31525261010440714,-0.17472698907956632,-0.4798991959678401,1.1494001268046161,0.3078593329505936,-0.8933610572228459,-0.05880235209408315,0.08424336973479447,-0.07044281771270883,0.12852514100564003,0.0032401296051841467,0.08376335053402596,6.466117279037505,0.6624529951789864,-7.906232485950689,-4.5075605976355755,-0.8784702762151488,1.6849347920873177,0.7776622117330598,-2.520201612097136,-0.20161612896686437,0.131054,-0.05986799999999998,-0.911157,-0.175717,0.16244200000000003,-0.516371,0.306771,0.22231,0.39478599999999997,0.7923889017405665,0.24425756662076242,single,-0.516371
179,1.491667,step_decsent,-0.06767458603311666,-0.130909527237821,-0.2230621550276027,0.13093342280469103,-2.4039871693748442,-1.041371204841733,-0.036357091432684834,0.02327813774897654,-0.05243580513558874,0.1414686825054001,-0.02699784017278966,0.09491240700743701,-45.94758772948415,5.257674807024836,30.817979474470295,2.6932158221020095,-7.315242618888585,2.1606686557619335,1.5531007319126435,-3.628266112067864,1.3377797544289616,0.13131500000000002,-0.058582999999999996,-0.909735,-0.173974,0.163308,-0.513721,0.30528900000000003,0.221891,0.396014,0.886798809209218,0.21252711959910908,single,-0.513721
180,1.5,step_decsent,0.14724588983559422,-0.1574462978519131,-0.2908916356654271,0.48916639431423364,-0.23184033953643224,-0.9405859620476091,-0.04248169926797029,-0.013320532821309641,-0.04488179527181162,0.16080643225729271,-0.034081363254524606,0.1018840753630141,25.791488763796092,-3.1845398552852924,-8.139863271069842,-0.7349823395278425,-4.392016149080345,0.9065174443510366,2.320622795138941,-0.8500567720790845,0.8366336680159782,0.12973400000000002,-0.05738199999999999,-0.907685,-0.173861,0.16433600000000004,-0.510448,0.303595,0.22171800000000003,0.39723699999999995,0.8946367801607924,0.17767936603273066,single,-0.510448
181,1.508333,step_decsent,0.1599663986559478,-0.15816632665306588,-0.4107764310572405,-0.5684963177153867,-0.22280032513635306,-0.844643384625796,-0.04212168486739724,-0.02208088323533171,-0.026881075243009787,0.1543261730469211,-0.04392175687028583,0.10572422896916221,1.526522119327217,-0.08640691241482938,-14.386750917054423,0.043203456207015,-1.0512841010467,2.160172810368654,-0.7776622117330715,-1.1808944696701442,0.4608368662124267,0.12805,-0.05624800000000002,-0.904486,-0.173908,0.16528799999999993,-0.506144,0.301958,0.22153599999999996,0.398342,0.90895065521712,0.17974272059186291,single,-0.506144
182,1.516667,step_decsent,0.1699064074873998,-0.16894648428125866,-0.1573074154067737,0.7694788669092955,0.11018006774850252,-0.82963397310166,-0.033117350611950605,-0.011879049676027716,-0.030957523398128066,0.16030717542596515,-0.06419486441084091,0.09671226301895455,1.192705643322764,-1.2935154341483928,30.413848770154168,1.0804336759595108,1.2241220973486824,-0.4891346478423624,0.7176628724554852,-2.4325782986027025,-1.0813494060724251,0.126358,-0.054939000000000016,-0.9034329999999999,-0.173988,0.166161,-0.504027,0.300346,0.22110000000000002,0.3994059999999999,0.9218932534620792,0.17013204271327975,single,-0.504027
