frame_id,timestamp,gait_type,root_linear_velocity_x,root_linear_velocity_y,root_linear_velocity_z,root_angular_velocity_x,root_angular_velocity_y,root_angular_velocity_z,left_linear_velocity_x,left_linear_velocity_y,left_linear_velocity_z,right_linear_velocity_x,right_linear_velocity_y,right_linear_velocity_z,root_acceleration_x,root_acceleration_y,root_acceleration_z,left_acceleration_x,left_acceleration_y,left_acceleration_z,right_acceleration_x,right_acceleration_y,right_acceleration_z,left_pos_rel_x,left_pos_rel_y,left_pos_rel_z,right_pos_rel_x,right_pos_rel_y,right_pos_rel_z,step_length,step_width,step_height,left_contact_prob,right_contact_prob,support_type,max_foot_height
1,0.008333,walk,0.0014400576023055323,0.011520460818432601,-0.000840033601341563,-0.008532791277249341,-0.010737181537916642,-0.05577381968693028,0.0,-0.0002400096003840472,0.0001200048001921277,-0.0002400096003775938,0.0006000240009602221,0.0004800192007676781,0.0,0.0,0.0,0.0,0.0,0.0,0.0,0.0,0.0,0.15059199999999995,0.005096,-0.9076420000000001,-0.157416,-0.031563999999999995,-0.908166,0.30800799999999995,0.03666,0.0005239999999999689,0.9943127685152404,0.9986583055457252,double,-0.9076420000000001
2,0.016667,walk,0.00035997120230084524,0.009839212862971018,-0.0026397888169039487,0.009107366224686409,0.004530134886093752,-0.053680762427687066,0.0004799616030722342,0.0004799616030718179,-0.0008399328053755773,-0.0004799616030722342,0.0004799616030714016,-0.0008399328053755773,-0.12960000000056238,-0.2017336159661127,-0.2159533495995183,0.057590785105859625,0.08638963324404428,-0.11518329800428423,-0.02879193696839937,-0.014406335239839273,-0.15838157021157367,0.15059299999999998,0.005018,-0.907627,-0.15742299999999998,-0.031642,-0.9081509999999999,0.30801599999999996,0.03666,0.0005239999999999689,0.9929601439884805,0.9982001439884809,double,-0.907627
3,0.025,walk,0.0014400576023055323,0.010920436817472587,0.009360374414979299,-0.1286987399358152,-0.07291985488702955,-0.021918970125456867,-0.0003600144005730523,-0.0002400096003840472,-0.0002400096003842554,-0.0004800192007685108,-0.00024000960038383904,0.0007200288011519335,0.12961555262266736,0.1297520646227732,1.440077190913626,-0.1008011524835337,-0.0864000004147204,0.07199366434553245,-6.9120000331953195e-06,-0.08640000041464546,0.18720288089853723,0.150578,0.0049250000000000006,-0.907707,-0.157439,-0.031735,-0.908223,0.308017,0.03666,0.0005159999999999609,0.9940153458887153,0.9985032771763773,double,-0.907707
4,0.033333,walk,-0.0014400576023055323,0.00948037921516872,0.004560182407294191,0.014289793124253545,-0.017004669060927027,-0.0750030658339393,0.00012000480019545849,-0.0002400096003840472,0.0008400336013440611,-0.0013200528021100738,-0.0001200048001921277,0.0,-0.34562764965931414,-0.17281382482945712,-0.5760460827655235,0.05760460827655236,0.0,0.12961036862214287,-0.10080806448356691,0.014401152069088125,-0.0864069124147286,0.15059100000000003,0.004843999999999999,-0.9077379999999999,-0.15743799999999997,-0.031815,-0.908261,0.308029,0.036659,0.0005230000000000512,0.9933002473642238,0.9977908394301431,double,-0.9077379999999999
5,0.041667,walk,-0.002039836813060326,0.011159107271418205,-0.00011999040075806734,-0.02372409096071053,-0.003596264044662149,-0.018012069667480913,0.0005999520038303016,0.0004799616030718179,-0.0007199424046075187,-0.00023998080154277791,-0.00035997120230375936,-0.00011999040076722595,-0.07196774787074556,0.2014312522497582,-0.5615758109013989,0.057589057311596234,0.08638963324404428,-0.18718214614249815,0.129598272206299,-0.028793664760214978,-0.014397696276365002,0.150613,0.0047550000000000005,-0.9077430000000001,-0.15742299999999998,-0.031911,-0.9082610000000001,0.308036,0.036666000000000004,0.0005180000000000184,0.9930651475107297,0.9992517283843687,double,-0.9077430000000001
6,0.05,walk,-0.000600024000950646,0.00756030241209655,-0.0022800912036604185,0.06199171721864833,0.011878449462406501,-0.05767304471695779,0.00012000480019545849,-0.00036001440057596674,0.0009600384015361888,-0.0004800192007685108,0.0,0.0,0.17278444883111482,-0.43187385807292156,-0.259222465246892,-0.05759596827491217,-0.1008011524838335,0.2016057609676836,-0.028805760137493447,0.04319827220733941,0.014399424069029875,0.15061899999999995,0.0046890000000000005,-0.907716,-0.15742200000000006,-0.031974,-0.908242,0.308041,0.036663,0.0005260000000000264,0.9930194661252356,0.9991999679987191,double,-0.907716
7,0.058333,walk,-0.0019200768030740432,0.012360494419776871,0.007560302412100714,0.002833645985542553,-0.057572974924266045,-0.01292513940007172,-0.0007200288011461046,-0.0002400096003840472,-0.0007200288011519335,-0.000600024000950646,0.0002400096003842554,0.0009600384015353562,-0.15841267276171814,0.5760460827649491,1.1808944696701227,-0.10080806448356691,0.014401152069113108,-0.20161612896773337,-0.014401152067938945,0.02880230413827618,0.11520921655290485,0.150629,0.0045839999999999995,-0.907785,-0.15741099999999997,-0.032075,-0.908297,0.30804,0.036659,0.000512000000000068,0.9931363706774177,0.9980711926955183,double,-0.907785
8,0.066667,walk,0.002039836813047004,0.010319174466042629,-0.0008399328053730795,0.012228732290068975,-0.004092703422997184,-0.05344115750170564,0.00011999040075806734,0.00035997120230375936,-0.0002399808015361171,0.00035997120230084524,0.00011999040076764225,-0.00011999040076722595,0.4751516218047812,-0.24493879934416152,-1.0079475902896318,0.10079424068924547,0.07199193696757937,0.057601151861749016,0.11519020917344507,-0.014401151861844628,-0.12959308882920348,0.150613,0.004501,-0.90778,-0.15742499999999993,-0.03216,-0.908291,0.3080379999999999,0.036661,0.0005109999999999282,0.9941417283843788,0.9993367281036856,double,-0.90778
9,0.075,walk,-0.005400216008635758,0.007440297611904429,0.00024000960037759398,0.05636283883267944,9.886714500267321e-06,0.0009903039951473774,0.0007200288011594283,-0.00024000960038404742,-0.0001200048001921278,0.00012000480018213538,0.00048001920076809484,0.00048001920076767846,-0.8928420522840236,-0.3454790416582505,0.12959827262098575,0.0720074883476973,-0.0720005763455907,0.014397696069121493,-0.028797120139050766,0.04320518420742264,0.07200403234548242,0.15066400000000002,0.004437,-0.907783,-0.15737900000000005,-0.032218,-0.9082889999999999,0.30804300000000007,0.036655,0.0005059999999998954,0.9936593239254589,0.9988510415123562,double,-0.907783
10,0.083333,walk,-0.0030001200047931973,0.004680187207488396,-0.0016800672026831248,0.028550713232511654,0.0130646943910382,-0.028191770783558636,-0.0001200048001954584,0.000720028801152141,0.0004800192007676777,0.0001200048001954584,-0.00048001920076809403,0.00012000480019212759,0.28802304138276236,-0.3312264975898273,-0.23041843310461024,-0.10080806448516573,0.11520921655300463,0.07200576034559042,1.5988257660723351e-12,-0.11520921655300469,-0.04320345620731436,0.15068799999999993,0.004404,-0.907765,-0.15735300000000008,-0.032261,-0.908274,0.308041,0.036665,0.0005089999999999817,0.9934539197789345,0.9991514379200914,double,-0.907765
11,0.091667,walk,-0.010799136069118618,0.002159827213822766,-0.009479241660659981,0.020936025609482028,0.060261940320072586,-0.06213897197977501,-0.0013198944084453147,0.0007199424046075193,0.0005999520038402933,-0.006239500839925728,-0.0028797696184304934,0.002879769618430077,-0.9358070631539988,-0.30241900571941827,-0.9358260688717136,-0.14397523497118517,-1.0366756014127253e-05,0.014390785105905406,-0.7630796304441074,-0.28794701435833947,0.3311452865656289,0.15076699999999998,0.004392,-0.9076810000000001,-0.15731499999999998,-0.032303,-0.9081710000000001,0.30808199999999997,0.036695,0.0004899999999999904,0.9924020683218903,0.9875816537107054,double,-0.9076810000000001
12,0.1,walk,-0.0006000240009639688,0.004200168006720302,-0.0019200768030740415,-0.038444610327923914,0.013813896839618197,-0.04638094651941712,-0.0007200288011461039,0.000720028801152141,-0.0003600144005763828,0.0014400576023055312,0.0019200768030723761,0.0013200528021125708,1.2239424058747919,0.24485068917527114,0.9071360683530462,0.07198675234599908,1.036800007461135e-05,-0.11520057655306315,0.9215838764228073,0.5760046107647744,-0.18717350489829654,0.15076600000000007,0.0043630000000000006,-0.907668,-0.15729799999999994,-0.032322,-0.9081440000000001,0.308064,0.036684999999999995,0.00047600000000003195,0.9934399279971262,0.995434732505093,double,-0.907668
13,0.108333,walk,-0.010440417616698464,0.00612024480979248,-0.059042361694473584,0.0995154731895961,0.345096508964143,-0.048858243703310836,0.0,0.0009600384015359815,0.000720028801151934,0.002280091203647097,0.001440057602303868,-0.0019200768030723794,-1.180894469666927,0.23041843310598578,-6.854948384903347,0.0864069124140291,0.028802304138226417,0.12961036862214304,0.10080806448356734,-0.05760460827655208,-0.388831105866429,0.15085300000000001,0.004319999999999999,-0.90717,-0.157192,-0.032361,-0.907668,0.308045,0.036681,0.0004979999999999984,0.9930199199968002,0.994482533611692,double,-0.90717
14,0.116667,walk,-0.006359491240710428,0.0017998560115190035,0.0063594912406971064,-0.026544759712132802,-0.022053406958998392,-0.030289582910554367,-0.00011999040077138885,0.00023998080153590876,0.0,0.002879769618420081,0.00191984641228727,-0.0017998560115192117,0.48967199135925504,-0.5184051833781465,7.847594544656903,-0.014397696276864498,-0.08640000000000864,-0.08639654441467882,0.07195565332049236,0.05757005159388068,0.014425340959103384,0.15090500000000007,0.004307,-0.907223,-0.157115,-0.03236,-0.907736,0.30802000000000007,0.036667,0.0005129999999999857,0.9944228221787231,0.9934982128601801,double,-0.907223
15,0.125,walk,-0.0004800192007685112,0.004680187207488404,0.002400096003842556,0.09187427652415366,-0.012474775584748504,-0.02669295365688229,-0.0002400096003909172,0.0008400336013440619,0.000600024000960639,0.0014400576023055336,0.001080043201727901,-0.0019200768030715467,0.7055648673877262,0.3456535696591147,-0.4751464342799177,-0.014402880069546195,0.07200921634563226,0.07200576034569056,-0.17277235282785897,-0.10078041648378372,-0.014427072069162985,0.150907,0.004274999999999999,-0.907238,-0.157099,-0.03239,-0.907772,0.308006,0.036665,0.0005340000000000344,0.992893577169818,0.9956134820993912,double,-0.907238
16,0.133333,walk,-0.004680187207476322,0.00624024960998439,-0.003960158406330218,-0.05541742652709917,0.01963574976284994,-0.01479604272912695,-0.00012000480018213519,0.0,-0.00048001920076851036,-0.0062402496099773115,-0.0027601104044160203,0.004320172806911597,-0.5040403224178336,0.18721497689859415,-0.7632610596631186,0.014401152071136673,-0.1008080644838667,-0.1296103686222427,-0.9216737324232376,-0.46083686621191866,0.7488599075942803,0.150945,0.004222999999999999,-0.907209,-0.15711200000000003,-0.032465,-0.907703,0.308057,0.036688,0.0004939999999999944,0.9942353458887152,0.9865398925089972,double,-0.907209
17,0.141667,walk,-0.00731941444685492,-0.0017998560115192175,0.010319174466033079,0.055419490950423055,-0.04198249244593113,-0.027307852105291575,-0.0008399328053864031,0.0005999520038396697,-0.00035997120230334394,0.0015598752099747737,0.0010799136069112808,0.0009599232061436382,-0.31668193417069884,-0.964735495740776,1.7133828740536754,-0.08638444986852287,0.07198848138224996,0.014404607447224226,0.9359401031859976,0.46076602007767103,-0.4031976962764539,0.150999,0.004243,-0.9072979999999999,-0.157038,-0.032441,-0.907781,0.308037,0.036684,0.0004830000000000112,0.9933480590394344,0.996456274468719,double,-0.9072979999999999
18,0.15,walk,-0.005280211208440291,0.0022800912036481345,0.014400576023041988,0.12205718609129962,-0.08027556063124672,-0.005455485173756895,0.0002400096003909168,0.0008400336013440605,0.0001200048001912949,-0.001800072002878583,-0.00048001920076809403,-0.00012000480019212759,0.24471417717684235,0.48961325035009584,0.48978777835220283,0.12959827262418325,0.028810944138292396,0.057599424276327665,-0.40320979393415984,-0.18719942489852076,-0.12959654462207668,0.15104499999999998,0.004231,-0.9074169999999999,-0.15700900000000007,-0.032464,-0.907902,0.30805400000000005,0.036695,0.0004850000000000687,0.9936802473642217,0.9968886057070099,double,-0.9074169999999999
19,0.158333,walk,-0.0024000960038425517,-0.00012000480019191942,0.005400216008649072,0.00752999796713659,-0.0475147289992948,-0.0237938849762533,-0.00036001440057305197,-0.00048001920076809403,0.00048001920076851036,-0.00012000480018213519,0.0003600144005759664,0.00024000960038425518,0.34562764965771475,-0.28802304138246154,-1.0800864051833563,-0.07200576034609003,-0.1584126727603688,0.04320345620751412,0.20161612896873232,0.10080806448386653,0.0432034562074142,0.15106200000000003,0.004227999999999999,-0.907458,-0.15698999999999996,-0.03246,-0.907945,0.308052,0.036688,0.0004870000000000152,0.9938493239254722,0.999251638588193,double,-0.907458
20,0.166667,walk,-0.01535877129829816,0.0014398848092152443,0.015598752099827615,-0.09551926976906805,-0.04852400396379704,0.0016955738216143045,-0.00035997120231416656,0.0,-0.0002399808015361169,0.0020398368130470023,0.0011999040076793356,0.00035997120230417536,-1.5549166420033114,0.18717177938650853,1.2237264328267978,5.183376396137453e-06,0.05759769627646911,-0.08639308882944884,0.25916026076663495,0.10077869055715964,0.014394240691135117,0.15118699999999996,0.004215999999999999,-0.90759,-0.156845,-0.032462000000000005,-0.908072,0.308032,0.036678,0.00048199999999998244,0.9944589474290983,0.9960103317048228,double,-0.90759
21,0.175,walk,-0.005400216008635768,-0.0010800432017281111,-0.002160086403451642,0.0028438748745583113,0.011078552453809896,-0.009584856234253042,-0.00036001440057305316,-0.0003600144005759676,-0.00048001920076767927,-0.0034801392055617193,-0.0009600384015357749,0.00048001920076767927,1.1950744377369995,-0.3024034574515015,-2.1311458662281653,-5.18399842632933e-06,-0.043203456207364516,-0.02880576013819308,-0.6624236191778153,-0.25920345724410365,0.014406336069063266,0.15122899999999995,0.004222,-0.907576,-0.156829,-0.032461,-0.90805,0.30805799999999994,0.036683,0.00047399999999997444,0.9940937629715527,0.9939301608442469,double,-0.907576
22,0.183333,walk,-0.006600264010563687,-0.00012000480019191942,-0.00048001920076851036,0.002877314452196407,0.010771902316668424,-0.0031277452415366786,0.0,-0.00012000480019191942,-0.0003600144005763828,0.0006000240009506456,-0.0008400336013440605,0.00024000960038425518,-0.14401152069217787,0.11520921655300503,0.20161612896713435,0.04320345620701462,0.028802304138251286,0.014401152069038326,0.4896391703482973,0.014401152069088477,-0.028802304138176395,0.15128399999999997,0.004222,-0.907575,-0.15676900000000005,-0.032466999999999996,-0.9080440000000001,0.308053,0.036689,0.0004690000000000527,0.9946775191687326,0.99823357716983,double,-0.907575
23,0.191667,walk,-0.002519798416132558,-0.00023998080153590876,-0.004079673626107326,-0.023319647957062154,0.016580543174231414,-0.021326977564662595,0.00011999040077138885,-0.00035997120230375903,0.00011999040076805845,-0.0004799616030722338,-0.00035997120230375903,-0.0004799616030722338,0.4896167019955754,-0.014395968483800002,-0.4319239771224877,0.014397696276864498,-0.028793664760239906,0.05759596848385418,-0.12958790545030938,0.057602879654463764,-0.08638963324411907,0.15130600000000005,0.004221000000000001,-0.90754,-0.156752,-0.032468,-0.9080140000000001,0.30805800000000005,0.036689,0.00047400000000008546,0.9945967281036789,0.9987194775943049,double,-0.90754
24,0.2,walk,-0.0062402496099773115,-0.0014400576023040738,-0.0007200288011594272,-0.010816088517057966,0.009477699880614135,-0.008211751866132534,-0.0001200048001954584,-0.00048001920076809403,-0.0007200288011519328,-0.00024000960037759357,0.0003600144005759664,0.00048001920076851036,-0.4464720021414557,-0.14401497669124735,0.40317350593398493,-0.028800576139067207,-0.014406336069162954,-0.10080633648385821,0.028795392139042364,0.08640172841470357,0.11520230455307133,0.15135699999999996,0.004229,-0.90754,-0.156702,-0.032452999999999996,-0.908004,0.30805899999999997,0.036682,0.00046400000000001995,0.9939039197789343,0.9989229239555348,double,-0.90754
25,0.208333,walk,-0.0066002640105637085,0.0003600144005759676,-0.000480019200768512,-0.00831683136541768,0.010207029836118356,-0.00462462304836279,0.00036001440057305316,-0.0003600144005759676,0.0,0.0001200048001954588,-0.000240009600384256,0.00036001440057555127,-0.0432034562086161,0.21601728103684698,0.028802304139075453,0.057604608276552595,0.014401152069137972,0.08640691241472874,0.04320345620701467,-0.07200576034564068,-0.014401152069237897,0.15141499999999997,0.004223000000000001,-0.907536,-0.15664599999999995,-0.032458,-0.9079969999999999,0.3080609999999999,0.036681000000000005,0.0004609999999999337,0.9945414379200965,0.9992516385881876,double,-0.907536
26,0.216667,walk,-0.006599472042239885,-0.0011999040076793356,-0.0005999520038436226,-0.0033128519064557762,0.0009056217401432114,-0.0040879526209411645,0.00011999040077138885,0.00035997120230375903,-0.00011999040076805845,-0.0007199424046150115,0.0002399808015361169,0.0002399808015361169,9.502859657114082e-05,-0.18717523497183847,-0.014390785106204767,-0.02880057593012528,0.08639136103668418,-0.014397696276464884,-0.100785601729118,0.057594240691189395,-0.014402879654359761,0.15147100000000002,0.004236,-0.907532,-0.156597,-0.032446,-0.90799,0.308068,0.036682,0.00045799999999995844,0.9947567281036789,0.9986734562073498,double,-0.907532
27,0.225,walk,-0.007680307212282843,0.00012000480019191942,-0.0031201248049886558,0.022623271432866267,0.027618612672852233,-0.014639121899256183,-0.0008400336013415624,-0.00048001920076809403,0.0003600144005763828,0.0001200048001954584,-0.0003600144005759664,0.00024000960038425518,-0.12970540862149976,0.15839539276026088,-0.3024328334507418,-0.11520748855309618,-0.10080288048384164,0.057602880276543963,0.10079769648511572,-0.07200230434562377,3.456000016594404e-06,0.151528,0.004231,-0.907503,-0.156532,-0.03245,-0.9079619999999999,0.30806,0.036681,0.0004589999999999872,0.9936894661252396,0.9992516385881871,double,-0.907503
28,0.233333,walk,-0.010800432017284822,-0.0013200528021119463,0.0026401056042201455,0.026675249604772418,-0.0012143342952561347,0.011194955179370022,0.0001200048001954584,-0.0003600144005759664,-0.0009600384015361881,0.00036001440057305197,-0.00012000480019212759,-0.0003600144005763828,-0.374429953798389,-0.1728138248294569,0.6912552993170282,0.11520921655310451,0.014401152069138067,-0.15841267276041876,0.028802304137476704,0.028802304138226164,-0.07200576034569033,0.15161900000000006,0.004239,-0.9075329999999999,-0.156439,-0.03244,-0.907987,0.30805800000000005,0.036679,0.00045400000000006546,0.9937394661252357,0.9991281853387084,double,-0.9075329999999999
29,0.241667,walk,-0.005519558435324046,-0.0005999520038396697,-0.005639548836082114,0.00148624740950013,0.01722758662895837,-0.017786429197514705,-0.0002399808015427785,-0.0004799616030718191,0.0002399808015352851,-0.0004799616030722354,-0.0002399808015361177,-0.00011999040076805884,0.6336541375042942,0.08640518337800314,-0.9934790545119124,-0.043194816623258664,-0.014392512898470478,0.14399078510576865,-0.10078905731284968,-0.014395968483800141,0.028800575930924468,0.151663,0.004239999999999999,-0.9074840000000001,-0.156397,-0.032437,-0.907941,0.30806,0.036677,0.0004569999999999297,0.9944502824802839,0.9990835581763537,double,-0.9074840000000001
30,0.25,walk,-0.010320412816516312,-0.0006000240009602216,0.0013200528021100728,0.029327371395613394,0.005948670898847097,0.005375732509434456,0.0001200048001954584,0.00024000960038404702,0.0009600384015361881,0.00036001440057305197,0.0,0.00012000480019212759,-0.5761255707659021,-8.640000066224699e-06,0.8351856040072219,0.04320000020859673,0.08640000041472044,0.08641036841484488,0.10080115248353373,0.028798848138259628,0.028800576138267878,0.15175000000000005,0.004247000000000001,-0.907487,-0.156308,-0.032432,-0.9079510000000001,0.30805800000000005,0.036679,0.00046400000000001995,0.9936986087717663,0.9993675191687377,double,-0.907487
31,0.258333,walk,-0.0106804272170894,-0.0037201488059522207,-0.0015600624025009946,0.00963165156897983,-0.011157650281610098,0.03409265152471659,-0.0008400336013415652,0.0002400096003840478,-0.0008400336013440632,-0.0007200288011461063,-0.00024000960038383963,-0.00048001920076767927,-0.043203456207018875,-0.3744299537971927,-0.34562764965931536,-0.11520921655310523,9.432936218072635e-17,-0.21601728103687218,-0.12961036862104416,-0.028802304138226358,-0.07200576034559084,0.15183200000000008,0.004280000000000001,-0.907481,-0.15622499999999995,-0.032403,-0.907942,0.308057,0.036683,0.0004610000000000447,0.993370018213059,0.9985032771763858,double,-0.907481
32,0.266667,walk,-0.00755939524837103,0.0010799136069114853,0.0002399808015427777,0.00648423694717584,0.02899390545562994,-0.027216420794979237,-0.00035997120230084497,0.0,-0.00035997120230334275,-0.00011999040077138885,0.0004799616030718175,0.0002399808015352843,0.37449387673606505,0.5759614126306337,0.21598790545281626,0.057602879654514015,-0.028798848138234648,0.057602879654514036,0.07199884813711506,0.08638963324401926,0.0863930888292492,0.15189200000000003,0.0042710000000000005,-0.907486,-0.15616300000000005,-0.032408,-0.907942,0.3080550000000001,0.036679,0.00045600000000001195,0.994591539739401,0.9990835581763537,double,-0.907486
33,0.275,walk,-0.010800432017284785,-0.004320172806912207,-0.000120004800195458,0.020967026182106233,-0.00824057275408912,0.02724138594419465,-0.000120004800195458,-0.0007200288011521386,-0.0004800192007685088,-0.0003600144005730508,0.00024000960038383804,-0.0015600624024959882,-0.3889399698684437,-0.6480362911104848,-0.04320000020859645,0.028797120137451813,-0.08640691241475286,-0.014406336069262634,-0.028804032137484812,-0.028795392138242948,-0.21601382503675326,0.15198100000000003,0.004300999999999999,-0.907489,-0.156076,-0.03237,-0.907954,0.308057,0.036671,0.0004650000000000487,0.9938939197789337,0.9973017445571373,double,-0.907489
34,0.283333,walk,-0.007800312012478328,-0.0016800672026881264,0.001800072002878589,0.0013806666928310462,-0.010552473847480481,0.01400043027131033,-0.000960038401537024,0.0006000240009600155,-0.0007200288011519352,0.00036001440057305316,0.000240009600384256,-0.00048001920076767927,0.36002880172884494,0.3168253455207113,0.23041843310621046,-0.10080806448356751,0.1584126727603693,-0.02880230413817677,0.08640691241402924,5.0157198787131044e-14,0.12961036862214229,0.152038,0.004319999999999999,-0.90751,-0.15600800000000004,-0.032354,-0.907973,0.30804600000000004,0.036674,0.0004629999999999912,0.9931338425762022,0.9989229239555344,double,-0.90751
35,0.291667,walk,-0.015838732901370393,0.001919846412287062,-0.005639548836095417,0.05719167276557472,0.03246171593202247,0.027006272758492503,0.0004799616030722338,-0.00035997120230375903,0.0,-0.0002399808015294561,0.0002399808015357006,0.00035997120230334275,-0.964533343999527,0.43195507739083094,-0.8926830860299975,0.17278617765889806,-0.11519020917491883,0.08639654441467896,-0.07199366475912032,-3.4555853798177163e-06,0.10079078510571408,0.15217400000000003,0.004300999999999999,-0.907463,-0.15587799999999996,-0.032368,-0.907923,0.308052,0.036669,0.00046000000000001595,0.9944000799935999,0.9991754448392952,double,-0.907463
36,0.3,walk,-0.009840393615747834,-0.0014400576023040788,0.000480019200768512,0.006778005454975342,0.0028161395181893483,0.013593441128135838,-0.0008400336013415652,0.0003600144005759676,0.0,-0.0001200048001954588,0.0,0.000120004800192128,0.7198295074550071,-0.4032046099353353,0.7343775395252543,-0.1584057607600867,0.086401728414704,0.0,0.01439769606792243,-0.02879884813820967,-0.028797120138151368,0.15224900000000008,0.004315999999999999,-0.907467,-0.15579699999999996,-0.032356,-0.907926,0.30804600000000004,0.036671999999999996,0.0004589999999999872,0.9938867844502091,0.99971714597336,double,-0.907467
37,0.308333,walk,-0.008640345613819834,-0.0010800432017281038,-0.0006000240009639668,0.007578331182379072,0.009664158228229799,0.0072625151610547995,-0.0006000240009639668,0.0002400096003840462,0.0007200288011519304,-0.0006000240009639668,0.0006000240009602196,-0.0001200048001921272,0.14401152069218706,0.04320345620736512,-0.1296103686226418,0.028802304137477194,-0.014401152069113273,0.08640691241472788,-0.057604608276551776,0.07200576034563988,-0.028802304138276034,0.152316,0.004326999999999999,-0.9074559999999999,-0.15573000000000004,-0.032341999999999996,-0.9079219999999999,0.30804600000000004,0.036669,0.00046599999999996644,0.9937274839496943,0.9985716571805738,double,-0.9074559999999999
38,0.316667,walk,-0.010319174466046434,-0.003959683225342001,0.002159827213831727,-0.04616785782817251,-0.010183392508210851,0.00013693112089579,0.0,0.00011999040076805925,0.0009599232061436414,0.0002399808015427793,0.0,-0.00011999040076722665,-0.20144334679944922,-0.3455291605008295,0.33115565332321933,0.07199712034604874,-0.014401151861769575,0.02878502579694173,0.10079251289977811,-0.07199712034559912,1.727792764644536e-06,0.15240200000000004,0.004361,-0.907466,-0.15564199999999995,-0.032309,-0.907941,0.308044,0.03667,0.0004750000000000032,0.9936376774361452,0.999552822178716,double,-0.907466
39,0.325,walk,-0.008880355214210751,-0.004440177607104335,0.0002400096003775928,-0.011445439694429878,0.004696118280608127,-0.0003437035029863711,-0.0003600144005730508,0.00048001920076788424,0.0,0.0004800192007685088,0.0010800432017278956,0.00048001920076767607,0.17266521682895444,-0.05766163227677092,-0.23038732910765947,-0.04320345620701419,0.04320518420734711,-0.1151953925529386,0.02880576013749292,0.12961036862209183,0.07200403234548185,0.15247300000000008,0.004402,-0.9074679999999999,-0.15556399999999992,-0.032263,-0.9079389999999999,0.308037,0.036665,0.0004709999999999992,0.9942899599984032,0.9978738857928849,double,-0.9074679999999999
40,0.333333,walk,-0.008880355214197487,-0.003360134405376253,-0.0008400336013415652,-0.004770908025144183,0.006647285878544378,0.011378672486235848,-0.000480019200768512,0.0007200288011521435,-0.00036001440057555127,-0.000960038401537024,0.0004800192007680956,-0.000120004800192128,1.5917071519643226e-12,0.12961036862211503,-0.12961036862104414,-0.014401152069538164,0.028802304138276714,-0.043203456207314556,-0.17281382482965754,-0.07200576034558999,-0.07200576034559049,0.15254299999999998,0.004436000000000001,-0.9074639999999999,-0.15549800000000003,-0.032230999999999996,-0.907933,0.308041,0.036667,0.0004690000000000527,0.9937478875803216,0.9981999279971183,double,-0.9074639999999999
41,0.341667,walk,-0.008879289656829664,-0.0028797696184304886,0.0002399808015427777,0.003199415550881556,0.011189425273872254,0.008117718814552154,0.00035997120230084497,0.0001199904007678503,-0.0004799616030722338,0.0004799616030722338,0.000599952003839876,0.0005999520038394596,0.00012785665560637334,0.05763916330042762,0.12959136103723803,0.1007907851055143,-0.07199884813826406,-0.014392512898570005,0.17278617765889806,0.014390785105805165,0.08638790545135432,0.15261999999999998,0.004461,-0.90747,-0.15542,-0.032201999999999995,-0.90793,0.30804,0.036663,0.00046000000000001595,0.9943802776750696,0.998375322293289,double,-0.90747
42,0.35,walk,-0.009120364814601727,-0.004440177607104156,0.0006000240009506475,-0.01775175624304423,0.0051029458898340764,0.014139080386610527,0.000480019200768512,0.0002400096003840478,0.0016800672026881264,0.0,0.0003600144005759676,-0.00048001920076767927,-0.02893017613969323,-0.1872564488987965,0.04320691220543271,0.014406336069562861,0.014402880069146503,0.2592138252442537,-0.05759769627651926,-0.028793664138234604,-0.12960172862200187,0.15270000000000006,0.004499999999999999,-0.907461,-0.15534399999999993,-0.032161999999999996,-0.9079389999999999,0.308044,0.036662,0.00047799999999997844,0.992280494728449,0.9989999599984005,double,-0.907461
43,0.358333,walk,-0.011520460818430887,0.00024000960038383804,0.0034801392055750194,0.01715313339246925,0.0013736158638927567,0.035710936021115,-0.000240009600390916,0.0,-0.0002400096003842544,-0.0003600144005730508,0.00012000480019171084,0.00048001920076767607,-0.28802304138115326,0.5616449306957848,0.34562764966090964,-0.08640691241562763,-0.028802304138251147,-0.23041843310600899,-0.04320345620701419,-0.02880230413827622,0.11520921655290428,0.15279399999999999,0.004498,-0.9074920000000001,-0.15525099999999992,-0.032163,-0.907964,0.3080449999999999,0.036661,0.00047199999999991693,0.9947142919467202,0.998980155303497,double,-0.9074920000000001
44,0.366667,walk,-0.009479241660659965,-0.004319654427645733,0.0007199424046016899,-0.004792966440807498,0.0029494213375025457,0.022822841760359903,-0.00011999040075806724,0.000959923206143635,0.001199904007679752,0.0002399808015294561,0.0002399808015361169,0.00011999040076805845,0.2449267047961267,-0.5471159140904208,-0.33119712034717147,0.014401151863792734,0.11518157021161916,0.17277581090280839,0.07199366475912003,0.014395968483850006,-0.04319999999995408,0.152872,0.004542000000000001,-0.907488,-0.15517000000000003,-0.032125,-0.907969,0.30804200000000004,0.036667,0.0004810000000000647,0.9926211589915483,0.9994000479961671,double,-0.907488
45,0.375,walk,-0.00888035521421081,-0.0063602544101763305,0.0010800432017324826,-0.0251461389138557,-0.004308686301962172,0.02424295108235044,-0.000960038401537024,-0.0002400096003840478,-0.000360014400576384,0.0001200048001954588,0.0006000240009598073,-0.0007200288011519352,0.07186924834383257,-0.24488179317539932,0.04321382420866358,-0.10080979248517447,-0.14399769669118995,-0.1871976968986127,-0.01439769606792243,0.043206912207331256,-0.10080633648385884,0.15293800000000002,0.004593,-0.9075,-0.15509499999999998,-0.032067,-0.907984,0.308033,0.03666,0.00048400000000003995,0.9934049369199968,0.9984251354306145,double,-0.9075
46,0.383333,walk,-0.008760350414015352,-0.015720628825153155,0.013560542421700471,-0.0605663139349342,-0.07867751741555196,-0.010421466500389777,-0.000480019200768512,0.0002400096003840478,-0.00024000960038342327,0.000480019200768512,0.0004800192007680956,-0.00036001440057555127,0.01440115206953783,-1.1232898613916775,1.49771981518877,0.057604608276552643,0.057604608276502677,0.014401152069238091,0.043203456207014775,-0.014401152069088206,0.043203456207414476,0.153007,0.004726000000000001,-0.9076150000000001,-0.155018,-0.031932,-0.9081,0.308025,0.036658,0.0004849999999999577,0.9941701649094827,0.9987193239254702,double,-0.9076150000000001
47,0.391667,walk,-0.020998320134393577,-0.009239260859131133,-0.03071754259659632,0.2866678664377299,0.2139523735662486,-0.05389816225452055,-0.0002399808015427777,-0.0007199424046077262,0.00035997120230334275,-0.00011999040077138885,-0.0002399808015357006,-0.0002399808015361169,-1.468438891334079,0.7777019397674604,-5.312945166582283,0.028802303722790263,-0.11518502579694902,0.07199193696745446,-0.07199539255338376,-0.08639308882934911,0.014402879654359761,0.15317999999999998,0.004796999999999999,-0.907356,-0.15484399999999998,-0.031856999999999996,-0.907846,0.30802399999999996,0.036654,0.0004899999999999904,0.9937001119910377,0.9994000479961583,double,-0.907356
48,0.4,walk,-0.009240369614783802,-0.005400216008640311,0.0004800192007685088,0.0054545049596126365,0.002350389042765985,0.010522731148541655,0.0,0.0006000240009600115,-0.0001200048001921272,-0.0003600144005730508,0.0004800192007680924,0.0,1.411010502773278,0.46070381021130524,3.7438571699705627,0.028798848139058766,0.15840230476031827,-0.05759942427642721,-0.028804032137484812,0.08640345641471138,0.028798848138259437,0.15325699999999998,0.004846999999999999,-0.907361,-0.15476999999999996,-0.031808,-0.90785,0.30802699999999994,0.036655,0.0004890000000000727,0.9940901553034936,0.9989999599984029,double,-0.907361
49,0.408333,walk,-0.009240369614783863,-0.005520220808832475,-0.00036001440057305316,0.0012378578789143271,0.012203184508417998,0.004039190736424704,0.0002400096003909176,0.0007200288011521435,0.000240009600384256,-0.00036001440057305316,-0.000360014400576384,-0.00048001920076767927,-7.286130044304381e-15,-0.014401152069142506,-0.10080806448356702,0.028802304139075748,0.014401152069138643,0.043203456207414385,-2.862408231691006e-16,-0.10080806448391677,-0.057604608276452716,0.15333600000000003,0.004899000000000001,-0.907356,-0.15469599999999994,-0.031765,-0.9078510000000001,0.308032,0.036664,0.0004950000000000232,0.9937232970157348,0.9988337629715525,double,-0.907356
50,0.416667,walk,-0.011639068874491678,-0.007079433645308371,-0.004079673626120648,0.05720826935700765,0.05427678449720878,-0.015472576007082626,-0.0007199424046150115,0.00023998080153590876,0.00035997120230417536,-0.00011999040077138885,0.0004799616030718175,0.0008399328053747439,-0.287820885494098,-0.18709057313125688,-0.44632340119361547,-0.11518502579864749,-0.05760115186179917,0.01439424069113502,0.02880057593012528,0.10078905731319902,0.15838157021147373,0.15342699999999998,0.004960000000000001,-0.907319,-0.15459999999999996,-0.031702,-0.90781,0.30802699999999994,0.036662,0.0004910000000000192,0.9936901119910297,0.9983753222932898,double,-0.907319
51,0.425,walk,-0.009240369614783863,-0.006480259210368458,-0.001800072002878589,0.06745761637158568,0.022999737965099566,0.005878885230938491,-0.0006000240009506475,0.0,-0.000480019200768512,0.000480019200768512,0.0007200288011523517,-0.0007200288011519352,0.2878554253819538,0.07190380834512355,0.27356313731454035,0.014390784071086557,-0.02879884813823465,-0.10080288048394208,0.07200403234608213,0.0288092161383097,-0.1872028808984379,0.15349900000000005,0.005014000000000001,-0.907308,-0.15451899999999996,-0.031641999999999997,-0.907801,0.308018,0.036656,0.0004929999999999657,0.9937893239254822,0.998123758646416,double,-0.907308
52,0.433333,walk,-0.010800432017284785,-0.006360254410176288,0.0008400336013548828,-0.011377821843583807,0.018480301816606613,-0.003935836657862278,-0.0004800192007685088,-0.0006000240009602196,0.0009600384015361848,0.0002400096003775928,0.00048001920076767607,-0.00048001920076767607,-0.18721497689918587,0.01440115206914314,0.31682534552183617,0.014401152067939307,-0.07200576034563988,0.17281382482955607,-0.028802304139075748,-0.028802304138326483,0.02880230413827651,0.15358500000000008,0.005061999999999999,-0.9073070000000001,-0.15442699999999998,-0.031585,-0.9078120000000001,0.30801200000000006,0.036647,0.0005049999999999777,0.9929005278679222,0.9987999519980844,double,-0.9073070000000001
53,0.441667,walk,-0.008519318454515555,-0.008279337652987762,-0.001319894408458643,0.020249366155060317,0.01676446022146507,-0.00692581474080762,-0.0002399808015427793,0.0011999040076795518,-0.0002399808015361185,-0.00011999040075806804,-0.00011999040076764294,-0.0002399808015361185,0.27371173059386167,-0.23027156741198526,-0.2591706275274224,0.02880230372278988,0.21597408311012498,-0.14399078510586877,-0.04319654441272652,-0.07199539255283446,0.028802303723489193,0.15365399999999996,0.005141,-0.9072979999999999,-0.15435699999999997,-0.031517,-0.9078029999999999,0.3080109999999999,0.036657999999999996,0.0005049999999999777,0.9928717052944913,0.9995101412401508,double,-0.9072979999999999
54,0.45,walk,-0.01104044161766238,-0.0034801392055683576,-0.012720508820345498,-0.14780488962113336,0.07073074176934002,0.02541326190248824,-0.0004800192007685088,-0.00132005280211215,-0.00048001920076767607,0.0,0.0007200288011519304,0.0001200048001921272,-0.3025468814528758,0.5759268507643567,-1.3681284545645993,-0.02880576013749292,-0.302406913451541,-0.028805760138192315,0.014399424067930822,0.10080633648380774,0.043200000207397594,0.15374199999999993,0.005159,-0.907196,-0.15426499999999999,-0.031481999999999996,-0.9076960000000001,0.3080069999999999,0.036641,0.000500000000000056,0.9925260376661359,0.9987833988298938,double,-0.907196
55,0.458333,walk,-0.006840273610954626,-0.012600504020160741,-0.003720148805952637,-0.01627148166934977,0.02791061419728051,-0.01723981405662074,0.0007200288011594295,-0.0006000240009600155,-0.000240009600384256,0.00036001440057305316,-0.0003600144005759676,-0.00036001440057555127,0.5040403224178284,-1.094487557253379,1.0800864051833534,0.14401152069218065,0.08640691241475296,0.028802304138176006,0.04320345620701477,-0.12961036862209296,-0.05760460827645261,0.15380500000000008,0.005259,-0.9071670000000001,-0.15420499999999993,-0.03138,-0.907668,0.30801,0.036639,0.0005009999999999737,0.9933774839496892,0.9989607279445798,double,-0.9071670000000001
56,0.466667,walk,-0.007319414446841574,-0.010919126469882495,0.0011999040076739237,-0.010938591293993181,0.00047347831315659034,-0.0015049674196385538,0.00035997120230084497,-0.0005999520038396678,-0.0002399808015352843,-0.0002399808015427777,-0.0007199424046075181,-0.0007199424046083507,-0.05749230092235987,0.20174916610010132,0.5903591089064741,-0.04320345558658318,8.638963324657444e-06,3.4555854297705035e-06,-0.07199366476071878,-0.04318790545134991,-0.043187905451499774,0.15386900000000003,0.005345000000000001,-0.907179,-0.154146,-0.031294999999999996,-0.9076839999999999,0.30801500000000004,0.03664,0.0005049999999999777,0.9937172158221431,0.9982565798961887,double,-0.907179
57,0.475,walk,-0.004200168006721149,-0.009000360014400648,0.01716068642745765,-0.0191938448704118,-0.09146218954838137,-0.003673418405185496,0.00024000960037759439,-0.0008400336013440632,-0.000120004800192128,0.0,-0.000240009600384256,0.000360014400576384,0.3743245457962838,0.23026118510522645,1.91537050519426,-0.014395968069512885,-0.028810944138293052,0.014397696069021552,0.028798848139058957,0.05759424027640265,0.1296000006221934,0.153906,0.005413000000000001,-0.907323,-0.154111,-0.031222,-0.907824,0.308017,0.036635,0.0005009999999999737,0.9935202473642275,0.9992788608993425,double,-0.907323
58,0.483333,walk,-0.007200288011514309,-0.010680427217088496,0.011160446417857836,0.09754809129182847,-0.042016619674955104,0.0003779979648586542,-0.0006000240009506435,0.0002400096003840462,-0.0008400336013440577,-0.0003600144005730508,-0.0001200048001921272,0.0002400096003842544,-0.36002880172724677,-0.2016161289676996,-0.7200576034561129,-0.1008080644819674,0.12961036862211747,-0.0864069124147278,-0.04320345620701419,0.014401152069138161,-0.014401152069138256,0.15396100000000001,0.005504,-0.907423,-0.15405400000000002,-0.031134000000000002,-0.907915,0.30801500000000004,0.036638000000000004,0.000492000000000048,0.99331357716983,0.9992516385881924,double,-0.907423
59,0.491667,walk,-0.006479481641468495,-0.011399088072954104,0.0017998560115175463,0.03325611689715348,-0.02126677948386544,0.016314282040292612,-0.00011999040077138885,-0.0004799616030718175,0.0004799616030714012,-0.0011999040076739237,-0.0004799616030714012,0.00035997120230334275,0.0864898452178801,-0.08623240411154404,-1.1231809942812911,0.0575994240675851,-0.08638963324404404,0.15838675358956775,-0.1007786905568601,-0.043191361036629905,0.014394240691035306,0.15401399999999998,0.005594999999999999,-0.907434,-0.15400999999999998,-0.031043,-0.9079269999999999,0.30802399999999996,0.036638,0.0004929999999999657,0.9939211793763416,0.9977641108936373,double,-0.907434
60,0.5,walk,-0.012120484819394935,-0.006360254410176539,0.003000120004806531,0.05772387744102983,0.0012111496577656307,0.038674968623520024,0.001440057602305536,-0.0002400096003840478,-0.0007200288011519352,-0.0008400336013548883,-0.000240009600384256,-0.0009600384015361912,-0.6769474592495444,0.6046842269023855,0.1440374406923062,0.18721324889918742,0.028795392138217968,-0.14400460869114837,0.04318617620533256,0.02879539213814302,-0.15840748876029487,0.15412700000000001,0.005646,-0.907465,-0.15391600000000005,-0.030992,-0.90796,0.30804300000000007,0.036638000000000004,0.0004950000000000232,0.9923369594851272,0.9978365826980176,double,-0.907465
61,0.508333,walk,-0.006840273610941258,-0.010440417616704657,-0.0016800672026964422,0.028943571460676536,0.019222733776706507,0.008044851107538664,0.0,-0.0002400096003840462,0.0,-0.00012000480018213478,0.0,0.000600024000960636,0.6336506910420803,-0.4896391703501861,-0.5616449306975823,-0.1728138248296568,1.9191146098837303e-16,0.08640691241472845,0.08640691241722676,0.02880230413827613,0.18721497689869443,0.154184,0.005731,-0.907451,-0.15386,-0.030905000000000002,-0.907941,0.308044,0.036636,0.0004899999999999904,0.99469998399936,0.9989801553034958,double,-0.907451
62,0.516667,walk,-0.0064794816414685385,-0.009599232061435165,0.001319894408458643,-0.010865839224605647,0.0020418064455490254,0.009391406793200949,-0.00035997120230084735,0.0010799136069114925,0.00011999040076805925,-0.0007199424046150163,0.0,0.0,0.043291573010885674,0.10093419189698778,0.35996659601093145,-0.043193088828995606,0.15837811462629542,0.014397696276465075,-0.07198675359165886,0.0,-0.07199712034564908,0.154235,0.0058200000000000005,-0.9074610000000001,-0.15381200000000006,-0.030824999999999998,-0.9079520000000001,0.30804700000000007,0.036645,0.0004910000000000192,0.9931822742152303,0.9988000959923082,double,-0.9074610000000001
63,0.525,walk,-0.003960158406343528,-0.009240369614784427,0.002400096003829221,0.022332210940011116,-0.00596491274028517,0.020217251930575227,-0.000360014400586374,-0.0006000240009600115,-0.0001200048001921272,-0.0010800432017191524,-0.0004800192007680924,-0.0004800192007685088,0.30233088145025794,0.043065216206736735,0.12962937661953358,-5.184001623261972e-06,-0.20160057696765832,-0.028800576138267784,-0.043213824205464366,-0.057604608276501906,-0.05760460827655187,0.15426499999999999,0.005892,-0.9074819999999999,-0.15378799999999992,-0.030752,-0.907976,0.3080529999999999,0.036644,0.0004940000000001055,0.9938767367128398,0.997873885792897,double,-0.9074819999999999
64,0.533333,walk,-0.0048001920076718285,-0.02160086403456153,0.029041161646475182,-0.20143028205637675,-0.1595180538353347,0.0032103371092091315,0.0,0.0,-0.00048001920076768247,0.00024000960037759599,0.00036001440057597004,-0.00048001920076768247,-0.10080806448197621,-1.483318663119791,3.1970557593479185,0.04320345620861362,0.07200576034561586,-0.04320345620731532,0.15841267275852158,0.10080806448386777,9.916292880833251e-14,0.15430499999999991,0.006071999999999999,-0.907728,-0.15374600000000005,-0.030569000000000002,-0.9082220000000001,0.30805099999999996,0.036641,0.0004940000000001055,0.9942599679987205,0.9989229239555357,double,-0.907728
65,0.541667,walk,-0.00863930885530015,-0.013558915286776985,0.005399568034552603,-0.0016978973639865948,-0.0034218559242411117,0.03252736142275825,-0.00011999040075806644,0.0,0.000839932805375571,0.0017998560115175344,0.0019198464122872573,0.0,-0.4606571691418637,0.9649566532018821,-2.8367642922873046,-0.014397696275265843,0.0,0.1583815702115723,0.18716659600911045,0.18716486821589576,0.05759769627641934,0.15437600000000007,0.0061849999999999995,-0.907766,-0.153659,-0.030440000000000002,-0.9082669999999999,0.30803500000000006,0.036625,0.0005009999999999737,0.993575899565664,0.995614008439434,double,-0.907766
66,0.55,walk,-0.006240249609977291,-0.010080403216128691,0.0018000720028785772,0.04247812519333489,0.008159969796767377,0.03019669192007365,-0.000120004800195458,0.0008400336013440577,-0.0007200288011527632,-0.0015600624024876611,-0.001200048001920023,-0.0008400336013440577,0.28789862538375727,0.4174381460036337,-0.4319568020729642,-1.7280016070514022e-06,0.10080806448386585,-0.18720288089863527,-0.4032063379341391,-0.37440230579710393,-0.10080806448386585,0.15442699999999998,0.006276,-0.907787,-0.15361999999999998,-0.030365999999999997,-0.908289,0.30804699999999996,0.036642,0.0005020000000000024,0.9931252021089838,0.9964333464338422,double,-0.907787
67,0.558333,walk,-0.004800192007685152,-0.01572062882515305,0.0002400096003909192,0.01729691518515117,0.013308199635981012,-0.005026634864431308,-0.0004800192007685152,0.0002400096003840494,0.0008400336013440688,-0.0002400096003909192,-0.0006000240009602277,0.0001200048001921288,0.17281382482805135,-0.6768541472488192,-0.18721497689759656,-0.04320345620701554,-0.07200576034561548,0.18721497689869748,0.1584126727585208,0.07200576034558992,0.11520921655300555,0.15446300000000002,0.006409,-0.9077820000000001,-0.153582,-0.030240000000000003,-0.90829,0.308045,0.036649,0.0005079999999999529,0.9932586087717669,0.9989045110654278,double,-0.9077820000000001
68,0.566667,walk,-0.004919606431480372,-0.009839212862970945,0.003959683225335912,-0.014967425081098051,-0.020157413485524207,0.036881158272716014,0.00011999040077138805,-0.00023998080153590716,-0.000839932805375571,0.0017998560115175344,0.001439884809215443,-0.0007199424046075133,-0.014328584568660829,0.7057134583851765,0.4463251289830771,0.07199539255338357,-0.057594240691139054,-0.20157984241896174,0.24476429228562974,0.24476947566302554,-0.10078560172781806,0.154505,0.006489,-0.907822,-0.15352600000000005,-0.030146,-0.9083289999999999,0.30803100000000005,0.036635,0.0005069999999999242,0.9934604237204318,0.9959753996085334,double,-0.907822
69,0.575,walk,-0.007680307212296243,-0.011040441617664815,0.0045601824072942325,-0.026980514688649936,-0.010567028421438635,0.040958466173075976,0.0004800192007685152,-0.0002400096003840494,0.0001200048001921288,0.0019200768030740608,0.0010800432017279101,-0.0024000960038409107,-0.3312973455917312,-0.14415321669193343,0.072062784346373,0.043205184207023926,-3.4560000170693385e-06,0.11519712055294713,0.014427072069666083,-0.04318272020731262,-0.20162649696788826,0.15457300000000007,0.006579,-0.907859,-0.15344599999999997,-0.030045000000000002,-0.908387,0.30801900000000004,0.036624000000000004,0.0005279999999999729,0.993803448198936,0.994570234025159,double,-0.907859
70,0.583333,walk,-0.005280211208440274,-0.014400576023040899,0.0009600384015370176,-0.017294813785070202,0.0041692593371563695,0.03627750971653047,-0.0012000480019279335,0.0004800192007680924,0.0008400336013440577,0.0019200768030740352,0.0003600144005759652,-0.0020400816032636643,0.2880230413843705,-0.4032322579354458,-0.43203456207334695,-0.20161612896873177,0.08640691241475323,0.0864069124147277,-3.0705833758139684e-15,-0.08640691241472961,0.043203456207517685,0.15460699999999994,0.006703000000000001,-0.90786,-0.15338600000000002,-0.029922,-0.908412,0.30799299999999996,0.036625000000000005,0.0005519999999999969,0.9919108507182854,0.9952923707764536,double,-0.90786
71,0.591667,walk,-0.0040796736261072995,-0.012958963282937322,-0.00035997120230084253,-0.022825070656383423,0.005061406126430578,0.03154360730892586,-0.00011999040075806644,0.0001199904007678495,0.0002399808015361153,0.0011999040076739157,0.00011999040076805765,-0.0013198944084478015,0.14405298564110453,0.172979690437193,-0.15838848138203146,0.12959654441682972,-0.04320000000002881,-0.07200057593087805,-0.0864138223422263,-0.02880057593087422,0.08641555013389217,0.15464,0.006812,-0.907855,-0.1533420000000001,-0.029813,-0.90842,0.3079820000000001,0.036625,0.0005650000000000377,0.9938601412401505,0.9970203054904161,double,-0.907855
72,0.6,walk,-0.004560182407307556,-0.010200408016320746,0.00108004320173249,0.01094823975524338,0.004438594154246523,0.035550763822886924,-0.00036001440058637876,-0.0012000480019200388,0.0010800432017283265,-0.00012000480018213638,-0.0001200048001921288,-0.0006000240009598112,-0.05766336027844245,0.3310398735889356,0.17280864082963465,-0.02880403214068337,-0.15841094476033846,0.10081152048388561,-0.15839539275843803,-0.028800576138268166,0.0863879044147362,0.154675,0.006887000000000001,-0.9078550000000001,-0.1533049999999999,-0.029729,-0.9084340000000001,0.3079799999999999,0.036616,0.0005789999999999962,0.9914530799727769,0.99896072794458,double,-0.9078550000000001
73,0.608333,walk,-0.004800192007671764,-0.012720508820352576,-0.004200168006721121,-0.02768413562609962,0.01862452861518412,0.03249051169637029,0.000360014400586374,0.0002400096003840462,-0.0004800192007685088,-0.0012000480019279335,-0.00024000960038383804,0.0001200048001921272,-0.028802304135870302,-0.30242419345155636,-0.6336506910420724,0.08640691241722666,0.17281382482948265,-0.1872149768986954,-0.12961036862424008,-0.014401152069087812,0.08640691241472884,0.15471800000000002,0.0069949999999999995,-0.9078240000000001,-0.15327500000000005,-0.029625,-0.908398,0.3079930000000001,0.03662,0.0005739999999999634,0.9931829239555212,0.99795052786791,double,-0.9078240000000001
74,0.616667,walk,-0.004439644828421523,-0.012119030477561911,0.0005999520038303051,-0.03387538083065038,-0.011684699385766486,0.03197156808737653,-0.000479961603072237,-0.00023998080153591036,-0.0004799616030714044,0.00011999040077138965,-0.0010799136069117006,-0.0002399808015361185,0.04326220053398651,0.0721716274046878,0.5759683238002703,-0.10078905731444875,-0.057594240691139824,6.911170758867925e-06,0.15839193696896214,-0.1007804183498761,-0.04319481662205996,0.15475100000000008,0.007094,-0.907833,-0.15323699999999996,-0.029533000000000004,-0.9084049999999999,0.30798800000000004,0.036627,0.0005719999999999059,0.9930800959923204,0.9981454246669264,double,-0.907833
75,0.625,walk,-0.005760230409208782,-0.012120484819392773,-0.002400096003829221,0.005132951395698231,0.012789722063008185,0.026335458046260654,0.0004800192007685088,-0.0010800432017281038,-0.0001200048001921272,0.0002400096003775928,-0.00024000960038383804,-0.0006000240009598033,-0.15847660875882083,-0.00017452800082346247,-0.36002016172561063,0.11520230455307114,-0.10081152048388214,0.043196544207281376,0.014402880067947035,0.10079251248384244,-0.04320691220733029,0.15480300000000002,0.007186,-0.907814,-0.15318700000000007,-0.029434000000000002,-0.90839,0.3079900000000001,0.03662,0.0005760000000000209,0.9922600218135498,0.998851041512357,double,-0.907814
76,0.633333,walk,-0.004680187207489629,-0.012240489619584691,-0.0033601344053795614,0.04469991728048811,0.020506672695041177,0.03302434082356438,-0.000240009600390916,-0.0003600144005759652,0.0,-0.0006000240009506435,-0.0009600384015361848,0.0,0.12961036862104264,-0.01440115206911285,-0.11520921655470258,-0.08640691241562723,0.08640691241475285,0.014401152069137968,-0.10080806448196722,-0.08640691241477784,0.07200576034558992,0.15483999999999998,0.007285,-0.907786,-0.15315299999999998,-0.02934,-0.908362,0.30799299999999996,0.036625000000000005,0.0005760000000000209,0.9935188608993368,0.9981131282987288,double,-0.907786
77,0.641667,walk,-0.004319654427650133,-0.010799136069114508,-0.0007199424046150163,0.031117170199314006,0.0015188907407252344,0.03687031571197145,0.000959923206144474,-0.0005999520038396718,0.0004799616030714044,-0.0002399808015427793,-0.0004799616030718207,0.0002399808015361185,0.04326047274292035,0.17294859016920938,0.31679769627604515,0.14398041835077957,-0.02879020917491096,0.05759078510576039,0.0432017277907207,0.057604607447128246,0.02879539255293015,0.15488400000000002,0.00737,-0.9077759999999999,-0.153119,-0.029254000000000002,-0.908354,0.308003,0.036624000000000004,0.0005780000000000785,0.9921707737849044,0.9990202824802834,double,-0.9077759999999999
78,0.65,walk,-0.007440297611905225,-0.004080163206528369,0.002160086403464951,0.01641235807311137,-0.007259397317237562,0.06453269145946186,-0.0004800192007685088,-0.001200048001920023,0.0004800192007685088,-0.0006000240009506435,-0.00024000960038383804,-0.0004800192007685088,-0.3744921617970813,0.8063089958701681,0.3456172816608611,-0.17280000082959038,-0.07201440034565566,6.912000132533868e-06,-0.04320691220543175,0.028795392138243333,-0.08640345641481151,0.15494200000000002,0.007394000000000001,-0.90779,-0.15306199999999992,-0.029221999999999998,-0.9083760000000001,0.30800399999999994,0.036616,0.0005860000000000865,0.9918420830247052,0.9986583055457332,double,-0.90779
79,0.658333,walk,-0.0045601824072942325,-0.012600504020160825,-0.0001200048001954596,-0.011137035151456781,-0.004566485647931974,0.028987306852322703,0.0002400096003909192,-0.0001200048001921288,0.0,-0.0007200288011594343,-0.0009600384015361976,0.0001200048001921288,0.3456276496593086,-1.0224817969077802,-0.2736218893148244,0.08640691241562878,0.12961036862209335,-0.057604608276552643,-0.01440115207113787,-0.08640691241478053,0.07200576034569099,0.15498200000000006,0.0074979999999999995,-0.907789,-0.15303,-0.029125,-0.908374,0.30801200000000006,0.036623,0.0005850000000000577,0.9937027685152302,0.9979899444735472,double,-0.907789
80,0.666667,walk,-0.008039356851456533,-0.013318934485241078,0.0037197024238064566,0.028029898431391094,-0.019888761629751592,0.0701749653649566,-0.00011999040077138805,-0.0014398848092152348,-0.000839932805375571,-0.00035997120230084253,-0.000839932805375571,0.00011999040076805765,-0.4174675358966011,-0.08620475942887539,0.4607280086395353,-0.043196544415923264,-0.15837293124827165,-0.10078387393515294,0.043203455586583756,0.014411518617785663,-1.7277926651243414e-06,0.15504800000000007,0.007597,-0.907827,-0.15296599999999994,-0.029021,-0.908404,0.308014,0.036618,0.0005769999999999387,0.9914445451809484,0.9984638937389291,double,-0.907827
81,0.675,walk,-0.004800192007671764,-0.011400456018240739,0.004200168006721121,-0.007405194737749099,-0.01016975064636099,0.04365766677915969,0.0,-0.0010800432017281038,0.0006000240009598033,-0.0019200768030740352,-0.0010800432017278956,0.0,0.38871532986736534,0.2302266251050439,0.057658176276810545,0.014399424069529286,0.043182720207263825,0.17280172882939737,-0.1872201608992183,-0.028814400138284367,-0.014399424069129623,0.155088,0.007683,-0.907857,-0.15294200000000002,-0.028935,-0.908439,0.30803,0.036618,0.0005819999999999714,0.9921207916034669,0.9963283411835075,double,-0.907857
82,0.683333,walk,-0.0037201488059526618,-0.009720388815552648,0.0008400336013415707,0.0016035505232731178,0.0019477755799824934,0.030813438989931684,0.0001200048001954596,-0.0013200528021119595,0.0003600144005763864,-0.00108004320173249,-0.0012000480019200388,0.00048001920076768247,0.12961036862103834,0.20161612896773143,-0.40323225793586714,0.014401152069538065,-0.028802304138228478,-0.028802304138175822,0.10080806448356568,-0.014401152069140078,0.05760460827645348,0.15512000000000004,0.007753,-0.907861,-0.15292000000000006,-0.028864,-0.908442,0.3080400000000001,0.036617,0.0005809999999999427,0.9919008038036997,0.9971927539406295,double,-0.907861
83,0.691667,walk,-0.002399808015361153,-0.017038636909047222,0.0004799616030722306,-0.06872465707687578,-0.0202677423065159,0.03715990237198013,0.0,0.000239980801535699,0.00011999040076805765,-0.0009599232061444612,-0.0007199424046075133,0.0010799136069116863,0.15842822061333076,-0.8781195216576096,-0.04320518337765027,-0.01439942406952948,0.18718905731313254,-0.028800575930924752,0.01441324641085048,0.05760806303246002,0.07198157021166299,0.15514000000000006,0.007897,-0.907864,-0.15290800000000004,-0.028727999999999997,-0.9084369999999999,0.3080480000000001,0.036625,0.0005729999999999347,0.993822822178726,0.9973094904313496,double,-0.907864
84,0.7,walk,-0.003960158406330258,-0.014040561622465017,-0.001320052802110086,-0.034741166123747565,0.016965557917165953,0.032039581075043136,-0.0038401536061481215,-0.005160206408256334,-0.004320172806912473,-0.0004800192007685152,-0.0012000480019204553,-0.0006000240009598112,-0.18724953689777019,0.359783425726897,-0.21601036903664142,-0.4608368662124273,-0.6480483871105343,-0.532840898557611,0.057590784276485105,-0.05761497627660463,-0.20160057696766026,0.15514099999999997,0.007970999999999999,-0.9078890000000001,-0.1528790000000001,-0.028621,-0.908431,0.30802000000000007,0.036592,0.0005419999999999314,0.9816659246710971,0.9976250365840551,double,-0.9078890000000001
85,0.708333,walk,-0.0031201248050019685,-0.015600624024960923,-0.0004800192007685088,-0.047324257293211686,0.016559278204326438,0.024719952119873958,0.0013200528021100684,0.0,0.0015600624024959882,-0.0006000240009506435,-0.0007200288011519304,0.0001200048001921272,0.10080806448197357,-0.18721497689858382,0.10080806448356819,0.6192495389725391,0.6192495389723164,0.7056564513870679,-0.014401152067938058,0.05760460827655381,0.08640691241472884,0.15517800000000004,0.008101,-0.907872,-0.15285799999999994,-0.028497,-0.908426,0.308036,0.036598,0.0005539999999999434,0.9910539864862765,0.9984251354306249,double,-0.907872
86,0.716667,walk,-0.002159827213818377,-0.011879049676025842,0.0017998560115175344,-0.009691870022078226,-0.003204529267325573,0.039363021985335415,0.0020398368130603107,0.0025197984161267127,0.001319894408446969,-0.0007199424046150068,-0.000239980801535699,-0.00011999040076805765,0.11522649282260428,0.44655319761639695,0.27356314042308927,0.08636717194027319,0.30235162180545877,-0.02881785385757348,-0.014389057315138265,0.057601151861798386,-0.028797120345594316,0.15521300000000005,0.008221,-0.907876,-0.15284600000000004,-0.028399999999999998,-0.908442,0.3080590000000001,0.036621,0.0005659999999999554,0.9885060858548007,0.9987194775942945,double,-0.907876
87,0.725,walk,-0.0037201488059526618,-0.010800432017280766,0.004680187207489692,0.02801301251660376,0.0024197826533136737,0.05359533057974073,0.00024000960037759599,0.00036001440057597004,0.0010800432017283265,-0.00012000480018213638,-0.0010800432017283265,0.0001200048001921288,-0.18724608089935185,0.12943929662127518,0.34565356965944843,-0.21598790503812926,-0.25918444924406125,-0.028783296138082892,0.071995392347639,-0.10081152048393557,0.028800576138268166,0.155246,0.008313999999999998,-0.907906,-0.15281599999999995,-0.028319,-0.90848,0.30806199999999995,0.036633,0.0005739999999999634,0.992320850491055,0.9981778403977883,double,-0.907906
88,0.733333,walk,-0.0031201248049886453,-0.012360494419776715,0.0002400096003775928,-0.009330472800545395,0.004664958108869295,0.04206741629231022,-0.004560182407294172,-0.0044401776071041265,-0.00456018240729667,-0.0009600384015370176,-0.0009600384015357685,-0.0003600144005763816,0.07200576034609552,-0.18721497689858904,-0.532842626558512,-0.5760460827639203,-0.5760460827649198,-0.6768541472488866,-0.10080806448516473,0.014401152069189667,-0.057604608276552074,0.15523399999999998,0.00838,-0.9079459999999999,-0.152798,-0.028224,-0.908485,0.308032,0.036604,0.0005390000000000672,0.9815603401110473,0.9976589663765103,double,-0.9079459999999999
89,0.741667,walk,-0.0027597792176620325,-0.011399088072954285,0.0011999040076872533,-0.020176403683971916,0.0018394896318478155,0.03425886306298333,-0.0005999520038436266,-0.0009599232061436414,-0.0014398848092150459,0.00011999040075806804,0.0002399808015357022,0.0013198944084478192,0.04323801143827873,0.11535953285606376,0.11517811462798967,0.4751896332434086,0.41759712034563296,0.3744057593090523,0.12959308882830475,0.14399078510576885,0.2015729312484054,0.15525199999999995,0.008466999999999999,-0.907968,-0.15277400000000008,-0.028127,-0.9084840000000001,0.308026,0.036594,0.000516000000000072,0.9917873767053669,0.9977551851531241,double,-0.907968
90,0.75,walk,-0.009480379215174717,-0.009360374414976553,-0.01476059042361499,0.17208765470056134,0.09938068880569623,-0.010335949102228549,-0.0004800192007685088,-0.00012000480019191902,0.0,0.000360014400586374,0.0,-0.0012000480019204393,-0.8065042598719137,0.24465542517433383,-1.9153359451940688,0.014392512069496863,0.10079424048382561,0.17279308882935795,0.02880403214068222,-0.02879884813820967,-0.30240518545160777,0.155327,0.008544,-0.907845,-0.15269199999999994,-0.028049,-0.908371,0.30801899999999993,0.036593,0.0005260000000000264,0.9939153458887113,0.9979118551724193,double,-0.907845
91,0.758333,walk,0.002760110404415595,-0.01404056162246483,0.01692067682706662,-0.17302197355480117,-0.11085366948781245,0.06403633052295056,-0.0002400096003775928,0.0006000240009600115,-0.0003600144005755489,0.0006000240009506435,0.0002400096003842544,-0.0003600144005763816,1.4689175110512733,-0.5616449306958188,3.8019041462476277,0.028802304139075363,0.0864069124147279,-0.04320345620731398,0.02880230413587766,0.028802304138275937,0.10080806448386585,0.15530200000000005,0.008666,-0.9079889999999999,-0.15271,-0.027929999999999996,-0.908515,0.30801200000000006,0.036596,0.0005260000000000264,0.9935070678821254,0.9987670678821338,double,-0.9079889999999999
92,0.766667,walk,-0.007319414446841623,-0.010439164866810747,-0.004199664026878744,0.06637257716881471,0.05266082074768813,0.0021719860790573127,-0.00011999040077138965,0.0009599232061434333,0.0005999520038394636,0.000959923206144474,0.0004799616030714044,0.0,-1.209446226452757,0.4321330400352895,-2.5342381634203845,0.014401151860595611,0.04318444986602158,0.11518675358951501,0.04318444986727052,0.028791936967500764,0.04319827220738945,0.155362,0.008761,-0.907949,-0.15264100000000003,-0.027839000000000003,-0.90848,0.308003,0.0366,0.0005309999999999482,0.9927927851810842,0.9982112887149017,double,-0.907949
93,0.775,walk,-0.002880115204611053,-0.008400336013440472,-0.006840273610941258,0.08109208514680488,0.044860767150760324,0.03711482221495908,-0.0003600144005730508,0.0009600384015361848,0.00048001920076767607,0.0012000480019279335,-0.00024000960038383804,-0.0010800432017274793,0.5327372185564085,0.24466924917439895,-0.3168858255205212,-0.028804032137484715,1.3824000090187603e-05,-0.014392512069097212,0.028816128139140588,-0.08640000041464532,-0.12961036862204187,0.15538300000000005,0.008839,-0.907888,-0.15260699999999994,-0.027771,-0.908432,0.30799,0.036610000000000004,0.0005439999999999889,0.9926731282987223,0.9972795970821273,double,-0.907888
94,0.783333,walk,-0.0014400576023055455,-0.010200408016320746,0.007200288011514404,-0.041305142833993176,-0.038172548208995294,0.026632867340337922,-0.0009600384015370304,0.00036001440057597004,0.0010800432017283265,0.0008400336013415707,0.0006000240009602277,-0.0002400096003842576,0.17281382482965565,-0.2160172810368763,1.6849347920863782,-0.07200576034609205,-0.07200576034564025,0.07200576034569253,-0.043203456208612274,0.10080806448386816,0.10080806448376688,0.15538700000000005,0.008927000000000001,-0.9079389999999999,-0.15258799999999995,-0.027680999999999997,-0.9084939999999999,0.307975,0.036608,0.0005549999999999722,0.99196796598944,0.9982335771698243,double,-0.9079389999999999
95,0.791667,walk,-0.004319654427636754,-0.010919126469882318,0.0005999520038436186,0.03781547182018674,0.03077634292834976,0.03369359765215178,-0.0008399328053730732,0.0007199424046077215,-0.0007199424046075133,-0.0004799616030722306,0.0007199424046075133,0.0010799136069116863,-0.3455239771215727,-0.08623931528216543,-0.7919769627634671,0.014411518618185298,0.04318790545137373,-0.21598099428075665,-0.15838675358936782,0.014389057313089117,0.15837811462634194,0.155416,0.009024,-0.90795,-0.15255600000000002,-0.027583999999999997,-0.90849,0.307972,0.036608,0.0005399999999999849,0.9924001759859238,0.9976936719873064,double,-0.90795
96,0.8,walk,-0.009240369614783802,-0.014160566422656853,-0.027241089643582895,0.2696459275102251,0.16695319611236561,-0.00960145704895263,-0.0008400336013548828,0.001200048001920023,0.0002400096003842544,0.000120004800195458,0.0006000240009598033,0.00024000960038342167,-0.5905094428353567,-0.3889883538670973,-3.341058640036769,-1.2096001657218404e-05,0.057614976276527,0.11519884855295376,0.07199884834605617,-0.0143907840690879,-0.10079251248389069,0.1554859999999999,0.009152,-0.907721,-0.152478,-0.027461,-0.908261,0.3079639999999999,0.036613,0.0005399999999999849,0.9921260376661258,0.998904511065432,double,-0.907721
97,0.808333,walk,0.005640225609013399,-0.004920196807872389,0.027721108844351774,-0.27144418159559563,-0.1635426122138641,0.07382399347876725,-0.0009600384015237072,0.0,0.0012000480019196224,0.0004800192007685152,0.0001200048001921288,-0.00036001440057555366,1.7857428565699434,1.1088887093225188,6.595727647658127,-0.01440115206634171,-0.14401152069123171,0.11520921655290733,0.04320345620701554,-0.05760460827645252,-0.07200576034549151,0.1554310000000001,0.009193,-0.907942,-0.1525209999999999,-0.027419,-0.9084949999999999,0.307952,0.036612,0.0005529999999999147,0.9919086478509545,0.9989801553034934,double,-0.907942
98,0.816667,walk,-0.016918646508272815,-0.010919126469882318,-0.025077993760500735,0.3170570731679857,0.17426418232742888,0.02329669114041752,0.00011999040075806644,0.0004799616030718143,0.0003599712023041729,-0.0002399808015427761,-0.0004799616030718143,0.00011999040076805765,-2.706848106225827,-0.7198139743232402,-6.335385481743713,0.1295930888267057,0.05759078510580881,-0.10080115186170424,-0.08639308883024788,-0.07199020917493863,0.057595968483754215,0.15557299999999996,0.009288000000000001,-0.9077299999999999,-0.15238200000000002,-0.027332000000000002,-0.908285,0.307955,0.03662,0.0005550000000000832,0.9934302776750703,0.9990835581763495,double,-0.9077299999999999
99,0.825,walk,0.013080523220932045,-0.005880235209408378,0.027721108844351774,-0.29858108305403974,-0.18779259436189222,0.08006003289804109,-0.0008400336013415707,0.0,-0.0003600144005763864,-0.0001200048001954596,0.00036001440057597004,0.0010800432017274938,3.6000443692793875,0.6046911389024344,6.3361457584126955,-0.11520748855149958,-0.0575976962764693,-0.0864017284148045,0.014397696069520892,0.10080115248383441,0.1152109445529155,0.15545699999999996,0.009337000000000002,-0.907964,-0.15249200000000007,-0.027280000000000002,-0.908507,0.30794900000000003,0.036617000000000004,0.0005429999999999602,0.9930467844502087,0.9980920452789777,double,-0.907964
100,0.833333,walk,-0.009120364814601666,-0.01308052322092875,-0.03132125285010856,0.3955865581148056,0.22599832549586427,-0.023185160181185445,0.0016800672026831191,0.0034801392055681495,0.004680187207488797,-0.0003600144005730508,-0.0008400336013440577,-0.0003600144005755489,-2.6642131327893455,-0.8640691241474069,-7.085366818007931,0.30242419345069954,0.4176334100045764,0.6048483869032956,-0.028802304137476323,-0.14401152069123038,-0.1728138248293576,0.155547,0.009475,-0.907664,-0.15241899999999997,-0.027178,-0.908249,0.30796599999999996,0.036653000000000005,0.0005849999999999467,0.9840342604772994,0.998362863960186,double,-0.907664
101,0.841667,walk,0.0003599712023141642,-0.0070794336453083246,-0.002399808015361153,0.06614262847934865,0.036069195376124984,0.03054292960773895,0.0002399808015427761,0.003959683225341948,0.001679865610751142,-0.0007199424046016851,-0.00035997120230375665,0.0002399808015361153,1.1375493180844443,0.7200731432229877,3.4702957565091417,-0.1727965444132868,0.05754067911852586,-0.3600097908252498,-0.0431879054509997,0.057602879654463326,0.07199366476021833,0.15554599999999996,0.009566999999999999,-0.9076299999999999,-0.152428,-0.027122,-0.908227,0.30797399999999997,0.036689,0.0005970000000000697,0.9868500451679794,0.9986001119910491,double,-0.9076299999999999
102,0.85,walk,0.00012000480018213638,-0.0069602784111366,0.0008400336013415707,0.03680126429644431,-0.0006888389033716828,0.03531632962331148,-0.0043201728069166365,-0.004680187207488443,-0.005520220808832928,-0.0002400096003909192,-0.00036001440057597004,0.0007200288011519401,-0.028797120140649227,0.014299200068609836,0.3887965458661651,-0.5472403226280397,-1.0368259249766554,-0.8640449321473822,0.05759424027490343,-5.1840000256088865e-06,0.05760806427647056,0.155509,0.009586,-0.9076829999999999,-0.15243099999999998,-0.027067,-0.9082279999999999,0.30794,0.036653,0.0005450000000000177,0.9805023743448471,0.9985999439977569,double,-0.9076829999999999
103,0.858333,walk,0.000240009600390916,-0.008040321612864403,-0.00504020160806268,0.09907085402084828,0.03534073602087396,0.026207034666786488,-0.0016800672026831191,-0.002640105604224092,-0.0020400816032636643,0.0,-0.0004800192007680924,-0.0003600144005763816,0.01440115207113634,-0.1296103686220807,-0.7056564513865626,0.31682534552184166,0.24481958517512808,0.41763341000471005,0.028802304139075748,-0.014401152069137389,-0.12961036862214295,0.155493,0.009631,-0.907658,-0.15243300000000004,-0.027004,-0.9081889999999999,0.30792600000000003,0.036635,0.0005309999999999482,0.9884639979934147,0.9989999599983995,double,-0.907658
104,0.866667,walk,0.001919846412288948,-0.006359491240700792,-0.0013198944084453212,0.02978356404106557,0.018951058522118647,0.024059163580772442,-0.0002399808015427793,-0.00023998080153591036,-0.00011999040076805925,-0.00011999040077138965,-0.0011999040076793436,-0.0004799616030714044,0.20156429228438225,0.20168350997883616,0.4464011518619367,0.1727965444132887,0.28799193696762604,0.23039251289844204,-0.01439769627686469,-0.0863792664880316,-0.014392512898370945,0.15547499999999992,0.009682,-0.907648,-0.15245000000000009,-0.026961,-0.9081819999999999,0.307925,0.036643,0.0005339999999999234,0.9940600479961526,0.9978368422873384,double,-0.907648
105,0.875,walk,0.00204008160325617,-0.016680667226689025,0.01476059042361499,-0.14860179420673159,-0.09056525172776074,-0.01865748564236957,-0.0004800192007685088,0.0015600624024961964,0.00048001920076767607,-0.0003600144005730508,-0.0003600144005759652,0.0001200048001921272,0.014428800068069285,-1.2385906619450606,1.9297353692619998,-0.02880576013749292,0.2160138250368534,0.07200403234558177,-0.028804032137484715,0.10079078448378433,0.07199884834555731,0.15545399999999998,0.009834,-0.907767,-0.15247,-0.026825,-0.908304,0.307924,0.036659,0.0005370000000000097,0.9917943972001362,0.9991281853387088,double,-0.907767
106,0.883333,walk,0.0,-0.006480259210368415,-0.0010800432017191524,0.06306255099293895,0.020141929301930987,0.02312780265452122,-0.0007200288011461016,0.0003600144005759652,-0.00048001920076767607,-0.0003600144005730508,0.0004800192007680924,0.0003600144005755489,-0.24481958517414631,1.224097925875503,-1.900952073123014,-0.02880230413747651,-0.14401152069125478,-0.11520921655290389,0.0,0.10080806448386585,0.02880230413817601,0.15544800000000003,0.009891,-0.9077620000000001,-0.15247299999999997,-0.026767,-0.9082920000000001,0.307921,0.036657999999999996,0.0005300000000000304,0.9931378875803298,0.9988337629715527,double,-0.9077620000000001
107,0.891667,walk,0.0026397888169039643,-0.008039356851451851,0.0,0.026270394673424558,-0.020672754987907684,0.03774397318666405,-0.00011999040077138965,0.0,-0.00035997120230417775,0.0,0.0,-0.00011999040076805925,0.31674931808303086,-0.1870767507899502,0.12959481662096933,0.07199884813711487,-0.04319827220733948,0.014404607447024119,0.04319827220698978,-0.057597696276469296,-0.0575959684837546,0.15542499999999992,0.009958,-0.907765,-0.15249500000000005,-0.0267,-0.908293,0.30791999999999997,0.036657999999999996,0.0005279999999999729,0.9940875950603592,0.9998000159987199,double,-0.907765
108,0.9,walk,0.0007200288011461016,-0.006840273610944484,0.0032401296051841034,-0.02617307010607384,-0.017402413774828464,0.026684983653173712,0.002520100804038002,0.0039601584063362425,0.0033601344053762307,0.0,-0.0001200048001921272,0.0001200048001921272,-0.23038041710762688,0.14389574469067104,0.3888311058663254,0.31682361752182653,0.47523801828107837,0.4464305301428529,0.0,-0.014401152069137968,0.028800576138267784,0.15544000000000002,0.010048000000000001,-0.907764,-0.152501,-0.026644,-0.9083190000000001,0.307941,0.036692,0.0005550000000000832,0.9848288043755262,0.999717145973364,double,-0.907764
109,0.908333,walk,0.0008400336013415707,-0.007920316812672589,0.004320172806903313,-0.03500370957887956,-0.025316853977445986,0.03351535206212893,0.002400096003842576,0.002640105604224127,0.002880115204608593,-0.00024000960037759599,-0.00036001440057597004,0.0001200048001921288,0.014401152069539215,-0.12961036862211867,0.1296103686210512,-0.014401152069534023,-0.15841267276036572,-0.05760460827644811,-0.02880230413747728,-0.028802304138226934,1.9191146098837557e-16,0.15545300000000006,0.010136,-0.9077759999999999,-0.15250999999999992,-0.026581,-0.908354,0.307963,0.036717,0.0005780000000000785,0.9865777050383819,0.9992516385881944,double,-0.9077759999999999
110,0.916667,walk,0.00035997120230084253,-0.008639308855291513,0.0007199424046150068,-0.009475456206367453,-0.018820068449923545,0.042983197026659696,-0.0037197024238064566,-0.0037197024238060403,-0.004919606431485368,0.0008399328053730732,0.000239980801535699,0.0,-0.057602879654514584,-0.08627214334280278,-0.43199308882748727,-0.7343170659526022,-0.7631159140904871,-0.9358917249932688,0.12958272207231353,0.07199366476021891,-0.014399424069129816,0.15541900000000008,0.010177,-0.907823,-0.15250599999999992,-0.026507000000000003,-0.9083600000000001,0.307925,0.036684,0.0005370000000000097,0.9826259613643236,0.9985440944945885,double,-0.907823
111,0.925,walk,0.0008400336013548828,-0.007680307212288438,0.0006000240009506435,0.012538272273472584,-0.0022769739996668053,0.025352434838415917,-0.0018000720028785772,-0.002520100804032173,-0.0030001200048006818,0.0002400096003775928,0.0002400096003842544,0.0006000240009598033,0.05760979227817572,0.11508480055239066,-0.01439078407108637,0.2303648651059488,0.14395795269097114,0.23034758510556563,-0.07199366434603119,3.456000066650757e-06,0.07200576034558992,0.155397,0.01022,-0.9078529999999999,-0.15251100000000006,-0.026441,-0.90836,0.30790800000000007,0.036661,0.0005070000000000352,0.987743614855306,0.9988510415123568,double,-0.9078529999999999
112,0.933333,walk,0.00024000960037759599,-0.006960278411136496,0.0004800192007685152,0.004026448250914759,0.009596310881039816,0.032516564094375595,0.0,-0.0002400096003840494,-0.00036001440057555366,0.0004800192007685152,0.00036001440057597004,-0.0001200048001921288,-0.07200576034768899,0.08640691241473039,-0.014401152067938251,0.2160172810366727,0.27362188931334985,0.3168253455208391,0.028802304139076515,0.014401152069088773,-0.08640691241472923,0.15539500000000006,0.010276,-0.90786,-0.152509,-0.02638,-0.908365,0.30790400000000007,0.036656,0.0005049999999999777,0.9942288608993437,0.9989801553034929,double,-0.90786
113,0.941667,walk,0.0007199424046150068,-0.00935925125989913,0.001799856011530856,-0.05773057491787868,-0.01881324657498966,0.024712355765620895,0.00011999040075806644,0.0014398848092152348,-0.00011999040076805765,0.0,-0.00035997120230375665,0.0007199424046083459,0.057587329522127084,-0.2878537135544296,0.15836774787164995,0.014397696275265843,0.20157120345563612,0.028800575930824836,-0.05759769627651926,-0.0863913610366836,0.10078560172791795,0.15538999999999992,0.010366,-0.907876,-0.15251500000000007,-0.026305,-0.908374,0.307905,0.036670999999999995,0.0004979999999999984,0.992603584118553,0.9986584665361762,double,-0.907876
114,0.95,walk,0.002640105604220172,-0.009600384015360727,-0.0038401536061481215,0.011795000984382338,0.027114936162378832,0.010150355482770249,0.001560062402501005,0.0007200288011521483,0.0012000480019196224,-0.0001200048001954596,-0.0002400096003842576,0.00024000960038342487,0.23042880110466613,-0.028937088138917325,-0.6768282272505735,0.17281555283126745,-0.08638617641462776,0.15841094476031348,-0.014401152069538065,0.01439596806906278,-0.057594240276602114,0.155381,0.010452,-0.907834,-0.15253800000000006,-0.026227,-0.90834,0.30791900000000005,0.036679,0.0005060000000000064,0.9914470104410973,0.9993999759990384,double,-0.907834
115,0.958333,walk,-0.000240009600390916,-0.013920556822272806,0.0007200288011461016,-0.08738229343927487,-0.007462311610486691,0.014088854525786672,-0.002040081603269493,-0.0001200048001921272,-0.0012000480019196066,0.0006000240009639668,0.0004800192007680924,0.0008400336013440577,-0.3456276496593155,-0.5184414744884269,0.5472437786264496,-0.43203456207494095,-0.100808064483892,-0.2880230413823616,0.08640691241562744,0.08640691241477823,0.07200576034568947,0.155366,0.010567,-0.9078499999999999,-0.15253099999999997,-0.026107,-0.908339,0.307897,0.036674,0.0004890000000000727,0.9911601584747054,0.9981025575061957,double,-0.9078499999999999
116,0.966667,walk,-0.00035997120230084253,-0.008999280057595373,0.0014398848092166917,-0.049557701910864414,-0.01691004633670442,0.020947326345187464,0.0011999040076872372,-0.000239980801535699,0.0007199424046075133,-0.0010799136069158492,-0.000239980801535699,0.0007199424046075133,-0.014394240689935878,0.5905059712835847,0.08637581090359787,0.3887671719410494,-0.014395968483749806,0.23038041834978465,-0.2015763868346296,-0.08639308882934796,-0.014409790825119206,0.15537900000000004,0.01064,-0.907856,-0.15253700000000003,-0.026033999999999998,-0.908345,0.3079160000000001,0.036674,0.0004889999999999617,0.9927437573861583,0.9978001759859153,double,-0.907856
117,0.975,walk,-0.0037201488059526618,-0.014640585623425037,0.002880115204611091,-0.14877969128584487,0.007505173259979557,-0.024964972946868384,-0.0002400096003909192,-0.0003600144005761782,0.0,0.0002400096003909192,-0.0002400096003842576,0.0007200288011527728,-0.40323744193589944,-0.6769837472494558,0.1728345608297627,-0.1727965448311736,-0.014404608069180405,-0.08639654441467898,0.15839712076164414,-3.456000067034626e-06,1.0368000151141843e-05,0.155408,0.010759,-0.90788,-0.15250399999999997,-0.025914,-0.908363,0.30791199999999996,0.036673,0.0004830000000000112,0.9944488608993366,0.9986732970157337,double,-0.90788
118,0.983333,walk,-0.0015600624024876611,-0.011520460818432656,0.0016800672026831191,-0.07198851145178116,-0.014116359175092562,0.010503838557702008,-0.0008400336013415596,0.00132005280211215,0.0006000240009598033,-0.000240009600390916,0.0001200048001921272,0.0003600144005755489,0.25922073724528877,0.3744299537972359,-0.1440115206921837,-0.07200576034449033,0.20161612896775727,0.07200576034558992,-0.05760460827815111,0.043203456207414295,-0.043203456207514986,0.15541399999999994,0.010866,-0.907889,-0.1524930000000001,-0.025817,-0.908374,0.30790700000000004,0.036683,0.0004850000000000687,0.9923570402728592,0.9992516385881831,double,-0.907889
119,0.991667,walk,0.000479961603072237,-0.01607871370290391,0.0035997120230484383,-0.049060541288947435,-0.02152283663390672,-0.005081130996841861,-0.0002399808015294577,0.0,-0.0005999520038394636,-0.001079913606902542,0.0011999040076793436,0.003479721622270388,0.2447832980033489,-0.5469465904093208,0.23033895132773338,0.07200057593137812,-0.15839366476027808,-0.14398560172777464,-0.10078041834792785,0.1295775386953711,0.374334919809798,0.155408,0.011,-0.9079240000000001,-0.15250600000000003,-0.025673,-0.908375,0.307914,0.036673,0.0004509999999999792,0.9944130531943218,0.9936067645135845,double,-0.9079240000000001
120,1.0,walk,-0.000240009600390916,-0.009360374414976553,0.0008400336013415596,-0.024199863043132926,-0.01689477026134859,0.01493493727974624,0.0004800192007685088,-0.0007200288011521386,0.0,-0.000120004800195458,0.0,-0.00048001920076767607,-0.08640000041559463,0.8062329638698343,-0.33117465759112774,0.08640345641401218,-0.08640691241475286,0.07199712034554916,0.11519366455143165,-0.14399424069114827,-0.4751879062808169,0.15541400000000005,0.011071999999999999,-0.907931,-0.152505,-0.025595,-0.908386,0.30791900000000005,0.036667,0.0004549999999999832,0.9940077217986858,0.9991753458887112,double,-0.907931
121,1.008333,walk,-0.0007200288011461112,-0.01176047041881686,0.0,-0.013435830755326105,-0.010042841387147002,-0.0017744892794889354,0.00024000960037759599,0.0006000240009602277,-0.00048001920076768247,0.0004800192007685152,0.00036001440057597004,0.0013200528021117513,-0.05760460827495494,-0.28802304138249485,-0.10080806448356741,-0.028802304139075363,0.1584126727603958,-0.05760460827645348,0.07200576034609128,0.04320345620736509,0.21601728103677473,0.15542199999999995,0.011175000000000001,-0.907935,-0.15249500000000005,-0.025494000000000003,-0.908375,0.307917,0.036669,0.00043999999999999595,0.9942583055457253,0.9975832941370468,double,-0.907935
122,1.016667,walk,-0.0014398848092166917,-0.011039116870650272,-0.0017998560115175344,0.009136544832503861,0.0004295381872032821,-0.008903731696137463,-0.0005999520038436186,-0.0004799616030718143,0.00011999040076722505,-0.0004799616030722306,0.00011999040076805765,-0.0002399808015361153,-0.08637581090359671,0.08655550133988268,-0.21596544414657076,-0.10078732952018336,-0.12958790545140794,0.07199539255278413,-0.11518848138237801,-0.028800575930874796,-0.18718905731315752,0.15542899999999993,0.011263,-0.907919,-0.15248700000000004,-0.025401,-0.908362,0.30791599999999997,0.036664,0.0004429999999999712,0.99427395554387,0.9990835581763537,double,-0.907919
123,1.025,walk,-0.00312012480500201,-0.012480499219968903,0.005280211208440344,-0.07605813076572533,-0.028689356150198526,-0.012643440282286006,0.0012000480019279496,-0.0001200048001921288,-0.00024000960038342487,0.0004800192007685152,0.00036001440057597004,-0.0001200048001921288,-0.2016368649688388,-0.17297280083027053,0.8496420520770362,0.21600864103823167,0.04319654420733095,-0.04320172820720667,0.11520230455307266,0.02880403213823528,0.014397696069121276,0.15546500000000008,0.011366,-0.907965,-0.15245699999999995,-0.025294,-0.908407,0.30792200000000003,0.03666,0.00044199999999994244,0.9935305278679101,0.9989801553034929,double,-0.907965
124,1.033333,walk,-0.006360254410172664,-0.015480619224768693,0.004080163206525609,-0.08445468015928681,-0.037178901861216064,0.009412182407727995,0.0013200528021100508,0.000240009600384043,0.0007200288011519209,0.0004800192007685024,-0.00012000480019170925,0.000600024000960628,-0.38883110586470626,-0.36002880172803753,-0.14401152069059334,0.01440115206793462,0.043203456207388156,0.11520921655290159,-1.5352916879069637e-15,-0.05760460827645157,0.08640691241482588,0.15552900000000003,0.011497,-0.9079929999999999,-0.15239999999999998,-0.025165999999999997,-0.9084359999999999,0.307929,0.036663,0.0004429999999999712,0.9930321829792323,0.9987038000123177,double,-0.9079929999999999
125,1.041667,walk,-0.00287976961843346,-0.012958963282937615,0.00287976961843346,-0.03165911864996447,-0.025806313411351103,-0.008484436553554225,0.0005999520038436347,-0.0008399328053755933,0.00035997120230334996,-0.00011999040077139125,0.0004799616030714108,0.0004799616030714108,0.4176247650275102,0.30257450705917033,-0.1440357077144434,-0.0864051833773014,-0.12958272207339297,-0.0432034555853825,-0.07199539255338433,0.07199020917484178,-0.014406335239887144,0.15555800000000009,0.011597999999999999,-0.908014,-0.15237699999999998,-0.025054,-0.9084559999999999,0.30793500000000007,0.036652000000000004,0.00044199999999994244,0.9937580590394446,0.9988511793763422,double,-0.908014
126,1.05,walk,-0.0009600384015370048,-0.012480499219968572,-0.008280331213246674,0.12247856322261964,0.01526675793179412,-0.015537536765244943,0.0019200768030606863,-0.0006000240009600035,0.0012000480019204232,0.0009600384015370048,-0.00012000480019170925,0.0,0.23037696110601483,0.05741798427565516,-1.3392656704284098,0.15842131275855378,0.028790208138195807,0.10081324848398639,0.12960864062263014,-0.07199884834550696,-0.05759769627641934,0.155582,0.011696999999999999,-0.9079349999999999,-0.15236099999999997,-0.024950999999999997,-0.908387,0.30794299999999997,0.036648,0.00045200000000000795,0.99157599958081,0.9983874839496968,double,-0.9079349999999999
127,1.058333,walk,-0.0030001200047932272,-0.007920316812672589,-0.0014400576023055455,0.027708838461051433,0.011321469560545383,-0.03605938163184974,0.0006000240009639748,-0.0006000240009600194,-0.0006000240009598112,0.0,-0.0001200048001921288,-0.0006000240009598112,-0.2448195851741559,0.5472437786266681,0.8208656679396605,-0.15841267275851717,-1.9126091366299123e-15,-0.2160172810368716,-0.11520921655310375,-5.0347483879806294e-14,-0.07200576034559183,0.15561199999999997,0.011758,-0.907928,-0.15233600000000003,-0.024886,-0.90838,0.307948,0.036643999999999996,0.00045200000000000795,0.9937478799076238,0.9989801553034939,double,-0.907928
128,1.066667,walk,-0.0037197024238064566,-0.015118790496760121,0.0027597792176619956,-0.10498342270274687,-0.06131850873284218,-0.05198378600352355,0.0007199424046150068,-0.0001199904007678495,0.0011999040076789112,-0.00011999040077138805,0.000239980801535699,0.0,-0.08634298284295942,-0.8637477422711155,0.5039401031878461,0.014389057313538645,0.05759942406913442,0.21597408310999625,-0.014397696276864307,0.04319481662200924,0.07199712034554916,0.15564900000000004,0.011883000000000001,-0.907941,-0.15230600000000005,-0.024758000000000002,-0.908403,0.3079550000000001,0.036641,0.00046199999999996244,0.9930392472780682,0.9995528221787234,double,-0.907941
129,1.075,walk,-0.003600144005757202,-0.011640465618624887,0.0009600384015370304,-0.039358624932383054,-0.026422516705346778,-0.040160506126575644,0.0019200768030607374,-0.0028801152046081767,-0.0015600624024960088,-0.00024000960037759599,-0.0012000480019200388,-0.0007200288011519401,0.014347584069273452,0.4174156820035121,-0.21597753703647926,0.14402188868903656,-0.3312282255898659,-0.331209217589697,-0.014402880067947802,-0.17281036882944328,-0.08640691241473018,0.15569499999999992,0.011956000000000001,-0.9079619999999999,-0.15227800000000002,-0.024671000000000002,-0.908417,0.30797299999999994,0.036627,0.0004550000000000942,0.9891220300733901,0.9976334734256991,double,-0.9079619999999999
130,1.083333,walk,-0.005880235209417485,-0.013920556822272622,0.0019200768030740096,-0.06463475868888593,-0.04388002672856568,-0.06271469001233117,0.0010800432017324612,-0.0003600144005761686,0.002280091203647888,-0.0009600384015370048,-0.00036001440057596045,0.0013200528021117162,-0.2736218893148018,-0.273621889313296,0.11520921655309761,-0.10080806448197066,0.30242419345157373,0.46083686621190806,-0.08640691241562418,0.10080806448386698,0.24481958517504143,0.15575300000000003,0.012069,-0.907959,-0.15223699999999996,-0.024558,-0.908422,0.30799,0.036627,0.0004629999999999912,0.9911224779827975,0.9972142109129993,double,-0.907959
131,1.091667,walk,-0.0007199424046017042,-0.02267818574514081,0.02579793616510311,-0.2595038187545485,-0.21048416388175328,-0.05859410698612485,0.002519798416132608,-0.0008399328053755933,0.0004799616030722434,-0.0004799616030722434,-0.0008399328053755933,-0.001079913606911715,0.6191856017297671,-1.050831404231864,2.8651139143304,0.17275680518360623,-0.05758560172779383,-0.21599827220730491,0.05760460744717669,-0.05758560172781881,-0.28797293124831735,0.15578000000000003,0.012251,-0.9081699999999999,-0.152235,-0.024376000000000002,-0.908646,0.30801500000000004,0.036627,0.00047600000000003195,0.9907414711306194,0.997583584118551,double,-0.9081699999999999
132,1.1,walk,-0.00840033601344213,-0.01368054722188863,0.01008040321613855,-0.1895559774571223,-0.06835062456879164,-0.05932067279603294,0.006120244809781752,-0.00012000480019191742,-0.0007200288011519209,-0.0009600384015370048,-0.0001200048001921256,0.0,-0.921684100424852,1.07975981318277,-1.886179401051756,0.4320708500718925,0.08639481641469618,-0.14400460869124485,-0.057611520276581424,0.0863948164146712,0.1295948166220684,0.15590099999999996,0.012364,-0.9082600000000001,-0.152173,-0.024263,-0.90873,0.30807399999999996,0.036627,0.00046999999999997044,0.985027296261151,0.9983874839496967,double,-0.9082600000000001
133,1.108333,walk,-0.006720268810745889,-0.02124084963398556,0.00024000960037759599,-0.11065518637860518,-0.021711236855451847,-0.0898443698410157,0.0,-0.004560182407296314,0.0034801392055675714,-0.0012000480019146262,-0.0012000480019200388,0.000600024000960644,0.20161612896870953,-0.9072725803548541,-1.180894469670112,-0.7344587555240378,-0.5328426265575948,0.5040403224192405,-0.028802304137480333,-0.12961036862209566,0.07200576034569177,0.1559569999999999,0.012503,-0.908233,-0.152127,-0.024096,-0.908727,0.3080839999999999,0.036599,0.0004939999999999944,0.9854992828491409,0.9969998799952056,double,-0.908233
134,1.116667,walk,-0.013678905687551911,-0.018838492920566212,0.0011999040076739157,0.04962654468381382,-0.049976354231807164,-0.13339780435071147,0.00311975041997616,-0.0013198944084473853,0.0013198944084478015,-0.0008399328053730732,-0.0007199424046075133,-0.0004799616030722306,-0.8349696276465045,0.28825974483073324,0.11517811462638737,0.3743401031888812,0.3888034555854216,-0.25920863896325336,0.04321036675564558,0.05760806303246002,-0.12958790545150783,0.15609700000000004,0.012649,-0.9082319999999999,-0.15201999999999993,-0.023945,-0.9087409999999999,0.308117,0.036594,0.0005089999999999817,0.9888507817744265,0.9979901856609257,double,-0.9082319999999999
135,1.125,walk,-0.013080523220932045,-0.004440177607104342,-0.020760830433214965,0.07218103665971524,0.13372031598233156,-0.052920292524858206,0.004920196807867288,0.0013200528021121676,-0.0019200768030723952,-0.00108004320173249,-0.0010800432017279101,0.0004800192007685152,0.07180876834511835,1.727866952293532,-2.6353935486486355,0.21606220903529874,0.31680633752065007,-0.3888120978663418,-0.02881440013913585,-0.04321382420741631,0.11520230455307266,0.15624700000000002,0.012697,-0.908075,-0.15191999999999994,-0.023916999999999997,-0.9085639999999999,0.30816699999999997,0.036614,0.0004889999999999617,0.98603660008624,0.9973315604495877,double,-0.908075
136,1.133333,walk,-0.008040321612855976,-0.006840273610944471,-0.01068042721708947,-0.025696719428345186,0.09458458241197473,-0.07585510210793338,0.0009600384015370304,-0.0012000480019200388,0.0012000480019204553,-0.0014400576023055455,-0.0008400336013440688,0.00048001920076768247,0.6048483869046101,-0.2880230413824735,1.2096967738060227,-0.4752380182803665,-0.3024241934516056,0.3744299537972974,-0.04320345620701534,0.028802304138226747,-9.9930574652286e-14,0.15632199999999996,0.012744,-0.907976,-0.15186500000000003,-0.023867,-0.9084709999999999,0.308187,0.036611,0.0004949999999999122,0.9918002546483304,0.9971085178817531,double,-0.907976
137,1.141667,walk,-0.008039356851456533,-0.010079193664506799,-0.006599472042226519,-0.048567695632156016,0.023266606886918083,-0.05780296790533542,0.0009599232061444612,-0.0013198944084473853,-0.0003599712023041729,-0.00035997120230084253,-0.0013198944084473853,-0.00035997120230334037,0.0001157621069645571,-0.38863931528225376,0.4896754469477947,-1.3822341320994732e-05,-0.014380418349813493,-0.1871873295205923,0.12960000000056332,-0.05757869055715297,-0.10079078510571352,0.156397,0.012817,-0.9079240000000001,-0.15180099999999996,-0.023794,-0.9084190000000001,0.30819799999999997,0.036611,0.0004950000000000232,0.9922645451809476,0.9976422233976192,double,-0.9079240000000001
138,1.15,walk,-0.007920316812673838,-0.012120484819392882,-0.0018000720028919243,-0.0655627878495261,0.014187281944764088,-0.08053007107896895,0.0006000240009639748,-0.0010800432017281183,0.0003600144005763864,-0.00108004320173249,-0.0007200288011519401,0.0006000240009598112,0.014285376068966274,-0.24496473717581932,0.575951042761867,-0.04318963220694704,0.028783296138157836,0.0864017284148045,-0.08641209641565512,0.07198675234554791,0.11520403255288136,0.15646800000000005,0.012909,-0.907906,-0.151744,-0.023698999999999998,-0.908399,0.30821200000000004,0.036608,0.0004929999999999657,0.9929251531471699,0.9976166296076163,double,-0.907906
139,1.158333,walk,-0.013680547221882333,-0.009000360014400416,0.0015600624025009636,-0.03844474666172005,0.00578118171040496,-0.07472942198709531,-0.00684027361095449,-0.0028801152046081,-0.009240369614784512,-0.0009600384015370048,-0.0018000720028802186,0.0004800192007676697,-0.69125529931698,0.37442995379724137,0.403232257937457,-0.8928714282873317,-0.21601728103683548,-1.1520921655299088,0.014401152069540757,-0.12961036862213604,-0.0144011520691395,0.15652499999999991,0.01296,-0.907996,-0.15163800000000005,-0.023639,-0.908408,0.30816299999999996,0.036599,0.00041199999999996795,0.976126741669455,0.9965070104411022,double,-0.907996
140,1.166667,walk,-0.010319174466046572,-0.011999040076794065,0.0017998560115175823,-0.043903565266815964,-0.03857489554721763,-0.06929080498585784,0.0011999040076872693,-0.001559875209983334,-0.0003599712023041825,-0.001079913606915878,0.00011999040076806085,0.0011999040076797758,0.4033324641031708,-0.35981282246144786,0.028772931247494988,0.9647441347062531,0.15841612606488975,1.0655625644925004,-0.014383873935550223,0.23038905731321285,0.08637926648813532,0.156621,0.013047,-0.908014,-0.15156100000000006,-0.023538,-0.908413,0.30818200000000007,0.036585,0.0003990000000000382,0.9926756003518571,0.9973020683218824,double,-0.908014
141,1.175,walk,-0.006720268810759033,-0.03360134405376157,0.02028081123244591,-0.2487279261183653,-0.13527684147090138,-0.16815675439840827,0.0004800192007685024,-0.00144005760230405,-0.0002400096003834185,-0.0016800672026830968,-0.0006000240009602116,0.0,0.4318859540726599,-2.5923801724429527,2.2178033386449063,-0.08638963241554713,0.014378688069036588,0.014395968069214199,-0.07202131234455877,-0.08640518441476777,-0.14399424069119823,0.15668100000000007,0.013314999999999999,-0.9081849999999999,-0.15151899999999996,-0.023263,-0.908582,0.30820000000000003,0.036578,0.0003970000000000917,0.9934686478509409,0.9970266673172368,double,-0.9081849999999999
142,1.183333,walk,-0.01056042241689401,-0.015000600024001111,0.009120364814601788,-0.07149407518663495,-0.06527981247368952,-0.07156256789350925,0.0008400336013415707,-0.0006000240009600194,0.0007200288011519401,-0.0009600384015370304,0.0001200048001921288,0.002280091203647949,-0.4608368662108499,2.232178570714104,-1.339307142427004,0.04320345620701688,0.10080806448386395,0.11520921655290621,0.08640691241402532,0.08640691241477823,0.2736218893133289,0.15677600000000003,0.013434999999999999,-0.908255,-0.151439,-0.023136999999999998,-0.908639,0.308215,0.036572,0.00038399999999993994,0.9940622983955985,0.9958718813871451,double,-0.908255
143,1.191667,walk,-0.011399088072948824,-0.015478761699063955,0.007319414446841525,-0.04848284203466599,-0.08185984799567597,-0.06324503434400511,0.0002399808015294545,-0.0013198944084471772,-0.000839932805375571,0.0,-0.00035997120230375665,-0.0007199424046075133,-0.10063182818032243,-0.05737481102265899,-0.21609675639071857,-0.07200057593137889,-0.08637753869536265,-0.1871804183498319,0.11519539255303853,-0.05759251289847394,-0.35997523497185496,0.15687299999999993,0.013553,-0.908323,-0.15134400000000003,-0.023010999999999997,-0.908706,0.30821699999999996,0.036564,0.0003830000000000222,0.9935320298459596,0.9986584665361775,double,-0.908323
144,1.2,walk,-0.0116404656186265,-0.016800672026881222,0.02028081123244645,-0.22256825840867742,-0.094013887002148,-0.08548366075226402,-0.0003600144005730556,0.0,0.0013200528021117513,0.0012000480019279496,-0.0007200288011523564,-0.0008400336013440688,-0.028966464139886964,-0.15863558476146397,1.5554298314658639,-0.07200230434447566,0.15839366476025313,0.2592086412441308,0.14401152069218295,-0.04320864020744067,-0.014411520069189566,0.15696699999999997,0.013693,-0.908481,-0.15123699999999995,-0.022877,-0.908882,0.3082039999999999,0.036570000000000005,0.0004009999999999847,0.9937095579321209,0.9972795970821263,double,-0.908481
145,1.208333,walk,-0.023640945637825428,-0.0130805232209286,-0.004800192007671701,0.05145289449934449,0.013563359118547256,-0.10522116529219248,-0.0002400096003775896,-0.0014400576023042581,-0.0006000240009597953,0.00012000480018213318,-0.00036001440057596045,-0.000960038401536172,-1.4401152069121226,0.44643571414287253,-3.009840782445423,0.014401152069538452,-0.17281382482950114,-0.2304184331059058,-0.12961036862424066,0.04320345620741506,-0.014401152069134894,0.15716200000000002,0.013789999999999998,-0.9084460000000001,-0.15103900000000003,-0.022771,-0.90885,0.30820100000000006,0.036560999999999996,0.00040399999999995995,0.9933293054846277,0.9982794661252383,double,-0.9084460000000001
146,1.216667,walk,-0.00851931845452899,-0.021958243340533177,0.013678905687538954,-0.22785594204545528,-0.1255755663089476,-0.1135739102601502,0.0005999520038303131,-0.00035997120230376624,0.0,0.0004799616030722434,-0.00047996160307182706,0.00011999040076806085,1.814450105987128,-1.065241195056965,2.2173143382782587,0.10078732951858875,0.1296000000000615,0.07199712034554916,0.04319136103793102,-0.01439251289847239,0.12959308882940404,0.157238,0.01397,-0.90856,-0.150964,-0.022592,-0.908963,0.308202,0.036562,0.0004029999999999312,0.9948039029088117,0.9988511793763416,double,-0.90856
147,1.225,walk,-0.021480859234360505,-0.01008040321612848,0.011040441617662232,-0.06205204930587662,-0.11260208899665712,0.003937088725590998,-0.000360014400573046,-0.00048001920076787784,0.0004800192007676697,-0.0010800432017191379,-0.00024000960038383484,0.0001200048001921256,-1.555447111464213,1.4253978308417723,-0.31662835351934193,-0.11520057655146314,-0.014406336069135906,0.05760460827645041,-0.1872080648975584,0.028795392138244093,1.72800000777023e-06,0.15741399999999994,0.01405,-0.908648,-0.15079399999999998,-0.02251,-0.909054,0.3082079999999999,0.03656,0.00040600000000001746,0.9946593239254733,0.9981452021089997,double,-0.908648
148,1.233333,walk,-0.038641545661832165,-0.0037201488059522714,-0.017040681627262303,0.16363767201497567,0.07556029732374298,0.01337738585076947,-0.0009600384015370304,-0.0004800192007680988,0.0001200048001921288,0.00024000960037759599,0.0,0.00036001440057555366,-2.0593647458864535,0.7632610596635385,-3.369869584174342,-0.07200576034609261,-2.6516308982665046e-14,-0.04320345620731359,0.15841267275851983,0.028802304138225973,0.028802304138177155,0.15772799999999998,0.014077000000000001,-0.908505,-0.15047,-0.022479,-0.908909,0.30819799999999997,0.036556,0.00040399999999995995,0.9941599279971183,0.9992788608993497,double,-0.908505
149,1.241667,walk,0.0355171586273051,-0.03659707223422098,-0.024718022558199895,0.01672330210326131,0.2642894090778461,-0.2934974212810149,0.0003599712023141642,0.0,0.0003599712023041729,-0.0004799616030722306,-0.0007199424046075133,-0.00035997120230334037,8.898332648084557,-3.944915218174761,-0.9212072151352932,0.15838848138363146,0.057597696276469296,0.028793664760264254,-0.08638963324331907,-0.08638617765868824,-0.0863913610365837,0.1574350000000001,0.014382,-0.908296,-0.15076999999999996,-0.02218,-0.908706,0.30820500000000006,0.036562,0.00041000000000002146,0.9950515397393844,0.9984380750188172,double,-0.908296
150,1.25,walk,-0.006600264010550429,-0.0148805952238091,-0.005160206408258207,-0.06826401275231267,0.04551710638253974,-0.09505077599848806,-0.0007200288011594343,0.0,-0.0002400096003842576,-0.0009600384015370304,-0.0006000240009602277,0.00036001440057555366,-5.05429288825824,2.6060814845088296,2.347031819265795,-0.12960518462421797,0.0,-0.07200057634566615,-0.057611520276587565,0.014390784069037169,0.08640172841460465,0.15748399999999996,0.014506,-0.9082549999999999,-0.15072300000000005,-0.022061,-0.9086599999999999,0.308207,0.036567,0.0004049999999999887,0.9946850383374544,0.998020021813549,double,-0.9082549999999999
151,1.258333,walk,0.02292091683666662,-0.021480859234369567,-0.03528141125643924,0.14859254638360045,0.23191941206969396,-0.26612587630236345,0.0002400096003909192,0.0004800192007680988,-0.0001200048001921288,-0.0003600144005730556,-0.0001200048001921288,0.0,3.542683409002439,-0.7920633638018154,-3.6146891693485306,0.11520921655470566,0.05760460827650344,0.014401152069138353,0.07200576034609148,0.05760460827650345,-0.043203456207315125,0.15729500000000007,0.014689,-0.907962,-0.15091699999999997,-0.021883,-0.908366,0.30821200000000004,0.036572,0.00040399999999995995,0.9950434481989316,0.9993675191687377,double,-0.907962
152,1.266667,walk,-0.01319894408446636,-0.006959443244540384,0.0011999040076739157,0.005683918044282972,-0.016849627478536775,-0.0282689768718785,-0.0013198944084586253,-0.0007199424046077215,-0.00011999040076805765,0.0002399808015294545,-0.00035997120230375665,-0.00035997120230334037,-4.3340365876089155,1.7424305243375418,4.377407639082419,-0.1871735071813694,-0.14398387393518253,1.7277926651243414e-06,0.07199366475911995,-0.028793664760214305,-0.04319308882929417,0.15739399999999992,0.014741,-0.907973,-0.15080500000000008,-0.021828,-0.908379,0.308199,0.036569000000000004,0.00040600000000001746,0.9934262400827816,0.9990619918886894,double,-0.907973
153,1.275,walk,-0.01368054722189602,-0.020040801632065466,0.03744149765990421,-0.16406388233709326,-0.26231042744655275,-0.024867347730716444,-0.0004800192007685152,0.0008400336013440688,0.0001200048001921288,-0.00024000960037759599,0.0,-0.0001200048001921288,-0.05779468827909092,-1.5698257995350058,4.34916520487587,0.10078905648507352,0.1872046088985725,0.028800576138268166,-0.05760115227493759,0.04319827220733949,0.028797120138151177,0.15750399999999998,0.014915,-0.908284,-0.15069299999999997,-0.021661,-0.9086919999999999,0.30819699999999994,0.036576,0.00040799999999996395,0.9942951273241654,0.9995527685152501,double,-0.908284
154,1.283333,walk,-0.011640465618626191,-0.00972038881555245,0.0010800432017324612,-0.01116050491956626,-0.03166759241195221,-0.014636102774971882,0.0008400336013548716,0.0,0.0003600144005763768,-0.0006000240009639587,-0.00036001440057596045,0.0,0.24481958517578223,1.238499077944658,-4.363549076943611,0.1584126727617141,-0.10080806448386585,0.028802304138274785,-0.04320345620861112,-0.043203456207362795,0.014401152069137968,0.15760800000000008,0.014996,-0.90829,-0.15060099999999998,-0.021583,-0.908701,0.30820900000000007,0.036579,0.0004109999999999392,0.9943667844501884,0.9988337629715442,double,-0.90829
155,1.291667,walk,-0.013318934485238102,-0.006359491240700865,0.004199664026878799,-0.03376146722121964,-0.02563116382990506,-0.017740157155175566,-0.001079913606915878,-0.0005999520038396798,0.0,-0.0009599232061444868,0.00011999040076806085,-0.0002399808015361217,-0.2014001519812747,0.4032754469464422,0.3743245530533234,-0.23037523497369644,-0.07198848138225236,-0.04319827220738944,-0.043184449865674934,0.05759596848380495,-0.028795392552930916,0.15771000000000002,0.015044,-0.908325,-0.15049800000000002,-0.021529,-0.908738,0.30820800000000004,0.036573,0.0004129999999999967,0.993811038688701,0.9983388081227649,double,-0.908325
156,1.3,walk,-0.015000600023992384,-0.0052802112084482464,0.0033601344053795167,-0.025695259906193924,-0.02647332148963655,-0.011771653159064218,-0.0008400336013415484,0.00012000480019191742,0.0002400096003834185,-0.0002400096003775896,-0.0007200288011519209,0.0001200048001921256,-0.20180793696798896,0.1295187846216968,-0.10074758448329146,0.028786752139004616,0.08639827241468674,0.028802304138175243,0.08639308841556277,-0.1008063364838554,0.04320000020739722,0.15782799999999997,0.015089,-0.908351,-0.15037500000000004,-0.021491,-0.908765,0.308203,0.03658,0.00041400000000002546,0.994390247364229,0.9987193239254739,double,-0.908351
157,1.308333,walk,-0.019560782431300338,-0.002880115204608211,-0.026761070442828067,0.1505748673618484,0.2124195226871422,-0.05022234994803541,0.0004800192007685152,-0.0008400336013440688,0.0002400096003842576,-0.00108004320173249,0.00024000960038384123,0.0001200048001921288,-0.5472437786281046,0.2880230413824622,-3.614689169351717,0.1584126727601195,-0.11520921655298152,1.0069496775961259e-13,-0.10080806448516838,0.11520921655295463,3.8382292197675113e-16,0.157995,0.015106,-0.908126,-0.15022100000000005,-0.021465,-0.9085409999999999,0.30821600000000005,0.036571,0.0004149999999999432,0.9941886087717667,0.9981452021089781,double,-0.908126
158,1.316667,walk,-0.010439164866817684,0.004799616030717505,-0.026757859371246882,0.13324899267853227,0.2193970413429375,-0.10027824590748638,-0.0005999520038436186,0.000839932805375571,-0.00035997120230334037,-0.0010799136069025276,-0.000839932805375571,-0.0005999520038394556,1.0945065472141329,0.9214940287167815,0.0003852977659209133,-0.12958617765924232,0.20157984241896174,-0.07199193696755381,1.5550135584639163e-05,-0.1295827220733626,-0.08638790545135336,0.15807700000000002,0.015073,-0.907906,-0.15014299999999992,-0.021512,-0.908323,0.30821999999999994,0.036585,0.0004170000000000007,0.9940080590394447,0.9975102192628722,double,-0.907906
159,1.325,walk,-0.02292091683666662,0.0009600384015360707,0.005280211208453667,-0.02349958790772248,-0.05198974919927438,0.02284791192055898,-0.0032401296051841467,-0.0016800672026881377,0.003000120004799889,-0.0007200288011594343,-0.0001200048001921288,-0.0001200048001921288,-1.4978701511879335,-0.46076774621162486,3.8447222584544387,-0.3168339855202871,-0.30241209745154585,0.4032270739353486,0.04318790420533981,0.08639481641467044,0.0575959682764108,0.15824099999999997,0.015051,-0.9079250000000001,-0.14995800000000004,-0.021521000000000002,-0.9083680000000001,0.308199,0.036572,0.0004429999999999712,0.9876956771530747,0.9987670678821094,double,-0.9079250000000001
160,1.333333,walk,-0.04872194887795636,-0.1052442097683889,0.013440537621504744,-0.9003692188466398,-0.3967667353038145,0.5675981333742051,0.0009600384015370048,0.0008400336013440465,-0.0038401536061438554,0.0002400096003909128,0.0001200048001921256,-0.0004800192007685024,-3.0962476948625093,-12.74501958117402,0.9792783406997403,0.5040403224194261,0.3024241934515949,-0.8208656679399525,0.11520921655470183,0.028802304138275555,-0.04320345620741237,0.158655,0.015934999999999998,-0.908069,-0.14954999999999996,-0.020643,-0.9084840000000001,0.30820499999999995,0.036578,0.0004150000000000542,0.9891058441137298,0.999083448198931,double,-0.908069
161,1.341667,walk,-0.019078473722105024,-0.003359731221502347,0.016798656107501874,-0.0717834320512201,-0.08303325889166842,0.08783970571160093,-0.0019198464122889736,-0.0017998560115190393,0.0038396928245737843,-0.0011999040076872693,0.00035997120230376624,0.0,3.5569324641051,12.22515941287359,0.40294198296102635,-0.34555853297648587,-0.31676141263056584,0.9215078510580496,-0.17277581090451277,0.028793664760216605,0.05759769627651926,0.158798,0.015948,-0.908177,-0.149401,-0.020612000000000002,-0.908624,0.308199,0.03656,0.0004469999999999752,0.9877717547631096,0.9979121057297469,double,-0.908177
162,1.35,walk,-0.018480739229567358,0.005760230409216278,0.015120604824201163,0.027896970206255433,-0.06706694741768601,0.08656376351327053,0.001800072002878553,0.002640105604224057,-0.003000120004799809,0.0,-0.0006000240009597953,-0.0001200048001921256,0.07173100834485245,1.094439173253146,-0.20137420896444036,0.4464080661427411,0.5328167065574245,-0.8208103719396944,0.14399424069209749,-0.11520403255292748,-0.014401152069137585,0.15896699999999997,0.015922,-0.908328,-0.14924700000000002,-0.020665,-0.9087510000000001,0.308214,0.036586999999999995,0.0004230000000000622,0.9884649148494957,0.9989801553034939,double,-0.908328
163,1.358333,walk,-0.008520340813637813,-0.02352094083763372,-0.017280691227653223,-0.07464941465805984,0.2420344465255918,0.03383020240902247,-0.0003600144005730556,0.001920076803072187,0.003000120004799889,-0.00024000960037759599,-0.0003600144005763864,-0.0006000240009598112,1.1952956217364257,-3.5138811048662264,-3.8883110586649083,-0.25922073724368516,-0.08640691241472176,0.7200576034561086,-0.02880230413747728,0.028802304138174858,-0.05760460827645386,0.15903500000000004,0.016134,-0.9081589999999999,-0.14917799999999992,-0.020472,-0.908612,0.30821299999999996,0.036606,0.0004530000000000367,0.9895031877714412,0.998767067882125,double,-0.9081589999999999
164,1.366667,walk,-0.01475881929445444,-0.037676985841132424,0.02435805135588573,-0.25295621251075767,0.1052574680466511,0.43018147792557815,0.00155987520998808,0.000839932805375571,0.0026397888168947707,0.00011999040075806644,0.00011999040076805765,-0.0002399808015352827,-0.7485575330953419,-1.6985895132587707,4.99624941007183,0.2303683238014304,-0.12960691117069928,-0.04323628364592219,0.04319654441272615,0.05759596848385414,0.04320172779271968,0.15917100000000006,0.016455,-0.9083399999999999,-0.14905400000000002,-0.020157,-0.908817,0.3082250000000001,0.036612,0.0004770000000000607,0.9899313673708094,0.9995101412401516,double,-0.9083399999999999
165,1.375,walk,-0.016200648025920732,-0.0018000720028801365,-0.0009600384015237072,-0.02583520515848863,0.018548504550696468,0.02770168537898389,-0.006840273610954672,-0.0024000960038400776,-0.0022800912036487816,0.0,0.0,-0.0012000480019204553,-0.17302636883070996,4.305401876665381,-3.0382923025812634,-1.0080581808403732,-0.388819009866276,-0.5904092188339851,-0.014399424067930822,-0.014399424069129816,-0.1152126725531239,0.15924899999999997,0.01645,-0.908351,-0.14891900000000002,-0.020142,-0.908819,0.308168,0.036592,0.00046800000000002395,0.9826545812240433,0.9979999199967993,double,-0.908351
166,1.383333,walk,-0.016080643225725274,0.0008400336013440688,-0.0001200048001954596,-0.026143953487437685,0.0182156367446512,0.02991988401162248,-0.0004800192007685152,-0.0007200288011521483,0.0008400336013440688,-0.0006000240009506516,-0.00024000960038384123,0.0001200048001921288,0.014401152069537928,0.31682534552072833,0.1008080644819699,0.7632610596647323,0.20161612896771205,0.3744299537972974,-0.07200576034449263,-0.02880230413822674,0.15841267276042198,0.15937899999999994,0.016437,-0.908343,-0.14878999999999998,-0.020151,-0.908817,0.3081689999999999,0.036587999999999996,0.00047399999999997444,0.9932499444735543,0.9989045110654466,double,-0.908343
167,1.391667,walk,-0.0157187425005989,0.0025197984161266867,-0.0013198944084453037,0.0016007796004290896,0.007525129469137373,0.004648507950951863,-0.0010799136069025276,0.00023998080153590716,-0.00035997120230334037,-0.0003599712023141642,0.0004799616030718143,-0.0003599712023041729,0.04342461304612085,0.20155565332164688,-0.1439752349711825,-0.0719815702104641,0.11519193696760836,-0.14398905731310296,0.02880403151385716,0.08638963324401848,-0.057592512898523886,0.159501,0.016418000000000002,-0.908335,-0.14866200000000007,-0.020168,-0.9088090000000001,0.3081630000000001,0.036586,0.00047400000000008546,0.9933210831703938,0.9988339029087889,double,-0.908335
168,1.4,walk,-0.013080523220932045,0.0018000720028801365,-0.003480139205575066,-0.014822579704754557,0.01034495457510941,-0.0006396474293970463,-0.0004800192007685152,0.0013200528021119595,0.00036001440057555366,-0.00012000480018213638,0.00024000960038384123,-0.0007200288011519401,0.3165989775191262,-0.0863706244145634,-0.2592397452453836,0.07199020834441593,0.12961382462211235,0.08640172841460465,0.028797120140649227,-0.028795392138242563,-0.04320864020734075,0.15960600000000003,0.016413999999999998,-0.908303,-0.14855399999999996,-0.020181,-0.908786,0.30816,0.036595,0.0004830000000000112,0.9927532941370467,0.9987193239254732,double,-0.908303
169,1.408333,walk,-0.014160566422650836,0.004920196807872231,-0.0031201248049886037,0.004692156635868448,0.017440878882450227,0.0014225048506753114,0.0,0.0,-0.0004800192007676697,0.0012000480019145944,0.00036001440057596045,-0.0014400576023038418,-0.1296103686209974,0.3744299537971967,0.04320345620862304,0.05760460827655187,-0.15841267276034277,-0.10080806448376438,0.15841267275851525,0.01440115206913682,-0.08640691241472329,0.15972399999999998,0.016373,-0.908281,-0.14842600000000006,-0.020219,-0.908772,0.30815000000000003,0.036592,0.0004910000000000192,0.9942899679987206,0.9968186780030088,double,-0.908281
170,1.416667,walk,-0.017998560115202466,0.002519798416126754,0.0011999040076739477,-0.015038088539258353,0.0026541864906526103,-0.0011977549530043858,-0.0008399328053730955,0.002639788816894841,0.001439884809215065,0.0002399808015427825,0.0011999040076793597,0.0004799616030714108,-0.4605224013140993,-0.28802476502826047,0.5183619885604313,-0.10078387393485859,0.3167493180819404,0.23037005159380505,-0.11519884813676867,0.10077869055716523,0.2303838739351199,0.1598670000000001,0.016374,-0.908279,-0.1482739999999999,-0.02023,-0.908778,0.308141,0.036604,0.0004990000000000272,0.9898065715417745,0.9978092850271754,double,-0.908279
171,1.425,walk,-0.015240609624383297,0.0022800912036480964,0.0012000480019279175,0.04460887215928855,0.02561993414557002,0.030863597535076764,0.0013200528021100508,0.0008400336013440465,0.003000120004800642,0.000720028801146092,0.00036001440057596045,-0.0008400336013440465,0.33096729759019805,-0.028766016138083925,1.7280001676432112e-05,0.25920864124362275,-0.215979265036693,0.1872357128987819,0.05760806427496713,-0.10079078448378549,-0.1584057607602825,0.16000500000000006,0.016362,-0.9082640000000001,-0.14814099999999997,-0.020246,-0.908795,0.30814600000000003,0.036608,0.0005309999999999482,0.989050625553074,0.9980608504910593,double,-0.9082640000000001
172,1.433333,walk,-0.010800432017271606,0.0060002400096004545,-0.004440177607112096,-0.008801744096612746,0.007259778241606744,-0.012364169412151791,0.001560062402487682,0.0006000240009600194,0.002040081603263691,0.0009600384015370304,0.0004800192007680988,-0.0009600384015361976,0.5328426265584701,0.44643571414285277,-0.6768541472506978,0.028802304137481492,-0.02880230413824905,-0.11520921655309727,0.02880230413907843,0.0144011520691395,-0.014401152069141028,0.16010799999999992,0.016317,-0.90821,-0.14804300000000004,-0.020292,-0.908766,0.30815099999999995,0.036609,0.0005560000000000009,0.990044371979721,0.9975999039961585,double,-0.90821
173,1.441667,walk,-0.014278857691382209,0.006359491240700681,0.0009599232061444612,0.028428464449660556,0.006670319647986338,0.015177314947976143,0.0022798176146030867,0.00023998080153590716,0.0027597792176628283,0.00011999040077138805,0.0007199424046075133,-0.000479961603071398,-0.4173776906780149,0.04310669919609114,0.6479602607699203,0.08636371635653939,-0.043201727792669724,0.08635680518348111,-0.10079769627617421,0.02878848138221894,0.05760460744717974,0.160246,0.016266,-0.908195,-0.14792300000000003,-0.020339000000000003,-0.908778,0.308169,0.036605,0.0005830000000000002,0.988190511803952,0.998544094494584,double,-0.908195
174,1.45,walk,-0.014400576023042132,0.006120244809792453,-0.0019200768030740608,-0.017118109800600207,-0.008892370223604014,0.012779943270237324,0.0009600384015237072,0.001920076803072187,0.0009600384015361976,-0.0003600144005730556,0.0001200048001921288,0.0007200288011519401,-0.014606784070553753,-0.028710720137793105,-0.34561382565925214,-0.15837984076315753,0.20161958496775415,-0.21597753703667913,-0.057602880276544824,-0.07199539234554063,0.14400460869114953,0.1603739999999999,0.016231000000000002,-0.908171,-0.147806,-0.020389,-0.908756,0.3081799999999999,0.03662,0.0005850000000000577,0.9902306596379407,0.998643479742567,double,-0.908171
175,1.458333,walk,-0.019920796831872863,0.009840393615744462,0.0012000480019279175,0.06856039154574907,0.03621438529787072,0.014118234461221672,0.0001200048001954564,0.0010800432017278813,0.001920076803072344,-0.0018000720028918764,-0.0001200048001921256,-0.0008400336013440465,-0.6624529951794833,0.4464357141427989,0.3744299537983828,-0.10080806448196761,-0.10080806448389427,0.11520921655299768,-0.17281382483124874,-0.028802304138275555,-0.18721497689859107,0.16054099999999993,0.016158,-0.908165,-0.1476550000000001,-0.020472,-0.908773,0.308196,0.03663,0.0006080000000000529,0.9902428976537356,0.9966832425393284,double,-0.908165
176,1.466667,walk,-0.012718982481407789,0.006959443244540569,-0.0002399808015427825,0.015110890941512776,0.003320782097584293,0.02476727752891173,-0.01151907847372052,-0.00047996160307161895,-0.010919126469882714,-0.0015598752099747998,0.0003599712023041825,0.0008399328053755933,0.8641485901686119,-0.345686389633303,-0.17278963324582763,-1.396578266608615,-0.18718560172780538,-1.5405811462629353,0.02882130944529412,0.05759251289852619,0.20157984241896712,0.160551,0.016096,-0.908254,-0.14756199999999997,-0.020527,-0.908764,0.30811299999999997,0.036623,0.0005100000000000104,0.9684347788550999,0.9969869372103712,double,-0.908254
177,1.475,walk,-0.014640585623419338,0.01200048001920055,0.0006000240009639587,0.06551796205851634,0.013296466162996616,0.012768926228324314,-0.007440297611905125,0.0020400816032640533,-0.0034801392055683117,-0.0014400576023055071,-0.0002400096003842512,-0.0002400096003842512,-0.2306016011054261,0.6049486109036233,0.1008046084851466,0.4894732823491328,0.3024172814515334,0.892714180284924,0.014378688067837578,-0.0720005763456646,-0.12959827262208395,0.16061099999999995,0.016013,-0.908288,-0.14745200000000003,-0.020629,-0.908771,0.308063,0.036642,0.0004830000000000112,0.9810641176186994,0.9975341357642405,double,-0.908288
178,1.483333,walk,-0.014040561622469076,0.016440657626305213,0.0016800672026831415,0.04623963651986619,0.014155128037344778,0.030017806059559147,0.008160326413051434,-0.0007200288011521483,0.003720148805951829,-0.0004800192007685152,0.0002400096003842576,-0.0008400336013440688,0.07200576034444585,0.5328426265576268,0.12961036862104797,1.8721497689855635,-0.3312264975898508,0.8640691241473907,0.1152092165531022,0.057604608276552643,-0.0720057603455926,0.16079599999999994,0.01587,-0.9082709999999999,-0.147339,-0.020763999999999998,-0.9087919999999999,0.30813499999999994,0.036634,0.0005209999999999937,0.9797947344712056,0.9983386087717667,double,-0.9082709999999999
179,1.491667,walk,-0.013318934485237747,0.009119270458363249,0.0052795776337945365,0.06966966072210716,-0.013445871566156871,0.03576243200644897,0.006839452843782617,0.0017998560115191995,0.006719462443004568,-0.0005999520038436186,0.000479961603071398,0.00011999040076805765,0.08658832940140676,-0.8784961804585923,0.4319066991974283,-0.15849214894034164,0.3023619885614745,0.3598888453386988,-0.014390785106203806,0.028791936967499227,0.11519366476027348,0.160964,0.015809,-0.908259,-0.14723300000000006,-0.020836,-0.9088350000000001,0.30819700000000005,0.036645000000000004,0.0005760000000000209,0.9779809194270916,0.9987039555438701,double,-0.908259
180,1.5,walk,-0.013080523220932045,0.027241089643585997,0.00972038881555244,-0.09773722218869896,-0.1091347925232653,0.12422530409548513,-0.0072002880115277276,-0.0002400096003840494,-0.006360254410176165,-0.0001200048001954596,-0.0009600384015357813,-0.00048001920076768247,0.028610496136529898,2.174705290438367,0.5329186585572956,-1.6848362960891003,-0.24479366517499912,-1.5696288075340037,0.05759596827651067,-0.17280691282937627,-0.0720040323455833,0.16101299999999996,0.01558,-0.908393,-0.14712500000000006,-0.021071,-0.90892,0.308138,0.036651,0.0005269999999999442,0.9787131175682768,0.9981999279971199,double,-0.908393
181,1.508333,walk,-0.00864034561381995,0.007920316812672584,-0.022200888035520512,0.12380968508724391,0.13188794048400843,-0.008425556655053965,-0.0004800192007685152,0.0009600384015359894,-0.0003600144005763864,-0.0003600144005730556,0.0006000240009598112,0.0001200048001921288,0.5328426265585187,-2.318585483128956,-3.830706450386805,0.8064645158717477,0.14401152069123363,0.7200576034561182,-0.028802304137477284,0.18721497689854874,0.07200576034559183,0.16108099999999992,0.015522,-0.908211,-0.14705600000000008,-0.021132,-0.908734,0.308137,0.036654,0.0005230000000000512,0.9928831282987203,0.9988167367128513,double,-0.908211
182,1.516667,walk,-0.010079193664516843,0.007919366450683881,-0.0011999040076739157,0.015007741172277511,0.002390705892586376,0.020355223973455024,-0.00035997120230084253,0.00035997120230375665,-0.0002399808015352827,0.0002399808015427761,0.001679865610751142,0.00011999040076805765,-0.172647954247286,-0.00011403431589902288,2.5199164900223705,0.014404607447524807,-0.0720023037235695,0.014402879654559967,0.0719936647607184,0.1295706275247567,-1.7277926651243414e-06,0.16116200000000003,0.015458999999999999,-0.9082030000000001,-0.14696999999999993,-0.021184,-0.9087230000000001,0.30813199999999996,0.036643,0.0005199999999999649,0.993861991888688,0.9971647374452512,double,-0.9082030000000001
183,1.525,walk,-0.008400336013442354,0.007320292811712535,-0.001320052802123409,0.024062090310656266,0.020093110362657096,0.013646572128041757,0.0002400096003909192,0.0001200048001921288,0.00036001440057555366,-0.0002400096003909192,-0.00036001440057597004,-0.000600024000960644,0.20147097696801916,-0.07189171234505605,-0.014418432071222193,0.07200057634606591,-0.02879712013820113,0.07200230434547485,-0.057601152278135094,-0.24479539317498267,-0.08640518441482159,0.1612340000000001,0.015399,-0.9081889999999999,-0.14690199999999998,-0.021248,-0.908717,0.3081360000000001,0.036647,0.000528000000000084,0.9939716385881832,0.998767067882117,double,-0.9081889999999999
184,1.533333,walk,-0.008760350414015176,0.006960278411136325,-0.0002400096003775896,-0.0023727705075787735,0.012120130392828641,0.004108175433089293,-0.00036001440058636917,0.00012000480019191742,-0.00036001440057554406,0.0002400096003909128,0.0010800432017282976,-0.00036001440057554406,-0.04320345620698616,-0.04320345620739272,0.12961036862424102,-0.07200576034768724,-2.5366466585047576e-14,-0.0864069124146268,0.057604608278149956,0.17281382482950228,0.028802304138377022,0.161304,0.015342,-0.90819,-0.14682699999999993,-0.021297,-0.908718,0.30813099999999993,0.036639,0.0005279999999999729,0.9938481853386941,0.9980608504910506,double,-0.90819
