frame_id,timestamp,gait_type,root_linear_velocity_x,root_linear_velocity_y,root_linear_velocity_z,root_angular_velocity_x,root_angular_velocity_y,root_angular_velocity_z,left_linear_velocity_x,left_linear_velocity_y,left_linear_velocity_z,right_linear_velocity_x,right_linear_velocity_y,right_linear_velocity_z,root_acceleration_x,root_acceleration_y,root_acceleration_z,left_acceleration_x,left_acceleration_y,left_acceleration_z,right_acceleration_x,right_acceleration_y,right_acceleration_z,left_pos_rel_x,left_pos_rel_y,left_pos_rel_z,right_pos_rel_x,right_pos_rel_y,right_pos_rel_z,step_length,step_width,step_height,left_contact_prob,right_contact_prob,support_type,max_foot_height
1,0.008333,stand,-0.034681387255488264,0.03192127685105933,0.009480379215174757,-0.04199644948705977,-0.04925566405994102,-0.0771681277596877,0.003960158406330221,0.003360134405366252,-0.0012000480019196116,0.005040201608076025,-0.006960278411123421,-0.002280091203647928,0.0,0.0,0.0,0.0,0.0,0.0,0.0,0.0,0.0,0.004998999999999976,0.14886700000000008,-0.908819,0.09547300000000014,-0.13878599999999985,-0.908821,0.09047400000000017,0.28765299999999994,1.999999999946489e-06,0.9910959517122815,0.9851818501204177,double,-0.908819
2,0.016667,stand,-0.019678425725921638,0.03407727381811531,0.0007199424046016905,-0.028177131524178032,-0.2215951605082958,-0.10673862811392458,0.003359731221518961,0.00503959683226512,0.0035997120230375937,0.004439644828394853,-0.008279337652999371,-0.0010799136069116943,1.8002113666386637,0.25869894013150674,-1.0511683238028637,-0.07204549853746822,0.20151936967828984,0.5759251289845457,-0.07206104867784635,-0.1582744470693484,0.14400979082508203,0.005190999999999946,0.148625,-0.908795,0.09567399999999981,-0.13913900000000012,-0.908836,0.09048299999999987,0.28776400000000013,4.099999999995774e-05,0.987847004834864,0.9842392812863877,double,-0.908795
3,0.025,stand,-0.030841233649366823,0.03732149285970841,0.010200408016320862,0.13348044729535055,-0.06696306802294875,0.0692523887766412,0.0037201488059393044,0.0050402016080493784,0.005280211208448622,0.0028801152046110646,-0.01056042241688059,0.0010800432017283165,-1.3395905344347996,0.38932185786548706,1.137701381461559,0.04325184020404936,7.257599715089608e-05,0.20166796896808212,-0.18715104089569046,-0.2737411213105988,0.2592051852442111,0.005479000000000012,0.14835599999999993,-0.908836,0.09595500000000001,-0.13953799999999994,-0.9089119999999999,0.090476,0.28789399999999987,7.599999999996498e-05,0.9855851504550843,0.9816678728781361,double,-0.908836
4,0.033333,jog,0.04668186727468771,0.10212408496339075,-0.03168126725069507,0.38343648671526886,-0.40514538965115826,0.2170434327454314,0.005400216008649077,0.008640345613833193,0.008760350414016162,0.0015600624025009907,-0.009720388815552351,0.006120244809791851,9.30314423665601,7.776622117326573,-5.026002072124797,0.20161612897033157,0.43203456207654084,0.41763341000450493,-0.15841267276011925,0.10080806448196801,0.6048483869031003,0.005135000000000112,0.14757700000000007,-0.908499,0.09557900000000008,-0.14046999999999987,-0.908597,0.09044399999999997,0.28804699999999994,9.80000000000425e-05,0.9766244619620764,0.9806798069111187,double,-0.908499
5,0.041667,jog,-0.014158867290597605,0.06407487401008331,0.0003599712023141669,0.09613114554802821,-0.06338629300917584,0.18027312673074003,0.00575953923686681,0.007919366450671882,0.011039116870650562,-0.01955843532516357,0.003359731221492318,0.0325173986081114,-7.300304123504357,-4.565540071191196,3.844641043077661,0.04311533815907521,-0.08651057873305866,0.27343010038809695,-2.5340170059592704,1.5694888453377331,3.1674050633932738,0.005301,0.14710899999999993,-0.90841,0.09553400000000001,-0.140976,-0.908329,0.09023300000000001,0.2880849999999999,8.099999999999774e-05,0.9754060328939461,0.9356989376699347,double,-0.908329
6,0.05,jog,-0.034681387255488264,0.040681627265101314,0.017640705628226117,-0.046061642037554536,-0.011663786308408513,0.0368448659658151,0.0060002400095864,0.009360374414979299,0.015240609624385228,-0.0027601104044289292,-0.003480139205575034,0.005280211208448622,-2.462800907823192,-2.807301901473899,2.073771081952712,0.028885248136276208,0.17292787283180322,0.5041992984200967,2.0158796256731835,-0.8208172839394398,-3.2685932316888007,0.005639999999999867,0.14684799999999987,-0.9084300000000001,0.09579999999999989,-0.14134400000000014,-0.908432,0.09016000000000002,0.288192,1.999999999946489e-06,0.9685380044153549,0.9884999747898049,double,-0.9084300000000001
7,0.058333,jog,-0.03228129125165904,0.06900276011040347,-0.008160326413064684,-0.12747311241493867,-0.033313939899690545,0.20237561075124882,0.010440417616698455,0.009840393615761132,0.01824072962918509,0.0028801152046110646,-0.005520220808831212,-0.0002400096003842554,0.28802304138116236,3.3986718883117915,-3.0962476948626905,0.5328426265585089,0.057604608278151184,0.36002880172805257,0.6768541472506894,-0.24481958517414834,-0.6624529951797525,0.00599599999999989,0.146355,-0.90821,0.09609299999999998,-0.14196500000000012,-0.908366,0.0900970000000001,0.28832000000000013,0.000156000000000045,0.9597618449563434,0.9896149806106261,double,-0.90821
8,0.066667,jog,0.04115670746340079,0.11027117830572258,-0.022438204943596975,0.3647110236902288,-0.15923329723064344,0.5940103003954573,0.007919366450698524,0.007679385649129104,0.015598752099831793,-0.0008399328053864011,-0.009239260859117195,-0.009359251259898576,8.811854897415385,4.951814038315227,-1.713208366994515,-0.30250193976481043,-0.25930021197888503,-0.3170119425669903,-0.4463700515955682,-0.4462491061058294,-1.0942214614248043,0.00571900000000003,0.14549999999999996,-0.9078930000000001,0.09574299999999991,-0.1429609999999999,-0.9082570000000001,0.09002399999999988,0.28846099999999986,0.00036400000000003097,0.9645179245860438,0.9780363297133214,double,-0.9078930000000001
9,0.075,jog,-0.01512060482420144,0.07476299051962566,0.035041401656061344,0.285827727431923,-0.12257607083095073,0.2143725576050285,0.013080523220918613,0.010920436817480299,0.01848073922956936,0.000840033601354887,-0.009240369614797172,-0.0034801392055683754,-6.75354761641693,-4.261152980450852,6.897828705107208,0.61936358696989,0.3889416978700585,0.34585228966009474,0.20160403297027354,-0.00013305600383734463,0.70552166738632,0.005954000000000015,0.14496799999999999,-0.908031,0.09587600000000007,-0.14366100000000004,-0.908578,0.08992200000000006,0.288629,0.0005469999999999642,0.9526341718303032,0.9834838920411006,double,-0.908031
10,0.083333,jog,0.01644065762631149,0.11136445457818782,0.0054002160086357495,0.3536412451474028,-0.0951104099525359,0.2720176836849773,0.01152046081844425,0.008880355214197458,0.019080763230529135,0.0063602544101860935,-0.012360494419772489,0.00012000480019212759,3.787502994181316,4.392351381082698,-3.557084561073511,-0.18721497689599934,-0.24481958517734784,0.07200576034558677,0.6624529951795514,-0.37442995379518956,0.43203456207374297,0.005913000000000057,0.14411399999999985,-0.907917,0.0957920000000001,-0.14469200000000004,-0.9086219999999999,0.08987900000000004,0.2888059999999999,0.0007049999999999557,0.9529619027550021,0.9768309917480995,double,-0.907917
11,0.091667,jog,-0.013318934485237858,0.10043196544276185,0.003119750419976186,0.264929199088564,-0.06832520657364008,0.17157968685491595,0.011039116870648074,0.00911927045838578,0.018958483321334117,0.006239500839925728,-0.01583873290137042,0.000959923206142804,-3.5708653841551916,-1.3117937527508967,-0.27363397992075417,-0.05775665320328481,0.028667535899726634,-0.014672415310177276,-0.014489269289700672,-0.4173552293734022,0.10078214614238985,0.00611600000000001,0.14335300000000006,-0.9077850000000001,0.09595500000000001,-0.14566100000000004,-0.90864,0.089839,0.2890140000000001,0.0008549999999999391,0.9518531677465679,0.9715825619257159,double,-0.9077850000000001
12,0.1,jog,-0.023760950438007956,0.10716428657146669,0.0033601344053662495,0.20659602185303294,-0.10721067203494833,0.2051880332482175,0.008640345613833186,0.0015600624024743432,0.01668066722668908,0.0002400096003909168,-0.009720388815552343,0.00012000480019212759,-1.2530920380139312,0.807910851878655,0.028847232136093057,-0.28786406538040155,-0.907141252359466,-0.2733488653120167,-0.7199677474540749,0.7342306595245497,-0.10079424048370043,0.006386000000000003,0.14247299999999985,-0.907674,0.09615499999999999,-0.14663500000000007,-0.908667,0.08976899999999999,0.2891079999999999,0.0009930000000000216,0.9586528237816018,0.9837931800632964,double,-0.907674
13,0.108333,jog,-0.036601464058562336,0.10284411376453693,0.0013200528021233982,0.2707894470398792,-0.12007959618120924,0.12709422639221718,0.014880595223810524,-0.007800312012478315,0.016800672026881236,0.003120124804975338,-0.004320172806903277,0.006480259210369072,-1.5409232713973828,-0.5184414744905508,-0.2448195851725493,0.7488599075935849,-1.1232898613887754,0.014401152069141441,0.34562764965611703,0.6480518431116128,0.7632610596636206,0.0068150000000000155,0.14155099999999998,-0.907545,0.09648599999999985,-0.14752799999999988,-0.9086240000000001,0.08967099999999983,0.28907899999999986,0.0010790000000000521,0.9496099311777486,0.9860165940294197,double,-0.907545
14,0.116667,jog,-0.023518118550526136,0.09995200383970276,0.006239500839925718,0.2133786501920032,-0.16153273703040774,0.154251031622189,0.0105591552675625,0.020398368130549953,-0.022078233741300274,0.002879769618433403,-0.001799856011530868,0.00611951043916432,1.569875870894671,-0.3470254289457846,0.5902865416129487,-0.5185313122447827,3.38357093148887,-4.665095484543013,-0.02884031515981938,0.30241382233890174,-0.04328638963339954,0.0070989999999999664,0.1408879999999999,-0.907781,0.09670599999999996,-0.14837600000000006,-0.908625,0.08960699999999999,0.28926399999999997,0.0008440000000000669,0.9384605757645408,0.988335599894868,double,-0.907781
15,0.125,jog,-0.0012000480019279396,0.10380415216607396,-0.004800192007685112,-0.05959551720450735,-0.3701978869343512,0.05819629818975439,0.0018000720028919094,0.009120364814588389,0.005280211208447794,0.004320172806929924,-0.001800072002865263,0.0021600864034566347,2.67827559685566,0.46227629021615224,-1.3248161343586748,-1.0511320370419535,-1.3534145344967687,3.2831447197585613,0.1728552968314559,-2.5919996927279817e-05,-0.4751498902805339,0.00712400000000013,0.14009899999999997,-0.907697,0.09675200000000017,-0.14925599999999983,-0.9085669999999999,0.08962800000000004,0.2893549999999998,0.0008699999999999264,0.9734813187939211,0.9914089637205666,double,-0.907697
16,0.133333,jog,-0.0524420976839098,0.11004440177607774,-0.0022800912036470937,0.29820959705265465,-0.08495775891195446,0.15050829614806482,-0.007920316812687083,0.0237609504380346,0.021360854434177894,0.02736109444376512,-0.012840513620554321,-0.026161046441858002,-6.149291933515158,0.7488599075967577,0.30242419345230004,-1.1664933176021821,1.7569405524356414,1.9297543772627008,2.765021197268112,-1.3249059903623004,-3.3986718883132863,0.007495000000000029,0.13938000000000006,-0.9075,0.09741700000000009,-0.15027999999999997,-0.908766,0.08992200000000006,0.28966000000000003,0.0012659999999999894,0.9324765258550776,0.9333769177859228,double,-0.9075
17,0.141667,jog,-0.023638108951284282,0.1174706023518197,-0.015118790496755432,0.37424277641968773,-0.32727955079669996,0.13867436619374554,-0.005279577633781268,0.019198464122862774,0.0010799136069108645,0.01967842572594833,-0.012718982481394256,0.007679385649148273,3.4562021517429304,0.8910727832663762,-1.5405206735191228,0.3168633524005065,-0.5474545614557041,-2.433518217814624,-0.9218464984181438,0.014582570093600321,4.060527008760062,0.007648000000000099,0.13856099999999993,-0.907365,0.09777800000000014,-0.15136499999999997,-0.908576,0.09013000000000004,0.2899259999999999,0.0012110000000000731,0.9546559320514842,0.9589043825544883,double,-0.907365
18,0.15,jog,-0.05328213128523804,0.10536421456857478,-0.014160566422651072,0.11618386078836149,-0.16395685658095974,0.10544587563534374,0.02232089283571575,0.004080163206539,0.008280331213248476,0.008280331213233488,0.0010800432017191559,-0.006000240009600551,-3.5574249770735307,-1.4528246469752686,0.11499148855206523,3.312188943897395,-1.8142686807060797,0.8640846761475586,-1.3678260545679624,1.655949319946406,-1.6416207438796127,0.008278000000000008,0.1377170000000001,-0.907178,0.0982909999999999,-0.15223399999999998,-0.9085080000000001,0.0900129999999999,0.28995100000000007,0.0013300000000000534,0.9464427068796294,0.9828622202193809,double,-0.907178
19,0.158333,jog,-0.0698427937117583,0.11472458898355407,-0.02376095043802128,0.06303853536892211,-0.18118596335843404,-0.011899280513622513,-0.010440417616698446,0.016320652826102705,0.004560182407296685,0.00840033601344227,0.002040081603256177,-0.003240129605184114,-1.987358985541852,1.1232898613919697,-1.152092165531045,-3.9315145148702944,1.4689175110480854,-0.44643571414278027,0.014401152071136568,0.11520921655310454,0.3312264975898757,0.008773000000000142,0.13689700000000005,-0.906942,0.098943,-0.153173,-0.9083370000000001,0.09016999999999986,0.29007000000000005,0.001395000000000035,0.9528769984161709,0.9846136768935425,double,-0.906942
20,0.166667,jog,-0.08723302135828191,0.11339092872569867,-0.012239020878335302,0.11762733515928481,-0.23095399433502836,0.006734161115343982,-0.008759299256058275,0.008519318454515498,0.0015598752099830946,0.009239260859143832,-0.001199904007660602,0.003359731221502306,-2.0866603847520504,-0.16002642882834206,1.382520945486677,0.2017180658315538,-0.9360852377714423,-0.3600080630325879,0.10066292844991137,-0.3887671719362582,0.7919199456067211,0.009427000000000074,0.136023,-0.9068269999999999,0.09974700000000003,-0.15412799999999982,-0.908207,0.09031999999999996,0.2901509999999998,0.0013800000000000479,0.9656697160640033,0.9834931407580865,double,-0.9068269999999999
21,0.175,jog,-0.09564382575302276,0.12336493459738766,-0.04044161766469717,-0.1164700449336431,-0.026697183228377684,-0.009389325260241098,-0.00852034081365108,0.001920076803074048,0.0016800672026881264,0.009960398415943292,-0.0007200288011727528,0.003120124804991997,-1.0093369008449378,1.1969285817459518,-3.3844469922431224,0.0286761601352689,-0.7919406758000079,0.014423616069246628,0.08653996841467211,0.05758732827167293,-0.028753920138042694,0.010152999999999857,0.135011,-0.9064760000000001,0.10062700000000002,-0.15516200000000002,-0.9078440000000001,0.09047400000000017,0.290173,0.0013680000000000359,0.971496451887095,0.9825625596872729,double,-0.9064760000000001
22,0.183333,jog,-0.10116404656188029,0.13128525141007433,-0.03312132485300057,-0.08879871435127523,-0.13051345837411998,0.1660981975565273,-0.00012000480018213519,-0.003960158406330218,0.006480259210368228,0.011640465618626384,0.0007200288011727504,0.0038401536061439196,-0.6624529951827102,0.9504760365638615,0.8784702762146405,1.008080644842066,-0.7056564513865667,0.5760460827649224,0.20161612896712947,0.1728138248344536,0.08640691241472724,0.010995000000000088,0.1338839999999999,-0.906146,0.10156700000000018,-0.15625,-0.907536,0.0905720000000001,0.2901339999999999,0.0013900000000000023,0.9734408997172371,0.9795355551550906,double,-0.906146
23,0.191667,jog,-0.11315094792415589,0.14566834653225644,-0.04163666906647299,-0.12142071938062357,-0.15739764315810256,0.0695443875838001,0.0031197504199761807,-0.006119510439167651,0.008159347252219649,0.014158867290597593,0.0017998560115042247,0.005159587233021518,-1.4383130984251973,1.725833347994012,-1.0217595648515014,0.388739527256817,-0.2591015158192262,0.20147444706640494,0.3021840259144717,0.12956889972779856,0.15831936967573762,0.011964000000000086,0.13261900000000004,-0.9057310000000001,0.10262799999999994,-0.15744899999999995,-0.907146,0.09066399999999986,0.290068,0.001414999999999944,0.9680739082004064,0.9747053834762512,double,-0.9057310000000001
24,0.2,jog,-0.12768510740429054,0.1356054242169776,-0.041281651266051926,-0.0517584063860249,-0.07633003918991405,0.23586536937683306,0.005520220808831208,-0.009600384015343561,0.009600384015361048,0.008520340813651052,0.003720148805965948,0.004200168006720302,-1.7441689043723307,-1.2075989817927306,0.04260384020413556,0.2880679693813783,-0.417721538002629,0.1729313288301209,-0.676650243243314,0.23044435310953099,-0.11513491255264793,0.01307400000000003,0.1314090000000001,-0.905307,0.10376300000000005,-0.1585479999999999,-0.906767,0.09068900000000002,0.289957,0.0014600000000000168,0.960972807487083,0.9829969671002842,double,-0.905307
25,0.208333,jog,-0.10380415216610078,0.15036601464057983,-0.062402496099839944,-0.2666321900891369,-0.5360691863855221,0.04142754206566537,0.007200288011514356,-0.008040321612869245,0.008040321612864249,0.00612024480976855,0.004680187207476338,0.003600144005760509,2.8658292617532477,1.7713417045004516,-2.534602764165135,0.201616128967137,0.18721497689599434,-0.1872149768986923,-0.28802304138755647,0.11520921654990907,-0.07200576034558918,0.013999000000000095,0.13008900000000012,-0.9047200000000001,0.10467899999999997,-0.15976199999999996,-0.906217,0.09067999999999987,0.2898510000000001,0.0014969999999999706,0.9625987661504085,0.9858262188755731,double,-0.9047200000000001
26,0.216667,jog,-0.16342692584591575,0.12383009359252975,-0.04043676505879906,-0.050373343994478674,-0.09260552937424574,0.18434649572512302,0.012718982481394213,-0.007919366450698519,0.010439164866811094,0.044996400287978626,0.0002399808015427777,0.005759539236860977,-7.154160508737091,-3.1840558013019025,2.6356768707752414,0.6621903611566896,0.014513458383816338,0.2878381634205476,4.664765476147113,-0.5327821461403355,0.2591066991961203,0.015466999999999897,0.12899099999999986,-0.904296,0.10641599999999984,-0.16079200000000005,-0.905832,0.09094899999999995,0.2897829999999999,0.0015359999999999818,0.95420495790399,0.9243930867012727,double,-0.904296
27,0.225,jog,-0.1519260770430803,0.12456498259928855,-0.027721108844351496,-0.30779119350528056,0.08209666012149414,0.08074162497832693,0.012360494419772489,-0.009720388815552343,0.006360254410176101,0.003840153606148083,0.00996039841594326,-0.0007200288011519328,1.380157062622757,0.08819020841939322,1.5259397833250397,-0.04302028820613508,-0.21613132903562007,-0.4894888343495728,-4.938947159706049,1.1664967735990008,-0.7775792677322578,0.01683599999999985,0.12787199999999999,-0.904012,0.10771399999999987,-0.16174699999999986,-0.905607,0.09087800000000001,0.28961899999999985,0.001595000000000013,0.9557794510729655,0.9821678537935913,double,-0.904012
28,0.233333,jog,-0.17052682107285677,0.11256450258011576,-0.01668066722668908,-0.2280616459136397,-0.1804581615711978,0.28812379246632475,0.018240729629203395,-0.009840393615734478,0.004800192007680107,-0.0010800432017191559,0.01548061922474782,-0.004800192007680107,-2.2321785707160022,-1.4401152069090106,1.3249059903591032,0.7056564513897637,-0.014401152067938999,-0.18721497689859498,-0.5904472348334614,0.6624529951763538,-0.4896391703501945,0.01840900000000012,0.12685199999999996,-0.903833,0.10912600000000006,-0.16255600000000014,-0.905508,0.09071699999999994,0.2894080000000001,0.001674999999999982,0.9477926936212608,0.9729271605863712,double,-0.903833
29,0.241667,jog,-0.18826493880488784,0.15970722342212315,-0.05207583393329091,-0.25777493540901913,0.4381379484962521,0.42790190355266683,0.018838492920561927,-0.006959443244554074,0.00035997120230417656,-0.00035997120230084616,0.0103191744660464,-0.002519798416126738,-2.128403855535291,5.656673967123531,-4.24708023837316,0.07172585689447247,0.3456863896304789,-0.5327838739351981,0.08640172779197401,-0.6193238251381609,0.27362534095912827,0.020135000000000014,0.12546299999999988,-0.903396,0.11069200000000001,-0.16380100000000009,-0.905095,0.090557,0.28926399999999997,0.001699000000000006,0.9495331321548943,0.9822858872187938,double,-0.903396
30,0.25,jog,-0.20532821312852714,0.1003240129605254,-0.00888035521421078,-0.3403464984421953,0.20800865351444262,0.2090723237224009,0.019680787231495602,-0.007320292811696468,-0.00012000480019212759,-0.00036001440057305197,0.008160326413051353,-0.00024000960038425518,-2.0476748258297475,-7.126270306203972,5.183664792881326,0.10107936048646038,-0.043303680204295376,-0.05759942427652751,-5.1840000246980686e-06,-0.25907212924457523,0.27358560131315024,0.022010000000000085,0.12456599999999995,-0.903323,0.11240000000000006,-0.1645690000000002,-0.9050229999999999,0.09038999999999997,0.28913500000000014,0.0016999999999999238,0.9480026003326103,0.9863803509850617,double,-0.903323
31,0.258333,jog,-0.20448817952717294,0.1250450018000708,-0.01824072962917681,-0.22017582077445214,0.12732277672052145,0.1878713754597135,0.007680307212269545,-0.00852034081365108,-0.0007200288011519352,-0.001080043201745806,0.00684027361096795,0.000120004800192128,0.10080806448508443,2.9666373262385055,-1.1232898613903817,-1.440115206915407,-0.14401152069538165,-0.07200576034559092,-0.08640691241722738,-0.158412672756919,0.043203456207414385,0.023777999999999855,0.12345299999999981,-0.903177,0.11409499999999984,-0.16555399999999998,-0.9048700000000001,0.09031699999999998,0.2890069999999998,0.0016930000000000556,0.963914077799245,0.9884565750385518,double,-0.903177
32,0.266667,jog,-0.19438444924408152,0.11399088072954229,-0.03779697624190844,-0.13320852124223326,-0.11639593389467107,0.17304511544353515,0.009599232061444677,-0.006479481641468495,-0.006599472042236554,-0.003359731221492315,0.007799376049913808,-0.001199904007679752,1.2123506459192952,-1.326388417390029,-2.3465618685783074,0.2302525616960799,0.24488350998111147,-0.7054767507900904,-0.2735406791152516,0.11508308602662069,-0.15837638683367875,0.02547800000000011,0.12244899999999981,-0.902917,0.1156870000000001,-0.166439,-0.904565,0.09020899999999998,0.2888879999999998,0.0016479999999999828,0.9613037665866291,0.9857056897220253,double,-0.902917
33,0.275,jog,-0.20484819392774462,0.12072482899314006,-0.0159606384255296,-0.05611461065583246,0.1252067856082639,0.271108698146167,0.008880355214197428,-0.004560182407294172,-0.005160206408256473,-0.004680187207476307,0.006240249609977291,0.0009600384015361848,-1.2556995900231671,0.8081061158763644,2.620465356579713,-0.08626867241656609,0.23032512110576206,0.1727187848290021,-0.15846105676034877,-0.1871026568986572,0.25920345724420113,0.027258999999999922,0.12140499999999999,-0.902827,0.1173550000000001,-0.1673929999999999,-0.904424,0.09009600000000018,0.2887979999999999,0.0015969999999999596,0.965300663052763,0.9869013845913785,double,-0.902827
34,0.283333,jog,-0.18924756990278932,0.13020520820832898,-0.015720628825152114,-0.05643364209181505,-0.2091979308145548,0.1810019140632844,0.006840273610941304,-0.00036001440057305316,-0.004800192007680124,-0.013680547221909253,0.0152406096243836,-0.0019200768030723824,1.8721497689853994,1.1376910134632117,0.02880230413746397,-0.24481958517414254,0.5040403224194322,0.04320345620741035,-1.0800864051881638,1.0800864051849672,-0.34562764965901527,0.028892999999999835,0.12031700000000001,-0.902736,0.11881799999999987,-0.16835099999999992,-0.904309,0.08992500000000003,0.2886679999999999,0.0015730000000000466,0.9703295715082837,0.9657168550911255,double,-0.902736
35,0.291667,jog,-0.19330453563715233,0.1418286537077052,-0.02447804175665728,-0.0692857766105407,0.10848268378463852,0.31639115044607363,0.006479481641468495,0.001439884809230023,-0.0034797216222703644,-0.005519558435324028,0.00983921286296081,0.005279577633789576,-0.48679694436801135,1.3947018837744427,-1.0508054873416317,-0.04329157301089611,0.21597062752616683,0.15844377074751118,0.9792403151650129,-0.6481157621097654,0.8638894212697327,0.030557999999999863,0.11914700000000011,-0.9025610000000001,0.1203829999999999,-0.16945100000000002,-0.904061,0.08982500000000004,0.28859800000000013,0.0014999999999999458,0.9725094020721279,0.9792401579516004,double,-0.9025610000000001
36,0.3,jog,-0.20580823232930964,0.14196567862716417,-0.01716068642745765,-0.08114632166394804,-0.32341962616176473,0.17652330106792427,0.005280211208466955,0.001320052802110077,-0.0030001200048007017,-0.002520100804038019,0.011160446417871233,0.006840273610944634,-1.5005036232038094,0.016443648080999292,0.8781177642145264,-0.14391820868853278,-0.014380416071036392,0.05755449627621072,0.359949313726871,0.1585543687640017,0.1872910088989634,0.03231700000000015,0.11797499999999994,-0.9024430000000001,0.12207699999999999,-0.17054100000000005,-0.903861,0.08975999999999984,0.288516,0.0014179999999999193,0.9754619797781858,0.97778290101813,double,-0.9024430000000001
37,0.308333,jog,-0.19452778111122834,0.14460578423135673,-0.020400816032641638,0.004389146236244956,-0.11551542141639838,0.2514000622147971,0.006840273610941258,0.0021600864034383048,-0.0026401056042234675,-0.003480139205548373,0.012000480019199396,0.010560422416896368,1.3537082945015304,0.31682534551692665,-0.38883110586631153,0.18721497689599143,0.10080806448196618,0.04320345620751623,-0.11520921654990404,0.10080806448195842,0.4464357141427719,0.033995,0.11678799999999989,-0.9022950000000001,0.12366900000000003,-0.17164599999999997,-0.903603,0.08967400000000003,0.28843399999999986,0.0013079999999999758,0.974180573671525,0.9727335466998728,double,-0.9022950000000001
38,0.316667,jog,-0.20362371010320005,0.1617470602351707,-0.042116630669545504,-0.18212133662128654,0.015034098259580967,0.20271455284604548,0.0067194624430113176,0.0014398848092300326,-0.0007199424046083555,-0.008639308855300266,0.012718982481394298,0.015238780897528538,-1.0914241651034022,2.0567885773714973,-2.605689301284376,-0.014496180457156322,-0.08641727792275933,0.23040115186166582,-0.6190508339035183,0.08621339839151734,0.5613581090271414,0.03574800000000011,0.11545200000000011,-0.90195,0.12529400000000002,-0.17288799999999993,-0.9031250000000001,0.0895459999999999,0.28834000000000004,0.0011750000000000371,0.9767339772426941,0.9639202035566315,double,-0.90195
39,0.325,jog,-0.20436817472698943,0.14832593303732267,-0.0237609504380212,-0.04652277203579215,-0.2839524293252592,0.21807245298027989,0.0013200528021100684,0.001440057602292203,-0.006120244809791825,-0.009480379215161394,0.01488059522381045,0.015960638425537094,-0.08933932842786252,-1.610599687729265,2.2027697385724503,-0.6479550751111517,2.0735996900337247e-05,-0.648062211110458,-0.10093248048255425,0.2594039052461469,0.08662636841576303,0.037462000000000106,0.114228,-0.901803,0.1269180000000001,-0.17399999999999993,-0.902794,0.08945599999999998,0.28822799999999993,0.0009909999999999641,0.9793825646511327,0.9603469321899691,double,-0.901803
40,0.333333,jog,-0.22848913956557187,0.13068522740911082,-0.029881195247816555,-0.02231366076689491,-0.11468937430347946,0.21834240464985827,0.003960158406330232,-0.001200048001901295,-0.00396015840633606,-0.014040561622482305,0.010800432017271535,0.02196087843513694,-2.894631565892537,-2.1169693541595938,-0.7344587555256656,0.31682534552024116,-0.3168253455170413,0.2592207372441822,-0.5472437786296558,-0.48963917035148496,0.7200576034561215,0.03939899999999996,0.11312900000000004,-0.9015869999999999,0.12870499999999985,-0.17499900000000013,-0.902362,0.08930599999999989,0.28812800000000016,0.0007750000000000812,0.9827039385065286,0.9529755712398896,double,-0.9015869999999999
41,0.341667,jog,-0.20698344132469101,0.16378689704824326,-0.05999520038396262,-0.16219828928657065,0.02655353110531659,0.24292626700346176,0.01067914566834721,0.05831533477321646,-0.03659707223422119,-0.021838252939753333,0.007799376049913808,0.028437724982001544,2.5804773507176435,3.971882606087402,-3.613391545013923,0.8062139743240907,7.14127463104364,-3.916116370036609,-0.9356481062240245,-0.36009790825026694,0.777159412870722,0.041212999999999944,0.11224999999999996,-0.901392,0.13024799999999992,-0.1762990000000002,-0.901625,0.08903499999999998,0.28854900000000017,0.00023300000000003873,0.881551428918123,0.9388434667708128,double,-0.901392
42,0.35,jog,-0.22056882275291143,0.14412576503057584,-0.0472818912756518,-0.06582608062441384,0.0029682870130734312,0.25949163344425114,0.0152406096243836,-0.006000240009613062,0.0015600624024959984,-0.029881195247803232,0.011760470418835205,0.03336133445337827,-1.6303109838258063,-2.3594302193288694,1.5256581193220748,0.5473975706271933,-7.718177701047604,4.579039317978793,-0.9651916846333756,0.47535033828410017,0.5908567708360423,0.04317799999999994,0.11099900000000007,-0.900985,0.13183699999999998,-0.17740199999999984,-0.900953,0.08865900000000004,0.2884009999999999,3.2000000000032e-05,0.972577743396837,0.9225046381713158,double,-0.900953
43,0.358333,jog,-0.2176887075482989,0.13860554422177035,-0.060362414496583354,0.07395037829553511,-0.2169222606886279,0.238715870912942,0.01608064322573838,-0.005160206408258139,-0.010440417616705073,-0.040801632065283276,0.011280451218053295,0.04392175687027442,0.34562764965948944,-0.6624529951764627,-1.5697255755348014,0.10080806448515266,0.10080806448516974,-1.440115206912399,-1.3105048382911315,-0.0576046082781601,1.2673013820828158,0.045126,0.10980100000000004,-0.900569,0.13331099999999996,-0.17846299999999982,-0.900084,0.08818499999999996,0.28826399999999985,0.0004849999999999577,0.9669084965277037,0.8934813868294926,double,-0.900084
44,0.366667,jog,-0.26925845932327,0.15058795296376348,-0.0938324934005218,0.18312411042728588,0.196590645986348,0.1378275429389993,0.029997600191967986,-0.014278857691382303,-0.020158387329013837,-0.059275257979360924,0.006239500839925718,0.055075593952483876,-6.187875182981892,1.4377740271170052,-4.016088181418096,1.6699012438480432,-1.0941506219251447,-1.166063080430616,-2.2166577770671503,-0.6048656561228188,1.3383533815946056,0.047619999999999996,0.10842700000000005,-0.8999550000000001,0.1350610000000001,-0.17966599999999988,-0.8988430000000001,0.0874410000000001,0.28809299999999993,0.0011120000000000019,0.9352332738472899,0.8536250080150037,double,-0.8988430000000001
45,0.375,jog,-0.22584903396135173,0.14352574102966517,-0.0988839553582202,0.14099004856698094,0.04344817727885754,0.46283745136321097,0.01776071042842162,-0.009120364814588404,-0.009240369614783863,-0.08256330253210412,0.004680187207476338,0.07128285131405325,5.209339417006889,-0.8474993320650821,-0.6061996829111259,-1.4684855110460093,0.6190439069715482,1.3102145342889717,-2.7946771334145266,-0.187125120898762,1.9449486813355832,0.04964999999999997,0.10715499999999989,-0.899208,0.13625500000000001,-0.18082300000000018,-0.897425,0.08660500000000004,0.28797800000000007,0.001782999999999979,0.9633330181872919,0.8002065728995842,double,-0.897425
46,0.383333,jog,-0.21840873634944646,0.12792511700465523,-0.11124444977799273,0.2740058211448289,-0.19572658305304114,0.42117458136082736,0.022920916836679794,0.00012000480018213558,-0.014160566422656947,-0.10824432977318621,0.007920316812687109,0.10032401296051825,0.8928714282857649,-1.8721497689919577,-1.4833186631192328,0.6192495389725413,1.1088887093208404,-0.590447234834165,-3.0818465427915704,0.38883110586952824,3.485078800727838,0.05166099999999996,0.10609000000000002,-0.898399,0.137173,-0.18182299999999985,-0.895662,0.08551200000000003,0.28791299999999986,0.0027369999999999894,0.955095642651528,0.7262987307091331,double,-0.895662
47,0.391667,jog,-0.21658267338613568,0.12431005519558866,-0.10715142788577295,0.23537099837779102,-0.0976572505307963,0.3580008321374288,0.017998560115175463,-0.0019198464122889352,-0.010919126469882495,-0.11099112071035082,0.030117590592752697,0.12131029517638636,0.21911002679515,-0.4337727152707659,0.49112333719939794,-0.5906355557360603,-0.24476256449136893,0.3889416789986139,-0.32958854537612264,2.663459776825722,2.518152413711074,0.053615999999999886,0.10503799999999996,-0.897597,0.13805299999999998,-0.18260799999999988,-0.8937579999999999,0.0844370000000001,0.28764599999999985,0.003839000000000037,0.9647681765014586,0.6830108960719008,double,-0.8937579999999999
48,0.4,jog,-0.24468978759151752,0.09996399855995203,-0.13068522740908328,0.32879153152362306,-0.041049205171692575,0.4955918815796763,0.023520940837643608,0.005640225609039971,-0.011400456018241259,-0.12336493459738684,0.06144245769828918,0.13968558742349615,-3.372988624190774,-2.9216436620228645,-2.8241689095536104,0.662712195183982,0.9072449323567592,-0.0577618562773025,-1.484917063126842,3.7591344180410844,2.205123274584149,0.055851000000000095,0.10425200000000001,-0.896603,0.13906400000000008,-0.18292900000000012,-0.891505,0.08321299999999998,0.28718100000000013,0.005098000000000047,0.9554336574359623,0.6219702839778077,double,-0.891505
49,0.408333,jog,-0.25705028201126506,0.08088323532942099,-0.11628465138605545,0.1816912489937576,-0.11379734767406086,0.4540593254837382,0.009240369614797187,0.0012000480019279415,-0.00900036001440044,-0.1548061922476919,0.13488539541583194,0.23952958118324766,-1.4833186631162334,-2.28978317899089,1.7281382482932754,-1.7137370962254237,-0.5328426265585071,0.2880230413825543,-3.773101842110301,8.813505066307805,11.98175852151107,0.058070000000000066,0.10358800000000001,-0.8957090000000001,0.13991599999999993,-0.18247900000000006,-0.8885400000000001,0.08184599999999986,0.28606700000000007,0.007168999999999981,0.9784083975805782,0.42830999999999997,single,-0.8885400000000001
50,0.416667,jog,-0.25473962083034496,0.07523398128148939,-0.12011039116870995,0.24035127390795735,-0.04734628194179342,0.4071438046756805,0.00983921286296081,0.007799376049913808,-0.01991840652747772,-0.17398608111350491,0.14434845212383776,0.2999760019198464,0.2772571611375212,-0.6778562572512107,-0.45905204975455816,0.07185544134432718,0.791856017276921,-1.310060776707136,-2.301402551693424,1.1354759668833465,7.252990249171909,0.06027500000000008,0.10302600000000006,-0.8948740000000001,0.14058900000000008,-0.18190299999999993,-0.885039,0.080314,0.284929,0.009835000000000038,0.9607577574854848,0.40164999999999995,single,-0.885039
51,0.425,jog,-0.27013080523221034,0.061082443297743184,-0.08496339853594669,-0.20468711695781153,0.09738343546115732,0.3587239145072954,0.006600264010550386,0.006240249609977332,-0.012120484819392437,-0.1708868354734304,0.09360374414976658,0.2778111124444982,-1.8470160088642043,-1.6982524881490753,4.217807828244731,-0.38868940986564654,-0.18710265689865346,0.9357880364916961,0.37192435378309485,-6.089608541230207,-2.6598931327671043,0.062581,0.10256899999999991,-0.8942669999999999,0.141416,-0.18163200000000002,-0.882016,0.07883499999999999,0.2842009999999999,0.0122509999999999,0.9747561694852369,0.37749,single,-0.882016
52,0.433333,jog,-0.3028921156846226,0.048001920076797586,-0.042001680067197886,-0.5654063497317502,0.2651068320799349,0.4089361695035106,0.006600264010576988,0.009960398415943227,-0.01164046561862468,-0.26125045001798447,0.19476779071161926,0.3224528981159227,-3.9315145148700497,-1.5697255755364867,5.155612440747464,3.192365835125912e-12,0.4464357141444712,0.0576046082764616,-10.844067508046766,12.140171194270042,5.357228569713708,0.0651600000000001,0.10225200000000001,-0.894014,0.14176300000000008,-0.18040900000000004,-0.8789790000000001,0.07660299999999998,0.28266100000000005,0.01503499999999991,0.9721974490862586,0.34965000000000007,single,-0.8789790000000001
53,0.441667,jog,-0.3024958003359743,0.011279097672190909,-0.04835613150948458,-0.2616917409452902,0.14518389544639548,0.28020514535833435,0.005399568034539354,0.011999040076792603,-0.009719222462203641,-0.2640988720902486,0.16246700263979902,0.3239740820734369,0.04755403751479663,-4.4063861776586135,-0.7624731752203904,-0.1440719913652077,0.2446174299075339,0.23053073631162105,-0.3417833060072201,-3.8757845058579825,0.18252747270389066,0.06772599999999995,0.10225799999999996,-0.8936919999999999,0.14208299999999996,-0.179149,-0.875876,0.074357,0.28140699999999996,0.017815999999999943,0.972736084949664,0.32183999999999996,single,-0.875876
54,0.45,jog,-0.34501380055201597,-0.00972038881555231,-0.007320292811709766,-0.8245548241897266,0.9902199992714092,0.4093263656828446,0.008400336013442242,0.012720508820345498,-0.009840393615744437,-0.34201368054722275,0.21384855394215083,0.37573502940117387,-5.1023641204898,-2.5200391800963797,4.924497623637903,0.3601065617308143,0.08657971241484372,-0.014541120069698267,-9.350151020877691,6.166032797594095,6.21156214181408,0.07067099999999993,0.1024449999999999,-0.893713,0.1421079999999999,-0.17728600000000005,-0.872684,0.07143699999999997,0.27973099999999995,0.021028999999999964,0.9697597427856688,0.28971,single,-0.872684
55,0.458333,jog,-0.3583343333733278,-0.020160806432277502,-0.027001080043205485,-0.14424737900274556,0.28074828444098016,0.4155178319699655,0.003960158406330232,0.008280331213260163,0.000120004800192128,-0.3944557782311084,0.22380895235809553,0.39937597503900224,-1.5985278796726126,-1.2529002300162269,-2.3617889393370652,-0.5328426265585049,-0.5328426265553038,1.1952956217372603,-6.29330345420446,1.1952956217382371,2.837026957617716,0.07368999999999981,0.10268200000000016,-0.8934869999999999,0.14180700000000002,-0.17525299999999988,-0.869131,0.0681170000000002,0.27793500000000004,0.024355999999999933,0.9847010221150609,0.25644000000000006,single,-0.869131
56,0.466667,jog,-0.36441084713225047,0.031077513798897165,-0.003119750419962859,-0.9969238393577676,0.14096486399667418,0.24743963563443977,0.009599232061444677,0.015958723302128462,-0.0013198944084469777,-0.4394048476121971,0.24430045596351388,0.4360451163906881,-0.7291233212050212,6.148106579214617,2.865530312364123,0.6766347078371058,0.9213333439966752,-0.17277408311004372,-5.393456849182707,2.4587837299518034,4.399944966604971,0.07680700000000007,0.10255600000000009,-0.893472,0.14118200000000014,-0.17347599999999996,-0.865471,0.06437500000000007,0.27603200000000006,0.028001000000000054,0.9688833633791961,0.21999000000000013,single,-0.865471
57,0.475,jog,-0.3514940597623865,0.03552142085684324,-0.12216488659545972,-0.579866516389674,0.6604025083590073,0.21506778425318804,0.00480019200768512,0.016080643225711844,0.0014400576023038704,-0.5126605064202645,0.26041041641665796,0.4436577463098542,1.5500764874431765,0.5332901785606728,-14.285987780570881,-0.5759078427648588,0.014630976069048578,0.33120748958968615,-8.791030698196037,1.9332725852807062,0.9135521323852314,0.07977600000000007,0.10239399999999987,-0.8924420000000001,0.13983900000000005,-0.17160200000000003,-0.8607560000000001,0.06006299999999998,0.2739959999999999,0.03168599999999999,0.9719275394063649,0.18314000000000002,single,-0.8607560000000001
58,0.483333,jog,-0.35221408856353026,0.012600504020163363,-0.0800432017280789,0.8510475832141645,-0.720446657003409,0.24799041561327456,-0.0015600624025009842,0.008520340813651023,0.0027601104044164275,-0.6654266170646691,0.3296531861274503,0.43717748709948134,-0.08640691241374572,-2.750620045203382,5.054804376260728,-0.7632610596647159,-0.9072725803505087,0.1584126727604166,-18.332666583991834,8.309464743884803,-0.7776622117332109,0.08269799999999994,0.10236,-0.891752,0.13722900000000005,-0.16896,-0.8564459999999999,0.05453100000000011,0.27132,0.03530600000000006,0.9848481563530088,0.14694000000000013,single,-0.8564459999999999
59,0.491667,jog,-0.3932085433165312,-0.008879289656842987,-0.0873530117590533,0.5993873659289484,-0.8435895287013829,0.24229882992537566,-0.04739620830332647,0.00371970242379316,0.019318454523637427,-0.6460283177345872,0.25917926565873983,0.46448284137269136,-4.918941055075703,-2.577369051716622,-0.8771070351541153,-5.499897516297749,-0.5760305243409957,1.9868423469187646,2.327609710832954,-8.456193960728392,3.27638040235301,0.08557999999999999,0.10246500000000003,-0.890863,0.13512199999999996,-0.16672599999999993,-0.851847,0.049541999999999975,0.26919099999999996,0.03901599999999994,0.9144715863840862,0.10983999999999994,single,-0.851847
60,0.5,jog,-0.36973478939158994,0.029401176047048044,-0.04008160326412412,-0.3752134032987031,-0.6489371445216406,0.29806745519681266,-0.019320772830922615,-0.003600144005757178,0.008040321612865081,-0.7502700108004248,0.28021120844833575,0.4032161286451454,2.816963149518941,4.593839638052457,5.672795931228765,3.3691870241694377,-0.8784167082143712,-1.3534300864961448,-12.509503548042456,2.5239340921152005,-7.3522996192903065,0.08850000000000002,0.10219,-0.8904620000000001,0.13195100000000015,-0.164636,-0.848153,0.04345100000000013,0.266826,0.04230900000000004,0.9646093204640994,0.07691000000000009,single,-0.848153
61,0.508333,jog,-0.5172206888275552,-0.036601464058562155,-0.15060602424096975,1.41520886270989,-0.7035283045278742,-0.13016623291240317,-0.0036001440057571543,0.004680187207502953,0.01428057122284898,-0.8385935437417454,0.3073322932917346,0.3628945157806296,-17.69901589295148,-7.920633638018712,-13.263461055663647,1.8865509210566898,0.9936794927709223,0.7488599075943685,-10.599247922875351,3.2546603676225554,-4.838787095225685,0.09278000000000008,0.10253400000000013,-0.8890880000000001,0.1292730000000002,-0.16176999999999997,-0.843874,0.03649300000000011,0.2643040000000001,0.04521400000000009,0.9742447468351748,0.047860000000000125,single,-0.843874
62,0.516667,jog,-0.5038396928245579,-0.07655387568993521,0.06191504679625196,-0.8625699352269738,-0.07399735426840823,-0.0973042255805161,0.05171586273099024,0.015478761699043008,-0.015838732901368002,-0.8969282457403603,0.3207343412526927,0.3152147828173769,1.6055910730738463,-4.793905883294131,25.50048848538792,6.637389817224347,1.295725280962337,-3.614027372716241,-6.9996042714921085,1.6081171059465011,-5.721110266769012,0.09741,0.10330099999999987,-0.889736,0.12599699999999991,-0.15845900000000013,-0.841763,0.028586999999999918,0.26176,0.04797299999999993,0.9062362901629364,0.020270000000000066,single,-0.841763
63,0.525,jog,-0.5048601944077828,-0.06840273610943923,0.04596183847354141,-0.6505150230976202,-0.1123876533491264,0.004659787921778211,0.02496099843993581,0.011640465618626345,-0.006600264010561167,-0.9863194527781042,0.29005160206409497,0.30469218768750617,-0.12246508859054014,0.9781758766945821,-1.9144615771883455,-3.2107121434122545,-0.4606139542081659,1.1086606133213484,-10.727373939486794,-3.6820759856711365,-1.262761926061527,0.10182500000000005,0.10396799999999984,-0.890174,0.12198500000000001,-0.15547200000000005,-0.839607,0.020159999999999956,0.2594399999999999,0.05056700000000003,0.9527972644405596,0.0,single,-0.839607
64,0.533333,jog,-0.5076203048121919,-0.07728309132366433,0.06108244329773027,-0.8782463418940236,-0.41682766046664876,-0.014268747136033226,-0.08316332653306864,-0.061682467298680925,0.07608304332173388,-1.1705268210728585,0.3151326053042171,0.23304932197288097,-0.33122649758899186,-1.0656852531171468,1.814545160709108,-12.975438014281224,-8.799103914233521,9.922393775626523,-22.105768426107772,3.0098407824459814,-8.597487785266512,0.10536199999999996,0.10409800000000002,-0.890049,0.11646099999999993,-0.15220199999999995,-0.838174,0.01109899999999997,0.2563,0.051875000000000004,0.7858511996220368,0.0,single,-0.838174
65,0.541667,jog,-0.5815934725221993,-0.11207103431725261,0.350371970242382,-3.8628545794494555,0.4998080475892832,-0.4410061018003173,-0.00035997120230084253,0.009839212862960744,0.0007199424046075133,-1.2231821454283607,0.24034077273817636,0.2321814254859601,-8.876070039597652,-4.174219221692827,34.711966276055854,9.935607791068774,8.581915066191641,-9.042848682160521,-6.318133471982449,-8.974301963767719,-0.10413924729072055,0.11020600000000003,0.10511399999999993,-0.8929630000000001,0.11111399999999994,-0.14926499999999998,-0.839159,0.0009079999999999089,0.2543789999999999,0.053804000000000074,0.9835465297399766,0.0,single,-0.839159
66,0.55,jog,-0.5331813272530849,-0.14196567862713658,-0.01944077763110462,-0.08192399328188434,-0.7371752294005784,-0.27377348371298466,0.034921396855879035,0.022920916836679642,-0.001920076803071537,-1.2390495619824642,0.22428897155884925,0.1846873874954989,5.809689819886501,-3.5875008172187495,-44.37930491701489,4.23393352432254,1.5698672715371227,-0.3168149775205855,-1.9041661531385385,-1.9262931932469753,-5.699512539356895,0.11494000000000004,0.10648799999999992,-0.8928170000000001,0.10523199999999999,-0.14621300000000015,-0.837458,0.00970800000000005,0.25270100000000006,0.05535900000000005,0.930307040808162,0.0,single,-0.837458
67,0.558333,jog,-0.5268210728429324,-0.13236529461179483,0.047041881675261195,-0.5669148104571673,-0.5177655004763718,-0.1546829076704993,-0.004800192007685152,0.008760350414015409,0.0014400576023038802,-1.3856954278171223,0.2047281891275652,0.14184567382695468,0.763261059660684,1.152092165527641,7.978238246293823,-4.766781334881141,-1.6993359441574898,0.40323225793537115,-17.598207828472272,-2.347387787265596,-5.141211288676901,0.11929000000000012,0.10766399999999998,-0.893197,0.09807500000000013,-0.1434040000000001,-0.836668,0.021214999999999984,0.25106800000000007,0.05652900000000005,0.983179101244043,0.0,single,-0.836668
68,0.566667,jog,-0.4990400767938289,-0.1245500359971306,-0.06347492200623922,0.10766348586104597,-0.9654360611749624,-0.0044843525228480206,0.005519558435323991,0.006719462443011228,0.08147348212142955,-1.4310055195584368,0.15394768418528143,0.10571154307655221,3.333452849664428,0.9377560132786379,-13.26095556533472,1.2382709914817691,-0.24488696556325473,9.603242682880376,-5.4367760668723495,-6.09317313922287,-4.335748830141851,0.12349499999999991,0.10875800000000013,-0.891989,0.09030799999999983,-0.14108299999999985,-0.8352580000000001,0.03318700000000008,0.24984099999999998,0.056730999999999976,0.8634396247703064,0.0,single,-0.8352580000000001
69,0.575,jog,-0.5737429497180115,-0.16848673946957562,-0.02208088323532505,-0.4556869295404517,-0.7167394588477297,0.003972381599009961,-0.019080763230531823,0.003120124804975364,-0.068282731309253,-1.492379695187808,0.1543261730469111,0.05472218888755577,-8.96470333903556,-5.272615321306303,4.96748335184382,-2.952156686170172,-0.4319377940760707,-17.97146447026088,-7.365195683351958,0.04542048021476901,-6.118967261370084,0.12811700000000004,0.11018799999999995,-0.892374,0.08265300000000009,-0.138393,-0.8346180000000001,0.04546399999999995,0.24858099999999994,0.05775599999999992,0.8817213494972586,0.0,single,-0.8346180000000001
70,0.583333,jog,-0.5786631465258445,-0.14580583223328467,-0.02412096483859425,-0.9881153097664509,-0.8298377725961377,-0.19469160840439703,-0.008280331213260108,-0.0004800192007551856,-0.005520220808832022,-1.6655466218648647,0.03084123364934005,0.05184207368294732,-0.5904472348293454,2.7218177410645463,-0.24481958517571015,1.2961036862200492,-0.4320345620701469,7.531802532151771,-20.780862435744133,-14.818785479127628,-0.345627649658999,0.13286999999999982,0.11139900000000003,-0.892219,0.073596,-0.13692100000000007,-0.833985,0.05927399999999983,0.2483200000000001,0.05823400000000001,0.9833945172029231,0.0,single,-0.833985
71,0.591667,jog,-0.562275017998552,-0.11507079433644406,-0.04427645788337664,-1.045844557430637,-1.318540748442325,-0.05038479803752159,0.02663786897050214,0.019078473722104514,-0.00803935685145237,-1.7988960883129352,0.07031437485003515,-0.023518118550515988,1.9664181098263043,3.687909514859656,-2.4184656881188187,4.189848834144706,2.3468314042308074,-0.3022721433429719,-16.00065592129464,4.736398032240797,-9.042499668042085,0.13777799999999996,0.11251699999999998,-0.891917,0.06328999999999985,-0.13537599999999994,-0.833812,0.07448800000000011,0.24789299999999992,0.05810499999999996,0.9437714119409869,0.0,single,-0.833812
72,0.6,jog,-0.4093363734549483,-0.037801512060490594,-0.1230049201968021,-0.9489222532052048,-0.21715267345555483,-0.33552118672174314,-0.008880355214224192,-0.0016800672026831415,0.04956198247930006,-1.7980319212768638,0.010200408016307632,-0.06180247209888471,18.353371480091813,9.27268478050572,-9.447793389346716,-4.262357396463058,-2.49112455595678,6.9124372171790425,0.10370419249626818,-7.213964578630514,-4.594306198052211,0.14111499999999988,0.11281800000000008,-0.890479,0.05171799999999993,-0.13497599999999998,-0.833302,0.08939699999999995,0.24779400000000007,0.05717700000000003,0.9160345070577142,0.0,single,-0.833302
73,0.608333,jog,-0.4641785671426817,-0.07284291371655126,-0.20424816992679398,-0.03717717363269446,-1.5260296479875213,-0.11947216973352949,-0.02016080643225072,0.005640225609013324,-0.06600264010560418,-1.8628345133805218,-0.018480739229567604,-0.05208208328332991,-6.581326495587805,-4.205136404183429,-9.749579950797017,-1.3537082944949577,0.8784702762146207,-13.868309442566154,-7.776622117323609,-3.4418753445187944,1.166493317599275,0.14481499999999992,0.11347200000000002,-0.8893270000000001,0.04006299999999996,-0.13452299999999995,-0.832034,0.10475199999999996,0.24799499999999997,0.05729300000000004,0.8845946905488078,0.0,single,-0.832034
74,0.616667,jog,-0.6634269258459502,-0.009119270458359181,0.175905927525795,-3.9790526199360774,-3.7959381155086898,-0.7760493607416987,-0.01283897288217901,0.0033597312214923374,-0.0147588192944563,-1.8970482361411318,-0.021478281737452632,-0.07943364530837696,-23.907890413159304,7.646225492943657,45.614842506910385,0.8785497420292481,-0.2736374355076793,6.1487665960101,-4.105318305808768,-0.35967632684005824,-3.2819248890145434,0.15023699999999995,0.1135759999999999,-0.890916,0.029781999999999975,-0.1346259999999999,-0.8341620000000001,0.12045499999999998,0.2482019999999998,0.05675399999999997,0.9669197203123634,0.0,single,-0.8341620000000001
75,0.625,jog,-0.5441017640705651,-0.13284531381254824,-0.09168366734669191,-0.7713033608142053,-0.2625109566078071,-0.2856593129926175,-0.0073202928116964435,0.005520220808857836,-0.013080523220929374,-1.9435977439097336,-0.10764430577224816,-0.17484699387975444,14.319592196734021,-14.847719111267075,-32.11203586613294,0.6622680991818723,0.2592691212487087,0.20140358496662905,-5.586164378807343,-10.340336497635326,-11.45005983095849,0.15471000000000013,0.11472900000000008,-0.890261,0.018120000000000136,-0.1344160000000001,-0.834855,0.13659,0.24914500000000017,0.055405999999999955,0.9733771395037609,0.0,single,-0.834855
76,0.633333,jog,-0.49069962798511846,-0.18600744029760397,-0.3536541461658491,1.078975297604427,1.295138742356462,-0.18068620853191922,-0.00588023520940424,-0.0008400336013548828,-0.021600864034561244,-1.933637345493817,-0.12864514580582712,-0.20016800672026663,6.4085126707604,-6.379710366621325,-31.437714966897406,0.17281382482805685,-0.7632610596679098,-1.0224817969076965,1.195295621734865,-2.5202016120939477,-3.038643086584914,0.15875000000000017,0.11627199999999993,-0.887494,0.006096000000000101,-0.1339380000000001,-0.833576,0.15265400000000007,0.25021000000000004,0.05391800000000002,0.9626621970826957,0.0,single,-0.833576
77,0.641667,jog,-0.559875209983185,-0.17158627309815822,-0.2038636909047295,1.1463817858682026,-1.013818733405218,0.28702816978286366,0.02207823374129626,0.04679625629948316,-0.03431725461962998,-2.009719222462203,-0.2188624910007269,-0.25857931365490955,-8.300405807303443,1.7304016318029556,17.973416757993817,3.354747894252539,5.715897516299294,-1.5258448026240468,-9.12909490861368,-10.825215406155545,-7.008796128466912,0.16359999999999997,0.11809199999999986,-0.886081,-0.005986999999999965,-0.13433200000000012,-0.834032,0.16958699999999993,0.252424,0.05204900000000001,0.8965187621217854,0.0,single,-0.834032
78,0.65,jog,-0.5791431657266263,-0.08172326893074869,-0.17112684507379353,-3.67980824166712,3.0840038434608523,-1.0038046903236175,-0.006960278411150039,0.0008400336013548828,-0.021360854434177824,-2.063602544101781,-0.2066482659306365,-0.2684507380295204,-2.312247179100112,10.78399185976349,3.9285786428580147,-3.48476084872749,-5.514967322468269,1.5548302154628704,-6.466257247039213,1.4657656390364033,-1.1846183096856857,0.16836799999999985,0.11877999999999989,-0.8848330000000001,-0.01835700000000018,-0.1353730000000002,-0.834843,0.18672500000000003,0.2541530000000001,0.04999000000000009,0.9625301145299373,0.0001000000000000445,single,-0.834843
79,0.658333,jog,-0.584783391335674,-0.19596783871357645,-0.2676107044281874,1.0395930308966028,0.6227571751769557,0.04368217821492556,-0.006720268810732566,-0.002760110404402308,-0.013200528021120844,-2.067682707308294,-0.22104884195366808,-0.25909036361454624,-0.6768541472516268,-13.70989676981025,-11.578526263577915,0.028802304142262702,-0.43203456207334984,0.9792783407004746,-0.4896391703484116,-1.7281382482937366,1.1232898613913664,0.17318500000000014,0.12039000000000022,-0.882713,-0.030713999999999908,-0.13558199999999987,-0.834772,0.20389900000000005,0.2559720000000001,0.04794100000000001,0.9748872452521415,0.020589999999999997,single,-0.834772
80,0.666667,jog,-0.6035517158627105,-0.1919846412286791,-0.2407007439404772,1.9676251653457995,-0.7362360229948892,0.7630610801846395,-0.007439404847612913,0.0007199424046016851,-0.008879289656827107,-2.0655147588192864,-0.2807775377969752,-0.2267818574514025,-2.2520187817418202,0.4779454625506762,3.2289369435697157,-0.08628942127193927,0.41757293124597633,0.5185071231453929,0.26013300804029194,-7.16687015158467,3.876710602729,0.178153,0.121996,-0.880781,-0.0428980000000001,-0.13632200000000005,-0.8346560000000001,0.2210510000000001,0.25831800000000005,0.04612499999999997,0.9806562638359434,0.03875000000000001,single,-0.8346560000000001
81,0.675,jog,-0.5869434777391046,-0.12240489619584984,-0.23676947077883045,1.3419452125084859,-1.0059120887633894,0.6697765831971422,-0.027121084843400763,0.017520700828030585,0.07404296171846837,-2.183847353894139,-0.2307692307692441,-0.2544101764070548,1.9930682975646024,8.349903400075478,0.47177165026361695,-2.3618960753375453,2.0161716576777664,9.951068207763726,-14.20047942815938,6.001236892803416,-3.315530895914101,0.18281799999999993,0.123162,-0.878191,-0.05620500000000006,-0.13722500000000015,-0.8348030000000001,0.23902299999999999,0.26038700000000015,0.04338799999999998,0.8653720313374785,0.06612000000000001,single,-0.8348030000000001
82,0.683333,jog,-0.6875075003000297,-0.08088323532942153,-0.1153246129845192,-2.4474776403395535,-0.35165273281787,-0.790215297353091,-0.04992199687987228,-0.010080403216125496,-0.010920436817472895,-2.1752070082803616,-0.261010440417597,-0.235569422776914,-12.068165433928481,4.982798615916079,14.573965893953243,-2.7362188931323326,-3.3122649758977962,-10.196015664939644,1.036882948971251,-3.62909032141524,2.2609808748519127,0.18813100000000005,0.12375200000000008,-0.877321,-0.06860200000000005,-0.1387259999999999,-0.835805,0.2567330000000001,0.262478,0.041516,0.9131880025931185,0.08484000000000003,single,-0.835805
83,0.691667,jog,-0.7049436045116426,-0.20530357571394348,-0.299136069114478,0.21484298207789046,0.04821306775412055,0.341817149674938,-0.005519558435323991,0.008159347252214599,0.03647708183345289,-2.1177105831533347,-0.3052555795536456,-0.16186705063594825,-2.0921651321829575,-14.929246506422006,-22.055610286771948,5.3278663840350315,2.1885949686033066,5.687247258330385,6.899019093715679,-5.308991976967628,8.843577170742163,0.19396000000000013,0.12553100000000006,-0.874524,-0.080376,-0.139559,-0.834661,0.27433600000000014,0.26509000000000005,0.03986299999999998,0.9370269464156031,0.10137000000000007,single,-0.834661
84,0.7,jog,-0.7028681147245955,-0.20268810752430902,-0.20004800192007552,-0.514395490516993,1.020185598125335,-0.22341085710868325,-0.010200408016334279,0.015000600023992783,0.03984159366374679,-2.161286451458061,-0.3367334693387603,-0.1636865474618988,0.2490687371951397,0.3138687375056379,11.891043705076608,-0.5617244186979876,0.8209831719402672,0.4037575699380688,-5.22931336910199,-3.7774978741287675,-0.21834835304819133,0.19973200000000002,0.12734500000000004,-0.872525,-0.09252899999999986,-0.1406759999999998,-0.8343579999999999,0.2922609999999999,0.26802099999999984,0.03816700000000006,0.9270384631305527,0.11832999999999994,single,-0.8343579999999999
85,0.708333,jog,-0.9338773550941946,-0.3555742229688965,-0.012840513620540955,2.2875324952906633,-1.182483871359554,0.712690145929947,-0.016440657626311434,0.007440297611905225,0.029401176047042017,-2.1838473538941656,-0.35173406936277507,-0.13476539061562395,-27.72221773306109,-18.347067736059866,22.465797227833168,-0.7488599075935592,-0.9072725803537174,-1.252900230013768,-2.7074165889960793,-1.8001440086421099,3.470677648658915,0.20737699999999992,0.13036999999999987,-0.872173,-0.10294500000000006,-0.140644,-0.8353740000000001,0.310322,0.27101399999999987,0.036798999999999915,0.942504048338444,0.13200999999999996,single,-0.8353740000000001
86,0.716667,jog,-0.7266618670506377,-0.14362850971923513,-0.15574754019678563,-0.3502680931867685,-0.49297687595299694,0.487757180632438,-0.0025197984161058977,0.004079673626120621,0.04187664986801049,-2.148548116150689,-0.4218862491000777,-0.15850731941444596,24.863869455670176,25.431451073873262,-17.147471391437914,1.6703694756665983,-0.4032426188846385,1.4969371035479218,4.235569683642475,-8.417588161423339,-2.848803551574493,0.21341200000000016,0.13160100000000008,-0.870526,-0.11479499999999998,-0.14296299999999995,-0.835397,0.32820700000000014,0.27456400000000003,0.03512900000000008,0.9297495171008804,0.14871,single,-0.835397
87,0.725,jog,-0.6851074042961738,-0.13608544341773415,-0.25957038281531813,0.7142941989658638,-0.34603362720961,0.29092176020899235,0.08172326893074977,0.052082083283337265,0.012360494419776775,-2.1272050882035365,-0.4309372374895181,-0.13344533781351398,4.986734999935717,0.9052041643466995,-12.459239483803366,10.109572464521355,5.760519579649236,-3.5420803370015586,2.561265804290493,-1.0861620532149874,3.007558094435643,0.21980200000000005,0.1331690000000001,-0.86826,-0.12681199999999992,-0.1454200000000001,-0.834346,0.346614,0.2785890000000002,0.033914,0.8371775173679983,0.16086,single,-0.834346
88,0.733333,jog,-0.6734669386775384,-0.043921756870285246,-0.050042001680067075,-1.0183670760239951,-1.381932492780757,0.39708271973872133,0.03804152166085436,0.0152406096243835,0.03336133445337805,-2.102604104164159,-0.43681747269889,-0.13632545301811994,1.3969117507062716,11.060084789085387,25.14441151269053,-5.242019353161554,-4.421153685221842,2.5202016120966264,2.9522361741722536,-0.7056564513826761,-0.3456276496587001,0.2257309999999999,0.13366200000000017,-0.8675649999999999,-0.13872099999999998,-0.14869399999999988,-0.835065,0.3644519999999999,0.28235600000000005,0.03249999999999997,0.9119278674969858,0.175,single,-0.835065
89,0.741667,jog,-0.7854571634269232,-0.08675305975519694,-0.039956803455727094,-1.6417286306469203,-0.5270672426408709,0.3656680839699605,-0.01991840652746453,0.03827693784496761,0.02663786897048251,-2.0598752099832183,-0.4349652027837785,-0.10103191744660597,-13.437751949770272,-5.1393451985735465,1.2101269767626635,-6.954635011797363,2.764138255409676,-0.8067513178420421,5.127057137141945,0.2222546094446262,4.23488547774348,0.23211099999999996,0.13470399999999993,-0.86701,-0.14934200000000009,-0.15159600000000006,-0.8355739999999999,0.38145300000000004,0.2863,0.03143600000000002,0.9154843381925665,0.18564000000000008,single,-0.8355739999999999
90,0.75,jog,-0.6980679227169011,-0.195487819512792,-0.411376455058199,3.4017026014002907,-2.22116845145495,0.6630574595126105,0.01764070562821272,0.037081483259317344,0.033961358454337856,-2.046321852874101,-0.48193927757110316,-0.11412456498259804,10.48712837033742,-13.0486931186361,-44.572141077939555,4.507273749631237,-0.14346028868957855,0.8788538922183268,1.6264679118105434,-5.637114459057301,-1.5711805515411035,0.23807499999999981,0.13664199999999993,-0.8632989999999999,-0.16057700000000008,-0.15398299999999998,-0.833097,0.3986519999999999,0.2906249999999999,0.03020199999999995,0.911186763313927,0.19798000000000004,single,-0.833097
91,0.758333,jog,-0.7688707548301962,-0.16188647545902304,-0.1916476659066306,0.32964436969632954,-1.477628953875022,-0.07966860659372549,0.012240489619590312,0.03216128645147676,0.03684147365894641,-1.9761190447617833,-0.5310212408496465,-0.07656306252250054,-8.496679720784206,4.032322579355434,26.36850943856564,-0.6480518431084108,-0.5904472348302604,0.3456276496590115,8.424673960436495,-5.89007119627303,4.507560597635586,0.2445839999999999,0.13825900000000013,-0.861395,-0.17063700000000004,-0.15705900000000006,-0.832138,0.41522099999999995,0.2953180000000002,0.029256999999999977,0.9159783077991813,0.20743000000000006,single,-0.832138
92,0.766667,jog,-0.8188144948404104,-0.29397648188145875,-0.14446844252459679,2.4687283613737723,-1.1142834715472285,0.782511247236314,-0.0002399808015427793,0.006239500839925759,0.06047516198704108,-1.9730021598272234,-0.5061195104391477,-0.09251259899208043,-5.992769379675361,-15.84953280806773,5.6610539215303675,-1.4975366476041712,-3.110365444150606,2.8358157341126473,0.37399627244540307,2.987968611770933,-1.9137912730477538,0.2514059999999998,0.14076100000000014,-0.859687,-0.18025600000000008,-0.15882699999999983,-0.831705,0.4316619999999999,0.29958799999999997,0.02798199999999995,0.8986722290606234,0.22017999999999993,single,-0.831705
93,0.775,jog,-0.8720748829953323,-0.20256810272409753,-0.14616584663387103,0.32443074134782646,-0.5844891103557232,-0.3154839645817814,-0.027601104044155948,-0.006960278411150039,0.06336253450137988,-1.9049561982479286,-0.5288611544461816,-0.05088203528141197,-6.391502238680156,10.969444276654366,-0.20369664097854734,-3.2834661277586767,-1.5840368716039532,0.34649856166312104,8.165842023196266,-2.729106445101865,4.995867479979394,0.258443,0.14239099999999993,-0.857941,-0.188863,-0.16154599999999997,-0.830911,0.447306,0.3039369999999999,0.02703,0.8842287072805515,0.22970000000000002,single,-0.830911
94,0.783333,jog,-0.868954758190342,-0.19176767070682862,-0.12888515540621975,-0.9147683089651677,-1.023588096348911,-0.45095210526366764,-0.0927637105484123,-0.03768150726028181,0.07536301452058111,-1.8406336253450262,-0.532221288851555,-0.010560422416897341,0.3744299537969978,1.2961036862197295,2.07376589795409,-7.819825573533776,-3.6866949296930343,1.4401152069124374,7.719017509048726,-0.4032322579351177,4.838787095225609,0.2649110000000001,0.143675,-0.856239,-0.1969599999999999,-0.16438299999999995,-0.8299249999999999,0.46187100000000003,0.30805799999999994,0.02631400000000006,0.7911367676248827,0.23686000000000007,single,-0.8299249999999999
95,0.791667,jog,-0.8965682745380209,-0.270098392128628,0.010079193664516843,-0.5622548475942034,-1.2025069022885253,-0.21449663176553058,-0.05231581473483317,0.017878569714417276,0.1648668106551472,-1.7558195344372325,-0.5092392608591437,0.018238540916726446,-3.3133568931699946,-9.398934655843387,16.674387937453268,4.853359228891147,6.666675902891608,10.739596368438372,10.17687675879446,2.7576227492693843,3.4555991521026597,0.27194699999999994,0.14607499999999995,-0.8549490000000001,-0.204121,-0.16637600000000008,-0.8298570000000001,0.47606799999999994,0.31245100000000003,0.025092000000000003,0.7101837124908894,0.24908000000000013,single,-0.8298570000000001
96,0.8,jog,-0.7873514940597638,-0.3231729269170821,-0.051122044881799555,1.1785071578785262,-0.3743746120020934,-0.25879205785269643,-0.017520700828030585,0.06816272650907496,0.1906876275050986,-1.6956678267130585,-0.4940597623904847,-0.014400576023040275,13.106537918907556,-6.369198942572167,-7.344442403254067,4.175580692043974,6.034340188966455,3.098621966872831,7.2184936666475155,1.821612680746304,-3.916850706800262,0.278362,0.14933600000000014,-0.852934,-0.21168999999999993,-0.16779999999999995,-0.829551,0.49005199999999993,0.3171360000000001,0.02338299999999993,0.6612322020822312,0.26617,single,-0.829551
97,0.808333,jog,-0.9704788191527697,-0.2974918996759775,-0.09456378255130422,-0.46964045476753025,-0.8633219932686538,-0.7473703075752208,-0.06996279851194113,0.03924156966278281,0.10668426737069592,-1.6404656186247686,-0.46753870154805416,0.0014400576023038802,-21.976158057483207,3.0818465427942923,-5.213217049022568,-6.293303454207491,-3.4706776486610353,-10.08080644838635,6.624529951792921,3.1826546072759867,1.9009520731242409,0.28586599999999995,0.152142,-0.8512569999999999,-0.21727300000000005,-0.16921699999999995,-0.828751,0.503139,0.32135899999999995,0.022505999999999915,0.7775376007448822,0.27494,single,-0.828751
98,0.816667,jog,-1.0886729061674847,-0.41012718982482804,-0.04667626589872447,0.5987387895701638,-0.9028440679291064,-1.5541875914355172,-0.04031677465801409,0.07631389488839141,0.2183825293976468,-1.5548356131509258,-0.44012479001679583,0.01739860811135171,-14.18215586929615,-13.515153605573516,5.746042314924332,3.557238283408546,4.4483231612201,13.402719225695947,10.274778674567093,3.289406231252474,1.9148728712560241,0.29460299999999995,0.156196,-0.849048,-0.22115800000000008,-0.1694669999999998,-0.828217,0.515761,0.3256629999999998,0.020831000000000044,0.6086342218944605,0.29169,single,-0.828217
99,0.825,jog,-0.941677667106712,-0.33397335893435803,-0.006000240009599778,-0.08549305011231839,-0.3414224739164105,-0.8800080964769611,-0.08316332653306864,0.041761670466820854,0.0962438497539907,-1.4962198487939695,-0.3968558742349935,0.010560422416895676,17.640134292664595,9.138825259866879,4.881318359429385,-5.14179189668246,-4.146432787900021,-14.65722784635272,7.034173089758405,5.192477592920041,-0.820615107939049,0.30175700000000005,0.159327,-0.8481960000000001,-0.22577899999999995,-0.169991,-0.828079,0.527536,0.329318,0.02011700000000005,0.7768716449633264,0.29883000000000004,single,-0.828079
100,0.833333,jog,-1.0330013200527917,-0.3601344053761907,-0.07128285131405028,-1.1674744187876276,0.4586890269743653,-0.7633326602572741,-0.08172326893074869,0.08460338413538639,0.08388335533421364,-1.4156966278651022,-0.3645745829833027,0.0075603024120973516,-10.959276724598501,-3.139451151065947,-7.834226725603051,0.17281382483138683,5.14121128867939,-1.4833186631197657,9.663173038385574,3.8739099065991467,-0.3600288017278665,0.30968400000000007,0.16303299999999998,-0.8469030000000001,-0.22896799999999995,-0.17002800000000007,-0.827422,0.538652,0.33306100000000005,0.01948100000000008,0.7592093890603222,0.30519,single,-0.827422
101,0.841667,jog,-1.0353971682265337,-0.37377009839214986,0.12395008399327367,-0.42699468382029426,-0.3465216658766581,-0.8911693955495633,-0.034917206623474806,0.0688744900407785,0.22186225101991713,-1.3272138228941701,-0.3168946484281372,0.003959683225342572,-0.28747878254644066,-1.6361522697335107,23.426078150626644,5.616278174618854,-1.887316306048448,16.556142990845025,10.617087229533407,5.721134455863348,-0.43203973923143174,0.318022,0.16672200000000004,-0.846087,-0.23140000000000005,-0.16955399999999998,-0.828422,0.5494220000000001,0.336276,0.017665000000000042,0.6084724888182311,0.32335,single,-0.828422
102,0.85,jog,-1.1042841713668567,-0.32761310452417186,0.29329173166926964,-3.171021731807661,0.5850483665967141,-1.6644258439048478,-0.07956318252731144,0.03600144005759867,0.2552502100084015,-1.2434897395895927,-0.2416896675867009,0.0028801152046077604,-8.266771047680747,5.539060826590474,20.321810593543443,-5.3577314177171536,-3.944923794933413,4.006715347232047,10.047291888224905,9.02495869932041,-0.12955334462196347,0.3265609999999999,0.1697519999999999,-0.8464039999999999,-0.2325600000000001,-0.16883800000000004,-0.830842,0.559121,0.33858999999999995,0.015561999999999965,0.5503733851249826,0.3443799999999999,single,-0.830842
103,0.858333,jog,-1.1006840273611114,-0.5257410296411796,0.040921636865478735,1.494562501161991,-0.14496800597795773,-0.3328317517189081,-0.1066842673706845,0.05268210728430054,0.2748109924396965,-1.1328453138125483,-0.21996879875194597,-0.0489619584783396,0.4320345620719262,-23.776302066123478,-30.285622801366838,-3.254660367619458,2.0017601376097205,2.3473877872668805,13.277862207733591,2.6066085245115618,-6.221297693861411,0.33484400000000014,0.17457199999999995,-0.8444550000000001,-0.23282799999999992,-0.16629000000000005,-0.831591,0.5676720000000001,0.340862,0.012864000000000098,0.5008951933210121,0.37136,single,-0.831591
104,0.866667,jog,-1.153587712982956,-0.39908807295415877,0.17110631149507266,-0.9219757158716347,-0.7352372679258147,-1.1020950514710524,-0.1447084233261396,0.03935685145189679,0.28293736501080063,-1.0243580513558994,-0.15070794336452256,-0.07583393328533684,-6.347934439866194,15.197139031320084,15.620911282648748,-4.5625337119576805,-1.598902787665446,0.9750867015963767,13.017430100389905,8.310637795467219,-3.2243790265175667,0.343252,0.178226,-0.8435229999999999,-0.23175100000000004,-0.16422000000000003,-0.833649,0.575003,0.34244600000000003,0.009873999999999938,0.5,0.40125999999999995,flight,-0.833649
105,0.875,jog,-1.075723028921149,-0.5724228969158938,-0.20772830913235568,3.2818612681700663,-2.378382494979773,0.7308461415128069,-0.18240729629184682,0.01728069122763967,0.28729149165966605,-0.9248769950797884,-0.08460338413535974,-0.1370454818192727,9.344135852850904,-20.801010915844746,-45.46197295420938,-4.524045717713557,-2.649245196718712,0.5225160985077885,11.938204281304527,7.932864422076388,-7.3456796512583225,0.350696,0.18314000000000008,-0.839398,-0.23049399999999998,-0.16015499999999983,-0.83306,0.58119,0.3432949999999999,0.006337999999999955,0.5,0.43662,flight,-0.83306
106,0.883333,jog,-1.146525861034444,-0.5612624504980226,-0.0212408496339832,2.7750407420548675,-1.2931946937803926,0.017879678789014575,-0.16416656666267013,0.06684267370693824,0.39469578783151166,-0.8021120844833788,0.001560062402474338,-0.18096723868954628,-8.496679720784192,1.3393071424302323,22.379390315417222,2.1889751145057743,5.947675804547985,12.889031101865493,14.732378566711757,10.34002718562747,-5.270821657299099,0.35888200000000003,0.18837400000000004,-0.835932,-0.22762399999999994,-0.15546499999999996,-0.834391,0.586506,0.343839,0.0015410000000000146,0.5,0.48458999999999997,flight,-0.834391
107,0.891667,jog,-1.130909527237816,-0.7810175185985017,-0.02471802255820022,3.4185634495774933,-2.0594283819026824,-0.1038084671642644,-0.24334053275737105,0.013918886489081551,0.392848572114233,-0.7021838252939767,0.10583153347732835,-0.25617950563955005,1.8738101507833043,-26.368498692162266,-0.41722737271622784,-9.500115922090398,-6.350346438427764,-0.2216481542211002,11.990431868178863,12.511575602934318,-9.024750053996184,0.366279,0.19499899999999992,-0.832452,-0.224051,-0.14807400000000004,-0.83632,0.59033,0.34307299999999996,0.0038679999999999826,0.46132000000000006,0.5,flight,-0.832452
108,0.9,jog,-1.3175327013080556,-0.7910716428657031,-0.0715228609144412,2.580929234046052,0.4169623754561622,-1.1700135966700913,-0.23988959558383244,0.024480979239180623,0.40969638785551254,-0.5927037081483266,0.2109684387375398,-0.3235329413176518,-22.39567671549727,-1.2065431737911176,-5.616805274959892,0.41412902598567153,1.2675018300850867,2.0218187617040027,13.138139583061278,12.616933308557662,-8.082735590795808,0.375259,0.20179499999999995,-0.8284419999999999,-0.21801099999999995,-0.13972400000000018,-0.8384199999999999,0.59327,0.34151900000000013,0.009978000000000042,0.40022,0.5,flight,-0.8284419999999999
109,0.908333,jog,-1.2317292691707709,-0.5835833433337461,0.08940357614304602,0.9610377505765636,-0.8461357701658511,0.04254390492300888,-0.2916116644665732,0.009360374414979384,0.4273370934837426,-0.48109924396976805,0.32077283091325715,-0.4024960998439969,10.296823729423435,24.89959192751217,19.31194492469563,-6.206896541790622,-1.8145451607105938,2.116969354161793,13.393071424284122,13.177054143251933,-9.47595806148396,0.383093,0.20673600000000003,-0.825626,-0.21175600000000006,-0.13218799999999997,-0.8425189999999999,0.5948490000000001,0.338924,0.016892999999999936,0.3310700000000001,0.5,flight,-0.825626
110,0.916667,jog,-1.2353011759059247,-0.5386369090472679,0.12239020878329891,-0.5655354878637476,0.6482606397884216,0.11911554693622661,-0.3939284857211569,0.008999280057600994,0.465322774178063,-0.33537317014638474,0.43748500119990524,-0.4649628029757588,-0.42859452065680503,5.393140663124288,3.958079270488678,-12.277036387638939,-0.04332785665687393,4.557917049954417,17.485730000405834,14.00434008719069,-7.495404743431895,0.3901049999999999,0.21130000000000004,-0.8227679999999999,-0.204256,-0.12405299999999997,-0.847414,0.5943609999999999,0.335353,0.024646000000000057,0.25354,0.5,flight,-0.8227679999999999
111,0.925,jog,-1.2809312372494799,-0.6156246249850063,0.059162366494668744,0.4509240544894606,-0.19458895852931501,0.23138616045967672,-0.4318972758910228,0.02736109444376503,0.46957878315132406,-0.1724468978759169,0.5201008040321397,-0.5046201848073902,-5.475826394282371,-9.238895468347296,-7.5876445804188055,-4.556437077867001,2.203505866574338,0.5107415064515832,19.55193474984605,9.914292911584552,-4.7590761828430646,0.39718,0.21665800000000002,-0.8193480000000001,-0.19501900000000005,-0.11458900000000005,-0.8521120000000001,0.592199,0.33124700000000007,0.032764000000000015,0.17236,0.5,flight,-0.8193480000000001
112,0.933333,jog,-1.2976119044761996,-0.671666866674682,-0.01680067202688471,1.4360297650590168,-0.690494990864929,0.49332888982427986,-0.4195367814712559,0.06300252010081765,0.49525981039241923,-0.009240369614783925,0.5366614664586671,-0.5222608904356232,-2.0017601376118845,-6.725338016281803,-9.115929259756888,1.4833186631185649,4.277142164532935,3.08184654279316,19.585566814008697,1.9873589855427314,-2.1169693541621393,0.4044970000000001,0.2227800000000002,-0.815081,-0.18428299999999997,-0.10451999999999995,-0.8563240000000001,0.5887800000000001,0.32730000000000015,0.04124300000000003,0.08756999999999998,0.5,flight,-0.815081
113,0.941667,jog,-1.31713462922964,-0.6017518598512063,0.14938804895607524,-0.23776961864281396,0.1579807858366481,0.3053741407785576,-0.39860811135109453,0.07295416366689912,0.4787616990640721,0.02387808975282682,0.5063594912407103,-0.3473722102231789,-2.342539567247452,8.38912968844195,19.94105123385633,2.511239515258124,1.1941016997937837,-1.9796149902024218,3.973897212336272,-3.6359461504627446,20.98496282846688,0.41215199999999996,0.22840300000000013,-0.812336,-0.173107,-0.09528499999999984,-0.860464,0.585259,0.323688,0.04812800000000006,0.01871999999999996,0.5,flight,-0.812336
114,0.95,jog,-1.318252730109219,-0.6749069962798395,0.025921036841473174,0.2954549947423618,0.09211344388571523,0.38004817809620095,-0.5725429017160836,-0.01284051362055445,0.6163446537861573,-0.04008160326413771,0.3105724228969229,-0.207968318732751,-0.1341774726483976,-8.778967530137276,-14.816634119117149,-20.873009764189444,-10.29577310541874,16.510614991250026,-7.675470180843047,-23.49538801677538,16.729136144297268,0.4183659999999999,0.2339199999999999,-0.8074159999999999,-0.16245600000000004,-0.08707299999999996,-0.862413,0.580822,0.32099299999999986,0.054997000000000074,0.0,0.5,flight,-0.8074159999999999
115,0.958333,jog,-1.2162486499459935,-0.6134645385815414,-0.01140045601823543,0.2612806326113208,0.0662169802611273,0.8311514800156734,-0.6461058442337466,0.030121204848193948,0.7015480619224728,-0.07188287531501424,0.009000360014379562,-0.08256330253210108,12.24097925875737,7.373389859390122,-4.478758293496754,-8.827906218368263,5.155612440747416,10.224817969076573,-3.8163052983170997,-36.19009514971104,15.049203912234416,0.4231170000000001,0.2392829999999999,-0.801475,-0.15292000000000006,-0.08188600000000013,-0.863006,0.5760370000000001,0.32116900000000004,0.061531,0.0,0.8169331241735416,single,-0.801475
116,0.966667,jog,-1.2590592752579668,-0.6813054955603586,-0.04823614110871255,0.7838569037104742,-1.3764639867971715,0.6547619802017723,-0.6707463402927961,-0.014878809695225826,0.7981761459083219,-0.1264698824094062,-0.08519318454523434,-0.10271178305735411,-5.136864088309696,-8.140263616368692,-4.419928616567895,-2.9566229972461375,-5.399569779627961,11.594442522899971,-6.549916857978348,-11.302321161460664,-2.417624253090098,0.42801999999999985,0.24483699999999997,-0.794421,-0.14348100000000008,-0.07691800000000004,-0.86346,0.5715009999999999,0.321755,0.06903899999999996,0.0,0.6935769979422582,single,-0.794421
117,0.975,jog,-1.2689307572303108,-0.6665066602664238,-0.04416176647066342,-0.2611751863714618,0.009165812561257015,-0.03394474977765991,-0.9403576143045753,-0.02628105124204623,1.167406696267863,-0.14976599063961685,-0.008280331213233572,-0.11856474258970501,-1.1846252216901583,1.7759312725230902,0.48894451434647346,-32.35464706729649,-1.3683237185672037,44.30943842068218,-2.7956448134178387,9.229911596304028,-1.9024312411317705,0.430758,0.25017200000000006,-0.7843249999999999,-0.1341549999999999,-0.07143299999999986,-0.86408,0.5649129999999999,0.3216049999999999,0.07975500000000002,0.0,0.6813395484278078,single,-0.7843249999999999
118,0.983333,jog,-1.235449417976707,-0.5949837993519738,-0.0967238689547546,0.19226645721824115,-0.24382792216139187,0.7975732519955622,-1.0607224288971564,-0.13260530421215733,1.0638425537021416,-0.16260650426016915,0.05964238569542393,-0.11148445937837458,4.017921427289525,8.583086633199297,-6.307704606275165,-14.444355525330682,-12.759420733242608,-12.428194235655948,-1.5409232713971257,8.151052071121711,0.8496679720785314,0.4322139999999999,0.25402500000000017,-0.774654,-0.12521499999999997,-0.06597799999999987,-0.8642029999999999,0.5574289999999998,0.32000300000000004,0.08954899999999999,0.0,0.656703585795491,single,-0.774654
119,0.991667,jog,-1.2261819054475684,-0.5711543076553759,-0.07511399088073183,-0.07556635316884658,-0.5768027323864525,0.6411727754386096,-1.5188384929205554,-0.2408207343412651,1.2354211663067025,-0.14638828893688574,0.12994960403167163,-0.09155267578593762,1.1120125424932388,2.859310258771059,2.5929779306482956,-54.96953012039856,-12.98481283046657,20.58778648962825,1.9460301563815094,8.43619130504537,2.3916227012763462,0.429775,0.25677799999999995,-0.763732,-0.11621599999999999,-0.06013500000000005,-0.86434,0.545991,0.316913,0.10060800000000003,0.0,0.6398367531805796,single,-0.763732
120,1.0,jog,-1.2082083283331375,-0.5635425417016697,0.10188407536301274,-0.9727926611799457,-1.1503174409309198,0.6727249636593202,-1.8129125165006503,-0.33553342133685454,1.185767430697223,-0.04260170406817518,0.09852394095763317,-0.049801992079682826,2.1569155303529164,0.9134484523828309,21.240617573952218,-35.2902944413889,-11.365977078553827,-5.9586866206023394,12.454888379780407,-3.771230418101324,5.010282456048796,0.4247360000000001,0.25867799999999996,-0.7546999999999999,-0.10650300000000001,-0.054618000000000055,-0.8656039999999999,0.5312390000000001,0.313296,0.110904,0.0,0.802782476645989,single,-0.7546999999999999
121,1.008333,jog,-1.256690267610707,-0.5864634585383571,-0.02208088323532505,0.7538830113312466,-1.6229043152448224,1.0073260305143905,-2.1526461058442545,-0.5251410056402227,0.9674786991479764,0.008520340813637813,0.0018000720028919243,-0.019080763230529325,-5.8180654359258295,-2.7506200452043212,-14.876390087404166,-40.769661507693186,-22.753820269215154,-26.195695613734387,6.134890781448873,-11.607328567711765,3.6866949296956415,0.41727000000000003,0.2591890000000001,-0.746454,-0.09596000000000005,-0.04971599999999987,-0.865579,0.5132300000000001,0.308905,0.11912500000000004,0.0,0.9650432015730028,single,-0.746454
122,1.016667,jog,-1.2284617230621553,-0.4877609791216648,-0.18274538036956198,0.0739911683642289,-1.8413287301958898,0.7577587687260402,-2.4992800575953718,-0.5455963522918219,0.7571394288456844,-0.0025197984161192196,-0.01835853131750283,-0.03551715862731009,3.387154373476303,11.843350061998033,-19.27819740031626,-41.59274679039052,-2.45444524257248,-25.238693340807576,-1.3247107307123767,-2.4188388913360455,-1.9722096708400099,0.4066790000000001,0.258707,-0.7386210000000001,-0.0857429999999999,-0.045803999999999956,-0.864352,0.492422,0.304511,0.12573099999999993,0.0,0.9332322929613608,single,-0.7386210000000001
123,1.025,jog,-1.1287651506060243,-0.44497779911194724,-0.3399735989439711,-0.9475816120870771,-0.0604019727343244,0.757082407525407,-2.4172566902676356,-0.6703468138725452,0.6055442217688757,-0.058802352094096476,-0.015480619224774622,-0.05232209288371569,11.96406725742612,5.134186968644897,-18.86814095456745,9.843197807240722,-14.970654215855571,-18.192152535318627,-6.75417660842167,0.3453632656580145,-2.0166727776797977,0.395942,0.256829,-0.730742,-0.07682700000000009,-0.04222500000000018,-0.8619549999999999,0.4727690000000001,0.29905400000000015,0.1312129999999999,0.0,0.8663029171440079,single,-0.730742
124,1.033333,jog,-1.1383655346213644,-0.4584183367334801,-0.34405376215047434,0.4306365266362211,0.4403860200102471,1.3876835169786328,-2.910836433457294,-0.7142685707428388,0.41173646945877324,-0.04008160326412332,-0.03360134405374188,-0.012960518420736242,-1.152092165527404,-1.6129290317451843,-0.4896391703471928,-59.23193846029636,-5.270821657301425,-23.257860591635552,2.2465797227856505,-2.17457396243453,4.723577878672598,0.38117199999999996,0.25469699999999995,-0.724444,-0.06767500000000004,-0.03868499999999986,-0.859196,0.448847,0.2933819999999998,0.13475199999999998,0.0,0.9101921761609398,single,-0.724444
125,1.041667,jog,-1.2339812814975122,-0.5634749220062543,-0.5484761219102566,-0.9101387973339308,2.8551356352967825,-0.15626448570574877,-2.960883129349699,-0.7537796976241923,0.2770578353731761,0.006719462442998086,0.00023998080151613928,0.08147348212143173,-11.472971787394965,-12.605781770191525,-24.52872087350446,-6.0051230972409435,-4.740955949286567,-16.160143278809663,5.61567863056423,4.060634131900487,11.331173571174677,0.3667800000000001,0.2531110000000001,-0.717564,-0.057335000000000025,-0.03398699999999999,-0.853946,0.42411500000000013,0.2870980000000001,0.136382,0.0,0.8637492400092632,single,-0.717564
126,1.05,jog,-1.4861394455777912,-0.9903996159846034,-0.012240489619590149,-0.11748322877051127,5.881463727319112,2.7111593897156885,-3.1506060242409144,-0.8123124924996887,0.15672626905075948,-0.008160326413051217,-0.004440177607085332,0.002640105604224265,-30.260190097236844,-51.23301259790491,64.3508499088752,-22.767658093269194,-7.0242163537136,-14.440365573312672,-1.7856460885694279,-0.5616414746911543,-9.460383597408626,0.35291000000000006,0.2545949999999999,-0.716156,-0.04501900000000003,-0.02577099999999999,-0.853822,0.3979290000000001,0.2803659999999999,0.13766599999999996,0.0,0.9839033939091825,single,-0.716156
127,1.058333,jog,-1.2878915156606472,-0.5897035881435413,-0.26665066602663706,-1.4116144246955216,0.8396964101613519,0.8172442087380621,-3.252490099604026,-0.8127925117004656,-0.06900276011040744,-0.013440537621505102,-0.0014400576023188686,-0.002880115204608593,23.790703218186227,48.08544675879824,-30.530442386541374,-12.226578106697747,-0.057604608277558825,-27.08856704202196,-0.6336506910421136,0.36002880172404783,-0.6624529951797562,0.33653900000000003,0.25273600000000007,-0.7145090000000001,-0.03439899999999996,-0.020869000000000026,-0.851624,0.370938,0.2736050000000001,0.137115,0.0,0.9769651905293973,single,-0.7145090000000001
128,1.066667,jog,-1.3180945524357845,-0.6147108231341433,-0.23170146388288954,-1.4561956059300378,0.864696775970821,0.9084996281581503,-3.446004319654394,-0.9076073914086955,-0.08051355891528675,-0.028797696184307192,0.04007679385649795,0.0040796736261097975,-3.624074487057491,-3.000628148620325,4.193568771747931,-23.219848818138544,-11.376875414954302,-1.3811853617565655,-1.8427116106073882,4.9816236451663665,0.8351078510581158,0.318805,0.25029499999999993,-0.713249,-0.023654000000000064,-0.015411999999999981,-0.849659,0.34245900000000007,0.2657069999999999,0.13641000000000003,0.0,0.9174688535522049,single,-0.713249
129,1.075,jog,-1.5070202808112545,-1.0236409456378261,-0.8655946237849623,-1.602152747673429,3.1168033614622317,0.32369847517132627,-3.612024480979284,-1.0111604464178447,-0.16920676827073172,-0.002040081603256197,0.03732149285970875,0.010680427217088638,-22.671994284827996,-49.073577643548134,-76.07022199712931,-19.923216287638482,-12.426863675645048,-10.643610867088178,3.211042191413805,-0.33064934558853,0.7921221158021002,0.301264,0.25039900000000004,-0.707446,-0.011112999999999928,-0.0065710000000001045,-0.842357,0.3123769999999999,0.25697000000000014,0.134911,0.0,0.9352112988296064,single,-0.707446
130,1.083333,jog,-1.344773790951607,-0.6300252010080265,-0.1886475459018349,0.08942293991532506,-0.5628840176096913,1.4710819569688522,-3.7963518540740795,-1.1234849393975674,-0.1844473778951105,0.020160806432250454,0.013320532821309287,-0.00036001440057554406,19.470357597461245,47.2357787867266,81.23689882192676,-22.120169578158215,-13.479478336699955,-1.8289463127779335,2.664213132786063,-2.8802304138244383,-1.324905990359293,0.28083500000000006,0.24628699999999992,-0.707411,0.0002609999999999557,-0.0012100000000001554,-0.840788,0.2805740000000001,0.24749700000000008,0.13337699999999997,0.0,0.9597223414212575,single,-0.707411
131,1.091667,jog,-1.4527237820974572,-0.924646028317751,-0.044036477081835036,-2.1112413200540936,3.2688055664487234,2.2888124888928356,-3.8509719222463015,-1.1496280297576487,-0.2771778257739441,-0.016438684905201024,0.030237580993538012,0.017278617710583276,-12.952962700486223,-35.35167114347613,17.35194010319206,-6.553883869957166,-3.1369198896186368,-11.126763604371895,-4.391587633483582,2.029883389996286,2.116466536016217,0.26084799999999997,0.24441199999999985,-0.7093539999999999,0.012230999999999992,0.006747999999999976,-0.8402769999999999,0.24861699999999998,0.23766399999999988,0.130923,0.0,0.9358151044130723,single,-0.7093539999999999
132,1.1,jog,-1.372254890195594,-0.6965078603144175,-0.1755670226809032,0.009923545189058003,0.3908778081070696,1.4370163633940376,-3.9090363614543886,-1.2318492739709335,-0.4479779191167585,-0.03384135365414611,0.024120964838580606,0.004440177607104484,9.656653294355193,27.37767526741024,-15.784296843761656,-6.96801142542735,-9.866943983353337,-20.496831074380342,-2.0884037860248146,-0.734023299526857,-1.5406744393950038,0.23970900000000006,0.23995100000000003,-0.711624,0.02338400000000007,0.012753000000000014,-0.838777,0.216325,0.227198,0.12715299999999996,0.0,0.9303426374021528,single,-0.711624
133,1.108333,jog,-1.4897395895835879,-0.6482659306372203,0.15072602904116722,-2.866802066823328,2.1581880584124984,0.1424227764060182,-3.8943957758310734,-1.1501260050402164,-0.3753750150006025,-0.008520340813637813,0.024720988839545224,-0.011640465618624835,-14.098727875674422,5.789263131788989,39.15673247594785,1.7569405524199322,9.807184559068494,8.712697001818873,3.038643086584487,0.0720057603461687,-1.9297543772626264,0.21967099999999995,0.2357689999999999,-0.716008,0.03572699999999995,0.01836099999999985,-0.84013,0.183944,0.21740800000000005,0.12412200000000007,0.0,0.9522965195596611,single,-0.716008
134,1.116667,jog,-1.2260619150467942,-0.6526277897768095,-0.33357331413486724,1.9096385492770989,-0.595319311632466,2.550308998868084,-4.011639068874465,-1.3149748020158216,-0.43016558675305705,-0.004679625629950918,0.026517878569717428,0.006479481641468453,31.638789841227705,-0.5233812262525994,-58.11127227934134,-14.068069719629307,-19.780273215215253,-6.574342662881466,0.46084895412609383,0.21560951885915403,2.1742197336324876,0.19645599999999996,0.23024899999999993,-0.716813,0.045906,0.024020999999999848,-0.837296,0.15054999999999996,0.20622800000000008,0.120483,0.0,0.9538396375478527,single,-0.716813
135,1.125,jog,-1.3393735749430071,-0.7016680667226942,-0.18684747389896134,0.6726924178110008,1.2469048244571415,2.7668773157867257,-4.358454338173566,-1.6324252970118993,-0.23088923556942265,-0.01656066242649379,0.060122404896206565,0.015240609624385369,-13.597943105269888,-5.885068636251674,17.60780514051449,-41.61949709577629,-38.095583222858586,23.914118706784617,-1.4257814468430312,4.032704467357427,1.0513774130465612,0.17129799999999995,0.22249300000000005,-0.7171799999999999,0.05692900000000001,0.03036900000000009,-0.835612,0.11436899999999994,0.19212399999999996,0.11843200000000009,0.0,0.8930052533450747,single,-0.7171799999999999
136,1.133333,jog,-1.2581303252130258,-0.66290651626064,-0.16656666266650155,1.1038860411068185,0.3412154786387717,2.3254823248457415,-4.155406216248683,-1.3951758070322837,-0.4554182167286758,-0.029641185647425836,0.05616224648984966,-0.0038401536061447904,9.749579950795878,4.651572118331281,2.4337946996831836,24.366749300958165,28.471077640659757,-26.944555521331473,-1.5697255755348813,-0.47523801828356427,-2.2897831789907994,0.14715500000000004,0.216391,-0.719587,0.06716600000000006,0.036360999999999866,-0.834256,0.07998899999999998,0.18003000000000013,0.11466900000000002,0.0,0.8939661401421097,single,-0.719587
137,1.141667,jog,-1.34185265178784,-0.6534677225821959,-0.11519078473722877,1.2629873959435194,0.5060469164084428,2.5489537132010147,-4.250539956803425,-1.51091912646989,-0.43040556755458986,-0.04667626589872447,0.028197744180463575,0.032037437005039755,-10.045875518936107,1.1325646362423882,6.164612182538084,-11.415135655716455,-13.888087285529807,3.001277798666393,-2.0440461064673032,-3.3554718393791543,4.304966476024031,0.12291399999999997,0.2092449999999999,-0.7222139999999999,0.07796000000000003,0.04204199999999991,-0.8330289999999999,0.04495399999999994,0.167203,0.110815,0.0,0.8945883210011656,single,-0.7222139999999999
138,1.15,jog,-1.2827313092523889,-0.6415456618264876,-0.13176527061081753,1.184847007153756,-0.9767482774472964,2.389986312971378,-4.159006360254441,-1.5510620424816959,-0.5741029641185712,-0.027601104044169638,0.03432137285491553,0.02328093123724967,7.094844898050118,1.4307045188657554,-1.9890178655452908,10.984470964716724,-4.817342615121352,-17.24437736277243,2.2891109869860804,0.7348648355276625,-1.0508227250438218,0.09894600000000009,0.20166600000000012,-0.7259,0.08841900000000003,0.047673999999999994,-0.8317370000000001,0.010527000000000064,0.15399200000000013,0.10583700000000007,0.0,0.9169708997068438,single,-0.7259
139,1.158333,jog,-1.4234969398775617,-0.6773070922836774,0.07992319692786905,0.1880464401402232,0.6683631635903251,2.180891141944391,-4.196447857914246,-1.5667826713068196,-0.5535821432857224,-0.01896075843033586,0.04308172326892979,-0.0012000480019204232,-16.89255137707552,-4.291543316595354,25.403632249931942,-4.493159445554368,-1.8865509210516538,2.462597003821964,1.0368829489779945,1.0512841010457348,-2.9378350221012437,0.07583899999999999,0.19425400000000015,-0.731179,0.10012299999999996,0.053676999999999975,-0.832413,0.024283999999999972,0.14057700000000017,0.10123399999999994,0.0,0.921525210076365,single,-0.731179
140,1.166667,jog,-1.4782817374610309,-0.7336213102951846,0.13438924886009493,0.880294094166029,0.6930193135707202,1.7984301665713367,-4.299616030717625,-1.6365490760739667,-0.49136069114471626,0.00851931845452899,0.03503719702426045,0.015238780897528741,-6.573649818030988,-6.75716558813395,6.535403399595262,-12.379190401173606,-8.371298868148363,7.465976978762581,3.2973454385487604,-0.9652659280860927,1.9725016678005132,0.052325999999999984,0.18672899999999992,-0.736394,0.112514,0.06008300000000011,-0.833406,0.06018800000000002,0.12664599999999981,0.09701199999999999,0.0,0.9347567712008575,single,-0.736394
141,1.175,jog,-1.4872194887795236,-0.606024240969628,0.055682227289092986,0.5273054372325082,-0.7884117002072959,1.7742771702066853,-4.29053162126478,-1.7097083883354913,-0.6431057242289582,-0.025921036841472483,0.02880115204605685,0.02748109924396928,-1.072573061141554,15.312260809498902,-9.44522039733596,1.0901727412510909,-8.779468650128806,-18.210132375403727,-4.1330079558383375,-0.7483553315976825,1.469136967051521,0.028965999999999936,0.17753200000000002,-0.742217,0.124691,0.0653729999999999,-0.833641,0.09572500000000006,0.11215900000000012,0.09142399999999995,0.0,0.9208268892837778,single,-0.742217
142,1.183333,jog,-1.5479419176767204,-0.6915876635065421,0.2199687987519489,0.8526446003283213,0.2118280672318726,1.6806397727924327,-4.280451218048755,-1.7275891035641675,-0.6305052202088152,-0.028561142445706667,0.029401176047048238,0.031681267250690356,-7.2869829469815635,-10.268021425286793,19.715177182630196,1.209696773793895,-2.1457716583074937,1.5121209672558653,-0.3168253455219258,0.07200576034938126,0.5040403224194304,0.006195999999999979,0.1688989999999999,-0.749304,0.13735199999999992,0.07138099999999992,-0.83521,0.13115599999999994,0.097518,0.08590600000000004,0.0,0.9136565207801626,single,-0.749304
143,1.191667,jog,-1.6191504679625515,-0.7113030957523264,0.2656587473002199,0.836618787892768,0.09049700839902969,1.2811683213850975,-4.246340292776546,-1.7874970002399597,-0.6169906407487363,-0.021958243340524576,0.025797936165115744,0.034077273818094236,-8.54434248690071,-2.365662616484781,5.482355237373484,4.092983593977549,-7.188372531292508,1.6216198056249977,0.792284509861056,-0.4323541974960962,0.2874977882654022,-0.01569900000000002,0.1599299999999999,-0.75666,0.150663,0.07752399999999993,-0.83714,0.166362,0.08240599999999998,0.08048,0.0,0.9199139602979942,single,-0.75666
144,1.2,jog,-1.6494659786391614,-0.7167886715468692,0.35149405976238884,1.0314404291527843,0.09144438579515869,1.001058063235935,-4.254650186007478,-1.8517940717628842,-0.6143045721828911,-0.01884075363015423,0.09096363854554702,0.11892475699028056,-3.6380068014652895,-0.6582954271622268,10.300649521441228,-0.9972270767948687,-7.715957221039854,0.3223411215462876,0.3741137297936368,7.820197093535566,10.182105264873046,-0.037408,0.15047199999999994,-0.7647079999999999,0.16425099999999992,0.08425499999999997,-0.839078,0.20165899999999992,0.06621699999999997,0.07437000000000005,0.0,0.7484909137934996,single,-0.7647079999999999
145,1.208333,jog,-1.712348493939738,-0.7302292091683681,0.4356174246969829,0.6961526741892242,0.5564172697443162,0.8920486183237656,-4.267850714028492,-1.876515060602406,-0.6401056042241584,-0.03276131045241365,0.061322452898106235,0.1713668546741838,-7.546203684216421,-1.6129290317411074,10.095207600455128,-1.5841267275907442,-2.9666373262355985,-3.0962476948598123,-1.670533640016702,-3.5570845610752753,6.293303454206447,-0.05870299999999995,0.14091999999999993,-0.773672,0.17824700000000004,0.09085100000000002,-0.84128,0.23695,0.05006899999999992,0.067608,0.0,0.6917777426518563,single,-0.773672
146,1.216667,jog,-1.7247420206383814,-0.7639788816894808,0.4557235421166355,0.8039727030388588,0.2509494795530712,0.6173637629850255,-4.27825773938093,-1.9638828893688636,-0.6235901127909877,-0.021838252939767093,0.04787616990641298,0.1901847852171866,-1.487104235498404,-4.049636731595076,2.412541087071395,-1.2487431428411808,-10.483300787912086,1.9817004359456412,1.3106620485537275,-1.61342488501242,2.2579710274781797,-0.07998399999999994,0.13092000000000015,-0.782667,0.19243900000000003,0.09761700000000006,-0.8434929999999999,0.27242299999999997,0.03330300000000008,0.060825999999999936,0.0,0.6711159885964677,single,-0.782667
147,1.225,jog,-1.7548301932076906,-0.7845913836553244,0.5335413416536642,0.8259327592549363,0.5299303498430723,0.4153283669826818,-4.277331093243652,-2.0147605904236014,-0.6201848073922855,-0.035881435257402255,0.006600264010550254,0.23124924996999452,-3.610725137322531,-2.4735991798683874,9.33850948482267,0.11120198455269992,-6.105568349302411,0.40865299396401633,-1.6852492880877135,-4.9533068397770315,4.9279328876523705,-0.10100399999999998,0.12066899999999992,-0.792281,0.20676300000000003,0.10420999999999991,-0.846012,0.307767,0.016459,0.05373099999999997,0.0,0.6098175053302155,single,-0.792281
148,1.233333,jog,-1.7530301212048653,-0.8105124204968185,0.5167406696267803,0.8643827266442551,0.605855014970579,0.31057943946222705,-4.292691707668352,-2.0920436817472927,-0.6336253450138072,-0.09852394095764781,-0.08892355694226418,0.17052682107284514,0.21601728103027695,-3.110648846933192,-2.016161289677667,-1.8433474648625905,-9.274341932520338,-1.6129290317438816,-7.517401380084739,-11.463317047019718,-7.286982946975871,-0.12216700000000003,0.10998999999999981,-0.801867,0.22054999999999997,0.11022299999999996,-0.8488969999999999,0.342717,0.00023300000000014975,0.047029999999999905,0.029700000000000115,0.6398543403230194,single,-0.801867
149,1.241667,jog,-1.812694984401232,-0.8270938324933987,0.5590352771778311,0.9091166972528789,0.49211772977356716,0.21114825045602903,-4.206023518118519,-2.0581953443724315,-0.6339092872570141,-0.11663066954643214,-0.06407487401008284,0.3238540916726629,-7.159210846696196,-1.9896102707679537,5.074946910373221,10.399350797916062,4.061475566937965,-0.03407034355734748,-2.1726336199645058,2.9816034235878512,18.397800647926154,-0.14211300000000004,0.09972999999999987,-0.811809,0.23468499999999998,0.11658199999999996,-0.850857,0.376798,0.01685200000000009,0.03904799999999997,0.10952,0.5,flight,-0.811809
150,1.25,jog,-1.8127925117004855,-0.8381135245410014,0.5815432617304765,0.9619114430207082,0.15035060052597343,0.1751773182686581,-4.338293531741308,-2.245289811592485,-0.5769830793231774,-0.14112564502579691,-0.06408256330253682,0.35257410296412134,-0.011703744060195479,-1.3224159423500264,2.701066188965039,-15.8730365561971,-22.452234155772846,6.831418208788822,-2.939514638109324,-0.0009227520045581347,3.4465392165437083,-0.16315800000000003,0.08800399999999997,-0.821463,0.24861500000000003,0.12303200000000003,-0.852765,0.41177300000000006,0.03502800000000006,0.03130199999999994,0.18697999999999992,0.5,flight,-0.821463
151,1.258333,jog,-1.8591143645746007,-0.84723388935559,0.6102244089763654,0.7503933490043847,0.44641040785151265,0.21208617830365264,-4.388455538221565,-2.300492019680797,-0.3741749669986845,-0.18288731549263107,-0.069842793711759,0.4501380055202254,-5.558844698681818,-1.0944875572529267,3.4418753445204784,-6.019681564893442,-6.624529951795612,24.337946996819237,-5.011600920056947,-0.69125529931864,11.708136632197885,-0.18423499999999998,0.07589400000000013,-0.829666,0.26258299999999996,0.12951000000000001,-0.854099,0.44681799999999994,0.053615999999999886,0.024433000000000038,0.25567000000000006,0.5,flight,-0.829666
152,1.266667,jog,-1.864890808735287,-0.8777297816174592,0.6057115430765422,0.7102018311382019,0.36299182749670983,0.23323349922598183,-4.229301655867502,-2.277057835373155,-0.3893688504919574,-0.23674106071514128,-0.07967362610991036,0.497240220782333,-0.6931178498543544,-3.659214334277536,-0.5415005879317512,19.09693812743717,2.811877166743678,-1.8231201695791661,-6.461932472103408,-1.1796055193366068,5.651813686357955,-0.20394,0.06423200000000007,-0.837959,0.27615199999999995,0.13616099999999998,-0.855003,0.48009199999999996,0.07192899999999991,0.017043999999999948,0.32955999999999996,0.5,flight,-0.837959
153,1.275,jog,-1.8930757230289366,-0.8287531501259954,0.5973838953558243,0.5156468177213466,-0.49344567815421764,0.015527594292741587,-4.182767310692466,-2.27001080043203,-0.32065282611304674,-0.29281171246850113,-0.1740069602784069,0.5459018360734493,-3.3823250082383205,5.8774308762107585,-0.9993577007941917,5.584344794796212,0.8456780200558256,8.246252775580379,-6.728747360297655,-11.320452918336422,5.839627420030816,-0.22302000000000002,0.05222199999999999,-0.845609,0.28948699999999994,0.14161699999999988,-0.855432,0.5125069999999999,0.08939499999999989,0.009822999999999915,0.40177,0.5,flight,-0.845609
154,1.283333,jog,-1.9237969518780436,-0.8927157086283263,0.6459858394335559,0.09546390558859283,-0.35474369321462035,0.054767153946840195,-4.106804272170815,-2.259570382815271,-0.20100804032161051,-0.34393375735027887,-0.13716548661944966,0.593903756150235,-3.6866949296899625,-7.675814052841687,5.832466587991217,9.115929259768295,1.2529002300202536,14.357948612916612,-6.134890781444479,4.4211536852222,5.760460827647291,-0.241211,0.04083199999999998,-0.852667,0.30265200000000003,0.14791299999999996,-0.8558659999999999,0.543863,0.10708099999999998,0.003198999999999952,0.46801000000000004,0.5,flight,-0.852667
155,1.291667,jog,-1.9472042236621465,-0.9407247420206646,0.6988240940724937,0.465952675819655,0.10943628323157154,0.09511656594843351,-3.991720662347087,-2.244660427165873,-0.07607391408687397,-0.3992080633549488,-0.2083033357331405,0.6273098152147943,-2.8086479222586274,-5.760623157228128,6.340083350004652,13.808928464570485,1.7890515538035043,14.99089587649855,-6.632386129670143,-8.53585902492107,4.0084064152339725,-0.25825,0.02996500000000002,-0.859125,0.315553,0.15401700000000007,-0.8564620000000001,0.573803,0.12405200000000005,0.002662999999999971,0.5,0.47337,flight,-0.8564620000000001
156,1.3,jog,-1.9959198367934343,-0.9746789871594649,0.5762630505220075,-0.29185215169069156,0.4719283900045522,0.21490226188495049,-3.8064322572902247,-2.140525621024816,0.056762270490818785,-0.46009840393614987,-0.21180847233889183,0.621264850594013,-5.846107420051236,-4.074672403552107,-14.707913542599783,22.235498026744143,12.496676603990803,15.940979788514392,-7.307133155070204,-0.420633218018873,-0.7254247714846028,-0.273337,0.02024999999999988,-0.8634539999999999,0.32835099999999995,0.16037400000000002,-0.8560869999999999,0.601688,0.14012400000000014,0.007367000000000012,0.5,0.42633,flight,-0.8560869999999999
157,1.308333,jog,-1.9962798511940674,-0.9705988239529784,0.5708628345133872,0.1167319229493036,-0.5443250275301804,-0.03013872127937155,-3.6210248409936736,-2.0728429137165523,0.15540621624865192,-0.519140765630623,-0.2586103444137944,0.6505460218408791,-0.04320345621421452,0.4896391703452007,-0.6480518431081776,22.24977994678421,8.122249766982378,11.837747000820118,-7.085366818009555,-5.616449306960636,3.5138811048681498,-0.286876,0.011065000000000103,-0.866916,0.34066,0.16630699999999998,-0.855423,0.627536,0.15524199999999988,0.011492999999999975,0.5,0.38507000000000013,flight,-0.855423
158,1.316667,jog,-2.0233981281497346,-0.9846412287016886,0.514518838492925,-0.08796726780261209,-0.44807117439980326,-0.09403287243658183,-3.4253659707223165,-1.9390448764098933,0.22018238540916432,-0.5115190784737202,-0.22942164626828643,0.5541156707463374,-3.2539329200464433,-1.6849537735433293,-6.7607386633623365,23.47718625766206,16.05448011838948,7.772518497781607,0.9145292964845984,3.5023635883738575,-11.570716474026991,-0.29856,0.003110999999999864,-0.8693690000000001,0.35326,0.172601,-0.8550930000000001,0.65182,0.16949000000000014,0.014275999999999955,0.5,0.3572399999999999,flight,-0.8550930000000001
159,1.325,jog,-2.0298811952478233,-0.9842793711748611,0.3945757830313198,-0.506182363148261,-0.008863549884877597,-0.10098748452201088,-3.1896075843034013,-1.8124324972998926,0.24276971078843507,-0.644905796231854,-0.2314892595703933,0.6383055322212935,-0.7779991717375155,0.04342464020490757,-14.393742405088961,28.292138055792318,15.194093256930497,2.7105874690112746,-16.007046412832704,-0.2481235211936736,10.103187504495004,-0.308224,-0.00378999999999996,-0.870634,0.364801,0.17887399999999998,-0.853062,0.673025,0.18266399999999994,0.017572000000000032,0.5,0.3242800000000001,flight,-0.853062
160,1.333333,jog,-2.0372014880594858,-0.9798391935677229,0.37285491419655786,-0.2068548520481354,-0.7778067192026744,-0.3152119091907451,-2.947317892715657,-1.6524660986439241,0.22632905316212237,-0.6528261130445104,-0.324012960518406,0.6835473418936646,-0.8784702762105289,0.5328426265616393,-2.6066085245123665,29.07592602756992,19.19673570814421,-1.9729578334708275,-0.9504760365602234,-11.103288245291143,5.429234330057643,-0.31580800000000003,-0.009395000000000042,-0.8718549999999999,0.376337,0.18433900000000003,-0.850473,0.692145,0.19373400000000007,0.0213819999999999,0.5,0.28618,flight,-0.850473
161,1.341667,jog,-2.0278377729782036,-1.0005999520038702,0.294576433885293,-0.9177306588581956,0.7497181359473966,-0.06361248568914565,-2.661987041036767,-1.4690424766019003,0.1840652747780205,-0.6694264458843421,-0.33057355411568456,0.7451403887689119,1.1235559252798628,-2.491091724999727,-9.392666224054041,34.23696324440787,22.00907391912974,-5.071247706275818,-1.9918805903326087,-0.7872082550130415,7.390574379079484,-0.321093,-0.01329899999999995,-0.872776,0.387658,0.18992300000000006,-0.846718,0.708751,0.203222,0.026058000000000026,0.5,0.23942000000000002,flight,-0.846718
162,1.35,jog,-2.0150006000239657,-0.9906396255849942,0.2245289811592505,-0.8126597656297442,-0.08006299185729869,-0.39666361007390166,-2.3800552022080472,-1.3049321972878747,0.1345253810152379,-0.6174246969878633,-0.30565222608904746,0.7757110284411237,1.5405223754035262,1.1952869817443699,-8.406030568347685,33.833173986405264,19.694021278533878,-5.945025052535911,6.240459485956785,2.990678990356014,3.6686235056055825,-0.324135,-0.0159180000000001,-0.873526,0.39930400000000005,0.1956309999999999,-0.842125,0.723439,0.211549,0.03140100000000001,0.5,0.18599000000000004,flight,-0.842125
163,1.358333,jog,-2.0288011520460976,-0.978519140765639,0.17004680187207663,-0.6884826440751836,0.12097211767233612,-0.2552304409532889,-2.0949237969518966,-1.1732869314772607,0.025321012840514193,-0.6714268570742911,-0.2949717988719395,0.8646345853834253,-1.6561324879553514,1.454516358977001,-6.538123039382498,34.21713731623104,15.798063819826615,-13.10504838290228,-6.480518431108637,1.2817025341543367,10.671253683223616,-0.32468600000000003,-0.01754100000000003,-0.8747320000000001,0.410615,0.20132700000000003,-0.836337,0.735301,0.21886800000000006,0.03839500000000007,0.5,0.11604999999999988,flight,-0.836337
164,1.366667,jog,-1.9893208543316396,-0.9584833213342987,0.05447564194863823,-0.7388416822671651,0.07891614684443994,-0.41553729913161064,-1.8206143508519186,-1.0555555555555407,-0.10355171586273051,-0.7879769618430453,-0.3291336693064724,0.8686105111591002,4.7372567451953005,2.4041060032805492,-13.867429796428787,32.91450037196735,14.126634979807909,-15.463490365160034,-13.984893780747946,-4.099096524421968,0.4770729272467985,-0.32328,-0.018349999999999866,-0.876049,0.42062700000000003,0.20657199999999998,-0.829552,0.7439070000000001,0.22492199999999984,0.04649700000000001,0.5,0.035029999999999895,flight,-0.829552
165,1.375,jog,-1.9719188767550886,-0.9259570382815199,-0.015480619224761299,-0.3869678172045534,-0.3911521232052587,-0.35677345257797843,-1.5907836313452688,-0.9806792271691039,-0.2277691107644323,-0.8011520460818524,-0.3879755190207427,0.9415576623064998,2.088320842019825,3.9033100987374443,-8.395087144293791,27.58078957238112,8.98551882712558,-14.906683655550571,-1.5810733515909288,-7.061304417889211,8.754008298019963,-0.320104,-0.0188060000000001,-0.8778180000000001,0.430383,0.211055,-0.821577,0.750487,0.2298610000000001,0.056241000000000096,0.5,0.0,flight,-0.821577
166,1.383333,jog,-1.9649585983439517,-0.960278411136462,-0.1303252130085253,-0.961874242391795,0.7675496996734761,-0.2904875493590097,-1.3859354374175081,-0.892595703828168,-0.3524540981639292,-0.8195127805112248,-0.33397335893435803,0.880835233409346,0.8352668200092347,-4.118729491772758,-13.781902530153012,24.582766581994782,10.570445618737159,-14.962796999819759,-2.2033762665753662,6.4805184311034605,-7.286982946976408,-0.315279,-0.01824200000000009,-0.879669,0.43992800000000004,0.21627400000000008,-0.813151,0.7552070000000001,0.23451600000000017,0.06651800000000008,0.5,0.0,flight,-0.813151
167,1.391667,jog,-1.9605231581473357,-0.9666426685865133,-0.17794576433885298,-0.8315447596385189,0.4126869051988529,-0.2470570202082112,-1.208063354931597,-0.7895368370530333,-0.5041996640268737,-0.904367650587948,-0.3941684665226997,0.8978881689464762,0.5322102467741757,-0.7636498020219901,-5.714009038916166,21.342942462912127,12.366074727037901,-18.208011262652185,-10.181769867617298,-7.2228350837942425,2.0461885693700546,-0.309008,-0.01676600000000006,-0.882388,0.4487300000000001,0.22104499999999994,-0.804185,0.757738,0.237811,0.07820299999999991,0.5,0.0,flight,-0.804185
168,1.4,jog,-1.9230769230769387,-0.91563662546503,-0.26821072842913807,-0.4166062596228649,0.10914105832558597,-0.23783034933241307,-1.068162726509071,-0.7355094203768012,-0.6199447977919178,-0.9939997599904136,-0.46105844233768584,0.9427577103084211,4.493727957565985,6.120970013378583,-10.83222897999351,16.788746960581715,6.483549343121639,-13.88997165067145,-10.756283379631153,-8.02711818252571,5.384560345847282,-0.30188400000000004,-0.015264999999999862,-0.885319,0.456472,0.22483300000000006,-0.7940940000000001,0.758356,0.24009799999999992,0.09122499999999989,0.5,0.0,flight,-0.7940940000000001
169,1.408333,jog,-1.9301572062882195,-0.9236769470778481,-0.34165366614664516,-0.602536662241574,0.3929796354494936,-0.18322633534412944,-0.8210728429137006,-0.5670226809072372,-0.7080283211328332,-1.1440057602303908,-0.704308172326869,1.0260410416416479,-0.8496679720725696,-0.964877188625699,-8.81350506630335,29.651972110328334,20.219217505047535,-10.570445618734412,-18.001440086400407,-29.191135244111237,9.994399535968473,-0.29264199999999996,-0.01229300000000011,-0.8883719999999999,0.46302299999999996,0.226661,-0.782697,0.755665,0.2389540000000001,0.10567499999999996,0.5,0.0,flight,-0.782697
170,1.416667,jog,-1.9238060955123946,-0.926445884329282,-0.4348452123830129,-0.7970235697638135,0.80069506932362,-0.10361829195354687,-0.5530357571394396,-0.4505639548836122,-0.8648908087353167,-1.3920086393088784,-0.813054955603581,1.032277417806595,0.7620723273128238,-0.3322458905008343,-11.182090981085851,32.161877342724516,13.97392920849858,-18.821992752878142,-29.757964852230902,-13.048570107597074,0.7483052753716364,-0.28121799999999997,-0.008326999999999973,-0.891956,0.467455,0.22760599999999998,-0.77047,0.748673,0.23593299999999995,0.12148599999999998,0.5,0.0,flight,-0.77047
171,1.425,jog,-1.9032761310452084,-0.9073562942517457,-0.5173406936277438,-0.6740998268945237,0.9001744864473586,-0.11506905131886841,-0.1416056642265683,-0.20928837153485386,-0.956318252730093,-1.5538221528860834,-0.9684387375494876,1.0190807632305112,2.463694283833646,2.290842443002036,-9.89985374351728,49.373586092987416,28.954228170977338,-10.971732148658912,-19.418398365198865,-18.64679970549669,-1.5836618956058484,-0.266538,-0.0025100000000000122,-0.8956139999999999,0.47036700000000004,0.22709699999999988,-0.757667,0.736905,0.2296069999999999,0.13794699999999993,0.5,0.0,flight,-0.757667
172,1.433333,jog,-1.8520340813632716,-0.831513260530451,-0.5967838713548603,-0.45904217927361834,0.8147094489073871,-0.14171351084441733,0.17232689307572707,-0.024840993639754005,-0.6744269770790894,-1.559582383295347,-1.0150006000239928,0.9565582623305027,6.149291933509812,9.101528107679748,-9.533562669760858,37.67341381282831,22.134570730241393,33.828306210369156,-0.691255299323618,-5.58764700282079,-7.503000228010215,-0.24966899999999997,0.0042120000000001045,-0.896261,0.47280400000000006,0.2255680000000002,-0.7447229999999999,0.722473,0.2213560000000001,0.15153800000000006,0.5,0.0,flight,-0.7447229999999999
173,1.441667,jog,-1.7858171346292153,-0.7513798896088243,-0.6954643628509561,-0.4381340629669436,0.5565233166570277,-0.19751612895062343,0.03515718742500426,-0.06839452843771959,-0.3287736981041491,-1.7335013198943938,-1.1305495560355134,0.9354451643868416,7.945397976248597,9.615235291771796,-11.8407117225936,-16.459047954250273,-5.226006095268209,41.47507547095484,-20.868602903653162,-13.864765540139155,-2.5333690837126177,-0.234493,0.009904000000000135,-0.893205,0.47324000000000005,0.22240800000000016,-0.731131,0.7077330000000001,0.21250400000000003,0.16207400000000005,0.5,0.0,flight,-0.731131
174,1.45,jog,-1.7320292811712628,-0.7419896795871829,-0.7335893435737538,-0.7122597502928526,1.5344168486264764,-0.15712746498002667,-0.22536901476059137,-0.12084483379335045,-0.20784831393255973,-1.9133565342613963,-1.2203288131525487,0.8954758190327691,6.454800606978646,1.1268702774080772,-4.575180693963523,-31.264394838065286,-6.294288414212329,14.511626565653481,-21.58348906360304,-10.7739418117168,-4.796513303020863,-0.221938,0.015080000000000093,-0.8888240000000001,0.47172899999999995,0.218422,-0.717556,0.693667,0.2033419999999999,0.1712680000000001,0.5,0.0,flight,-0.717556
175,1.458333,jog,-1.7118684747389596,-0.76515060602422,-0.7796711868474573,-0.7426090487541488,1.718327309849029,-0.1519692740950109,-0.34513380535221017,-0.16884675387017084,-0.2403696147845869,-2.0926437057481877,-1.2689307572302504,0.8346333853353974,2.419393547618236,-2.7794223493383834,-5.5300423945401,-14.372349764984603,-5.7604608276514515,-3.9027122107316217,-21.51532119126224,-5.83246658798762,-7.30138409904843,-0.21054900000000001,0.020048999999999872,-0.8843300000000001,0.46855600000000003,0.21422400000000008,-0.7041040000000001,0.6791050000000001,0.1941750000000002,0.180226,0.5,0.0,flight,-0.7041040000000001
176,1.466667,jog,-1.6421886249100388,-0.7255819534437412,-0.7534197264219047,-0.2645632515538364,1.9283391776569834,-0.11796201465471053,-0.22606191504680018,-0.13498920086391192,-0.2915766738660964,-2.3006959443245005,-1.3423326133909612,0.8036957043436689,8.360913106422146,4.74785848097907,3.149923257205795,14.287483837942435,4.062581354242808,-6.144355541337952,-24.96427148743902,-8.807518137834439,-3.712224741028215,-0.198747,0.024971000000000076,-0.880481,0.46306800000000004,0.20908400000000005,-0.691127,0.661815,0.18411299999999997,0.1893539999999999,0.5,0.0,flight,-0.691127
177,1.475,jog,-1.6086643465738348,-0.745709828393129,-0.7567502700107912,-0.0183418528507059,2.0259399707387327,-0.0673304896780942,-0.094203768150722,-0.18180727229090707,-0.12156486259450165,-2.381255250209967,-1.4076563062522276,0.6953078123124795,4.0230743233173385,-2.415441611590962,-0.3996812179150913,15.823610571951981,-5.6183933069715986,20.40223344192869,-9.667503406392047,-7.839156709620213,-13.007067326435553,-0.186127,0.029669999999999974,-0.875188,0.45663,0.20356800000000008,-0.6790269999999999,0.642757,0.1738980000000001,0.19616100000000003,0.6031154309665401,0.0,single,-0.6790269999999999
178,1.483333,jog,-1.5718228729149308,-0.7736709468378783,-0.7463098523940995,0.06106777746294923,2.384862559272166,-0.03788663376656459,-0.0009600384015370304,-0.15024600984039868,-0.07872314892595739,-2.5121804872195126,-1.4546981879275263,0.6488659546381942,4.421153685215929,-3.3554684321072243,1.2529002300122132,11.189695157708606,3.7875029941808083,5.141211288676906,-15.711656907421927,-5.645251611100335,-5.57324585074832,-0.173037,0.034864999999999924,-0.869625,0.448794,0.1978930000000001,-0.6674009999999999,0.621831,0.16302800000000017,0.20222400000000007,0.7172942277270901,0.0,single,-0.6674009999999999
179,1.491667,jog,-1.5514758819294339,-0.7669786417086518,-0.7210223182145291,0.464152733774116,2.4975689599643003,0.01085375513685946,-0.02027837772978176,-0.0710343172546102,-0.06215502759779225,-2.6375089992800342,-1.5178785697144173,0.5477561795056337,2.4414436027713964,0.8030123745172092,3.0342613606395754,-2.3180152781670964,9.504642738875436,1.9880155181383505,-15.0382183897913,-7.58103933128036,-12.132202439711987,-0.160276,0.04066499999999995,-0.8641340000000001,0.43974300000000005,0.191635,-0.656827,0.6000190000000001,0.15097000000000005,0.20730700000000002,0.8390968693172587,0.0,single,-0.656827
180,1.5,jog,-1.527781111244464,-0.7201488059522487,-0.6895475819032859,0.8798269900413088,2.4145498708035857,0.060452725871478076,-0.016200648025920732,-0.05412216488659346,-0.05328213128525189,-2.772350894035788,-1.5893435737429682,0.47749909996400414,2.843486221645285,5.619805082971742,3.777119442126904,0.4893471383488617,2.0295394657406565,1.0647901491108174,-16.1816746376761,-8.576143529167357,-8.431186792467324,-0.14768,0.046215000000000006,-0.858832,0.42937200000000003,0.184392,-0.6471020000000001,0.577052,0.138177,0.21172999999999997,0.8705711774031529,0.0,single,-0.6471020000000001
181,1.508333,jog,-1.519260770430831,-0.7005880235209484,-0.6456258250330134,1.131002101735093,1.7814238808696194,-0.0032209455642962185,-0.03408136325453127,-0.07740309612384647,-0.007800312012480044,-2.890435617424723,-1.672266890675646,0.3781351254050214,1.0224817969078401,2.3473877872675515,5.270821657299047,-2.145771658299616,-2.7938235014104427,5.45803663419804,-14.170733636017777,-9.95119607976461,-11.924153913234564,-0.135304,0.05140800000000001,-0.853517,0.41794600000000004,0.17629499999999998,-0.638571,0.55325,0.12488699999999997,0.21494599999999997,0.8584449117997522,0.0,single,-0.638571
182,1.516667,jog,-1.5250779937604875,-0.7203023758099274,-0.6039116870650247,1.1495594439894576,1.1844527763888353,-0.018808804072041163,-0.023638108951284046,-0.0568754499640127,-0.0025197984161267127,-3.0217182625389754,-1.7362610991120557,0.27441804655627144,-0.698010958682081,-2.365533032034899,5.005296132467999,1.2530902691681236,2.46312048954087,0.63361094268698,-15.752657201134072,-7.678690717111747,-12.4450538575413,-0.12279100000000001,0.056936999999999904,-0.8485050000000001,0.40547300000000003,0.16782799999999998,-0.631251,0.5282640000000001,0.11089100000000007,0.21725400000000006,0.8972607617495795,0.0,single,-0.631251
183,1.525,jog,-1.5306612264490722,-0.7189487579503208,-0.5425417016680714,1.3295780877451906,0.4545495182761728,-0.019973255104318337,-0.010560422416897341,-0.01584063362532103,-0.013200528021120844,-3.0828033121325156,-1.7891515660626662,0.17508700348013936,-0.6700147232191035,0.1624406407784291,7.364692835347887,1.5693851595328003,4.92437493564047,-1.2817388221521935,-7.330499171191741,-6.347109918470057,-11.920201977215047,-0.110124,0.06279600000000007,-0.844094,0.39253899999999997,0.15890999999999988,-0.625271,0.502663,0.09611399999999981,0.218823,0.9613886122399911,0.0,single,-0.625271
184,1.533333,jog,-1.538221528861127,-0.7236289451577912,-0.46537861514460344,1.0752772773021408,-0.21217545083951952,0.09615794600703562,-0.005760230409215367,-0.009600384015370047,-0.016440657626305387,-3.2744509780390616,-1.908676347053829,0.07656306252250285,-0.9072725803497672,-0.5616449306936697,9.259940780447208,0.5760460827651374,0.7488599075904085,-0.388831105866373,-22.998639854379295,-14.343547460837721,-11.823345848750124,-0.097354,0.06874599999999997,-0.840353,0.378071,0.14903500000000003,-0.620755,0.475425,0.08028900000000005,0.21959800000000007,0.9668487116558708,0.0,single,-0.620755
185,1.541667,jog,-1.5031197504199953,-0.77681785457166,-0.41288696904248773,0.7418618152245209,0.08139149107460535,0.19872985710607155,-0.010799136069115485,-0.016558675305972416,-0.006839452843771975,-3.365490760739207,-1.9962802975762335,-0.11219102471802699,4.211876462818847,-6.3821585569798165,6.298493652761784,-0.6046203095632606,-0.8349281606194505,1.1520524097112543,-10.9239000120167,-10.51163313203817,-22.648678574578046,-0.084917,0.0750820000000001,-0.836969,0.36255,0.1388720000000001,-0.6182489999999999,0.447467,0.06379000000000001,0.21872000000000003,0.9651356126091524,0.0,single,-0.6182489999999999
186,1.55,jog,-1.4820592823712688,-0.7878315132605085,-0.34429377175085196,0.36931073588558844,0.02490499007137326,0.2506919839358685,0.02172086883475475,0.008160326413051217,-0.015120604824192837,-3.3438137525500435,-1.9639985599423757,-0.23088923556941648,2.527357260137544,-1.3216919103382123,8.23151293551357,3.902556690731989,2.9663988622372734,-0.9937779887700368,2.601345036501036,3.8739634746018496,-14.244355076369546,-0.07238599999999999,0.08171499999999998,-0.834226,0.347036,0.12907099999999994,-0.6173040000000001,0.41942199999999996,0.047355999999999954,0.21692199999999995,0.9538414640025643,0.0,single,-0.6173040000000001
187,1.558333,jog,-1.448817952718122,-0.7676707068282784,-0.2727709108364456,0.08105968933365805,0.002112297048910504,0.02784054394440908,0.008640345613823281,-0.01260050402016353,-0.0020400816032645243,-3.3984159366374946,-1.976959078363138,-0.346693867754717,3.989119123142585,2.4193935476095336,8.583086633194169,-1.5697255755348118,-2.491399307958111,1.5697255755344333,-6.55252419146185,-1.5553244234684145,-13.897111746706058,-0.060241,0.08800699999999995,-0.83197,0.33079000000000003,0.11899400000000004,-0.61792,0.391031,0.030987000000000098,0.21404999999999996,0.9743100642903118,0.0,single,-0.61792
188,1.566667,jog,-1.424526037916955,-0.770938324934001,-0.1778257739380816,-0.30402507169277293,-0.24512852109895192,-0.22764486958934574,0.008279337652989317,-0.016078713702913066,-0.005759539236860939,-3.436285097192201,-1.99856011519077,-0.48020158387328715,2.9147965924126105,-0.392082806062227,11.392505027401402,-0.043317489900883334,-0.417351773788038,-0.4462992120945988,-4.543935751704618,-2.5919170659505486,-16.01964436267928,-0.048299999999999996,0.09429799999999988,-0.8305359999999999,0.31402399999999997,0.10876300000000005,-0.62044,0.362324,0.014465000000000172,0.21009599999999995,0.9683664753020632,0.0,single,-0.62044
