frame_id,timestamp,gait_type,root_linear_velocity_x,root_linear_velocity_y,root_linear_velocity_z,root_angular_velocity_x,root_angular_velocity_y,root_angular_velocity_z,left_linear_velocity_x,left_linear_velocity_y,left_linear_velocity_z,right_linear_velocity_x,right_linear_velocity_y,right_linear_velocity_z,root_acceleration_x,root_acceleration_y,root_acceleration_z,left_acceleration_x,left_acceleration_y,left_acceleration_z,right_acceleration_x,right_acceleration_y,right_acceleration_z,left_pos_rel_x,left_pos_rel_y,left_pos_rel_z,right_pos_rel_x,right_pos_rel_y,right_pos_rel_z,step_length,step_width,step_height,left_contact_prob,right_contact_prob,support_type,max_foot_height
1,0.008333,stand,0.01908076323053165,0.1780871234849443,-0.024720988839544995,-0.11211739685418397,-0.0014250978700090747,0.023688572892214977,0.016680667226702417,-0.018120724828981305,0.02172086883475346,0.0030001200047932,0.0007200288011461046,0.0013200528021117392,0.0,0.0,0.0,0.0,0.0,0.0,0.0,0.0,0.0,0.09576700000000016,0.06511500000000003,-0.900968,-0.07538,-0.13882300000000003,-0.906501,0.17114700000000016,0.20393800000000006,0.00553300000000001,0.889938294015458,0.9944069236953168,double,-0.900968
2,0.016667,stand,0.030717542596596346,0.1982241420686329,-0.02207823374130945,-0.06830504497281964,-0.02679449722486772,0.09127566692065937,0.015478761699042918,-0.02147828173746583,0.03479721622270201,0.005399568034565965,0.00011999040077138896,0.0027597792176628486,1.3963018197821808,2.416248930128222,0.3171052433687958,-0.14421712594906394,-0.4028745990502189,1.5690361636607326,0.28791073071427464,-0.0719988481371149,0.17275334959816527,0.09563999999999995,0.063284,-0.9004939999999999,-0.07559099999999996,-0.140474,-0.9062939999999999,0.1712309999999999,0.203758,0.005800000000000027,0.8691273007418799,0.9898914071225369,double,-0.9004939999999999
3,0.025,stand,0.0020400816032561785,0.19512780511220645,-0.023880955238203435,0.08952367426718545,-0.025075877112126922,0.02546448571691242,0.0164406576263115,-0.021480859234374202,0.029281171246850014,0.003960158406330221,0.0004800192007685108,0.0007200288011519335,-3.4414329765198812,-0.3715752977830845,-0.2163352330365996,0.11543212855737216,-0.0003093120014847262,-0.6619518751772464,-0.1727360648308825,0.0432051842070229,-0.2447798411749568,0.09576000000000007,0.06147899999999995,-0.900051,-0.07557499999999995,-0.142096,-0.906089,0.17133500000000002,0.20357499999999995,0.006037999999999988,0.8731806055988711,0.9932439914580462,double,-0.900051
4,0.033333,jog,0.026881075243009957,0.2293291731669262,-0.020640825633019316,-0.04189171939851872,0.004973063583256156,0.13420027468722712,0.01968078723149562,-0.01800072002879917,0.022920916836673907,0.004800192007685108,0.0007200288011461046,0.0019200768030719613,2.9810384783095856,4.104328339699957,0.38883110586632896,0.38883110586632896,0.41763341000540416,-0.7632610596635194,0.10080806448516579,0.028802304137476753,0.144011520691231,0.09570000000000012,0.05941799999999997,-0.899688,-0.07575899999999991,-0.14400100000000005,-0.9059010000000001,0.17145900000000003,0.20341900000000002,0.006213000000000024,0.8792580999890822,0.9913002267406912,double,-0.899688
5,0.041667,jog,0.016678665706756808,0.1837053035757078,0.019438444924405503,-0.3047290714155252,-0.130722154212068,0.06466490010678204,0.021958243340538062,-0.013078953683708391,0.021358291336692776,0.004079673626120652,0.0027597792176620164,0.003239740820734667,-1.2241912090536533,-5.47442639683446,4.8091277366720435,0.2732728712553926,0.5905647162335946,-0.18750005999293626,-0.08645528936458555,0.24475046994431385,0.15834701435837598,0.09574400000000005,0.057777999999999996,-0.899672,-0.07586399999999993,-0.145509,-0.9060360000000001,0.17160799999999998,0.203287,0.006364000000000036,0.8808472364804993,0.9901742912594564,double,-0.899672
6,0.05,jog,-0.003360134405366252,0.22440897635905896,-0.004800192007685108,0.03869769709500085,-0.1727011530539313,-0.049071103369862534,0.01956078243128684,-0.010200408016320862,0.021000840033601528,0.00516020640825816,0.002760110404415606,0.0028801152046081502,-2.404752203542909,4.884636119446917,-2.9087527819621517,-0.28770681738284215,0.34543929765840975,-0.04289587220583802,0.1296691206213259,3.9744000190772255e-05,-0.04315680020719029,0.09593499999999988,0.055822999999999956,-0.899457,-0.075793,-0.14735600000000004,-0.905972,0.17172799999999988,0.203179,0.0065150000000000485,0.8840861727884115,0.9891294225835404,double,-0.899457
7,0.058333,jog,0.026281051242045987,0.1957278291131704,0.02364094563782584,-0.23838720244673436,-0.06768244520934745,0.055917565496115144,0.023160926437070652,-0.009720388815552351,0.01872074882995277,0.0063602544101594525,0.004320172806916597,0.004440177607104145,3.5570845610719113,-3.441875344520407,3.4130730403829292,0.43203456207654073,0.057604608276552394,-0.2736218893134236,0.1440115206889826,0.18721497689919483,0.1872149768985953,0.09590900000000002,0.05411099999999991,-0.899498,-0.07595900000000011,-0.14895100000000006,-0.906132,0.17186800000000013,0.20306199999999996,0.006634000000000029,0.8814483338679338,0.985202111033983,double,-0.899498
8,0.066667,jog,0.0004799616030589126,0.22426205903526497,0.017038636909044332,-0.07457483572995074,-0.27116631056668516,-0.09078508801685432,0.027357811375077385,-0.0031197504199628615,0.011159107271418622,0.006479481641468501,0.0041996640268787185,0.004319654427645945,-3.095883086031566,3.4238336839566306,-0.7922136703601521,0.5035859056883528,0.7920132464110258,-0.9073244010720117,0.014306123267224463,-0.014459896812800348,-0.0144616246050156,0.09613300000000002,0.05221600000000004,-0.899547,-0.075909,-0.15078499999999995,-0.906238,0.17204200000000003,0.203001,0.0066910000000000025,0.8835726528428842,0.9852539765572141,double,-0.899547
9,0.075,jog,-0.00792031681266045,0.22512900516021858,0.007200288011527668,-0.12290196831551436,-0.2904268768604511,-0.17169760289630365,0.026401056042254793,-0.006960278411136751,0.008640345613824874,0.005760230409222134,0.00756030241210072,0.005400216008640338,-1.0080737328356377,0.10403769650229341,-1.1806490936657474,-0.11481523254801311,-0.4608817942126356,-0.30226348945082804,-0.08631360041358063,0.403292737936158,0.12967257662239218,0.09641900000000003,0.05028199999999994,-0.8995350000000001,-0.07579500000000006,-0.152598,-0.9062530000000001,0.1722140000000001,0.20287999999999995,0.006718000000000002,0.885090530648911,0.9817805994831426,double,-0.8995350000000001
10,0.083333,jog,0.005760230409222125,0.2500900036001408,-0.003960158406343541,-0.060471838441628366,0.08144222626874043,-0.10358101787134864,0.007920316812660436,-0.008160326413051353,0.0018000720028794159,0.007200288011514332,0.009480379215161426,0.0068402736109441946,1.6417313358793426,2.9954396303758757,-1.3393071424302412,-2.2177774186480668,-0.1440115206905797,-0.8208656679401718,0.1728138248280567,0.23041843310460863,0.17281382482945584,0.09643699999999988,0.048130000000000006,-0.899487,-0.07578300000000016,-0.15460300000000005,-0.9061629999999999,0.17222000000000004,0.20273300000000005,0.006675999999999904,0.9140506941822618,0.9771167770951559,double,-0.899487
11,0.091667,jog,0.024958003359729555,0.25065994720422474,-0.0020398368130470058,-0.2651977032796381,0.039156054901565325,-0.026091494964092757,0.027117830573561274,0.0008399328053730801,0.006479481641469339,0.01067914566834723,0.007679385649155754,0.022438204943604486,2.3035484701832787,0.06838776146915852,0.2304201575829778,2.3035173699185085,1.079944710634082,0.5614842378917598,0.4174295244579913,-0.21610193976549955,1.8716020317566957,0.09645499999999996,0.04604799999999998,-0.899416,-0.07590200000000014,-0.156628,-0.9059590000000001,0.1723570000000001,0.20267599999999997,0.0065430000000000765,0.8880802787801416,0.9566509593453123,double,-0.899416
12,0.1,jog,0.0010800432017191559,0.24564982599304203,0.003480139205561708,-0.21774902268281396,-0.1647075249363313,-0.23954589745540417,0.03840153606142754,0.00048001920076851036,-0.0037201488059526245,0.009000360014406239,0.01176047041880852,0.006360254410176517,-2.865469837754756,-0.6012385948857208,0.6624236191778122,1.3540988224968502,-0.04319136020695661,-1.2240046138751897,-0.20146233696639732,0.4897497623488254,-1.929431241261005,0.09676599999999991,0.04400499999999996,-0.8994759999999999,-0.07583600000000001,-0.15857700000000008,-0.905935,0.17260199999999992,0.20258200000000004,0.0064590000000001035,0.8711028400079255,0.9731378011871099,double,-0.8994759999999999
13,0.108333,jog,-0.005520220808831217,0.2545301812072399,-0.015240609624383577,-0.13282390388420304,-0.11141458487029321,-0.25138971869619336,0.027841113644547003,0.001320052802110075,0.005640225609024177,0.010920436817480299,0.01344053762150499,0.008040321612864651,-0.7920633638005974,1.065685253113872,-2.2465797227823474,-1.2673013820809482,0.10080806448356718,1.1232898613916726,0.23041843310621166,0.20161612896873543,0.20161612896773495,0.09704399999999991,0.041895000000000016,-0.899302,-0.07569899999999996,-0.160586,-0.905741,0.17274299999999987,0.20248100000000002,0.0064389999999999725,0.8882144337138766,0.9681779791706903,double,-0.899302
14,0.116667,jog,0.005039596832238472,0.2464602831773456,-0.04475641948643585,-0.10486440919909848,0.0025232458057988898,-0.4224844964856482,0.036717062635005904,0.0113990880729489,0.009599232061435517,0.011639068874491678,0.014278857691382303,0.008399328053755765,1.2670767507882985,-0.9683102987634141,-3.5416138543379225,1.0650286765609422,1.2093874815021377,0.475042770867691,0.08622894852548331,0.10059036115638487,0.04307732672079595,0.09730800000000017,0.03993599999999997,-0.898849,-0.07564399999999982,-0.16252100000000003,-0.905298,0.172952,0.202457,0.006449000000000038,0.8694665136190327,0.9662565885858803,double,-0.898849
15,0.125,jog,-0.015000600023992658,0.2637705508220371,0.004920196807867247,-0.30137987924791326,-0.3489819672760553,-0.19971911358753683,0.04092163686546561,0.006000240009599728,0.002640105604224313,0.01680067202685792,0.01932077283092258,0.011880475219008577,-2.4049198195405195,2.0773152099713785,5.961432412612881,0.5045690904187823,-0.6478876831092256,-0.8351285800085455,0.6194171549701486,0.6050540189055901,0.417754370005138,0.09777400000000003,0.03778799999999993,-0.898868,-0.07537900000000008,-0.16455799999999998,-0.90524,0.1731530000000001,0.20234599999999991,0.006372000000000044,0.8672077069231227,0.9529568597878371,double,-0.898868
16,0.133333,jog,-0.01956078243128682,0.2520100804032148,0.030961238449535612,-0.19495131051328812,-0.44324111274436123,-0.2096649373304597,0.03972158886356426,-0.04164166566662497,0.004560182407295853,0.016680667226702403,0.019920796831873196,0.015360614424576927,-0.5472437786264441,-1.411312902774783,3.125049999000161,-0.14401152068899017,-5.717257371441817,0.2304184331059088,-0.014401152064744759,0.0720057603444876,0.4176334100046019,0.09826800000000002,0.035340999999999956,-0.899088,-0.07507700000000006,-0.16649199999999997,-0.90537,0.17334500000000008,0.20183299999999993,0.00628200000000001,0.8409651333252725,0.9496945087754032,double,-0.899088
17,0.141667,jog,0.0328773698104015,0.24490040796735832,0.013678905687552048,-0.4847998300292769,-0.07337270045993127,-0.07750537944687251,0.023158147348198724,0.044396448284148474,-0.009239260859131373,0.01751859851211661,0.026877849772018538,0.016918646508279647,6.292074903010373,-0.8530924449071896,-2.0737140343152873,-1.9874539855250266,10.323747774270895,-1.655800727913038,0.10054371075284475,0.8347795704518068,0.1869488941327961,0.09818700000000002,0.03367000000000009,-0.899279,-0.07520499999999997,-0.16830899999999993,-0.905343,0.173392,0.20197900000000002,0.006063999999999958,0.8544955926251401,0.9395489017224102,double,-0.899279
18,0.15,jog,0.017520700828030644,0.26761070442818474,-0.07464298571943008,-0.007748530695072876,0.1816525902529233,-0.43656455444471715,0.018120724828994614,0.006120244809781853,-0.023760950438017115,0.01368054722188256,0.028801152046083977,0.0194407776311051,-1.8428739928442148,2.7253445890827317,-10.599050930875082,-0.6045148828998087,-4.593328150049993,-1.7426724563645422,-0.4605845782112139,0.23080550510805678,0.30266784145271247,0.09819200000000006,0.031490999999999936,-0.8988550000000001,-0.075237,-0.17029899999999998,-0.904559,0.17342900000000006,0.20178999999999991,0.005703999999999931,0.8921225457796641,0.9377592584668681,double,-0.8988550000000001
19,0.158333,jog,0.0063602544101860935,0.26425057002279184,-0.03564142565702526,-0.028606605489225927,0.03917667298406426,-0.17773272176748917,0.033241329653196025,0.004680187207489645,-0.01764070562822527,0.01332053282130951,0.034201368054719725,0.023400936037441564,-1.3393071424270422,-0.4032322579374652,4.680374422465473,1.8145451607105962,-0.17281382482805796,0.7344587555252418,-0.04320345620701436,0.6480518431100136,0.4752380182811064,0.09841600000000006,0.02932800000000002,-0.8987050000000001,-0.0751790000000001,-0.17221599999999992,-0.9040670000000001,0.17359500000000017,0.20154399999999995,0.005361999999999978,0.8831765225009269,0.9274516640269242,double,-0.8987050000000001
20,0.166667,jog,0.007199424046070185,0.26565874730022165,-0.05579553635709723,-0.08630722748527808,-0.18898929006110207,-0.32855301864460434,0.031557475401956074,0.004919606431493727,-0.008999280057595226,0.011519078473733612,0.050275977921759876,0.034077273818094465,0.10069230092201716,0.16896775587110757,-2.418299820023032,-0.20204634644107863,0.028728008639798634,1.0368881174262101,-0.21615722913077706,1.9287988801344056,1.281058049034424,0.09861900000000001,0.02715500000000004,-0.898315,-0.07514299999999996,-0.17401100000000003,-0.903318,0.17376199999999997,0.20116600000000007,0.00500299999999998,0.8946661970681519,0.8969678621369539,double,-0.898315
21,0.175,jog,-0.007320292811696492,0.2756510260410415,-0.03252130085203671,0.016134123642417276,-0.29483498483265935,-0.22068276173758916,0.03360134405376919,0.002880115204597749,-0.008520340813632761,-0.0016800672026831304,0.04524180967239561,0.04776191047641906,-1.74243572036082,1.1991214137549377,2.7930199814065255,0.24527404917954154,-0.24474873717700507,0.05747500827582688,-1.5839608396035971,-0.604124354897909,1.642222087882471,0.09895999999999994,0.02488199999999996,-0.898115,-0.07509600000000005,-0.17593099999999995,-0.9026489999999999,0.174056,0.2008129999999999,0.004533999999999927,0.8966863088070693,0.8903180853989812,double,-0.898115
22,0.183333,jog,-0.002040081603282823,0.2580103204128145,-0.05160206408255491,0.12014445371768868,-0.2821244929779954,-0.16682383581016444,0.03144125765030412,0.0063602544101860935,-0.006960278411136739,-0.010560422416907229,0.0460818432737237,0.052922116884675394,0.6336506910372812,-2.116969354161405,-2.289783178989342,-0.25922073724529743,0.41763341000700127,0.1872149768985985,-1.0656852531170156,0.1008080644819498,0.6192495389723182,0.09923900000000008,0.022785000000000055,-0.8977430000000001,-0.07516699999999998,-0.177697,-0.9017780000000001,0.17440600000000006,0.20048200000000005,0.004035000000000011,0.9049424189095729,0.8817276065755787,double,-0.8977430000000001
23,0.191667,jog,-0.02135829133669442,0.26337892968563187,-0.05471562275018137,0.25965971854591136,-0.2981348912402443,-0.1998089538966553,0.028197744180463762,0.010079193664503588,-0.021238300935924697,-0.019078473722104642,0.05567554595632583,0.08075353971682257,-2.317999728031147,0.6441815782118242,-0.37359715234298696,-0.38919048114235155,0.4462370115571743,-1.7132256449229595,-1.0220843898724987,1.1511522297338759,3.3395035795712924,0.09965200000000007,0.02067399999999997,-0.897464,-0.07514799999999999,-0.17942800000000003,-0.900649,0.17480000000000007,0.200102,0.0031849999999999934,0.9069633922505562,0.833459307993041,double,-0.897464
24,0.2,jog,-0.01956078243128682,0.2558502340093496,-0.038641545661831776,-0.18244683320864655,-0.4841607954072551,-0.10613327274788484,0.006600264010550363,-0.00048001920076851036,-0.026161046441858002,-0.019800792031677738,0.04620184807391916,0.117004680187207,0.2157096970367932,-0.9034796203386867,1.9289664092583196,-2.5918012924413034,-1.267156230081854,-0.5907530908356295,-0.08668166441534805,-1.136889221457658,4.350310868880883,0.0998699999999999,0.018538000000000054,-0.8973599999999999,-0.07515000000000005,-0.18117499999999997,-0.899352,0.17501999999999995,0.19971300000000003,0.001992000000000105,0.9351048755676132,0.7877581481982966,double,-0.8973599999999999
25,0.208333,jog,-0.040441617664710494,0.2565702628105232,-0.10716428657146704,0.5961268878257633,0.01549013875045376,-0.27355901362540563,0.022560902436106738,0.003240129605184125,-0.025801032041281705,-0.002640105604220154,0.08124324972999404,0.15624624984999494,-2.5058004600292483,0.08640691241733024,-8.223057831469509,1.9153532251957774,0.4464357141428831,0.043203456207404,2.059364745884751,4.205136404185164,4.709176726603628,0.10039500000000001,0.01642699999999997,-0.896682,-0.07483499999999998,-0.18263600000000002,-0.897157,0.17523,0.199063,0.0004750000000000032,0.9378724489072318,0.7064568630201069,double,-0.896682
26,0.216667,jog,-0.03179745620349885,0.2694984401247862,-0.10943124550034941,0.10101486750891167,-0.14241524909000414,-0.498441572667321,0.017878569714417397,0.009959203263732199,-0.02555795536357064,0.006719462443011273,0.1109911207103375,0.18226541876649843,1.0372163980335534,1.5512571771373862,-0.2720133104010524,-0.561834979804336,0.8062243410784818,0.029166867975889837,1.1230583210020901,3.569458960924337,3.122050505939941,0.10080899999999993,0.014263999999999943,-0.8959830000000001,-0.07451399999999997,-0.18395700000000004,-0.894726,0.1753229999999999,0.19822099999999998,0.0012570000000000636,0.945430012648183,0.6315864680220828,double,-0.894726
27,0.225,jog,-0.06408256330253619,0.24636985479418813,-0.09144365774631462,0.6507592386692267,0.047452716639939475,-0.30189902000982743,0.051602064082581556,0.01728069122765305,0.017520700828033142,0.031201248049913206,0.15480619224769138,0.19764790591623596,-3.8743678265975405,-2.7755412613222172,2.1585968743591475,4.0469812034278325,0.8786137002185102,5.169645528813602,2.9379317900998334,5.2580189052386705,1.8459722968603762,0.10177300000000011,0.012355000000000005,-0.895075,-0.07372000000000001,-0.18472,-0.892317,0.17549300000000012,0.197075,0.002757999999999927,0.9047172298367501,0.5507725374887786,double,-0.892317
28,0.233333,jog,-0.07956318252731065,0.26749069962798927,-0.11364454578183492,0.34458682049166733,-0.13846465696012808,-0.4181796978156117,0.011400456018235467,0.005160206408258156,-0.023400936037441564,0.018120724828994614,0.18576743069722698,0.23868954758190364,-1.8577486169176107,2.534602764166701,-2.664213132787745,-4.824385943159253,-1.4545163589817451,-4.9107928555711835,-1.569725575533251,3.7154972338336227,4.925194007640423,0.10253100000000015,0.010168999999999984,-0.894323,-0.07290599999999992,-0.18540100000000004,-0.889381,0.17543700000000007,0.19557000000000002,0.004942000000000002,0.9557719943227276,0.45058,single,-0.889381
29,0.241667,jog,-0.10223182145426625,0.27321814254859356,-0.08867290616749891,0.5197051433833765,-0.0486690965504011,-0.26851665124888463,0.014038876889839572,0.013198944084479813,-0.018118550515958568,0.031677465802740896,0.13906887449004365,0.3114950803935694,-2.720019069709102,0.6872381714188025,2.996357045156715,0.31658517777827117,0.964571355438166,0.6338355557335024,1.626678782546954,-5.603378474584046,8.735965060195094,0.10349999999999993,0.008002000000000065,-0.8937350000000001,-0.07179000000000002,-0.186519,-0.886046,0.17528999999999995,0.19452100000000005,0.007689000000000057,0.9559172475755779,0.42311,single,-0.886046
30,0.25,jog,-0.11436457458298102,0.24732989319572515,-0.04272170886835745,0.22681341555942738,0.17267265257615827,-0.34508073177369614,0.016200648025920573,0.004680187207476322,-0.01812072482899295,0.024600984039362842,0.2490099603984216,0.31189247569902734,-1.455988614990371,-3.106714190911842,5.514364250466989,0.25942291324624966,-1.0222917169090942,-0.0002609280012456841,-0.8492117800765688,13.193458047327235,0.04768934422872423,0.1045879999999999,0.005979999999999985,-0.89353,-0.07063200000000003,-0.18650499999999992,-0.8830910000000001,0.17521999999999993,0.1924849999999999,0.010438999999999976,0.9587445014747236,0.39561,single,-0.8830910000000001
31,0.258333,jog,-0.12804512180489067,0.3028921156846379,-0.12492499699988867,0.28682881884558137,-0.2932063481803484,-0.41188075275399055,0.008040321612869245,0.009000360014406268,-0.017040681627265523,0.025441017640691167,0.3046921876875032,0.3384135365414629,-1.6417313358825967,6.667733408005868,-9.864789167350464,-0.9792783406997898,0.5184414744905744,0.1296103686220363,0.10080806448197846,6.682134560072214,3.182654607276565,0.1057220000000001,0.003530999999999951,-0.892631,-0.069353,-0.18649000000000004,-0.87923,0.1750750000000001,0.190021,0.013400999999999996,0.9651974584920264,0.36599,single,-0.87923
32,0.266667,jog,-0.15814734821213453,0.2865370770338305,-0.09035277177824477,0.8052538217279536,0.5354742547581056,-0.09488912903661707,-0.02915766738660823,0.019438444924405485,-0.08027357811375117,-0.001559875209961447,0.34353251739860163,0.3782097432205414,-3.6119782106124108,-1.9624476422855028,4.148335159784481,-4.463401607808668,1.2524699916005768,-7.587340591130981,-3.239847954241971,4.660466727993565,4.77516278846634,0.10679700000000003,0.0013050000000000006,-0.8925470000000001,-0.06804799999999989,-0.18601500000000004,-0.875325,0.17484499999999992,0.18732000000000004,0.01722200000000007,0.8540179800674476,0.32777999999999996,single,-0.875325
33,0.275,jog,-0.13248529941197518,0.32773310932437627,-0.1509660386415561,-0.07809098807261546,-0.41127755174900693,-0.4060401071919109,-0.004440177607112037,-0.005280211208453596,-0.021960878435136794,0.008520340813624377,0.4106564262570529,0.3927757110284401,3.0795690387806602,4.9437216237304185,-7.273882978916487,2.96621742223642,-2.966357390238687,6.99780387358864,1.2096743098026859,8.055191270664945,1.7479860563900929,0.10786399999999996,-0.0014700000000000824,-0.8914719999999999,-0.06687299999999996,-0.18532400000000004,-0.870794,0.17473699999999992,0.18385399999999996,0.020677999999999974,0.9616349410548466,0.29322,single,-0.870794
34,0.283333,jog,-0.20112804512180668,0.2979719188767574,-0.07344293771750239,0.9076265095870027,0.5976376691947064,-0.12595019436793242,0.003240129605184125,0.003960158406343554,-0.015720628825152946,-0.01176047041880856,0.48949957998320714,0.4191767670706834,-8.237458983539142,-3.5714857131428,9.303144236655935,0.9216737324248387,1.1088887093240338,0.7488599075943674,-2.4337946996799458,9.46155690941491,3.1682534552074118,0.10956699999999997,-0.003920000000000035,-0.890991,-0.06529499999999988,-0.183728,-0.866689,0.17486199999999985,0.17980799999999997,0.024301999999999935,0.9724460395506505,0.25698000000000004,single,-0.866689
35,0.291667,jog,-0.1877849772018283,0.3086153107751266,-0.09731221502279883,0.07550763588889263,-0.5370473656041889,-0.12178004476108285,0.006239500839925718,0.00839932805375743,-0.015358771298296495,-0.004439644828421493,0.5987520998320055,0.39764818814494857,1.6010400671920293,1.2771048594155512,-2.864084149903577,0.3598957565084701,0.5326577450700589,0.0434194296684006,0.8784287965427237,13.109253641564464,-2.5832228132631174,0.11118399999999995,-0.006421999999999928,-0.890308,-0.06376699999999991,-0.18130999999999997,-0.862564,0.17495099999999986,0.17488800000000004,0.02774399999999999,0.9690263580568786,0.22255999999999998,single,-0.862564
36,0.3,jog,-0.24804992199688541,0.33997359894396884,-0.10860434417377259,1.38189324247321,0.6196987750310214,0.07695518537319831,0.004440177607112066,0.0106804272170894,-0.017280691227648946,-0.04092163686549233,0.7688707548302013,0.38137525501020053,-7.232082658713221,3.7631451060653194,-1.3551097025049548,-0.2159274250346401,0.27374284931380954,-0.2306396171069789,-4.378014165015112,20.415055201991624,-1.9528300893733441,0.11328800000000006,-0.009166000000000007,-0.889547,-0.06204100000000001,-0.177736,-0.8584809999999999,0.17532900000000007,0.16857,0.031066000000000038,0.9653425896962061,0.18934000000000006,single,-0.8584809999999999
37,0.308333,jog,-0.23100924036960835,0.34753390135605394,-0.14628585143405318,0.04880733168293451,0.0045589254569299124,-0.20008106403858889,0.006240249609977291,0.00972038881555231,-0.01764070562822521,-0.09384375375013022,0.8595943837753377,0.2913716548661934,2.044963593816992,0.9072725803534232,-4.521961749703641,0.21601728103506743,-0.11520921655311243,-0.04320345620739996,-6.35090806247902,10.887270964254894,-10.800864051842888,0.11526499999999995,-0.01198100000000002,-0.888475,-0.0608979999999999,-0.1734690000000001,-0.854834,0.17616299999999985,0.16148800000000008,0.03364100000000003,0.9648565965972579,0.16359000000000007,single,-0.854834
38,0.316667,jog,-0.26661867050635457,0.27801775857930355,-0.04427645788336391,0.7972513594265789,0.3086906678171975,0.5814631696007475,0.002159827213831727,0.010559155267575893,-0.018358531317494747,-0.1181905447564218,0.8282937365010837,0.4010079193664527,-4.272789793226113,-8.341269831623565,12.240148014241644,-0.4896115186159811,0.10064392272901221,-0.0861321921369738,-2.9213812102581844,-3.7557772107336387,13.155299316085905,0.11750499999999997,-0.014209999999999945,-0.888259,-0.059660999999999964,-0.168883,-0.8511230000000001,0.17716599999999993,0.15467300000000006,0.03713599999999995,0.964519321154018,0.1286400000000001,single,-0.8511230000000001
39,0.325,jog,-0.22680907236288725,0.4532581303252148,-0.20412816512661183,0.06205205430976327,0.18711556350748887,-0.3200384147318902,-0.013560542421700381,0.02412096483859425,-0.04020160806432222,-0.18840753630145984,1.1242049681987285,0.40801632065282445,4.777342870930896,21.029685796941138,-19.182972188077194,-1.8865198170565274,1.6274822478121087,-2.621274060581709,-8.426376040446149,35.5107682344466,0.8410417960364488,0.11928199999999989,-0.01778599999999997,-0.8868929999999999,-0.05934100000000009,-0.163292,-0.8460219999999999,0.17862299999999998,0.14550600000000002,0.04087099999999999,0.9186591781713646,0.0912900000000001,single,-0.8460219999999999
40,0.333333,jog,-0.2571702868114738,0.36409456378254995,-0.18588743549742306,0.47988914876606337,-0.3515759094264622,0.07497973023699173,-0.0015600624025009946,0.007920316812673786,-0.02508100324012977,-0.236409456378259,1.219248769950808,0.38785551422056963,-3.6434914734893353,-10.7000559873593,2.188975114507238,1.4401152069122063,-1.944155529331634,1.8145451607095269,-5.760460827649019,11.40571243874713,-2.4193935476124886,0.12141199999999985,-0.02075399999999994,-0.8855529999999999,-0.05916800000000011,-0.15616599999999992,-0.8412409999999999,0.18057999999999996,0.13541199999999998,0.04431200000000002,0.9560865138202833,0.0568800000000001,single,-0.8412409999999999
41,0.341667,jog,-0.2613390928725715,0.422846172306225,-0.1367890568754401,0.7484101270791957,-0.03016830322458838,0.11302679062765256,-0.001559875209961447,0.010919126469876667,-0.024718022558195062,-0.28257739380848124,1.2285817134629216,0.293736501079914,-0.5002167099949248,7.049629052516799,5.891334127907717,2.2461307841095548e-05,0.35982837259453776,0.04355419749636532,-5.539709314881473,1.1198636323630233,-11.293378106630135,0.12357700000000005,-0.02418700000000007,-0.884619,-0.05934499999999998,-0.149451,-0.837653,0.18292200000000003,0.12526399999999993,0.04696600000000006,0.9548877581063,0.03034000000000009,single,-0.837653
42,0.35,jog,-0.3134525381015319,0.28045121804871337,-0.05496219848794799,-0.5346638022925781,0.3729046002375995,0.32606507573672694,-0.003840153606148096,0.012240489619590393,-0.017280691227649362,-0.34813392535702026,1.049801992079683,0.19500780031201315,-6.253863582018543,-17.0880780340228,9.819615791130722,-0.2736443533165312,0.15856992076247808,0.8925154602838976,-7.8670984697634925,-21.454424742978393,-11.847918008868486,0.12615700000000007,-0.026421999999999946,-0.884305,-0.059633999999999965,-0.14303999999999994,-0.8355699999999999,0.18579100000000004,0.116618,0.048735000000000084,0.9641299159329629,0.012649999999999995,single,-0.8355699999999999
43,0.358333,jog,-0.3349333973358906,0.29881195247809694,-0.021840873634947165,0.9352390620371983,0.11391754489600321,0.26303940992256,-0.013680547221882515,0.011520460818430887,-0.01716068642745712,-0.4252970118804724,1.3111724468978694,0.15624624984999305,-2.5778062203718504,2.203376266576683,3.974717971078926,-1.1808944696669121,-0.086406912415637,0.014401152069151778,-9.259940780445438,31.36570920655049,-4.651572118327125,0.12883400000000012,-0.028815999999999953,-0.884266,-0.06038699999999997,-0.13460399999999995,-0.834086,0.18922100000000008,0.105788,0.05018,0.958689268665506,0.0,single,-0.834086
44,0.366667,jog,-0.31269498440123394,0.6501079913606946,-0.35757139428845447,0.20743591331685873,-1.3682664999151037,-1.052948061643267,0.003959683225335938,0.012598992080636145,-0.026157907367410516,-0.482241420686344,1.3510919126469794,0.14158867290616742,2.66839608047236,42.15215249371219,-40.284439723242976,2.116658321000532,0.12941339839275942,-1.079580146382696,-6.8327824341098555,4.789952693677699,-1.7587685317765323,0.13147299999999995,-0.034128999999999965,-0.881504,-0.06180000000000008,-0.12876200000000004,-0.8299259999999999,0.19327300000000003,0.09463300000000008,0.05157800000000001,0.9511621216411161,0.0,single,-0.8299259999999999
45,0.375,jog,-0.267370694827808,0.37429497179887083,-0.11760470418816553,-0.12259320588531225,-0.0787226812324153,0.21752031668004262,-0.014520580823237495,0.011400456018235505,-0.022080883235329484,-0.5580223208928422,1.384615384615394,0.08928357134285496,5.43913231410369,-33.09888630287105,28.79715469822267,-2.217720394644603,-0.14383008069130485,0.489262466348379,-9.09407178765131,4.022977555311967,-6.276863262127995,0.13358000000000003,-0.03715299999999999,-0.8807079999999999,-0.064222,-0.12034299999999998,-0.828202,0.19780200000000003,0.08318999999999999,0.05250599999999994,0.9520305922337491,0.0,single,-0.828202
46,0.383333,jog,-0.30301212048480675,0.3868954758190343,-0.1100444017760648,0.022513753529777924,0.026808702108325956,0.11872486723573575,0.006600264010550386,0.002160086403451642,-0.010440417616704726,-0.6414256570262746,1.4609384375375074,0.05364214568582625,-4.27714216452644,1.5121209672583067,0.9072725803553044,2.5346027641651188,-1.108888709322439,1.3969117507050026,-10.008800688039438,9.159132715962281,-4.277142164530036,0.13615999999999984,-0.040359000000000034,-0.879878,-0.06704200000000005,-0.11139299999999996,-0.8268380000000001,0.20320199999999988,0.07103399999999993,0.053039999999999976,0.9791013172736664,0.0,single,-0.8268380000000001
47,0.391667,jog,-0.35001199904008345,0.3869690424766055,-0.14242860571154883,0.12171917977485029,-0.4934640329258831,-0.11905416251841884,0.026517878569717605,-0.006599472042226563,-0.04187664986801035,-0.701583873290155,1.4426445884329246,-0.008759299256058275,-5.639534263892088,0.008827292725131332,-3.8857936087693794,2.3899225532958,-1.0510629284471078,-3.772046106468154,-7.218408478987323,-2.1950862856470774,-7.4875743870751705,0.13929799999999992,-0.04363899999999998,-0.87904,-0.06997200000000015,-0.10259499999999999,-0.825724,0.20927000000000007,0.05895600000000001,0.05331600000000003,0.9166599216189348,0.0,single,-0.825724
48,0.4,jog,-0.3536541461658491,0.41401656066241915,-0.14100564022561288,-0.27271607980987317,-0.25326267345800035,-0.030234908343547834,-0.0008400336013282363,0.01008040321612536,-0.013200528021120669,-0.7952718108724242,1.5905436217448616,0.036121444857793644,-0.4370751380974013,3.245832015578246,0.17076268881986684,-3.2830807837568377,2.0016650976061268,3.441272272517648,-11.243002229961446,17.748593941190013,5.3859047298514025,0.1422380000000001,-0.047004999999999963,-0.877975,-0.07365200000000005,-0.09279099999999996,-0.824248,0.21589000000000014,0.04578599999999999,0.05372699999999997,0.9722824701734212,0.0,single,-0.824248
49,0.408333,jog,-0.39661586463459997,0.3978159126365146,-0.1844473778951042,0.3864140061833269,-0.4231908184056626,-0.1708871527830963,-0.008760350414015352,0.005760230409222144,-0.013320532821312884,-0.8449537981519105,1.5507020280811257,-0.0602424096963883,-5.1556124407477455,-1.9441555293297228,-5.213217049020933,-0.9504760365639188,-0.5184414744873668,-0.014401152069148543,-5.9620769566166425,-4.781182486947805,-11.564125111506323,0.1454700000000002,-0.05027199999999998,-0.876549,-0.07738799999999979,-0.08318400000000004,-0.8232130000000001,0.222858,0.03291200000000005,0.05333599999999994,0.9717471442747552,0.0,single,-0.8232130000000001
50,0.416667,jog,-0.42452603791694454,0.2471802255819473,0.010319174466033044,-0.365813621855019,1.4209910853521952,1.245014957269356,-0.017998560115202105,0.007439404847599642,-0.015598752099832195,-0.9212862970962402,1.545356371490276,-0.07931365490760671,-3.3489528776511337,-18.07483645963129,23.370116674002524,-1.1084964844236556,0.20148481382019393,-0.27336444426677575,-9.159167139948359,-0.6414274767038178,-2.288366356037724,0.14885799999999993,-0.05227000000000004,-0.876765,-0.08152800000000004,-0.07236500000000001,-0.82396,0.23038599999999998,0.020094999999999974,0.05280499999999999,0.9584129434606333,0.0,single,-0.82396
51,0.425,jog,-0.4053762150486153,0.37165486619465066,-0.057242289691581766,-0.35839016525754147,0.16253122963964484,0.21603415504536846,-0.009000360014406268,0.00240009600384256,-0.009480379215168535,-1.0622824912996645,1.4408976359054386,-0.08136325453018117,2.298070667026194,14.937554375699468,-8.107700006914074,1.0798272051837103,-0.6047412509008874,0.7342341155242621,-16.92022011321548,-12.535549692168209,-0.24596179318066344,0.152161,-0.055347000000000035,-0.876367,-0.08700200000000002,-0.06345500000000004,-0.824161,0.23916300000000001,0.008108000000000004,0.052205999999999975,0.9778487189184122,0.0,single,-0.824161
52,0.433333,jog,-0.3716548661946349,0.4326173046921822,-0.18768750750030042,0.2763652329815211,-0.4034302170181719,0.44045724022055976,-0.005640225609013324,-0.0014400576023055264,-0.011040441617664877,-1.0084003360134288,1.8378735149405994,-0.13416536661466497,4.046723731426892,7.315785251113796,-15.654052299138138,0.4032322579374692,-0.46083686621241693,-0.18721497689863628,6.466117279039411,47.639011044660876,-6.336506910414445,0.155211,-0.058964000000000016,-0.874895,-0.09230800000000006,-0.05174499999999993,-0.823715,0.24751900000000004,0.0072190000000000865,0.05118,0.9791982064120266,0.0,single,-0.823715
53,0.441667,jog,-0.41528677705785677,0.4295656347492258,-0.08615310775137995,-0.12809853497118528,-0.5717924976469247,-0.010582305508671189,-0.0069594432445540975,-0.006599472042226607,-0.01955843532517409,-1.1363090952723953,1.7559395248380139,-0.006959443244540776,-5.235410470748995,-0.3661710994668078,12.183153317605116,-0.15829345278867066,-0.6190802063740233,-1.0220774787028153,-15.34782328521325,-9.831292308925603,15.263489725236969,0.15861400000000003,-0.06259899999999996,-0.87434,-0.09831699999999999,-0.04069100000000003,-0.823055,0.256931,0.021907999999999928,0.051285000000000025,0.9636942278127951,0.0,single,-0.823055
54,0.45,jog,-0.45109804392173647,0.5174606984279329,-0.26257050282010785,-0.3646082446114823,0.4830535195506197,-0.26496836502760823,-0.007680307212269494,-0.005040201608076004,-0.005160206408256057,-1.1638065522620837,1.600864034561378,-0.17484699387975444,-4.2975239246225305,10.547829554626984,-21.170934245617083,-0.08650713641130361,0.18711993689554743,1.7278565842935285,-3.29982683183587,-18.609803225325233,-20.1473119687043,0.16230900000000004,-0.06695300000000004,-0.872195,-0.10425600000000013,-0.031663,-0.822324,0.26656500000000016,0.035290000000000044,0.049871,0.9824391153332266,0.0012900000000000134,single,-0.822324
55,0.458333,jog,-0.46141845673828247,0.4611784471378916,-0.003480139205575043,0.3330208338536737,-0.8282917089117338,0.2345022515277211,-0.004080163206539014,0.0061202448097951966,-0.0031201248049924136,-1.228609144365774,1.7035881435257436,-0.13068522740909583,-1.238499077948641,-6.754140320417786,31.092087317236704,0.43203456207014146,1.3393071424302445,0.24481958517504482,-7.776622117327552,12.327386171170746,5.299623961437504,0.16612000000000005,-0.07074500000000006,-0.872192,-0.110649,-0.02131000000000005,-0.823384,0.27676900000000004,0.04943500000000001,0.04880799999999996,0.9866833117310825,0.011919999999999986,single,-0.823384
56,0.466667,jog,-0.49340052795775013,0.5147588192944579,-0.15814734821214785,-0.42352167372410016,-0.037242618546076356,0.13525920680195827,-0.007919366450671875,0.008759299256058275,0.008039356851452007,-1.2638588912886841,1.5788336933045344,-0.07319414446844238,-3.837541543012675,6.429130328361681,-18.55858039435717,-0.4606675358930715,0.3166612006555167,1.3390306763192237,-4.229631260248382,-14.969336479626724,6.898378082631796,0.17016600000000004,-0.07496200000000008,-0.870807,-0.11707000000000001,-0.012442000000000064,-0.822676,0.28723600000000005,0.06252000000000002,0.048131000000000035,0.9761909828576675,0.01868999999999993,single,-0.822676
57,0.475,jog,-0.4585383415336714,0.4993399735989416,-0.16656666266650044,-0.821413965798788,-1.0070578749040737,-0.2247567887361355,-0.009240369614797187,0.006840273610954626,0.0028801152046081576,-1.289571582863335,1.7107884315372712,-0.1626065042601719,4.1836297160781015,-1.8503354968818322,-1.0103581488482678,-0.15852672076386837,-0.2302922891040026,-0.6191337629717824,-3.0856464148147005,15.835201996008301,-10.729912371502428,0.17391,-0.07906599999999997,-0.869395,-0.12399500000000008,-0.002346999999999988,-0.822643,0.2979050000000001,0.07671899999999998,0.046752000000000016,0.9802467416694384,0.032480000000000064,single,-0.822643
58,0.483333,jog,-0.48097923916956614,0.5585023400935937,-0.17172686907475748,-0.31249479895160787,-0.08956596400756808,0.06014395854139369,-0.020880835233396823,0.054242169686788196,0.04320172806912249,-1.3409336373454903,1.7328693147725847,-0.1317652706108241,-2.6930154369248345,7.099767970077021,-0.6192495389724011,-1.3969117507019786,5.688455067302696,4.838787095225508,-6.163693085582041,2.649811980716829,3.7010960817649905,0.17774400000000012,-0.0832679999999999,-0.867604,-0.13116100000000008,0.0074390000000000844,-0.8223100000000001,0.3089050000000002,0.09070699999999998,0.045293999999999945,0.8793005159666165,0.0470600000000001,single,-0.8223100000000001
59,0.491667,jog,-0.5311975041996586,0.5039596832253526,-0.09791216702664245,0.09043555065310964,-0.7190127528952497,0.14966555307603446,-0.0009599232061444676,-0.0010799136069158564,0.01223902087832989,-1.3845692344612377,1.740460763138946,-0.1094312455003594,-6.025709746831343,-6.544595256568401,8.85705568131929,2.3903182178128555,-6.638118945728822,-3.7152276446835333,-5.235852785666827,0.9109009318888011,2.67986862376586,0.18216300000000007,-0.08747700000000003,-0.866686,-0.1382730000000001,0.017743999999999982,-0.822406,0.32043600000000017,0.10522100000000001,0.044279999999999986,0.9794599782254056,0.05720000000000003,single,-0.822406
60,0.5,jog,-0.5582623304932331,0.5712228489139564,-0.09036361454458244,-1.2715976003619622,0.10448418191561347,-0.17324512929435584,0.0126005040201368,-0.007920316812673786,0.016560662426497008,-1.4594983799352017,1.7374294971798905,-0.0991239649585978,-3.2479090715918164,8.071902758742826,0.9058625323484966,1.6273163598081486,-0.8208812199397512,0.5186177304892751,-8.99185713116095,-0.3637664657452849,1.2369231419370736,0.18691999999999998,-0.09230300000000002,-0.865795,-0.145783,0.027461999999999986,-0.822479,0.33270299999999997,0.11976500000000001,0.04331600000000002,0.9628905649920627,0.06683999999999996,single,-0.822479
61,0.508333,jog,-0.5453018120724664,0.5486619464778593,-0.23124924996999927,0.4822207259458678,-0.9088028961762141,-0.14448707609148206,0.0014400576023188495,0.007320292811709766,0.018960758430336944,-1.4776191047641867,1.7719908796351782,-0.07500300012000455,1.55532442346894,-2.7074165889952,-16.906952529151113,-1.3393071424238454,1.8289463127785297,0.28802304138244644,-2.1745739624366847,4.147531795906346,2.894631565893813,0.19147599999999998,-0.09681400000000007,-0.86371,-0.15355200000000013,0.03765599999999997,-0.821177,0.3450280000000001,0.13447000000000003,0.04253299999999993,0.966040432006054,0.07467000000000001,single,-0.821177
62,0.516667,jog,-0.5753539716822813,0.5747540196784243,-0.003959683225335964,-1.671692896924851,-0.3456372319762879,-0.35172039202651517,0.03275737940964354,-0.03491720662346195,0.08243340532757427,-1.4530837532997254,1.628029757619396,-0.06491480681545511,-3.605970675523765,3.1307983202022087,27.272566204063427,3.757777994639413,-5.068094484661862,7.6161083390014035,2.944006655202955,-17.2739527256759,1.2104863576373284,0.19654400000000005,-0.10189499999999996,-0.86299,-0.16086699999999987,0.046433999999999975,-0.821685,0.3574109999999999,0.14832899999999993,0.041305000000000036,0.8411191611959085,0.08694999999999992,single,-0.821685
63,0.525,jog,-0.5617424696987778,0.5385815432617206,-0.05580223208928918,-1.1141748939691627,-0.25898461750465135,-0.2655537764883564,0.01908076323053157,0.004920196807867223,0.03612144485779448,-1.5168606744269688,1.7604704188167473,-0.1525261010440421,1.6334455758434434,-4.340870804836624,-6.221354717863075,-1.6412595918771042,4.780679638945038,-5.557657562676059,-7.653536676736248,15.89351508428545,-10.513775858464733,0.201384,-0.10634199999999994,-0.862224,-0.16882599999999992,0.056616000000000055,-0.822491,0.37020999999999993,0.162958,0.03973300000000002,0.9314223343633407,0.1026700000000001,single,-0.822491
64,0.533333,jog,-0.5921036841473706,0.5499819992799834,-0.0804032161286397,-0.41177319525051453,0.15296649713566216,-0.13303133399182587,0.022440897635898106,0.011280451218053445,0.04860194407776345,-1.5927037081483613,1.663746549862008,-0.0793231729269172,-3.6434914734901023,1.3681094465694092,-2.9522361741690557,0.4032322579343054,0.7632610596647403,1.497719815188898,-9.101528107691484,-11.607328567711514,8.784702762165557,0.20650499999999994,-0.11083099999999996,-0.861149,-0.1771640000000001,0.06589699999999998,-0.822482,0.38366900000000004,0.17672799999999994,0.03866700000000001,0.9088196013613399,0.11333000000000004,single,-0.822482
65,0.541667,jog,-0.5772738180945359,0.5904727621790222,-0.07763378929686336,-1.6032300602508154,-0.6065542647695412,-0.5590603550597083,0.020158387329007044,0.027597792176619954,0.07787377009839115,-1.5656347492200442,1.6157907367410524,-0.0466762658987278,1.7794415710144633,4.858502867655213,0.33230463544232214,-0.273879326480807,1.9579242810854796,3.5123381354244634,3.248015230179609,-5.754237235535791,3.9173154581460454,0.21148399999999978,-0.11552200000000001,-0.859853,-0.18540100000000015,0.07444200000000001,-0.822224,0.39688499999999993,0.18996400000000002,0.037629000000000024,0.8582615595339698,0.12370999999999999,single,-0.822224
66,0.55,jog,-0.6690267610704529,0.5947437897515828,-0.10128405136204877,-0.3043482718350524,-0.8597531771400123,-0.4594650768038617,-0.00408016320651234,0.06252250090003499,0.07404296171846837,-1.5923436937477402,1.5628225129005036,-0.02136085443417699,-11.010793588853543,0.5125438104596873,-2.8381449736211817,-2.9087424139588722,4.191132692117471,-0.4597153942064998,-3.205201551385563,-6.35644111851058,3.0379708945818678,0.21702500000000002,-0.11995699999999998,-0.858392,-0.19309500000000002,0.082509,-0.821558,0.41012000000000004,0.20246599999999998,0.03683400000000003,0.8383413143668528,0.13165999999999994,single,-0.821558
67,0.558333,jog,-0.6627865114604579,0.6492259690387706,-0.07800312012481043,-0.36160818469290607,-0.8427315275140425,-0.27483368600542696,0.017880715228603874,0.03264130565223239,0.0781231249249984,-1.6000240009600577,1.536901476059058,-0.021240849633985145,0.7488599075957143,6.53812303938417,2.7938235014086814,2.6354108286471156,-3.585886865210953,0.4896391703504217,-0.9216737324274048,-3.1106488469273694,0.014401152069104507,0.22269699999999992,-0.12509499999999996,-0.8570909999999999,-0.2009050000000001,0.08990599999999999,-0.821085,0.42360200000000003,0.21500099999999994,0.03600599999999998,0.8557741214100469,0.13994,single,-0.821085
68,0.566667,jog,-0.6509479241660633,0.5664746820254307,-0.09179265658747418,-0.6591044871673746,-0.8406021468710781,-0.6997680846028973,0.016198704103671132,0.051475881929433455,0.11387089032877265,-1.6052315814734566,1.4818814494840333,0.013798896088311642,1.4205168339806198,-9.929360092793289,-1.6546120065591121,-0.20182518897680934,2.259968355795647,4.289388697357089,-0.6248596728340328,-6.601875038999793,4.204433132025021,0.22825699999999993,-0.12938700000000003,-0.8553769999999999,-0.208858,0.09753500000000004,-0.820205,0.4371149999999999,0.22692200000000007,0.03517199999999998,0.7899818519791508,0.14828000000000008,single,-0.820205
69,0.575,jog,-0.8165126605064316,0.658946357854323,-0.11556462258489679,-0.2076666857604001,-2.0394969032826173,-0.959580930550865,0.021600864034569858,0.06348253930157284,0.10608424336973526,-1.6075843033721453,1.393255730229223,0.024000960038402443,-19.86856310336851,11.097044981266423,-2.852750029691927,0.6482851231127776,1.4408565189174962,-0.9344350124849942,-0.28233792135950536,-10.635511731046579,1.2242966458767424,0.23524100000000003,-0.13434900000000005,-0.85353,-0.21544999999999992,0.10365400000000002,-0.819042,0.45069099999999995,0.23800300000000008,0.03448799999999996,0.7908316944649534,0.15511999999999998,single,-0.819042
70,0.583333,jog,-0.6675867034681341,0.6461058442337666,-0.1839673586943478,-0.5001213497421033,0.6141491595945895,-0.9725842261161315,0.017760710428421502,0.06420256810273142,0.13332533301332009,-1.6026641065642566,1.352934117364683,-0.009360374414975928,17.871829717784333,-1.5409232713976153,-8.208656679401264,-0.4608368662124493,0.08640691241552603,3.2690615196909523,0.5904472348360336,-4.838787095228596,-4.003520275216396,0.24095200000000006,-0.139198,-0.850886,-0.22324199999999994,0.10954399999999997,-0.8175870000000001,0.464194,0.24874199999999996,0.03329899999999997,0.7515992428832615,0.16700999999999994,single,-0.8175870000000001
71,0.591667,jog,-0.7168226541876503,0.7395008399328032,0.05375569954403654,-1.4598095885423743,2.504090352756913,-1.5063909499026267,0.020158387329007044,0.0717542596592252,0.13282937365010744,-1.5899928005759567,1.4300455963522856,-0.02447804175666045,-5.9078414590251835,11.20650296364722,28.52448502980352,0.28769821221328573,0.9061304963395397,-0.059510362756496384,1.5204350837892742,9.252637267530842,-1.8139749630050883,0.24709399999999992,-0.14476300000000003,-0.8502270000000001,-0.23051900000000014,0.11529899999999998,-0.818239,0.47761300000000007,0.260062,0.031988000000000016,0.7461481355898153,0.18012000000000006,single,-0.818239
72,0.6,jog,-1.001800072002892,0.6881075243009737,0.07512300492019934,-0.9623739424785916,-1.7144933138339513,-1.4567939218335426,0.023880955238216976,0.08472338893555632,0.16788671546861997,-1.642025681027243,1.3241329653186233,0.021360854434177276,-34.19865808415266,-6.167444573602551,2.564179212308052,0.44672601814592183,1.5563577674704474,4.20704930019355,-6.244195421971277,-12.710024125004583,5.500887578403713,0.255641,-0.149791,-0.849454,-0.235854,0.12059900000000001,-0.818687,0.491495,0.27039,0.03076699999999999,0.6840609153005711,0.19233000000000006,single,-0.818687
73,0.608333,jog,-0.8510740429617267,0.6865474618984768,-0.0031201248050019685,-0.4718802462756555,-0.22901450639579576,-0.9081721997287839,0.03612144485778032,0.08388335533421364,0.20904836193447657,-1.553462138485531,1.2624504980199123,-0.009000360014399546,18.087846998819696,-0.18721497689869626,-9.389551149070082,1.4689175110480372,-0.10080806448370147,4.939595159709159,10.62805022701447,-7.402192163531839,-3.643491473488143,0.263034,-0.15481300000000003,-0.8476859999999999,-0.2417069999999999,0.12539799999999995,-0.8187359999999999,0.5047409999999999,0.280211,0.02895000000000003,0.619786632606011,0.21049999999999996,single,-0.8187359999999999
74,0.616667,jog,-0.8498920086393077,0.675305975521958,0.00467962562995098,-0.5429726058041023,-0.27382732405064053,-0.8473844554412557,0.024238060955127986,0.11195104391648271,0.200143988480923,-1.5105591552675959,1.201103911687074,0.0053995680345576705,0.14183277206851946,-1.348870455545818,0.9358951805799127,-1.4258919969585317,3.3678532016161786,-1.068439339279293,5.1479461504602,-7.361001479822238,1.727853137623866,0.270319,-0.15950800000000004,-0.846057,-0.24721300000000002,0.12978,-0.81873,0.517532,0.28928800000000005,0.02732699999999999,0.6156602488324707,0.22673,single,-0.81873
75,0.625,jog,-0.9701188047521836,0.7341893675747014,0.0639625585023405,0.2115617493118127,-0.420371620770767,-0.49004280415981594,0.025201008040326725,0.13032521300852357,0.2184087363494525,-1.4731789271570879,1.1946477859114304,-0.01776071042841817,-14.427792645250857,7.066289697917095,7.114236514147279,0.1155582725547504,2.204988490584517,2.191857418520271,4.485806805533163,-0.774766083720589,-2.779344589340663,0.278613,-0.16454000000000002,-0.84477,-0.2514050000000001,0.13361699999999999,-0.819411,0.5300180000000001,0.298157,0.02535900000000002,0.5740300999622863,0.24641000000000002,single,-0.819411
76,0.633333,jog,-0.9168366734669458,0.7131885275410957,0.0297611904476209,-0.6357736977588635,0.5149744329318223,-0.8955768557590007,0.022320892835715672,0.14484579383176097,0.2348493939757581,-1.4178567142685539,1.1683667346693847,-0.1063242529701181,6.394111518689262,-2.5202016120971567,-4.104328339699924,-0.34562764965931125,1.7425394003644954,1.9729578334700044,6.638931103868208,-3.1538523031375982,-10.628050227013027,0.2864390000000001,-0.16927599999999993,-0.8430610000000001,-0.2555799999999999,0.13741000000000003,-0.820545,0.542019,0.30668599999999996,0.02251600000000009,0.538622942526887,0.27484,single,-0.820545
77,0.641667,jog,-0.975041996640257,0.7379409647228317,0.05843532517398824,-0.2586572356204096,-1.4125944656257428,-0.773942300559178,0.06659467242618962,0.1571874250059911,0.32025437964963044,-1.348572114230869,1.0784737221022376,-0.09203263738900985,-6.984080054393043,2.9700548574197336,3.4406209174907008,5.312428556572378,1.480877270725965,10.247778458588051,8.313486925568174,-10.78629860416938,1.7148566811985042,0.2951199999999998,-0.17411600000000005,-0.840879,-0.25869300000000006,0.14024799999999998,-0.8217990000000001,0.5538129999999999,0.31436400000000003,0.019079999999999986,0.5,0.3092000000000001,flight,-0.8217990000000001
78,0.65,jog,-0.989919596783888,0.8034321372854888,0.0999639985599387,-1.1361004546761229,-1.1445745719087963,-0.8167658671118545,0.016200648025920517,0.1632065282611331,0.2642505700227993,-1.2919716788671556,0.9744389775591003,-0.11100444017760608,-1.7853834325730071,7.859255077721931,4.983640151920112,-6.047524829025428,0.7223212834683777,-6.720725984259081,6.792323936603057,-12.484668731925703,-2.276707402927655,0.303504,-0.17945100000000003,-0.83951,-0.26120999999999994,0.141673,-0.823557,0.5647139999999999,0.321124,0.015952999999999995,0.5,0.34047,flight,-0.823557
79,0.658333,jog,-1.1477259090363607,0.7442697707908367,0.19824792991719692,-0.641276498724763,-0.07920067800032103,-0.5214394324871003,-0.04020160806431985,0.19020760830432762,0.2461298451938105,-1.1894875795031947,0.8997959918396824,-0.14316572662906643,-18.93751497089574,-7.099767970077123,11.794543544612878,-6.768541472487805,3.2402592155519936,-2.17457396243717,12.298583867030096,-8.957516586993703,-3.8595087545254585,0.3127329999999999,-0.18406800000000006,-0.8391109999999999,-0.26155800000000007,0.142969,-0.826402,0.574291,0.3270370000000001,0.01270899999999997,0.5,0.37291,flight,-0.826402
80,0.666667,jog,-1.100311975042003,0.8029757619390359,-0.03659707223422095,1.7737809187103932,0.5060688818149737,-0.44448273393126303,0.006839452843769295,0.20302375809935372,0.31233501319894186,-1.073794096472272,0.8226541876649773,-0.17650587952963628,5.689216941967533,7.044155405351421,-28.17914592649581,5.644475750910581,1.5378149502071037,7.943984641844354,13.882107395119002,-9.256275998884627,-4.000498308203696,0.32196,-0.189068,-0.836203,-0.26133699999999993,0.143133,-0.827568,0.583297,0.332201,0.00863500000000006,0.5,0.41365,flight,-0.827568
81,0.675,jog,-1.1933277331093137,0.7982719308772307,0.27433097323892963,-1.0717689246616866,-0.1142540665268471,-0.5376844135094007,-0.026521060842436793,0.24132965318612465,0.3486139445577806,-0.967358694347768,0.642985719428778,-0.22188887555502168,-11.162337461575708,-0.5644823067088857,37.312857971096754,-4.003421779215882,4.596891286063935,4.353645908896988,12.772759165307049,-21.561078631489085,-5.44617737014103,0.33168299999999995,-0.19370900000000002,-0.835584,-0.25945399999999996,0.14183900000000005,-0.831703,0.5911369999999999,0.33554800000000007,0.0038810000000000233,0.5,0.46119000000000004,flight,-0.831703
82,0.683333,jog,-1.0837633505340327,0.8183127325093102,0.09636385455418282,0.21739987943752997,1.7307554374028387,-0.7447943973920066,-0.0534021360854207,0.2606504260170506,0.33961358454338475,-0.8060722428897197,0.5235809432377283,-0.2502100084003379,13.148251839107406,2.4049923955453902,-21.35690851851055,-3.2258580634806377,2.3185854831304575,-1.0800864051837202,19.355148380901213,-14.32914630877845,-3.3986718883135114,0.34026900000000015,-0.19835599999999998,-0.833557,-0.2571399999999999,0.13938299999999998,-0.834591,0.5974090000000001,0.33773899999999996,0.0010339999999999794,0.48966,0.5,flight,-0.833557
83,0.691667,jog,-1.1487880969522317,0.8370530357571309,-0.010079193664503522,0.415886766634122,-1.228747050571784,-0.40628433917237133,-0.1076313894888578,0.27285817134629,0.42992560595152096,-0.6065514758819286,0.45092392608591436,-0.31005519558435124,-7.802345382553216,2.2486564972186787,-12.772144014721086,-6.506989849224464,1.4648122545283553,10.836575642924828,23.940576794791166,-8.718144606649075,-7.180847994242005,0.348946,-0.20305799999999996,-0.82989,-0.252621,0.13616500000000004,-0.837091,0.601567,0.339223,0.007201000000000013,0.4279899999999999,0.5,flight,-0.82989
84,0.7,jog,-1.1993279731189428,0.8287531501260154,0.23208928357134392,-0.35594866932757935,-0.4427547161108724,-0.140601644698345,-0.13800552022080823,0.3108124324973005,0.40837633505340626,-0.3699747989919567,0.30121204848194016,-0.36409456378255406,-6.065027741115029,-0.9960261167785402,29.061379723490898,-3.6450414894936647,4.554693525862339,-2.5860159484117244,28.3903368402705,-17.966143958235396,-6.484983583127723,0.35779000000000005,-0.207374,-0.828421,-0.24570999999999987,0.131769,-0.842059,0.6034999999999999,0.339143,0.013638000000000039,0.36361999999999994,0.5,flight,-0.828421
85,0.708333,jog,-1.2384495379815004,0.8459138365534552,0.12228489139565438,-1.1395066970831211,-0.4883748112109589,-0.5579378237668705,-0.2071282851313917,0.3919356774270944,0.42409696387855284,-0.05688227529102166,0.15936637465498504,-0.4011760470418807,-4.694775574529871,2.0593647458826077,-13.177054143248421,-8.295063591813655,9.735178798727176,1.8865509210544236,37.57260574834198,-17.02216174570437,-4.449955989358752,0.36638400000000004,-0.21115699999999998,-0.825906,-0.23586400000000007,0.12604800000000002,-0.846421,0.6022480000000001,0.337205,0.02051499999999995,0.29484999999999995,0.5,flight,-0.825906
86,0.716667,jog,-1.2696184305255425,0.8417326613870885,0.04823614110871255,0.7413962147669411,-0.21326941093881682,-0.395858602647366,-0.24334053275739445,0.385049196064314,0.41708663306935045,0.2831773458123363,0.02939764818814415,-0.37017038636908733,-3.739967907852394,-0.5017008838932929,-8.885139223295088,-4.345122105351869,-0.8263116586009556,-0.8411724033120144,40.80389022118495,-15.594999576054702,3.7203816502031595,0.37493699999999985,-0.21496300000000002,-0.822832,-0.2229230000000001,0.11927799999999997,-0.849908,0.59786,0.334241,0.02707599999999999,0.22924000000000005,0.5,flight,-0.822832
87,0.725,jog,-1.2965318612744672,0.8426737069482824,0.11028441137645645,-0.7211610580247654,-1.086196301747892,-0.12289995954169834,-0.2893315732629261,0.43885755430217865,0.40909636385455905,0.46105844233769916,-0.12768510740429515,-0.29437177487099714,-3.2297408795061755,0.11292998454265055,7.4460902757403655,-5.519145626488905,6.45726127899498,-0.9588706606014009,21.3465854464616,-18.850684698480826,9.096197227660014,0.38332999999999995,-0.21832799999999997,-0.820342,-0.20827700000000005,0.11119200000000001,-0.85328,0.591607,0.32952,0.03293800000000002,0.17062,0.5,flight,-0.820342
88,0.733333,jog,-1.2928117124685106,0.8659546381855239,0.11952478099123878,0.9491376433996224,0.8181695728715319,-0.12634981524078367,-0.3308532341293516,0.5075003000119896,0.4515780631225233,0.5077403096123806,-0.14004560182407255,-0.19968798751950065,0.4464357141433575,2.7938235014090256,1.1088887093222484,-4.9827986159156765,8.237458983536627,5.098007832468987,5.602048154887944,-1.4833186631198074,11.362508982538833,0.3913460000000002,-0.22131500000000004,-0.817575,-0.19327299999999992,0.10280900000000001,-0.85594,0.5846190000000001,0.3241240000000001,0.03836499999999998,0.1163499999999999,0.5,flight,-0.817575
89,0.741667,jog,-1.317374610031187,0.8308135349172097,0.06971442284616583,0.30502202005771545,-0.32842326791664184,0.25992809890412033,-0.35625149988001154,0.4751619870410484,0.43784497240221026,0.44948404127670366,-0.10043196544276568,-0.1625869930405571,-2.9473119225673767,-4.216595064592562,-5.976764836221891,-3.047548086232313,-3.880287133542289,-1.6478390593128285,-6.990192984842484,4.75325610526843,4.451763196417538,0.39935600000000004,-0.22427899999999995,-0.814507,-0.17854800000000004,0.09504800000000002,-0.857876,0.5779040000000001,0.31932699999999997,0.04336899999999999,0.06630999999999998,0.5,flight,-0.814507
90,0.75,jog,-1.3230529221168867,0.8121924876995041,0.11112444497780986,0.13398630393308864,-0.7103099790089191,0.6595926097256379,-0.4320172806912316,0.5969038761550345,0.4545781831273232,0.2707308292331725,-0.07788311532461394,-0.2161286451458054,-0.681424707272264,-2.234615050726682,4.969401431854537,-9.092257387641872,14.609611078121395,2.0080656096379266,-21.45124349496345,2.705970252988318,-6.425255262840284,0.40678100000000006,-0.22607300000000002,-0.8116450000000001,-0.16526699999999994,0.08763100000000001,-0.860603,0.572048,0.31370400000000004,0.048957999999999946,0.01041999999999993,0.5,flight,-0.8116450000000001
91,0.758333,jog,-1.2580103204128137,0.8162726509060365,0.0849633985359328,-0.48875179487860676,0.1794974206042598,0.6024245123222637,-0.48649945997839733,0.7119884795391879,0.4549381975278979,0.03696147845913521,0.09012360494419759,-0.11832473298931917,7.805424421465593,0.48963917035069665,-3.139451151071278,-6.538123039381438,13.81070483429172,0.0432034562072126,-28.053444230653582,20.16161289677317,11.736938936335752,0.4132100000000001,-0.22694199999999998,-0.808562,-0.15447599999999995,0.08157999999999999,-0.862297,0.567686,0.30852199999999996,0.05373499999999998,0.0,0.7445637854407104,single,-0.808562
92,0.766667,jog,-1.2615790736741028,0.7987760979121677,-0.01703863690904443,0.0977174858357039,0.1380321471074597,0.6817083142025347,-0.5832733381329532,0.6451883849292052,0.6486681065514805,-0.14038876889848945,0.2042236621070337,-0.10139188864890848,-0.42821613406397374,-2.0994184057918,-12.239265112188361,-11.611936423632883,-8.015370123588083,23.245729424476096,-21.28032725673454,13.690911586613481,2.0317787785470105,0.418863,-0.22822199999999998,-0.803014,-0.14513200000000004,0.07662500000000003,-0.863,0.563995,0.304847,0.059985999999999984,0.0,0.5537295735112757,single,-0.803014
93,0.775,jog,-1.2215288611544604,0.770310812432495,0.08040321612863861,-0.05047629239468722,1.1607949914624713,0.8385423289359982,-0.7904716188647658,0.772710908436331,0.6723868954758159,-0.21912876515060442,0.20280811232449178,-0.0966038641545658,4.806217751067119,-3.415970896396572,11.693490104126083,-24.864788279348577,15.30331495345317,2.846368525661253,-9.449177517354451,-0.16987276881578092,0.5745859227580294,0.422455,-0.22820200000000002,-0.7980809999999999,-0.13677899999999987,0.07189600000000002,-0.864475,0.5592339999999999,0.30009800000000003,0.06639400000000006,0.0,0.5,flight,-0.7980809999999999
94,0.783333,jog,-1.1880475219008626,0.7837513500540104,0.025921036841473174,-0.9290502364401184,0.41665086391009243,1.1038339087042577,-0.7685107404296068,0.8394335773431115,0.8367934717388781,-0.14820592823712916,0.18804752190087595,-0.1112444497779918,4.017921427288859,1.6129290317431355,-6.538123039381487,2.6354108286522546,8.007040550435761,19.729578334701035,8.511080872852023,-1.7713417045020956,-1.7569405524332338,0.42595099999999997,-0.22773799999999994,-0.7913239999999999,-0.12811400000000006,0.06693199999999999,-0.865618,0.554065,0.29466999999999993,0.07429400000000008,0.0,0.5599804446766736,single,-0.7913239999999999
95,0.791667,jog,-1.2237820974322045,0.7674586033117308,-0.0874730021598241,0.668083715402054,1.1901612957922574,1.0921197770430346,-0.8462922966162614,0.9084473242140553,0.9552435805135512,-0.06947444204463545,0.05087592992560649,-0.05687544996400271,-4.287806039277847,-1.9549732112166458,-13.606196184460813,-9.333040099190546,8.280987145541543,14.212876022878833,9.447022581292671,-16.4592742950886,6.523758077032479,0.42909700000000006,-0.22656299999999996,-0.7826339999999999,-0.11849399999999999,0.060959999999999986,-0.865363,0.547591,0.287523,0.08272900000000005,0.0,0.8280029461507454,single,-0.7826339999999999
96,0.8,jog,-1.171246849873989,0.7566302652106058,-0.025561022440899778,-0.8263002787010474,0.5616120544207627,1.4757828496107357,-1.2224888995559973,1.095283811352449,0.9777991119644731,-0.015960638425542923,0.001320052802113399,-0.08628345133805285,6.304481886261282,-1.2994525502369962,7.429734755661115,-45.14539816869487,22.42127530761946,2.70677204499242,6.421913310823509,-5.9469431325444475,-3.529101328939159,0.4286699999999999,-0.22374099999999997,-0.774273,-0.10886700000000005,0.05466599999999999,-0.865869,0.5375369999999999,0.27840699999999996,0.09159600000000001,0.0,0.8537380727260792,single,-0.774273
97,0.808333,jog,-1.1519260770431086,0.728429137165489,-0.14028561142445534,-0.10891314509170599,1.3695867491672498,1.1713950450396478,-1.4026161046441892,1.2880115204608293,0.9324372974919081,0.02040081603264191,-0.010560422416897341,-0.06240249609984452,2.318585483124995,-3.3842707362435056,-13.767501378081917,-21.616129255753457,23.12825022301477,-5.44363548212714,4.363549076945297,-1.4257140548434954,2.8658292617554952,0.4265810000000001,-0.21907799999999994,-0.765334,-0.09909799999999991,0.04850800000000002,-0.86522,0.525679,0.267586,0.09988600000000003,0.0,0.8891724646139061,single,-0.765334
98,0.816667,jog,-1.2053035757139168,0.7759779217662528,-0.18070554355651497,-0.367495845082546,0.7851865971313196,1.4446793853351827,-1.4846412287016886,1.4706023518118425,0.8752099832013399,0.05003599712023008,0.008759299256058218,-0.037317014638828465,-6.404787457500336,5.705397720273995,-4.8500038555386755,-9.842227508699157,21.909147030358984,-6.866728376597998,3.5559372555301114,2.318181146262948,3.010016973963987,0.424253,-0.21328899999999995,-0.7565339999999999,-0.08863600000000005,0.04211400000000001,-0.8640249999999999,0.512889,0.25540299999999994,0.107491,0.0,0.894948611611753,single,-0.7565339999999999
99,0.825,jog,-1.178927157086301,0.801632065282621,0.04560182407296897,0.03043456085281391,4.255157100478643,1.0286119199279768,-1.781231249249979,1.6624264970598914,0.7577103084123418,-0.03996159846394225,0.023520940837633928,0.025201008040321233,3.1652968471878196,3.078620366778882,27.157970434355697,-35.592226154841384,23.01981822249498,-14.100524995679732,-10.800143475839812,1.7714678485030415,7.502462820010833,0.4192340000000001,-0.20611600000000002,-0.7506,-0.07914500000000002,0.035629999999999995,-0.864195,0.4983790000000001,0.24174600000000002,0.113595,0.0,0.9120408109795426,single,-0.7506
100,0.833333,jog,-1.1354854194167683,0.770310812432495,-0.2337693507740373,-0.7613180765368288,0.30225128313511024,1.5404211996413166,-2.0260410416416548,1.8067922716908618,0.641425657026277,-0.01728069122763967,0.016440657626304773,-0.0014400576023038609,5.213217049025855,-3.758700690042705,-33.52588201692129,-29.378350221009796,17.324585939153934,-13.954716354981917,2.7218177410659408,-0.8496679720783782,-3.1970557593453717,0.4118130000000001,-0.19747900000000002,-0.7433069999999999,-0.06982699999999997,0.029347999999999985,-0.862259,0.48164000000000007,0.226827,0.11895200000000006,0.0,0.9601742936734063,single,-0.7433069999999999
101,0.841667,jog,-1.1745860331173474,0.7261819054475589,-0.28569714422845555,0.8963309222914096,2.3765166069220323,1.1568996198832358,-2.212263018958471,1.9527237820974186,0.5701943844492404,-0.020518358531321206,0.018718502519800343,-0.015598752099831675,-4.691698308204806,-5.295045234573526,-6.2308367475903355,-22.344849690042558,17.51038041835322,-8.54706894372882,-0.3884889973219958,0.2733195216577337,-1.698907427109156,0.4031650000000001,-0.187257,-0.736174,-0.06020899999999996,0.023452,-0.860008,0.46337400000000006,0.210709,0.123834,0.0,0.9469092380792934,single,-0.736174
102,0.85,jog,-1.2293291731669282,0.781231249249979,-0.19944797791911154,-0.04529532595210562,1.473613792183539,1.3453833255960754,-2.3585743429737476,2.126245049802013,0.4864994599784038,-0.029641185647425836,0.038161526461056985,-0.026281051242050393,-6.569439583533098,6.606185503710622,10.350313969680164,-17.558061204281536,20.82338505995393,-10.043792688208011,-1.0947830452543756,2.3332562031989466,-1.281927174153224,0.39375499999999997,-0.176049,-0.730458,-0.050212000000000034,0.01725999999999997,-0.858565,0.443967,0.19330899999999998,0.12810699999999997,0.0,0.9083243088864884,single,-0.730458
103,0.858333,jog,-1.0940837633505345,0.7871114844593728,-0.463218528741158,-0.7612460898162848,-0.8563771026140334,1.2257450180973013,-2.5103804152165874,2.2482899315972547,0.40777631105244183,-0.006240249609990614,0.009120364814595005,-0.03468138725548978,16.23009838190246,0.7056564513853141,-31.653732247935363,-18.2174573674354,14.645971654295094,-9.447155757345694,2.808224653478354,-3.485078800727452,-1.008080644838516,0.3819530000000001,-0.163873,-0.7232,-0.041147000000000045,0.010777000000000009,-0.8549939999999999,0.42310000000000014,0.17465,0.13179399999999997,0.0,0.9393342401278498,single,-0.7232
104,0.866667,jog,-1.1537077033837406,0.7396208303335778,-0.3130549556035502,0.1796020235722249,0.8783956370138978,1.2384691500124325,-2.747420206383525,2.4449244060475306,0.4186465082793391,0.030957523398139303,0.004079673626107353,-0.016918646508279702,-7.154300459947982,-5.69842262128573,18.018187321527318,-28.44249954006946,23.594249394081718,1.3043193216819429,4.4633756909203415,-0.6048345558540533,2.131358380994742,0.36867099999999997,-0.149661,-0.717102,-0.03127399999999991,0.0046469999999999845,-0.852526,0.3999449999999999,0.15430799999999997,0.135424,0.0,0.9408098030002241,single,-0.717102
105,0.875,jog,-1.2119284771390768,0.8203528141125588,-0.22440897635905802,-0.41612061556859964,2.3562078214204862,0.7165243601784531,-3.015000600023979,2.6545061802471954,0.4461778471138826,0.03792151686067222,-0.000600024000960636,-0.010200408016319986,-6.9867723215331745,9.688225582500973,10.637943027060098,-32.11093167412133,25.150818936717144,3.303892815857841,0.8357126440097072,-0.5615861786953043,0.8062208678698773,0.353646,-0.134377,-0.711514,-0.02085899999999996,-0.0021940000000000015,-0.850741,0.374505,0.132183,0.139227,0.0,0.9345432756718994,single,-0.711514
106,0.883333,jog,-1.1600864034561311,0.7459498379935166,-0.390615624624971,0.3792109369149618,0.14123672792941425,1.3136123453344541,-2.7790711628465035,2.458538341533655,0.12264490579623075,0.02148085923436079,0.004920196807873884,-0.014640585623425361,6.221297693861211,-8.928714282856344,-19.945595615734106,28.31266496789567,-23.517081328877904,-38.8255059783572,-1.9729578334707027,0.6624529951799468,-0.5328426265577051,0.340155,-0.12010599999999996,-0.7072370000000001,-0.01101300000000005,-0.008368999999999988,-0.847608,0.35116800000000004,0.11173699999999998,0.1403709999999999,0.0,0.9559046992466101,single,-0.7072370000000001
107,0.891667,jog,-1.1885049196064446,0.7212622990160847,-0.32481401487881334,0.9799723122771363,0.9784469387602697,1.1998976154389018,-3.135709143268552,2.643988480921538,0.17014638828893816,-0.0016798656107461687,0.038876889848811234,-0.02255819534437266,-3.409949142106263,-2.962267695876164,7.895561524616997,-42.79313419991007,22.252236547622264,5.6997219213712125,-2.7790646562403514,4.074477206735966,-0.9500371635405979,0.3239270000000001,-0.10408200000000001,-0.7031120000000001,-0.0011219999999999564,-0.014056000000000013,-0.8450890000000001,0.32504900000000003,0.090026,0.14197700000000002,0.0,0.9250350694957664,single,-0.7031120000000001
108,0.9,jog,-1.1627265090603514,0.7361094443777721,-0.21984879395176385,1.1857265736279359,1.3404413666437154,1.2406111903512358,-3.212648505940236,2.709228369134752,0.05460218408736458,-0.0007200288011461016,0.03396135845433869,-0.004680187207487964,3.093533006851445,1.7817287125509835,12.596330364460465,-9.233092844315827,7.829099749575647,-13.865859138554313,0.11518502455298969,-0.5898873628312162,2.1454467942979263,0.3068449999999999,-0.08764000000000002,-0.700825,0.00856100000000004,-0.019907000000000008,-0.8432959999999999,0.2982839999999999,0.06773300000000002,0.1424709999999999,0.0,0.9428501856269249,single,-0.700825
109,0.908333,jog,-1.1633265330613307,0.8197527901116124,-0.17616704668187186,0.3732838510144796,2.401084269567985,0.907070190942635,-3.2420496819873006,2.708628345133831,-0.015480619224771291,0.0037201488059526618,0.013560542421697231,-0.015480619224769626,-0.07200576034793778,10.03760299218061,5.242019353161213,-3.528282256938049,-0.07200576034095642,-8.410272808368717,0.5328426265569188,-2.448195851751067,-1.29610368622126,0.289523,-0.07190000000000002,-0.6994859999999999,0.018286000000000024,-0.02662500000000001,-0.841957,0.27123699999999995,0.04527500000000001,0.14247100000000001,0.0,0.965144050822971,single,-0.6994859999999999
110,0.916667,jog,-1.1556275497960142,0.7116630669546372,-0.2919366450683812,0.8637350453889189,0.7278855052387467,1.4015346135515951,-3.3245740340772394,2.7663786897048017,-0.10967122630189478,0.021118310535151504,-0.030237580993520554,-0.009239260859130448,0.9238040875109701,-12.969729200500883,-13.891240507140441,-9.902130080386149,6.929486989557283,-11.301968691759393,2.0876123985119643,-5.255354381475576,0.7489030916293653,0.2714470000000001,-0.05477600000000002,-0.697967,0.028093000000000035,-0.032808000000000004,-0.839601,0.24335400000000007,0.021968000000000015,0.14163400000000004,0.0,0.9366303111929277,single,-0.697967
111,0.925,jog,-1.186007440297604,0.7063482539301545,-0.33169326773071983,0.4663456345975504,-0.47676326301234034,1.4292596493287797,-3.270370814832586,2.701068042721701,-0.20832833313332297,0.018480739229567604,-0.04116164646585633,-0.018240729629185846,-3.645732689498333,-0.6378030750609198,-4.770985558902974,6.50464649521818,-7.8375911416177075,-11.839326392827045,-0.31652121751876744,-1.3109402942920592,-1.0802194611850906,0.254078,-0.038153999999999993,-0.696939,0.03813,-0.03903699999999999,-0.836989,0.21594800000000003,0.0008829999999999949,0.14005,0.0,0.9188871999473627,single,-0.696939
112,0.933333,jog,-1.1135245409816539,0.7310692427697159,-0.3312132485299424,-0.16427831624945716,-0.41455379656419145,1.3920569159540752,-3.3267730709228704,2.6623064922597126,-0.40753630145206304,0.022680907236289027,0.0031201248049920177,0.006720268810752551,8.69829584974808,2.9666373262404337,0.057604608277625445,-6.768541472493086,-4.651572118323394,-23.90591243474642,0.5040403224194722,5.314025113506391,2.99543963037785,0.23563500000000004,-0.022060999999999997,-0.697575,0.04759800000000003,-0.045102999999999976,-0.8341729999999999,0.188037,0.02304199999999998,0.136598,0.0,0.9602325948396091,single,-0.697575
113,0.941667,jog,-1.3302135829133483,0.87808975281977,-0.1279097672186229,1.1810110692852114,0.2008481184490358,2.2406570814182034,-3.438084953203722,2.7584593232541197,-0.4136069114470817,0.03839692824573848,0.05987520998320082,0.06827453803695653,-26.000604983404465,17.6410499220126,24.394466200062148,-13.356357365112887,11.537416725990683,-0.7284149262081397,1.8857716594011682,6.810065416151712,7.385921433429747,0.21806799999999993,-0.006390000000000007,-0.699956,0.059003999999999945,-0.051921999999999996,-0.832538,0.15906399999999998,0.04553199999999999,0.13258199999999998,0.0,0.8356766617863782,single,-0.699956
114,0.95,jog,-1.2312492499700156,0.8017520700828098,-0.1755670226809079,0.4366675629989928,0.10759370153900776,1.6024320167135184,-3.6121444857794662,2.8239529581183502,-0.39949597983919705,0.04020160806431985,0.013320532821312972,0.04356174246969945,11.876195001000077,-9.160888363969864,-5.71909941945103,-20.88797942826662,7.859550565730366,1.6933795281273023,0.21657024103940747,-5.586784730815825,-2.9656540942346457,0.19822799999999996,0.010460999999999998,-0.701822,0.06959899999999997,-0.05849199999999999,-0.830712,0.128629,0.06895299999999999,0.12889000000000006,0.0,0.8987408263058865,single,-0.701822
115,0.958333,jog,-1.345733829353162,0.876515060602421,-0.14748589943596777,1.3153988086499777,0.20759243129637142,1.3606380738171096,-3.7160686427457,2.784831393255719,-0.5483019320772796,0.02460098403936276,0.02028081123244951,0.03528141125645042,-13.738699073940465,8.97191773906287,3.369869584176169,-12.471397691855692,-4.694775574538691,-17.857428565712464,-1.8721497689856024,0.8352668200091815,-0.9936794927695904,0.17847599999999986,0.026362999999999998,-0.7051620000000001,0.08101799999999992,-0.06562699999999999,-0.8291890000000001,0.09745799999999993,0.09198999999999999,0.124027,0.0,0.9207448266638066,single,-0.7051620000000001
116,0.966667,jog,-1.251139908807295,0.9260859131269431,-0.08687305015599381,0.3674687152356442,-0.4114791998377658,1.4938501568555342,-3.7734581233500935,2.8353731701463647,-0.6029517638588869,-0.026637868970475494,0.06851451883849098,-0.07187425005999493,11.350362436509034,5.94802646082574,7.272960076790676,-6.886186777584937,6.064528064632248,-6.557455217375438,-6.14817050753994,5.787581906172438,-12.857650745913672,0.157455,0.04227499999999998,-0.709463,0.09122300000000005,-0.072774,-0.829064,0.06623199999999996,0.11504899999999998,0.11960100000000007,0.0,0.8286514016475572,single,-0.709463
117,0.975,jog,-1.2838113524541082,0.9098763950558112,0.01188047521901742,0.6299585741491328,-0.10881122077708895,1.6022100772122227,-3.5841833673347234,2.759750390015628,-0.7417496699868052,0.023280931237253,0.015240609624383703,-0.0075603024120966195,-3.9207300668202905,-1.9452199773349406,11.85089708088469,22.713879277015693,-9.07509661955325,-16.65641499195003,5.990495644753264,-6.39312483068616,7.7179824370453485,0.13828600000000002,0.05768999999999999,-0.715743,0.10211500000000007,-0.08022900000000002,-0.829226,0.03617099999999995,0.137919,0.113483,0.0,0.9519422767925292,single,-0.715743
118,0.983333,jog,-1.3046921876875013,0.8382335293411691,0.16812672506900034,0.6016465266219085,0.1744763943748553,2.3274748774103506,-3.792391695667813,2.852754110164395,-0.6801872074882974,-0.005640225609026647,0.026041041641668285,-0.0033601344053762307,-2.5058004600255654,-8.597487785268424,18.750299993997633,-24.98599883992424,11.16089285356611,7.387791011461367,-3.4706776486594895,1.2961036862215933,0.5040403224193413,0.117556,0.074477,-0.722812,0.11294000000000004,-0.08699699999999999,-0.830655,0.0046159999999999535,0.161474,0.10784300000000002,0.0,0.9552401935659156,single,-0.722812
119,0.991667,jog,-1.3386129109671234,0.9262059035277235,0.11951043916486712,0.606376566655281,-0.5941847310179342,1.5314371796442177,-3.904247660187202,2.800575953923701,-0.7074634029277713,0.021718262538995413,0.02495800335972968,0.037077033837293674,-4.070161180660228,10.55584043515177,-5.833487629485661,-13.421642010965886,-6.260877878652996,-3.2728816222071107,3.282755957286083,-0.1299541974968337,4.852072023358548,0.09617399999999998,0.09009799999999998,-0.729704,0.12427699999999997,-0.09450800000000001,-0.831342,0.02810299999999999,0.184606,0.101638,0.0,0.9171800598086288,single,-0.729704
120,1.0,jog,-1.4203768150726053,0.9744389775590969,0.1962078483139248,1.0521395012812365,-0.504239152879902,1.4064466689164867,-3.837273490939622,2.77115084603383,-0.789151566062639,0.03252130085203649,0.018840753630143984,0.04944197767910644,-9.812060975096784,5.78820041178126,9.20405726017729,8.037221798581514,-3.531154192952232,-9.802971695051886,1.2964164542230932,-0.7340993315235413,1.483852615122131,0.07603400000000005,0.10507,-0.737915,0.13638400000000006,-0.102471,-0.832565,0.060350000000000015,0.207541,0.09465000000000001,0.0,0.8964904974399597,single,-0.737915
121,1.008333,jog,-1.4533781351254162,1.054242169686799,0.15516620664826597,0.5501943926181859,-1.6619750762195638,0.919087050599602,-3.994839793591782,2.78927157086286,-0.7393495739829644,0.025681027241082253,0.049321972878918305,0.08868354734189492,-3.960316819010114,9.576766125969371,-4.925194007639409,-18.90871266676603,2.1745739624420963,5.976478108685356,-0.820865667941234,3.6578926255579742,4.709176726603724,0.054856000000000016,0.119528,-0.745369,0.14870899999999998,-0.110845,-0.8331189999999999,0.09385299999999996,0.230373,0.08775,0.0,0.8255409651875573,single,-0.745369
122,1.016667,jog,-1.459203263738887,1.092752579793607,0.14590832733381157,0.43583452612463575,-1.3293817461909585,0.4495245228786978,-3.9930405567554326,2.8464122870170168,-0.7407007439404789,0.009959203263745454,0.04055675545956019,0.13294936405087465,-0.698959516855134,4.620879542453542,-1.1108566492025838,0.21589114906998935,6.856337431504247,-0.16212742470776184,-1.8864679598436138,-1.0517419509668886,5.311473087230549,0.03373899999999996,0.134143,-0.7527579999999999,0.160953,-0.11961400000000001,-0.8332269999999999,0.12721400000000005,0.253757,0.08046900000000001,0.0,0.7677431406072915,single,-0.7527579999999999
123,1.025,jog,-1.5353414136565569,1.049321972878925,0.45361814472579387,1.464134244947673,-0.47644386256104426,1.1279262718554943,-3.995559822392928,2.8046321852874376,-0.6911076443057785,0.011160446417857985,0.006600264010560422,0.1424456978279145,-9.136943467859183,-5.2118813050141055,36.92665515324435,-0.3023239694582403,-5.0138127600599445,5.951410012564602,0.1441549446912927,-4.0749419715588715,1.1396056374702905,0.013237999999999972,0.14877,-0.762297,0.17384,-0.128303,-0.83582,0.16060200000000002,0.277073,0.073523,0.0,0.7616090053496585,single,-0.762297
124,1.033333,jog,-1.457938317532685,1.0396015840633448,0.4094563782551328,0.4581131044072672,-0.5782730337469224,1.0253872695420345,-4.147845913836486,2.6834273370934367,-0.6977079083163205,-0.006240249609990531,0.03396135845433824,0.21180847233889016,9.288743084587844,-1.166493317602299,-5.299623961437692,-18.27506197570564,-14.545163589823447,-0.7920633637995689,-2.0881670500237863,3.2834626717601507,8.323865895952773,-0.00917699999999999,0.162468,-0.7715230000000001,0.18593700000000002,-0.136683,-0.8374670000000001,0.195114,0.299151,0.065944,0.0,0.6423256309551264,single,-0.7715230000000001
125,1.041667,jog,-1.59323254139672,1.1216702663787104,0.4406047516198665,0.8258803973697225,-1.1334456020528851,1.023266128520779,-4.202903767698654,2.651907847372261,-0.747300215982737,-0.04859611231101469,0.0002399808015361217,0.26769858411327563,-16.23400814303308,9.847454081517535,3.73750580330385,-6.606413950344284,-3.782036203644889,-5.950600871900345,-5.082296940367766,-4.0462416190068105,6.706276910773521,-0.030925999999999898,0.17522100000000002,-0.781423,0.19881000000000004,-0.14602900000000002,-0.838908,0.22973599999999994,0.32125000000000004,0.05748500000000001,0.0,0.5465436084338724,single,-0.781423
126,1.05,jog,-1.5727829113164193,1.17340693627743,0.4365774630985199,-0.16161150803022944,-0.8224555403285475,0.035628581179903314,-4.17952718108718,2.616344653786106,-0.6425057002279976,-0.11580463218528463,-0.0022800912036470555,0.29101164046561395,2.45405377178692,6.208648733795597,-0.4832939543197557,2.805302605481039,-4.267753940496132,12.575844924365484,-8.065344998712199,-0.302420737451474,2.797678669427327,-0.05264800000000003,0.187245,-0.790415,0.210951,-0.155826,-0.840121,0.263599,0.343071,0.04970600000000003,0.002940000000000109,0.5,flight,-0.790415
127,1.058333,jog,-1.5793831753270249,1.2326893075723147,0.5129005160206456,1.5888399977902596,-0.708227760042584,0.4908438903197886,-4.14640585623429,2.5760230409216605,-0.5648625945037856,-0.11556462258491011,0.04968198727949136,0.4909396375855076,-0.7920633638072242,7.114169122151112,9.159132715963802,3.9747179710656644,-4.838787095217309,9.317545388721069,0.02880230413710735,6.235698845930504,23.992319347161345,-0.07403900000000008,0.198439,-0.799396,0.22314899999999993,-0.165684,-0.8403039999999999,0.297188,0.364123,0.040907999999999944,0.09092000000000011,0.5,flight,-0.799396
128,1.066667,jog,-1.6429085673146069,1.2331413486920946,0.5644348452123836,1.0897488137796727,-0.1757248129159954,0.3616574786142355,-4.128509719222427,2.5091192704583425,-0.54571634269258,-0.2085433165346644,0.08915286777057692,0.45872330213582563,-7.6224372435303,0.05424059512598019,6.183624813023478,2.147364652251429,-8.027810230779632,2.2973664280304193,-11.156550749910437,4.736126768788728,-3.86565100188166,-0.094754,0.209073,-0.808648,0.23510300000000006,-0.17521799999999998,-0.8411850000000001,0.32985700000000007,0.384291,0.03253700000000004,0.17463000000000006,0.5,flight,-0.808648
129,1.075,jog,-1.6401056042241822,1.2298091923677068,0.547221888875561,0.3990183978439828,-0.6594411709124722,0.2626921346568543,-4.137045481819311,2.4594983799352215,-0.3117724708988392,-0.24996999879996112,0.11664466578663261,0.5239409576383105,0.33636902561199333,-0.39987475391669264,-2.0656373859141706,-1.024332484925545,-5.95474505257668,28.074387590752778,-4.971400727864767,3.299147727835827,7.826431717566959,-0.11556100000000002,0.21932000000000001,-0.815806,0.246687,-0.184494,-0.841379,0.362248,0.403814,0.025572999999999957,0.2442700000000001,0.5,flight,-0.815806
130,1.083333,jog,-1.6171846873874725,1.2371294851793855,0.5829833193327666,0.12855594764265416,-0.4409597426969842,0.25039265572282393,-3.999639985599347,2.318972758910317,-0.2732509300371952,-0.29065162606504175,0.11736469458778226,0.5556222248889853,2.750620045206926,0.8784702762124741,4.291543316597259,16.489319119160157,-16.863749072951176,4.622769814189766,-4.881990551431646,0.08640691241445236,3.801904146246756,-0.13541399999999992,0.228335,-0.822941,0.257741,-0.193825,-0.8416070000000001,0.3931549999999999,0.42216,0.01866600000000007,0.31333999999999995,0.5,flight,-0.822941
131,1.091667,jog,-1.6735061195104628,1.296496280297601,0.603671706263498,0.08975804219301109,-0.21033659323733137,0.23819253566978413,-3.8936885049196848,2.2381809455243977,-0.18850491960643542,-0.33573314134869453,0.13150947924166148,0.6383489320854451,-6.758031212261989,7.1234455385429145,2.4824078390606883,12.713160628709437,-9.694242066945122,10.16870775507096,-5.409349086111548,1.6972383793951873,9.926410750715307,-0.15391700000000003,0.23618299999999998,-0.8295429999999999,0.26888999999999996,-0.20353400000000002,-0.841318,0.422807,0.439717,0.011775000000000091,0.3822499999999999,0.5,flight,-0.8295429999999999
132,1.1,jog,-1.6488659546381537,1.237729509180345,0.6620664826592941,-1.238662074999437,-1.2245614475776467,0.02932717853365423,-3.6194647785910794,2.025081003240094,-0.051242049681987666,-0.36373454938196964,0.17028681147245636,0.6752670106804163,2.9569380621995323,-7.052294625855621,7.007653473634361,32.90816348597151,-25.573015994755778,16.472203279064605,-3.3603033761279995,4.653466006335558,4.4303466452622775,-0.17033800000000004,0.242744,-0.835487,0.27959899999999993,-0.212429,-0.841208,0.449937,0.455173,0.005720999999999976,0.44279000000000013,0.5,flight,-0.835487
133,1.108333,jog,-1.6615864634585564,1.2918516740669745,0.56858274330974,-0.5911887113252567,0.01679590630810889,0.19314839067654826,-3.3711748469939113,1.8292331693267905,0.04296171846874047,-0.5198607944317823,0.09132365294612008,0.724948997959924,-1.526522119333119,6.494919583178922,-11.21849746184507,29.79598363100568,-23.50268017680372,11.30490437426245,-18.735898841931373,-9.4759580614829,5.96207695661924,-0.18458400000000003,0.247222,-0.8398669999999999,0.28911299999999995,-0.222433,-0.839905,0.473697,0.469655,3.8000000000093515e-05,0.4996199999999999,0.5,flight,-0.8398669999999999
134,1.116667,jog,-1.6888648908087296,1.318214542836563,0.6101511879049637,-0.5502058894042888,-0.21853769977181756,-0.04753183615095939,-3.0711543076553616,1.589272858171335,0.1054715622750161,-0.5931125509959195,0.21490280777537477,0.8293736501079852,-3.2731494300663493,3.16329118905547,4.987814326280702,35.99958475384539,-28.792933903942135,7.500581210256198,-8.789507627086229,14.828312314525288,12.529955861298356,-0.19610399999999995,0.249481,-0.844073,0.298245,-0.231628,-0.838078,0.4943489999999999,0.481109,0.005994999999999973,0.5,0.44005,flight,-0.838078
135,1.125,jog,-1.6638665546622036,1.3436937477499222,0.4519380775231107,-0.5943324820268744,0.1702999551077185,0.1502919099450261,-2.7080283211328737,1.392775711028451,0.13248529941197862,-0.5197407896315869,0.2414496579863233,0.8745949837993603,2.999920334396526,3.057626894678919,-18.986332699130497,43.57686145715723,-23.580600881181518,3.2417781275606345,8.80496356226249,3.1857494552920667,5.426777114049616,-0.20480499999999996,0.24988999999999997,-0.846735,0.307779,-0.240813,-0.8345560000000001,0.5125839999999999,0.490703,0.01217899999999994,0.5,0.37821000000000005,flight,-0.8345560000000001
136,1.133333,jog,-1.7327493099724123,1.3618144725789159,0.41917676707068285,-0.49414466624495756,0.5608691051878844,-0.11160171021551388,-2.366854674186988,1.173286931477274,0.025801032041281043,-0.5120604824193039,0.3052922116884692,1.025681027241099,-8.266261287676627,2.1745739624377527,-3.9315145148719743,40.94247533251996,-26.339707134426867,-12.802624189451405,0.9216737324232613,7.661412900773608,18.13105045502701,-0.21008899999999997,0.248319,-0.850013,0.317951,-0.249617,-0.829502,0.52804,0.49793600000000005,0.020511000000000057,0.5,0.29489,flight,-0.829502
137,1.141667,jog,-1.6982241420686182,1.355771538276927,0.35073194144468284,-0.7340995473431917,0.20777750464902403,-0.02014716468672256,-1.9682025437964814,0.9360451163906819,-0.0386369090472746,-0.6121910247180107,0.3110151187904957,1.1904247660187093,4.142688733356594,-0.7250941087099497,-8.21272205735535,47.83442889254903,-28.466740471153148,-7.731934375876547,-12.014703899532758,0.686693916729836,19.76766723993389,-0.212339,0.244821,-0.853258,0.327002,-0.258324,-0.822504,0.5393410000000001,0.503145,0.030753999999999948,0.5,0.19246000000000013,flight,-0.822504
138,1.15,jog,-1.6775471018840864,1.321012840513633,0.3195727829113159,-0.7490886235282264,-0.19175645545829118,-0.06297116977984026,-1.602064082563314,0.7209888395535837,-0.1239649585983458,-0.872194887795526,0.4062162486499496,1.5630625225009154,2.48134407590687,-4.17121058001853,-3.7392485939478233,43.93837288289582,-25.80778553187329,-10.239775537150125,-31.201711637767634,11.424592566837244,44.718319510645564,-0.21171,0.23982099999999998,-0.856954,0.3337129999999999,-0.265947,-0.8121419999999999,0.545423,0.505768,0.044812000000000074,0.5,0.05187999999999998,flight,-0.8121419999999999
139,1.158333,jog,-1.7057482299291744,1.3150126005039966,0.20184807392296206,-0.4760549483477157,0.3562295420113513,-0.17451407349913073,-1.3056522260890209,0.5337813512540417,-0.2722908916356615,-0.9475579023160777,0.49273970958837476,1.4914196567862463,-3.3842707362399516,-0.720057603460493,-14.127530179809408,35.57084561073897,-22.465797227833765,-17.79982395743587,-9.043923499406024,10.383230641836512,-8.597487785271547,-0.20837599999999995,0.233311,-0.860905,0.34003099999999997,-0.272799,-0.801396,0.5484069999999999,0.50611,0.059509000000000034,0.5,0.0,flight,-0.801396
140,1.166667,jog,-1.6803455723542455,1.2759779217662828,0.09851211903047472,-0.705814598133162,0.3169371698391692,-0.20555324457693538,-1.0422366210703375,0.36237101031918406,-0.39800815934725986,-1.2294216462683192,0.6274298056155607,1.4942404607631663,3.0480750629864843,-4.683786745586101,-12.399322641287414,31.607344014721424,-20.567595504542943,-15.084865336165196,-33.82094359878172,16.161518601774482,0.3384693996784288,-0.20305799999999996,0.225697,-0.865043,0.343789,-0.278204,-0.789764,0.546847,0.503901,0.07527899999999998,0.5,0.0,flight,-0.789764
141,1.175,jog,-1.7062282491299297,1.2943717748709727,-0.023640945637825428,-0.4983669718372679,0.9039350954867095,0.009960018501249609,-0.8229929197167712,0.22704908196327514,-0.5299411976478954,-1.2900516020640511,0.6383055322212798,1.4354974198967707,-3.106045454900236,2.207350666589411,-14.658954118360494,26.31029657429047,-16.239280973947743,-15.832597899991985,-7.275885730916942,1.3051393982622015,-7.049446881842621,-0.19569799999999998,0.21680300000000002,-0.869262,0.34725700000000004,-0.283671,-0.777605,0.5429550000000001,0.500474,0.09165699999999999,0.5,0.0,flight,-0.777605
142,1.183333,jog,-1.7116284651386242,1.2622104884195482,-0.05940237609504713,-0.017727812672039465,0.5611018141168842,-0.016284525317556864,-0.508700348013931,0.1035641425657039,-0.6924276971078903,-1.7107884315372828,1.0388815552622197,1.4538581543261848,-0.6480518431170776,-3.8595087545211517,-4.2915433165993075,37.71661726903193,-14.81878547912785,-19.499159901595636,-50.49043915435443,48.07104560673749,2.203376266580376,-0.185674,0.207148,-0.874537,0.347264,-0.285532,-0.764995,0.532938,0.49268,0.10954200000000003,0.5,0.0,flight,-0.764995
143,1.191667,jog,-1.7193424526037762,1.2794576433885199,-0.160667146628266,0.597528329636243,1.1953554881060044,-0.2579260747396841,-0.37544996400287606,-0.07595392368610389,-0.7721382289416792,-1.9077273818094402,1.0298776097912097,1.3962083033357233,-0.92560444746243,2.0694930368336375,-12.150800399954177,15.98876697996808,-21.540444714639598,-9.564498660161776,-23.63078356997312,-1.0803870255591497,-6.917428724557362,-0.17447400000000002,0.19585200000000003,-0.879633,0.345694,-0.287612,-0.75202,0.520168,0.483464,0.12761299999999998,0.5,0.0,flight,-0.75202
144,1.2,jog,-1.6593063722549029,1.221888875555033,-0.21960878435137585,0.1524957347266532,0.29420379080559295,-0.4305460142046307,-0.18228729149166045,-0.11496459858394614,-0.6815072602904183,-2.0568822752910356,1.1340453618144812,1.301932077283103,7.204617826577926,-6.908528481157732,-7.073279457951564,23.180447919262853,-4.681468246470972,10.87615128420277,-17.899303189919205,12.500630268003421,-11.313599670301366,-0.16216600000000003,0.184712,-0.883482,0.34238099999999994,-0.288344,-0.739341,0.504547,0.47305600000000003,0.14414099999999996,0.5,0.0,flight,-0.739341
145,1.208333,jog,-1.6523460938437287,1.2005280211208238,-0.3256930277211024,0.4385930019249399,0.8994011990741799,-0.36572151444859,-0.052322092883713464,-0.18792751710068215,-0.5693027721108742,-2.2149285971438406,1.334573382935293,1.2041281651265858,0.835266820013689,-2.5634050683077927,-12.73061842910413,15.596447690860998,-8.755900458026488,13.46507718463244,-18.96631727502727,24.064325107501297,-11.736938936339296,-0.148833,0.173142,-0.885512,0.337693,-0.287227,-0.726593,0.486526,0.46036900000000003,0.15891899999999992,0.5,0.0,flight,-0.726593
146,1.216667,jog,-1.6269498440125085,1.1804655627550036,-0.4250059995200519,0.6276137223451873,1.3083934096699747,-0.3644766468038259,-0.014158867290617858,-0.07547396208303367,-0.34053275737941613,-2.4841612670986826,1.5028797696184601,1.1124310055195765,3.0473061952508536,-2.407302419704895,-11.916603287611157,4.579220733512879,13.493347134347326,27.450205751315387,-32.30533596770423,20.195150789917243,-11.002778930526883,-0.135392,0.162675,-0.8848079999999999,0.330549,-0.28454,-0.71378,0.465941,0.44721500000000003,0.17102799999999996,0.5,0.0,flight,-0.71378
147,1.225,jog,-1.5787831513260255,1.1563662546501632,-0.5087003480139108,0.8060203662975917,1.3835626071305278,-0.659965699088524,-0.15624624984998764,0.14808592343693644,-0.2539301572062838,-2.551902076082996,1.5135005400215757,0.922716908676331,5.780234331751128,-2.892032653886953,-10.043723568205623,-17.051167953842228,26.828259392771653,10.392727729884891,-8.129222247007352,1.2745434301110539,-22.76660228528047,-0.12353799999999998,0.15427300000000002,-0.8826849999999999,0.32244,-0.281564,-0.7018519999999999,0.445978,0.43583700000000003,0.18083300000000002,0.5,0.0,flight,-0.7018519999999999
148,1.233333,jog,-1.5033001320052952,1.1659666386655576,-0.5859834393375754,0.9658336059497302,1.4596012699660617,-0.7980651674622773,-0.20268810752430236,0.22692907716308572,-0.18360734429377387,-2.7253090123605204,1.6332653306132374,0.7532701308052396,9.05832465147378,1.1520921655339629,-9.274341932517126,-5.573245850751848,9.461556909414377,8.43907511250577,-20.809664739892707,14.372349764990132,-20.33442672160002,-0.11269999999999997,0.146448,-0.879332,0.312257,-0.27767,-0.690692,0.424957,0.424118,0.18864000000000003,0.5,0.0,flight,-0.690692
149,1.241667,jog,-1.549916006719452,1.1821454283657218,-0.6346292296616208,1.7311312819464224,2.245997158671026,-0.8732599249583753,-0.20482361411087124,0.11987041036717302,-0.10799136069114365,-2.925725941924629,1.7763378929685503,0.5988720902327762,-5.593457489099638,1.9412994600628812,-5.837027876655281,-0.25624029116497116,-12.846012334522664,9.073192176941403,-24.048107699076912,17.167334095909737,-18.526282766074182,-0.10148999999999997,0.13759500000000002,-0.874943,0.300791,-0.272718,-0.680412,0.40228099999999994,0.41031300000000004,0.194531,0.5654384004700885,0.0,single,-0.680412
150,1.25,jog,-1.449897995919848,1.1094443777751215,-0.635905436217461,1.1390998010809386,1.669655333665199,-1.0229570124166498,-0.1730469218768765,0.02136085443417228,-0.04356174246969945,-3.002160086403478,1.7935917436697633,0.44497779911197055,12.00264140160866,-8.724475049874108,-0.15315091273732934,3.813355602303495,-11.821619576743267,7.731863461111818,-9.172464236031432,2.0705449059418157,-18.468053656643114,-0.09084999999999999,0.12852799999999998,-0.870007,0.287856,-0.267017,-0.6714049999999999,0.378706,0.395545,0.19860200000000006,0.7004672681574771,0.0,single,-0.6714049999999999
151,1.258333,jog,-1.4423376935077536,1.115204608184337,-0.6510260410416359,1.846433805890465,1.8052213619940556,-1.166888930587347,-0.12288491539661997,0.012480499219974734,-0.07356294251770085,-3.0812432497300213,1.8576743069722952,0.26641065642625944,0.9072725803545344,0.6912552993178357,-1.81454516070743,6.019681564893435,-1.0656852531138399,-3.6002880172808913,-9.490359213553813,7.690215204912098,-21.428914278856684,-0.07985500000000001,0.11933900000000003,-0.865195,0.27419899999999997,-0.26083,-0.66376,0.354054,0.38016900000000003,0.20143500000000003,0.7603940051026084,0.0,single,-0.66376
152,1.266667,jog,-1.4578833693304418,1.1414686825053901,-0.6181905447564202,2.2518993398566365,1.8481601211796832,-1.0369490617956965,-0.029997600191981107,-0.008759299256064878,-0.033717302615790895,-3.2513798896087978,1.9916006719462294,0.10307175425965828,-1.8653318721727932,3.151436803582068,3.9399443586771534,11.145586177662365,-2.5485719313702244,4.781094300685103,-20.414763604364673,16.06987820661545,-19.59910033196543,-0.06795499999999999,0.10975299999999999,-0.860324,0.25925200000000004,-0.253745,-0.657749,0.327207,0.363498,0.20257499999999995,0.9233797633994622,0.0,single,-0.657749
153,1.275,jog,-1.4035761430457327,1.0608424336973594,-0.5582623304932236,1.9942639958131763,1.8835911404271328,-1.0939557277765686,-0.015840633625347676,-0.03576143045721441,-0.0033601344053762754,-3.211808472338924,1.9791191647666087,-0.049321972878914974,6.51712783927872,-9.675536878438912,7.1916733785188,1.6989039441537934,-3.2403853595523557,3.643005905486007,4.7487600227858096,-1.4978407751855063,-18.287978775779987,-0.056391000000000024,0.10061500000000001,-0.8557,0.244184,-0.246093,-0.653508,0.30057500000000004,0.346708,0.20219200000000004,0.9345720055408477,0.0,single,-0.653508
154,1.283333,jog,-1.3856954278170919,1.0403216128644976,-0.5601824072962827,2.03410131949585,0.8636386273575729,-1.6776699447908197,-0.05448217928717173,-0.03684147365894592,-0.04848193927757044,-3.458658346333791,2.080163206528224,-0.18840753630145066,2.1457716583032,-2.462597003823523,-0.23041843310440693,-4.637170966257456,-0.12961036862252373,-5.4148331779903245,-29.6231698061758,12.125770042195326,-16.690935248113917,-0.045298000000000005,0.091639,-0.851436,0.22691000000000006,-0.23742800000000003,-0.65041,0.27220800000000006,0.329067,0.20102599999999993,0.8638209871227871,0.0,single,-0.65041
155,1.291667,jog,-1.4347252219822682,1.0808735301176098,-0.4199664026878,1.5882347661527993,0.6845670633571486,-1.3860950165989043,-0.034917206623469074,-0.005159587233023286,-0.0013198944084470041,-3.4434845212383665,2.066474682025478,-0.3251739860811185,-5.883104651449149,4.8658408031093,16.824574587051274,2.3476089109314886,3.8015222493308416,5.658992664881729,1.8207133543826544,-1.642491541006303,-16.410661120670802,-0.033631999999999995,0.082588,-0.847947,0.21016900000000005,-0.229214,-0.64962,0.24380100000000005,0.31180199999999997,0.19832700000000003,0.9411316256370136,0.0,single,-0.64962
156,1.3,jog,-1.475099003960129,1.1434057362294303,-0.31573262930515933,1.0070034929068112,0.04179263386207789,-1.6166075915905767,-0.035281411256451616,-0.01980079203167741,-0.017640705628224975,-3.510380415216554,2.1194047761910104,-0.4597383895355735,-4.845047639248794,7.504164900014333,12.508553148042584,-0.04370630421007259,-1.7570148564327213,-1.9585756894008983,-8.027828390517996,6.351865374478783,-16.148374349508295,-0.021634000000000042,0.07289500000000002,-0.845463,0.19320899999999996,-0.221081,-0.65082,0.214843,0.293976,0.194643,0.9264389172865635,0.0,single,-0.65082
157,1.308333,jog,-1.574342973718969,1.2145685827433197,-0.20484819392776066,0.5558930240615968,-0.4093209348767867,-1.1443584270809335,-0.027121084843394462,-0.014520580823237591,-0.004560182407295898,-3.5591023640945916,2.189007560302432,-0.6516260650426066,-11.90975276117134,8.539883176993882,13.306664511868437,0.9792783407004954,0.6336506910404255,1.569725575534525,-5.846867740074155,8.35266820009869,-23.02744215853052,-0.008740999999999999,0.06265299999999999,-0.843794,0.17667000000000005,-0.212961,-0.654543,0.18541100000000005,0.27561399999999997,0.18925100000000006,0.9481670478547085,0.0,single,-0.654543
158,1.316667,jog,-1.4947204223661987,1.1820254379649535,-0.15142788576913555,-0.1469849104182956,-0.43932629142565655,-1.189110795765834,-0.02183825293975985,-0.0026397888168906074,-0.009479241660667395,-3.668946484281232,2.1939044876409723,-0.7036237101031874,9.553941846984591,-3.9048649842051746,6.409924185100157,0.6338891173067642,1.4255809942820845,-0.5902398912132781,-13.1802400031965,0.5875842738829078,-6.239218269808064,0.003534000000000037,0.05278000000000002,-0.842611,0.15855000000000002,-0.204528,-0.659145,0.155016,0.25730800000000004,0.18346600000000002,0.9600787650867346,0.0,single,-0.659145
159,1.325,jog,-1.463698547941926,1.199207968318744,-0.15996639865595114,-0.014890911712944457,-0.4224579038805457,-1.2305080744666241,-0.023040921636868744,-0.0021600864034583183,0.012720508820353162,-3.7063482539301904,2.2310092403696347,-0.8550342013680616,3.7227738418664367,2.0619861218997513,-1.0246625329191972,-0.14432601669373651,0.05756659227556624,2.6640766207873225,-4.488391893550786,4.452748437377013,-18.169985751215126,0.01553899999999997,0.042769,-0.841172,0.139862,-0.19593,-0.664937,0.12432300000000002,0.238699,0.17623500000000003,0.9559873317543872,0.0,single,-0.664937
160,1.333333,jog,-1.457698307932294,1.2080883235329194,-0.0841233649345901,-0.07285474235708263,0.5164411921094111,-1.0507747865235604,-0.020880835233409868,-0.014280571222846292,0.003120124804991935,-3.8299531981278614,2.2719308772350493,-0.9223568942757547,0.7200576034599601,1.0656852531111545,9.101528107687471,0.25922073724455036,-1.4545163589808907,-1.1520921655299483,-14.833186631185505,4.91079285556389,-8.079046310775462,0.02751199999999998,0.03258300000000003,-0.840445,0.12009399999999998,-0.18706499999999998,-0.671922,0.092582,0.219648,0.16852299999999998,0.9575186585632939,0.0,single,-0.671922
161,1.341667,jog,-1.444444444444471,1.095272378209767,0.020158387329007578,-0.5689644794440545,0.796931692095609,-0.4304286472860886,-0.029157667386608813,-0.023878089752820797,0.0007199424046075325,-3.848452123830162,2.306095512359055,-1.0500359971202513,1.5903363916274578,-13.536830492339147,12.512809246892207,-0.9931404071513201,-1.1516100947893793,-0.2879988481382827,-2.219693508795425,4.099428260619939,-15.32026672000228,0.03930699999999998,0.023256,-0.840607,0.10005900000000001,-0.17697400000000002,-0.680841,0.06075200000000003,0.20023000000000002,0.15976599999999996,0.9371763700079114,0.0,single,-0.680841
162,1.35,jog,-1.4843393735749193,1.2149285971438604,0.05796231849274004,0.5368505031269919,1.1119538966533666,-0.8409749964906682,-0.017400696027841556,-0.018600744029762813,0.022560902436097128,-3.9441977679106515,2.306132245289771,-1.111604464178547,-4.7875829989736625,14.359320644916739,4.536653205776047,1.410892998771997,0.6333068190397086,2.6210200445804888,-11.489936887134007,0.004408128011018945,-7.388511587458848,0.051530999999999993,0.012977000000000016,-0.840902,0.07956099999999999,-0.167881,-0.690587,0.02803,0.18085800000000002,0.1503150000000001,0.9432900601637011,0.0,single,-0.690587
163,1.358333,jog,-1.445577823112938,1.1636865474619105,-0.0055202208088312625,-0.26612564419903995,0.1271347427318718,-0.9353529455474332,-0.06660266410656153,-0.0351614064562571,-0.023880955238209482,-4.012600504020197,2.448577943117746,-1.1924876995079914,4.651572118322541,-6.1492919335113845,-7.618209444566408,-5.904472348340384,-1.9873589855387543,-5.573245850750874,-8.208656679412725,17.094167506057385,-9.706376494593203,0.06302200000000002,0.0029870000000000174,-0.841055,0.05817,-0.157174,-0.7004779999999999,0.004852000000000023,0.16016100000000003,0.14057700000000006,0.8683170960100348,0.0,single,-0.7004779999999999
164,1.366667,jog,-1.4805615550755813,1.1155507559395164,0.17014638828893922,-0.5621296283156405,1.150146591487422,-0.7001456801344017,-0.0461963042956589,-0.010919126469883255,0.04247660187184995,-4.079793616510648,2.454523638108933,-1.1983441324693929,-4.197712018555688,-5.7758329160539645,21.078306827186122,2.4485672919249426,2.908840891093552,7.962269871617342,-8.06252849657436,0.7134263248364371,-0.7027157381091236,0.07497599999999999,-0.00640099999999999,-0.8421190000000001,0.036507999999999985,-0.146015,-0.711883,0.038468,0.13961400000000002,0.13023600000000002,0.8938346734775574,0.0,single,-0.711883
165,1.375,jog,-1.512540501620079,1.077163086523469,0.2140885635425446,-0.2785453913179488,1.1891572422365655,-0.6612037160520735,-0.060842433697346016,-0.02316092643705754,0.05976239049562018,-4.104404176167082,2.443537741509685,-1.258490339613599,-3.83762709042338,-4.606704598109658,5.273271961311147,-1.7576058324357673,-1.4690747590512898,2.074377609956845,-2.953385294183887,-1.3183603263228225,-7.217833570647617,0.08707300000000001,-0.015569999999999973,-0.8434050000000001,0.014910000000000007,-0.13462899999999997,-0.7241540000000001,0.072163,0.119059,0.119251,0.8527117945301559,0.0,single,-0.7241540000000001
166,1.383333,jog,-1.5395415816632814,1.0750030001200173,0.26173046921876975,-0.4187100912192464,0.8407775735344224,-0.9202318608148805,-0.03264130565222572,-0.037321492859715415,0.12420496819872923,-4.075843033721386,2.5166206648266147,-1.2936517460698527,-3.240259215552933,-0.2592207372436921,5.717257371441927,3.384270736243916,-1.6993359441567266,7.733418661119601,3.4274741924513514,8.770301610096071,-4.219537556252741,0.09963000000000002,-0.024839,-0.844551,-0.0062249999999999805,-0.122616,-0.737115,0.105855,0.097777,0.10743600000000009,0.7771072580489344,0.0,single,-0.737115
167,1.391667,jog,-1.5902327813774761,1.1119510439164813,0.2831773458123363,-0.2303172193641084,-0.5364068617476565,-1.0825234699195336,-0.06143508519318557,-0.02627789776818131,0.09587233021358231,-4.217182625389938,2.6058315334773035,-1.2920566354691525,-6.082457369113798,4.433410582729027,2.5734193176825495,-3.4549771467434165,1.3251254009520061,-3.399644586650672,-16.9593942486863,10.704447882251985,0.1913979602471988,0.112371,-0.03432500000000005,-0.8461120000000001,-0.028118000000000004,-0.11016600000000001,-0.750243,0.140489,0.07584099999999996,0.09586900000000009,0.8052330359378794,0.0,single,-0.750243
168,1.4,jog,-1.6270250810032567,1.0879635185407472,0.48793951758069604,-0.9479711760266027,-0.616779945641531,-0.9427921129999947,-0.038521540861636706,-0.05028201128044534,0.18288731549262108,-4.19260770430821,2.8018720748830184,-1.2020880835233516,-4.415252565196316,-2.8786181898157,24.572443509943792,2.749735309198257,-2.880608845825543,10.442215922121633,2.9491084941472177,23.525806000926043,10.796658099820199,0.125608,-0.04380999999999996,-0.8486539999999999,-0.049496999999999985,-0.095884,-0.764326,0.17510499999999998,0.05207400000000004,0.08432799999999996,0.6774237388321127,0.0,single,-0.764326
169,1.408333,jog,-1.6354254170166522,1.0822032881315093,0.44161766470658254,-0.3661366220964472,2.297456438661504,-0.760782939302391,-0.09888395535821157,-0.03312132485300002,0.12612504500179827,-4.334093363734475,2.8559942397695393,-1.1026041041641474,-1.0080806448332376,-0.6912552993205086,-5.55884469868147,-7.243779490768487,2.0593647458832383,-6.811744928695765,-16.97895828948308,6.494919583165719,11.938555065306904,0.138412,-0.05310400000000004,-0.851283,-0.071985,-0.08110300000000004,-0.7771939999999999,0.210397,0.027998999999999996,0.07408900000000007,0.7272435673229869,0.0,single,-0.7771939999999999
170,1.416667,jog,-1.647348212143059,1.0824334053275946,0.45116390688745583,-1.025289948953038,0.6848969891573419,-0.961501104679219,-0.07331413486920858,0.006839452843776138,0.23338132949364437,-4.267818574514119,2.8782097432206015,-1.11303095752342,-1.4306209654915925,0.02761185458186197,1.1454574251108087,3.0681330080397733,4.794909730834763,12.869724561056891,7.952338519361284,2.6656471623545346,-1.2511223133276725,0.15153000000000003,-0.06206800000000001,-0.8530979999999999,-0.09382399999999999,-0.066137,-0.79023,0.24535400000000002,0.004068999999999989,0.06286799999999992,0.5921309256805162,0.0,single,-0.79023
171,1.425,jog,-1.6995079803191824,1.0656426257050093,0.5765030601223985,-1.0141611427853605,-0.23774539453715246,-0.8676583531933041,-0.08976359054362334,0.04464178567142409,0.28117124684986966,-4.2841713668546,3.0360014400575444,-0.9792391695667656,-6.259422558037025,-2.0149741536763406,15.041300040194463,-1.974013641475396,4.536461397773587,5.735019483526275,-1.962413577400746,18.93576105087484,16.055656781069498,0.16494399999999998,-0.07057600000000003,-0.855559,-0.115362,-0.04971800000000004,-0.803194,0.280306,0.020857999999999988,0.052364999999999995,0.5024848933886894,0.0,single,-0.803194
172,1.433333,jog,-1.680307212288507,1.1056042241689734,0.5233409336373573,-0.0979649454760872,0.12272955068078485,-0.6037414909687613,-0.09000360014400333,0.09924396975879392,0.3174126965078626,-4.336133445337853,2.9293171726869396,-0.9563182527301184,2.3041843310543095,4.795583639021294,-6.379710366619661,-0.028802304137763517,6.552524191452097,4.349147924876185,-6.23569884594429,-12.802624189440268,2.7506200451994984,0.17819600000000002,-0.07896199999999998,-0.857275,-0.137493,-0.03452099999999997,-0.815524,0.315689,0.04444100000000001,0.04175099999999998,0.5,0.08249000000000006,flight,-0.815524
173,1.441667,jog,-1.6864650827933634,1.2032637389008831,0.40112790976721374,-1.9271704038463178,-1.3909656957768646,-1.0298764275466854,-0.14854811615070884,0.16678665706743362,0.34833213342932334,-4.355531557475368,3.020638348932059,-0.8452123830093522,-0.7388853497547806,11.718204311484156,-14.66438971324006,-7.0247799384095355,8.104474119107174,3.7100356277250452,-2.3275872495218297,10.957664536251368,13.331637835465004,0.191013,-0.08760000000000001,-0.857715,-0.15973700000000002,-0.01937500000000003,-0.8259110000000001,0.35075,0.06822499999999998,0.03180399999999994,0.5,0.18196,flight,-0.8259110000000001
174,1.45,jog,-1.7093483739349737,1.0673226929077209,0.5882635305412225,-0.32895874003434555,0.10806084706047857,-0.46752183789538226,-0.12900516020640856,0.14508580343214048,0.4530181207248332,-4.351974078963199,2.924156966278681,-0.7661106444257841,-2.746104781184516,-16.313578062302113,22.457172779792447,2.345248523256985,-2.6042066044993812,12.562820988300832,0.426914498040236,-11.578229047567385,9.492588333561596,0.20418200000000003,-0.09528499999999995,-0.858842,-0.181758,-0.003901999999999961,-0.837197,0.38594,0.09138299999999999,0.021645000000000025,0.5,0.28355,flight,-0.837197
175,1.458333,jog,-1.9656786271450513,1.1232449297971765,0.802712108484332,-0.9048062907308607,-0.7560709395457219,-0.016586330012513025,-0.16188647545901422,0.18180727229088708,0.45097803912155665,-4.324972998919882,3.0648025921036277,-0.5263410536421366,-30.76086081964155,6.710936864209127,25.734858747522598,-3.9459156669392867,4.406752533150842,-0.24481958517659078,3.2402592155666223,16.878150225002305,28.77350183411057,0.21921300000000002,-0.10313,-0.861773,-0.201418,0.012276999999999982,-0.848272,0.42063100000000003,0.11540699999999998,0.013500999999999985,0.5,0.36499000000000004,flight,-0.848272
176,1.466667,jog,-1.6529877609791528,1.1010319174466205,0.5302375809935247,-1.023946537040556,-0.19408707725609017,-0.7696432998228092,-0.20230381569475075,0.1869450443964523,0.49652027837773954,-4.193304535637229,2.9719222462203603,-0.38924886009119974,37.51990234772071,-2.665348254206428,-32.69432775267729,-4.849692852860248,0.6164833340011167,5.464631540218834,15.798951677784387,-11.144749925998225,16.449747246333025,0.231303,-0.11074799999999996,-0.862054,-0.222589,0.027869000000000033,-0.855935,0.453892,0.138617,0.0061189999999999856,0.5,0.43881000000000003,flight,-0.855935
177,1.475,jog,-1.7698307932316988,1.1488059522380691,0.4609384375374914,-0.9804153036997416,-1.2931989088467606,-0.4081954191859383,-0.31525261010439753,0.28789151566061955,0.5429017160686332,-4.22200888035514,2.9011160446417352,-0.1987279491179618,-14.021724739294847,5.733113499513712,-8.316229863918403,-13.55439750505758,12.114061114144425,5.565995162713655,-3.4446591525153005,-8.497084072797769,22.863423853742304,0.24342400000000003,-0.11792199999999997,-0.861371,-0.243023,0.042471000000000037,-0.861432,0.486447,0.160393,6.099999999997774e-05,0.49938999999999995,0.5,flight,-0.861371
178,1.483333,jog,-1.7448697947918073,1.1081243249730115,0.4777391095643884,-0.35736768433343846,-1.0592173233555982,-0.2908100834705727,-0.3231729269170798,0.24168966758670757,0.5840633625345063,-4.021960878435173,2.6097443897756167,-0.012000480019201221,2.9954396303722253,-4.881990551429019,2.016161289679246,-0.9504760365633398,-5.544443546611353,4.9395951597112004,24.006720499216236,-34.96599722382349,22.408192619556253,0.255271,-0.12514199999999998,-0.8604849999999999,-0.261998,0.05498400000000003,-0.865513,0.517269,0.180126,0.0050280000000000324,0.44971999999999995,0.5,flight,-0.8604849999999999
179,1.491667,jog,-1.8857691384689081,1.1438684905207512,0.5460763138948809,-1.079652701114059,-0.9312937076156246,-0.06252729668601384,-0.4036477081833463,0.2753779697624159,0.5867530597552157,-3.7099832013438645,2.6552675785936866,0.17686585073194047,-16.906568715754716,4.2889567491888005,8.199808534976233,-9.656201255851439,4.04227287925463,0.32273784745733397,37.4343265048363,5.462345670514696,22.66214671839936,0.267623,-0.13238,-0.860146,-0.277201,0.06757999999999997,-0.86859,0.544824,0.19995999999999997,0.008444000000000007,0.41555999999999993,0.5,flight,-0.860146
180,1.5,jog,-1.8372734909396544,1.148085923436947,0.5250210008400406,-0.6142432418844875,-0.8470293181684427,-0.04388349691658317,-0.4977799111964506,0.3463338533541373,0.6242649705988295,-3.414136565462653,2.4482179287171713,0.24696987879515458,5.819710491930178,0.5061121944312654,-2.5267386361263062,-11.296316214221191,8.51504663287196,4.501609365608312,35.50301642640274,-24.846951863256596,8.412819880380987,0.278785,-0.139061,-0.8593189999999999,-0.290341,0.07841399999999998,-0.870907,0.569126,0.21747499999999997,0.011588000000000043,0.38412,0.5,flight,-0.8593189999999999
181,1.508333,jog,-1.815312612504517,1.1670466818672833,0.3363734549382006,-1.6036437988164833,-1.993836302606445,0.21917095809062612,-0.5859834393375754,0.36889475579023084,0.6169446777871163,-3.0445217808712566,2.2707308292331896,0.3194527781111271,2.63541082864967,2.2753820269214655,-22.63861105266311,-10.5848467708059,2.7074165889948096,-0.878470276216641,44.355548372902916,-21.299303910234404,8.698295849750771,0.28902900000000004,-0.145712,-0.856981,-0.30058399999999996,0.087611,-0.871048,0.5896129999999999,0.233323,0.014067000000000052,0.35933000000000004,0.5,flight,-0.856981
182,1.516667,jog,-1.8141348692104489,1.152747780177581,0.3502519798416106,-1.0283549109972199,-0.5630867525882522,0.2303165777052678,-0.6803455723542075,0.37473002159827434,0.6197504199663983,-2.6810655147588025,2.0791936645068247,0.3287736981041499,0.14131788985697716,-1.7157309442887296,1.665289765227971,-11.322550157983127,0.700175882894583,0.33666212854356464,43.61126303245156,-22.98262115747101,1.11842092548869,0.298478,-0.152196,-0.854735,-0.307809,0.09533199999999997,-0.871227,0.606287,0.24752799999999997,0.01649199999999995,0.33508000000000004,0.5,flight,-0.854735
183,1.525,jog,-1.8039121564862763,1.0498019920796902,0.23028921156846532,0.039012428234944725,-1.4115539253556901,0.21454115510794766,-0.7259090363614643,0.4246969878795141,0.7220688827553178,-2.3334933397336095,1.8840753630145435,0.26137045481819504,1.2267745978846294,-12.35398873129626,-14.396108037099049,-5.467834394246643,5.996275804781017,12.278706682937761,41.71032941620019,-23.415132784385342,-8.088712742824372,0.307461,-0.15740500000000002,-0.850637,-0.312222,0.10228400000000004,-0.870968,0.619683,0.25968900000000006,0.020330999999999988,0.29669,0.5,flight,-0.850637
184,1.533333,jog,-1.7913116524660677,1.139085563422517,0.11832473298932258,-0.43431947335922966,-0.6828166288429969,0.5220974820005301,-0.8497539901595886,0.4791791671666812,0.7947917916716517,-1.998319932797277,1.6727469098763565,0.12144485779430952,1.512120967263699,10.714457139424608,-13.436274880492114,-14.861988935332072,6.538123039381511,8.727098153886073,40.22241772906837,-25.36042879373374,-16.791743312598474,0.315307,-0.162904,-0.8450000000000001,-0.313947,0.10673099999999996,-0.870942,0.629254,0.26963499999999996,0.02594199999999991,0.24058000000000007,0.5,flight,-0.8450000000000001
185,1.541667,jog,-1.7730981521478617,1.0100791936645237,0.05435565154786828,1.0853207424098064,-0.2780161488280092,0.6234414391460528,-0.9244060475162182,0.5425965922726316,0.9090472762179198,-1.6682265418766815,1.4898008159347649,-0.01919846412287142,2.1854452025685576,-15.479526008878778,-7.675675718917149,-8.957530280373293,7.6094822541338605,13.709561380641983,39.60803826741081,-21.951775130980938,-16.875848562177058,0.32238,-0.16679999999999995,-0.837877,-0.313073,0.11072900000000008,-0.871555,0.635453,0.277529,0.033677999999999986,0.16322000000000003,0.5,flight,-0.837877
186,1.55,jog,-1.754590183607313,1.025921036841459,0.008760350414015176,0.786776935509343,-0.29244303459242066,0.5007074977769965,-1.0741629665186403,0.5903036121444696,0.9363974558982201,-1.388935557422276,1.3276131045241497,-0.1628465138605512,2.2210450666684722,1.9010972251212168,-5.471655002262367,-17.971549142256023,5.72507138747596,3.2821528477498876,33.516258784879476,-19.463303901429537,-17.238455506741545,0.32805,-0.17043000000000003,-0.830147,-0.310026,0.11324299999999998,-0.8729849999999999,0.6380760000000001,0.283673,0.04283799999999993,0.07162000000000002,0.5,flight,-0.830147
187,1.558333,jog,-1.7299891995679983,1.0189607584303497,-0.05904236169446075,0.3174707248572211,-0.339614034978641,0.6192958410268927,-1.161166446657879,0.6743069722789022,1.036601464058571,-1.0704428177127163,1.158286331453268,-0.3384135365414651,2.952236174164752,-0.8352668200059304,-8.136650919053947,-10.44083525011875,10.080806448389946,12.024961977721327,38.22065759145116,-20.320025569528763,-21.068885477128944,0.33279,-0.173302,-0.821017,-0.30453,0.11440399999999995,-0.875313,0.63732,0.28770599999999996,0.05429600000000001,0.0,0.5,flight,-0.821017
188,1.566667,jog,-1.6898248140148657,1.0242380609551143,-0.12766978641709345,0.4994947655864248,0.16288540729471784,0.5395840754632857,-1.3412526997840062,0.7681785457163324,0.9563234941204637,-0.7678185745140316,0.9787616990640637,-0.4834413246940197,4.819340719118348,0.6332256449201474,-8.23463219614017,-21.60862168540026,11.263687717474133,-9.632585785709948,36.31200422350401,-21.54123258809731,-17.401942422912583,0.33569499999999997,-0.17543600000000004,-0.8119829999999999,-0.296846,0.11402499999999993,-0.8782779999999999,0.632541,0.28946099999999997,0.06629499999999999,0.0,0.5,flight,-0.8119829999999999
189,1.575,jog,-1.6924276971079004,1.0304812192487807,-0.2742109684387378,0.6832623677314896,0.5667686705642488,0.48193282437604856,-1.5037801512060605,0.9795991839673714,0.8730349213968643,-0.48865954638186215,0.7898715948638123,-0.6608664346573921,-0.31235846550278595,0.7492089635985182,-17.58564526840822,-19.504074333620036,25.371491449782912,-9.995028527973133,33.50042339279635,-22.66771921279889,-21.2918648701997,0.337267,-0.17586000000000002,-0.802423,-0.28681500000000004,0.11202000000000001,-0.8815,0.624082,0.28788,0.07907699999999995,0.0,0.5,flight,-0.802423
190,1.583333,jog,-1.6749069962798215,1.0376815072602674,-0.3870154806192087,0.714978060754869,0.8230031854028038,0.2609382897579251,-1.7117484699387675,1.2066482659306137,0.7657506300251873,-0.11736469458777893,0.5325813032521138,-0.8010320412816381,2.102568202097513,0.8640691241433612,-13.537082944974069,-24.95719653578584,27.246979714777183,-12.874629949799013,44.55716450186928,-30.876070036204723,-16.820545616733888,0.33696000000000004,-0.174452,-0.7928170000000001,-0.27383599999999997,0.10781099999999999,-0.88495,0.610796,0.282263,0.09213299999999991,0.0,0.5,flight,-0.7928170000000001
191,1.591667,jog,-1.6529877609791543,0.9742020638349103,-0.4958003359731345,0.623442582094671,1.0724922856301378,0.40555337757435167,-1.9204463642908955,1.3332133429325885,0.6471082313415061,0.11555075593952603,0.24262059035277259,-0.734461243100566,2.630097828253853,-7.6169238571344335,-13.053138391400031,-25.041743982737223,15.186594312692254,-14.235948966124726,27.94761825381682,-34.792502147749786,7.987856753188541,0.334731,-0.17146,-0.783292,-0.259097,0.10171399999999997,-0.886939,0.593828,0.273174,0.10364700000000004,0.0,0.5,flight,-0.783292
192,1.6,jog,-1.6313452538101232,0.9411976479059051,-0.5442217688707534,0.41507591352247253,0.7582235376613047,0.36399567131946714,-1.9908796351853717,1.4980199207968083,0.5591023640945536,0.13920556822272578,0.11232449297972297,-0.5282611304452081,2.597204748473632,-3.9606883390141103,-5.8108043798893565,-8.452330600561012,19.77758044692391,-10.561126514694699,2.838691021624786,-15.636157131050922,24.745003318775275,0.331735,-0.16682000000000002,-0.774098,-0.244343,0.09480699999999997,-0.886806,0.576078,0.261627,0.11270800000000003,0.0,0.5,flight,-0.774098
193,1.608333,jog,-1.577343093723762,0.9299171966878768,-0.6506660266410628,0.5260072684305475,1.7691534947038872,0.29472127269290227,-2.1899675987039666,1.7047881915276764,0.490699627985125,-0.03612144485779413,0.08388335533421476,-0.257410296411859,6.480518431100642,-1.3537082944951933,-12.773821885312659,-23.891511282682917,24.81318501510499,-8.208656679398683,-21.0400831729895,-3.4130730403826313,32.50340022001099,0.32663,-0.16036300000000003,-0.764587,-0.2315,0.08775699999999997,-0.883529,0.55813,0.24812,0.11894199999999999,0.0,0.5447795504142408,single,-0.764587
