frame_id,timestamp,gait_type,root_linear_velocity_x,root_linear_velocity_y,root_linear_velocity_z,root_angular_velocity_x,root_angular_velocity_y,root_angular_velocity_z,left_linear_velocity_x,left_linear_velocity_y,left_linear_velocity_z,right_linear_velocity_x,right_linear_velocity_y,right_linear_velocity_z,root_acceleration_x,root_acceleration_y,root_acceleration_z,left_acceleration_x,left_acceleration_y,left_acceleration_z,right_acceleration_x,right_acceleration_y,right_acceleration_z,left_pos_rel_x,left_pos_rel_y,left_pos_rel_z,right_pos_rel_x,right_pos_rel_y,right_pos_rel_z,step_length,step_width,step_height,left_contact_prob,right_contact_prob,support_type,max_foot_height
1,0.008333,stand,0.012000480019199447,0.022920916836673074,0.00516020640825816,-0.01392847058532553,-0.10188807825747709,-0.0367563944145116,0.000600024000950646,-0.0010800432017258185,-0.0009600384015357725,0.000840033601341563,0.000600024000950646,-0.00024000960038383904,0.0,0.0,0.0,0.0,0.0,0.0,0.0,0.0,0.0,-0.06587900000000002,0.201476,-0.899195,0.132971,-0.12582300000000007,-0.901517,0.19885000000000003,0.32729900000000006,0.0023220000000000462,0.9741722147265168,0.9982335771698334,double,-0.899195
2,0.016667,stand,0.011999040076792533,0.020518358531314698,0.006479481641468501,-0.012668730776458016,0.0021797902084205963,-0.0352490368479691,0.0013198944084586352,0.0005999520038369624,-0.0023998080153590897,0.0007199424046083513,0.0009599232061444684,0.00011999040076805855,-0.00017277926648830955,-0.2882839339282909,0.15830036395612437,0.08637753869786287,0.20158329800369337,-0.17275853297615995,-0.014409790824719432,0.04318444986726929,0.04319654441467453,-0.06596799999999992,0.20131,-0.899269,0.13287700000000002,-0.12598600000000004,-0.90157,0.19884499999999994,0.32729600000000003,0.0023009999999999975,0.9723170452581518,0.997990185660921,double,-0.899269
3,0.025,stand,0.013440537621504978,0.025561022440899882,0.008760350414015329,0.02223193319783656,-0.03164581570873783,-0.010878332088202757,0.0012000480019146154,0.003600144005763831,-0.00012000480019171134,0.0008400336013482247,0.00024000960039091698,-0.001560062402496411,0.17298662483048663,0.6051438749052183,0.2737152013136719,-0.014382144071045225,0.36003744172889335,0.2735873293132579,0.014411520069587595,-0.08639308841396272,-0.20161440096777508,-0.06606999999999996,0.201127,-0.899343,0.13277200000000006,-0.126197,-0.901656,0.19884200000000002,0.327324,0.0023130000000000095,0.9705420300733776,0.997019947912761,double,-0.899343
4,0.033333,stand,0.013440537621504978,0.022440897635904563,0.0018000720028785845,0.004572345710002794,-0.06079983772858903,-0.013070636853242303,0.0019200768030740432,0.0018000720028785845,-0.0002400096003842554,-0.0009600384015370216,0.004680187207489649,-0.0008400336013440611,0.0,-0.37442995379759014,-0.8352668200092097,0.08640691241562796,-0.21601728103747106,-0.014401152069188055,-0.21601728103747106,0.5328426265569102,0.08640691241477857,-0.06616599999999995,0.200955,-0.8993599999999999,0.13265200000000005,-0.12634499999999999,-0.901678,0.198818,0.3273,0.0023180000000000422,0.9724152807021185,0.9919151234323718,double,-0.8993599999999999
5,0.041667,stand,0.021118310535164983,0.02927765778737298,0.002399808015361171,0.08260778163160361,-0.05832184498031114,-0.0049612805182681265,0.0022798176145897822,0.0013198944084453137,-0.0031197504199661917,0.00239980801535451,-0.0027597792176620164,0.001319894408447395,0.9212590489152872,0.8203455905289678,0.07196256449275093,0.04316544414635697,-0.05761670199583283,-0.34554125504942834,0.4031493180815372,-0.8927245530539555,0.2591706275247727,-0.06632300000000002,0.200722,-0.8994059999999999,0.13249599999999995,-0.12661199999999995,-0.901687,0.19881899999999997,0.32733399999999996,0.0022810000000000885,0.9703846646159636,0.9935197777193796,double,-0.8994059999999999
6,0.05,stand,0.01692067682706669,0.02472098883955832,0.002400096003842554,0.0268592596525004,-0.011447532409911462,0.007605154898720888,0.0014400576023055323,0.0019200768030740432,0.00024000960038383904,-0.0004800192007618492,0.003360134405366252,-0.002280091203647928,-0.5037361944195721,-0.5468221466236242,3.456000016596359e-05,-0.10077523248340933,0.07202476834618139,0.4031873299352011,-0.3455930896575494,0.7344190115238532,-0.4320155540736017,-0.06645199999999996,0.200532,-0.899424,0.13235100000000005,-0.12679000000000007,-0.901726,0.198803,0.32732200000000006,0.0023020000000000262,0.9729598889471056,0.9931850373865502,double,-0.899424
7,0.058333,stand,0.013320532821322843,0.024960998439935912,-0.00012000480019545849,0.01463717820964028,-0.006619002972134823,-0.008280033687700588,0.0022800912036470954,0.0026401056042201477,-0.0018000720028798337,-0.002760110404422268,0.0008400336013548863,-0.0006000240009602221,-0.4320345620717444,0.02880230413747639,-0.3024241934522996,0.10080806448356693,0.08640691241402909,-0.24481958517504776,-0.2736218893148228,-0.3024241934491019,0.2016161289676834,-0.06654400000000005,0.20034599999999997,-0.899438,0.13221699999999992,-0.12699099999999997,-0.9017299999999999,0.19876099999999997,0.32733699999999993,0.0022919999999999607,0.9705375674091836,0.995088591880537,double,-0.899438
8,0.066667,stand,0.007199424046070191,0.034797216222703674,-0.009599232061431363,-0.07485774233431193,0.16067050496658913,-0.0365018068792544,0.002159827213818393,0.0015598752099880916,-0.0002399808015361171,-0.00239980801535451,-0.0026397888169039487,-0.0007199424046075187,-0.7344742950867111,1.1802517137950277,-1.1374162780460646,-0.014430524337497275,-0.12961727792561265,0.18719596848376727,0.04323282806188599,-0.4175452865681347,-0.01438905731309054,-0.06658600000000003,0.200069,-0.89936,0.132137,-0.12730300000000006,-0.901656,0.19872300000000004,0.32737200000000005,0.0022959999999999647,0.9725816573054953,0.9939341849099594,double,-0.89936
9,0.075,stand,0.007680307212282855,0.031081243249731123,0.00324012960518412,-0.04625770934663944,0.04400481536394471,-0.030128899655961324,0.0008400336013415638,0.0024000960038358943,-0.0012000480019200288,0.0020400816032628416,0.0030001200048065256,0.001080043201727901,0.0577082882770508,-0.4459345941404721,1.540785031395115,-0.15838156875997006,0.10083052848287571,-0.11521267255297162,0.532808066556745,0.6768161312505075,0.21600691303677202,-0.06664300000000001,0.19982999999999995,-0.899397,0.13209000000000004,-0.127537,-0.901674,0.19873300000000005,0.32736699999999996,0.0022769999999999735,0.9725436627409729,0.9936910235226988,double,-0.899397
10,0.083333,stand,0.008760350414015322,0.027241089643582985,-0.003840153606148083,-0.0235457809403753,0.023144345759532253,0.005559841733248092,0.0020400816032695,0.0024000960038425517,-0.0009600384015361881,-0.00012000480018879679,-0.0028801152046110624,-0.0014400576023038656,0.1296103686226408,-0.4608368662124246,-0.8496679720787468,0.1440115206921799,7.989241593579726e-13,0.028802304138226393,-0.2592207372436861,-0.7056564513881656,-0.3024241934515498,-0.06669899999999995,0.199623,-0.899373,0.13201600000000008,-0.127788,-0.901654,0.19871500000000003,0.327411,0.0022809999999999775,0.9717016113708414,0.9946294965470189,double,-0.899373
11,0.091667,stand,0.006719462443011285,0.022438204943603653,-0.003839692824564555,-0.13313792230652496,0.18174083199042412,0.04138939474765879,0.0014398848092167038,0.0019198464122889385,-0.0005999520038394606,0.0025197984161259013,0.003959683225349266,0.0004799616030718183,-0.2448869655632396,-0.5763000599927208,5.5289366873986464e-05,-0.07201785385802693,-0.0576253409591569,0.043206911170713666,0.31675104587409403,0.8207101547828572,0.23038387393516743,-0.066743,0.19945200000000002,-0.8993460000000001,0.13198100000000001,-0.12794199999999994,-0.901618,0.198724,0.32739399999999996,0.0022719999999999407,0.9731572241964428,0.992136787756435,double,-0.8993460000000001
12,0.1,stand,0.03012120484819405,0.04212168486739348,-0.0020400816032695,0.015218719952228938,-0.08681631576470379,-0.09748015096305429,0.0015600624025009894,0.0022800912036470937,-0.0012000480019200269,-0.0022800912036470937,-0.002280091203660417,-0.00024000960038425518,2.8083214214787886,2.362112075337791,0.21596198503480785,0.014421888069637043,0.043231104207146875,-0.07201440034568171,-0.5760097947645495,-0.748802883596505,-0.08640000041474533,-0.06698099999999996,0.19912000000000002,-0.899339,0.13171100000000002,-0.12831200000000004,-0.901603,0.19869199999999998,0.32743200000000006,0.0022640000000000438,0.9723398390343541,0.9946109070021438,double,-0.899339
13,0.108333,stand,0.024480979239167422,0.028921156846272823,0.005640225609026676,0.060575065982624965,-0.058071894910201344,0.012295091532803488,0.0009600384015370224,0.0008400336013415638,0.00012000480019171145,0.001800072002878586,0.003120124805001984,0.0006000240009602226,-0.6768541472490857,-1.5841267276035846,0.9216737324248389,-0.07200576034608995,-0.1728138248296569,0.15841267276031915,0.48963917034989596,0.6480518431132132,0.10080806448391676,-0.06717699999999993,0.198886,-0.899385,0.13152200000000003,-0.12852699999999995,-0.901645,0.19869899999999996,0.32741299999999995,0.0022600000000000398,0.9752644989295525,0.9939137069263831,double,-0.899385
14,0.116667,stand,0.014038876889852848,0.01835853131749629,0.002879769618433403,-0.049152295235610016,0.0894511921446046,0.015158460175772624,0.00011999040075806724,0.005519558435324028,-0.00011999040076764214,-0.0015598752099880903,-0.0019198464122889352,-0.0008399328053755765,-1.2529520457540873,-1.2674136703595538,-0.33122822061354334,-0.1007976962777723,0.5614980602330765,-0.028797120345494764,-0.4031614126309903,-0.604748166221612,-0.17278099428075325,-0.06729300000000005,0.19877899999999998,-0.89941,0.13139199999999995,-0.12869599999999998,-0.901676,0.198685,0.32747499999999996,0.0022659999999999902,0.96813638948964,0.9956460401053688,double,-0.89941
15,0.125,stand,0.021120844833787844,0.019440777631104716,0.02616104644185055,0.09806862779191995,0.03194967953074445,0.01311865051411958,0.0007200288011594283,-0.003000120004799864,-0.0018000720028802516,0.0006000240009639698,0.002400096003842556,0.001440057602303868,0.8498701480781233,0.12987475262311615,2.793864973408996,0.07200748834769731,-1.022402308907224,-0.20161785696779203,0.25919827324517725,0.5184138264888389,0.27360979331326607,-0.06746299999999994,0.198592,-0.899643,0.13122100000000003,-0.12883799999999995,-0.901882,0.19868399999999997,0.32742999999999994,0.002238999999999991,0.9716566114380005,0.9952290649858443,double,-0.899643
16,0.133333,stand,0.00840033601344227,0.033241329653189364,-0.013920556822273477,-0.1585079458854655,0.2676651284943332,-0.044458035581689814,0.00036001440057305197,0.005160206408258156,0.00024000960038383885,-0.0019200768030740415,-0.0020400816032695,-0.0004800192007676777,-1.5265221193262406,1.6561324879496742,-4.8099847910865225,-0.043203456208613475,0.9792783407005897,0.24481958517509766,-0.3024241934522992,-0.5328426265585086,-0.2304184331059095,-0.06752999999999998,0.19835799999999998,-0.899525,0.131135,-0.12913200000000002,-0.90177,0.19866499999999998,0.32749,0.0022449999999999415,0.9689194751748478,0.9952627227959725,double,-0.899525
17,0.141667,stand,0.01655867530597214,0.020998320134386985,0.011039116870648092,-0.005966249381201431,0.0949921800759856,-0.010428415549241975,0.0004799616030722354,0.0004799616030722354,-0.0010799136069112808,0.0014398848092167062,0.0029997600192048016,0.0007199424046075204,0.9789224013114817,-1.4690436187667875,2.9949212494506394,0.014392512898870133,-0.5615844498663225,-0.15837811462624463,0.40316314042365675,0.6047326160876305,0.1439838739351093,-0.06766399999999995,0.198187,-0.8996259999999999,0.13100900000000004,-0.12928199999999995,-0.901856,0.198673,0.32746899999999995,0.0022300000000000653,0.9755741409061802,0.994325949540382,double,-0.8996259999999999
18,0.15,stand,0.01728069122765305,0.0276011040441627,0.004680187207489645,-0.002403042514424165,0.04706010303488807,-0.06190193420679981,-0.00036001440057305197,0.0007200288011527656,0.0003600144005759664,-0.001800072002878583,-0.0026401056042334686,-0.0013200528021121544,0.08664537641676599,0.7923657638036372,-0.7631020836623594,-0.10080115248353373,0.028809216138309134,0.1727982728293827,-0.388810369866229,-0.676810947250482,-0.24480921717504778,-0.06781099999999995,0.197963,-0.899662,0.13085000000000002,-0.12953400000000004,-0.901906,0.19866099999999998,0.32749700000000004,0.0022440000000000238,0.9760902473642257,0.9942378253966502,double,-0.899662
19,0.158333,stand,0.025321012840508944,0.016080643225731776,0.02220088803552029,0.09285947750133128,-0.05167342746254587,-0.0012296191190411965,0.0006000240009506456,0.0012000480019212759,-0.00048001920076809403,-0.0010800432017324792,-0.0006000240009506456,0.0006000240009602216,0.9648771886302517,-1.3825105986356552,2.102568202091759,0.11520921655150568,0.05760460827655224,-0.10080806448386653,0.08640691241402895,0.24481958517734564,0.23041843310600918,-0.068017,0.197839,-0.899851,0.13063000000000002,-0.12967299999999998,-0.9020859999999999,0.19864700000000002,0.32751199999999997,0.002234999999999987,0.9752750365840607,0.9977108038037011,double,-0.899851
20,0.166667,stand,0.01091912646988999,0.0404367650587924,-0.01223902087832198,-0.08416530595664633,0.10607809036945914,-0.06938738554206039,0.0005999520038436226,-0.0004799616030722338,0.00035997120230375903,0.0,0.0007199424046016899,-0.0004799616030718175,-1.728088117424879,2.92250081990168,-4.13245847298323,-8.638961725816998e-06,-0.20158502579715717,0.10079078510581381,0.12959481662256758,0.15838329800243992,-0.12958790545140847,-0.06810300000000002,0.197498,-0.899746,0.13053899999999996,-0.130004,-0.901988,0.19864199999999999,0.327502,0.0022419999999999662,0.9761658995656566,0.9985578948582339,double,-0.899746
21,0.175,stand,0.01704068162726219,0.018960758430336237,0.004800192007671796,0.014137155003019139,0.04616532604489933,0.015946481883801877,0.0002400096003909176,-0.0001200048001954588,-0.00048001920076767927,-0.00036001440057305316,0.0002400096003909176,0.0004800192007680956,0.7346160035248067,-2.5772238843701207,2.0447873378127706,-0.04319481620697299,0.04319654420698138,-0.1008028804837922,-0.04320345620701477,-0.05759424027490382,0.11520230455297198,-0.06824299999999994,0.197339,-0.89979,0.130394,-0.13015999999999994,-0.9020239999999999,0.19863699999999995,0.32749899999999993,0.0022339999999999582,0.976743448198931,0.9989229239555297,double,-0.89979
22,0.183333,stand,0.03912156486260029,0.025321012840515605,0.0001200048001954584,0.13283137142622725,-0.1726892524350835,0.08564657431377765,0.00048001920076851036,0.0009600384015370207,0.0006000240009598053,0.0,-0.0001200048001954584,0.00012000480019171124,2.6498119807197984,0.7632610596639102,-0.5616449306943878,0.028802304137476607,0.12961036862264236,0.12961036862204292,0.04320345620701462,-0.043203456208613426,-0.043203456207414385,-0.06856499999999999,0.19713599999999998,-0.899786,0.13006799999999996,-0.130372,-0.9020239999999999,0.19863299999999995,0.32750799999999997,0.0022379999999999622,0.9755705278679214,0.9997171459733606,double,-0.899786
23,0.191667,stand,0.02207823374129611,0.01991840652747772,0.0,-0.07258849688341285,-0.049367540625091105,0.02844698889887404,0.0007199424046016899,-0.00011999040076472805,-0.0002399808015357006,-0.0002399808015361169,-0.0002399808015427777,-0.0005999520038394596,-2.0450361316659658,-0.6482608966928101,-0.014399424069529432,0.028788481381471002,-0.1295930888291034,-0.10079251289842873,-0.028795392552929767,-0.014395968484199566,-0.08638790545130431,-0.068743,0.196969,-0.899788,0.129882,-0.13054000000000004,-0.902029,0.198625,0.32750900000000005,0.0022409999999999375,0.9763094775943162,0.9988511793763385,double,-0.899788
24,0.2,stand,0.012120484819394895,0.01716068642745759,-0.004200168006721135,-0.06147172248452271,0.11563898102593134,0.0006771098095413732,0.00036001440057305197,0.0009600384015370207,-0.00012000480019212759,0.00012000480018879679,0.0007200288011594272,0.0014400576023038656,-1.1949776697349344,-0.3309396495883988,-0.5040403224194325,-0.0431930882069648,0.1296086406218346,0.01439769606907151,0.04320000020699788,0.11520576055468666,0.24481094517500585,-0.06884100000000004,0.196834,-0.8997539999999999,0.12978199999999995,-0.130677,-0.901982,0.198623,0.327511,0.0022280000000000078,0.9759994661252367,0.9973091675572827,double,-0.8997539999999999
25,0.208333,stand,0.006240249609977332,0.003600144005757178,0.01776071042842162,0.018536752584677872,0.34918358237184155,0.11428693561910896,0.000960038401537024,0.000240009600384256,-0.0003600144005759676,0.0,0.001320052802110077,0.0006000240009602237,-0.7056564513881648,-1.627330183811406,2.6354108286502833,0.07200576034609066,-0.08640691241482858,-0.028802304138226403,-0.014401152068738399,0.07200576034449195,-0.10080806448381664,-0.06888499999999997,0.19680600000000004,-0.8999050000000001,0.12973,-0.13069599999999998,-0.9021250000000001,0.19861499999999999,0.327502,0.0022199999999999998,0.9760449369199968,0.9975832941370495,double,-0.8999050000000001
26,0.216667,stand,0.04019678425726961,0.04859611231101372,-0.011519078473720289,0.04913405076744533,-0.4513890807015795,-0.1968969911092333,0.0007199424046150115,-0.00011999040077138885,0.0002399808015357006,-0.00011999040076472805,-0.0016798656107461574,-0.0007199424046075181,4.074458201018987,5.3990842698891885,-3.5132936047686445,-0.02880921489344999,-0.043196544415124126,0.0719936647602193,-0.014397696276065268,-0.3599614126297374,-0.15838329800428852,-0.069214,0.19640000000000002,-0.899807,0.12939399999999995,-0.13111499999999993,-0.902035,0.19860799999999995,0.32751499999999995,0.0022280000000000078,0.9764394775942936,0.9969473767053769,double,-0.899807
27,0.225,stand,0.032521300852023274,0.00048001920076851036,0.035281411256452205,0.1693220625165652,-0.21784801540052176,0.007512588786290895,0.00048001920076851036,0.0001200048001954584,-0.0003600144005759664,0.00048001920076851036,0.00024000960037759357,-0.00024000960038425518,-0.9210948524236562,-5.774162139715009,5.616283418957453,-0.028791936139025677,0.028800576139067207,-0.07200230434557381,0.07200403234528237,0.2303942411044941,0.05759424027640255,-0.0694809999999999,0.19639700000000004,-0.900104,0.12912700000000005,-0.13111699999999998,-0.9023310000000001,0.19860799999999995,0.327514,0.00222700000000009,0.9767101553034918,0.9990201649094866,double,-0.900104
28,0.233333,stand,0.025801032041290778,0.016080643225731776,0.009000360014392916,0.018113367165715266,-0.05170493425029275,-0.007780337210165493,0.00048001920075518715,0.00036001440057305197,0.00024000960038425518,-0.0001200048001954584,0.00048001920076851036,0.0007200288011519328,-0.8064645158685336,1.8721497689863495,-3.1538523031392374,-1.5988501615970371e-12,0.028802304137476704,0.07200576034564035,-0.07200576034609003,0.028802304139075554,0.11520921655300459,-0.06969200000000009,0.196266,-0.900177,0.12891099999999994,-0.131247,-0.9024,0.19860300000000003,0.327513,0.002222999999999975,0.9766929239555497,0.998543919778934,double,-0.900177
29,0.241667,stand,0.010079193664503622,0.014278857691382351,0.0004799616030722354,0.010988679071798858,0.04208401140988436,-0.04609714556979005,0.0007199424046150139,-0.0002399808015361177,-0.0008399328053755793,-0.0002399808015361177,0.0005999520038436247,-0.00011999040076764255,-1.886469687639452,-0.21619696836446226,-1.022366020076878,0.028788481384668507,-0.07199366475991974,-0.1295827220734146,-0.014395968483400476,0.014390785106205258,-0.100794240691094,-0.06977,0.196145,-0.900188,0.12882499999999997,-0.13136099999999995,-0.902405,0.19859499999999997,0.32750599999999996,0.0022170000000000245,0.9759433547052043,0.9989046425135826,double,-0.900188
30,0.25,stand,0.03720148805952624,0.07068282731309321,-0.05472218888755689,-0.14310340943481006,-0.22560752642377516,-0.33747715316326005,-0.0002400096003909168,0.00048001920076851036,-0.0003600144005763828,0.0001200048001954584,0.0021600864034516352,0.0007200288011519328,3.254805519623497,6.768747104489476,-6.62452303979708,-0.11519884855465377,0.08640345641481188,0.057592512276394586,0.04320000020779741,0.18722361689763703,0.10080633648380831,-0.07008200000000009,0.19556,-0.899735,0.12851599999999996,-0.131932,-0.9019429999999999,0.19859800000000005,0.327492,0.0022079999999999878,0.9768429239555261,0.9961998479939267,double,-0.899735
31,0.258333,stand,-0.008160326413064703,0.001800072002878589,0.01764070562822616,-0.11230530492885354,0.5300467740349886,0.0269501155372201,0.000480019200768512,0.0008400336013415652,0.0004800192007680956,-0.002280091203647101,-0.00024000960037759439,0.0027601104044160294,-5.443635482130213,-8.266261287677283,8.683894697681895,0.0864069124156283,0.04320345620701497,0.100808064483917,-0.2880230413827632,-0.2880230413811635,0.24481958517509922,-0.07001000000000002,0.195552,-0.899878,0.12856500000000004,-0.13194899999999993,-0.902067,0.19857500000000006,0.32750099999999993,0.0021889999999999965,0.9763099279971227,0.9940197942366811,double,-0.899878
32,0.266667,stand,0.011279097672190834,-0.006239500839932378,0.022318214542838888,-0.07053423040256174,0.2611339694534826,0.06563738966960793,-0.000599952003830301,0.0005999520038436226,0.000599952003839876,0.002519798416125897,-0.002039836813060324,-0.0034797216222699485,2.332544286687727,-0.9646715674119222,0.5612561692599858,-0.12958617765764482,-0.02880748710078502,0.014390785105805165,0.5759406791184298,-0.21596198856284232,-0.7487199456066681,-0.07010899999999998,0.19560900000000003,-0.900059,0.128492,-0.13191399999999998,-0.902282,0.19860099999999997,0.327523,0.002222999999999975,0.9760380877454167,0.9920734656497027,double,-0.900059
33,0.275,stand,-0.022920916836679642,-0.0364814592583667,0.016680667226689025,0.008543140310920289,0.38069816101501774,0.23703047306948036,0.0008400336013415596,0.0,-0.0006000240009602196,0.002880115204604391,0.0010800432017324755,-0.0010800432017283122,-4.1041659077007475,-3.6291801774191996,-0.6765327392475506,0.17280518482801566,-0.07199712034604826,-0.1440028806912385,0.0432397442071874,0.3744005777982463,0.28797292938217045,-0.06991099999999995,0.195913,-0.900203,0.12870700000000002,-0.13160099999999997,-0.9024300000000001,0.19861799999999996,0.32751399999999997,0.00222700000000009,0.9760094661252396,0.9945665515791837,double,-0.900203
34,0.283333,stand,-0.0015600624024876715,-0.011880475219010679,0.03072122884915812,-0.017389963839001283,0.5028953664222241,0.07783248240873641,0.0,-0.0006000240009639708,-0.00012000480019171164,-0.002760110404415613,-0.000480019200768512,0.001200048001920031,2.5634050683057747,2.952236174169696,1.684934792087979,-0.10080806448356674,-0.07200576034609052,0.057604608276552165,-0.6768541472482921,-0.18721497689919492,0.2736218893133744,-0.06989800000000002,0.196007,-0.90046,0.12869699999999995,-0.13150599999999996,-0.902676,0.19859499999999997,0.32751299999999994,0.0022159999999999958,0.9768201553034872,0.9949204267773917,double,-0.90046
35,0.291667,stand,0.02615790736740344,0.009599232061438015,-0.002399808015361169,-0.007200568299873097,-0.1939283187670058,-0.01911325882302934,-0.0008399328053730787,0.0,-0.0007199424046079344,-0.0011999040076739237,0.0016798656107461574,0.0023998080153590875,3.325890301162837,2.577358684959044,-3.974206487223333,-0.10078387393485456,0.07199712034604874,-0.07198675358965949,0.1872097908257365,0.2591654441462284,0.14395968483789962,-0.07012299999999994,0.19592699999999996,-0.9004460000000001,0.12846900000000006,-0.13157200000000002,-0.902636,0.198592,0.327499,0.0021899999999999142,0.9762562386094555,0.9947240596919229,double,-0.9004460000000001
36,0.3,stand,0.02064082563303269,0.02052082083283057,-0.011280451218053369,0.00985110350765139,-0.14751090204529707,-0.02259909435648317,0.00012000480018213558,-0.000720028801152768,0.0003600144005759676,0.00012000480018879719,-0.0015600624025009946,-0.0018000720028802544,-0.6620762911761385,1.3106430782902414,-1.0657198131155914,0.11519712055144805,-0.08640691241482897,0.12960000062209343,0.15839539275923725,-0.38880691386621385,-0.504005762419219,-0.07029400000000008,0.19574999999999998,-0.900349,0.12829799999999997,-0.13175600000000004,-0.9025569999999999,0.19859200000000005,0.327506,0.0022079999999999878,0.9765634797425661,0.9960249196139089,double,-0.900349
37,0.308333,stand,0.027961118444728997,0.014520580823230737,0.01488059522381045,-0.0063137978811646615,-0.11073457564977329,-0.15607532583101427,0.000240009600390916,0.0006000240009639668,0.0,-0.0001200048001887964,-0.00012000480018213478,0.00024000960038383804,0.8784702762146017,-0.7200576034561152,3.1394511510696876,0.014401152071136436,0.15841267276091794,-0.043203456207364224,-0.028802304137476607,0.17281382483125574,0.24481958517509705,-0.07052499999999995,0.19563400000000003,-0.900473,0.12806400000000007,-0.13187799999999994,-0.902679,0.19858900000000002,0.32751199999999997,0.0022060000000000413,0.976862923955521,0.9995100824547507,double,-0.900473
38,0.316667,stand,0.014998800095997415,0.008279337652992758,0.008519318454528876,0.017598362632022947,-0.09875089460386527,-0.15982628206307498,-0.0008399328053730844,0.0007199424046083555,0.001439884809215462,-0.0002399808015361185,0.0002399808015294577,0.00011999040076805925,-1.555353773545915,-0.7488892692870187,-0.7632921489418778,-0.12958272207391486,0.014389057312741713,0.17277235531743104,-0.014395968484199998,0.04319481662006174,-0.014401151861744597,-0.07065699999999997,0.195571,-0.900532,0.12793700000000002,-0.13194500000000003,-0.902749,0.198594,0.32751600000000003,0.0022170000000000245,0.9748036929144837,0.9994000479961671,double,-0.900532
39,0.325,stand,0.04524180967238199,0.022680907236288725,0.015000600023992583,-0.031456882579744314,-0.17723396278046974,-0.27513478953035736,-0.0003600144005730508,-0.000120004800195458,0.0006000240009602196,-0.0002400096003842544,0.000240009600390916,0.0007200288011519304,3.6293063214189907,1.7282574802947206,0.7777848997316309,0.057592512276494846,-0.10079769648431658,-0.10078732848376801,-3.456000016308152e-06,3.4560016150607315e-06,0.07200748834559807,-0.0710369999999999,0.19538099999999997,-0.900652,0.12755800000000006,-0.13213199999999997,-0.902868,0.19859499999999997,0.32751299999999994,0.0022159999999999958,0.9766567367128498,0.998673297015735,double,-0.900652
40,0.333333,stand,-0.003240129605184125,-0.04476179047162044,0.0343213728549153,-0.09350118431606094,0.18036267727558916,0.05111633174199619,0.00012000480018213558,0.000240009600384256,0.00024000960038383963,0.000480019200768512,0.0019200768030607246,0.0003600144005759676,-5.818065435925385,-8.093447462847635,2.3185854831300574,0.057604608274953506,0.0432034562078141,-0.043203456207414004,0.08640691241482877,0.20161612896553616,-0.04320345620736394,-0.07100899999999999,0.19575599999999999,-0.900936,0.12758900000000006,-0.13174300000000005,-0.903151,0.19859800000000005,0.32749900000000004,0.002215000000000078,0.9772499759990454,0.9966472549673686,double,-0.900936
41,0.341667,stand,0.01295896328293699,0.00683945284376934,0.010799136069118599,-0.020148989502562897,0.0896730026566496,-0.05712858814473958,-0.00035997120230084497,-0.00011999040076472805,0.0002399808015357006,-0.0008399328053797395,-0.0010799136069025348,-0.0009599232061432187,1.9437356477227143,6.191653865537525,-2.8224426188860905,-0.05759251289692585,-0.0431965444143249,-3.4555853298584243e-06,-0.15838157021217306,-0.3599700515914635,-0.1583798424189087,-0.07111999999999996,0.19569800000000004,-0.901024,0.12747400000000003,-0.13180899999999995,-0.903249,0.198594,0.327507,0.0022249999999999215,0.97700172838438,0.9972145451809551,double,-0.901024
42,0.35,stand,0.014520580823237495,0.01692067682707339,-0.008760350414015352,0.018574029219086775,0.02570371454743057,-0.0742648553965073,0.0,0.0,-0.0007200288011519352,-0.0006000240009573092,-0.0001200048001954588,0.0,0.1874016009000971,1.2097952698072814,-2.3472322672667705,0.04319827220698978,0.014399424068730151,-0.11520576055293871,0.028790208139017268,0.11519366455143147,0.11519539255288865,-0.071241,0.19555700000000004,-0.900957,0.12734800000000002,-0.13195099999999998,-0.903176,0.19858900000000002,0.327508,0.002218999999999971,0.9766099519980801,0.9989801553034969,double,-0.900957
43,0.358333,stand,0.020880835233410146,0.007440297611905225,-0.013320532821309464,0.06401295911010478,-0.06733625181977733,-0.04429107844960515,0.0,0.0004800192007685088,0.0002400096003842544,-0.00132005280211673,0.0003600144005730508,0.0003600144005759652,0.7632610596631013,-1.1376910134607137,-0.5472437786264364,0.0,0.05760460827655187,0.11520921655300438,-0.08640691241562676,0.05760460827655198,0.04320345620736394,-0.071415,0.19549900000000003,-0.9008440000000001,0.12716299999999997,-0.13201000000000002,-0.903062,0.19857799999999998,0.32750900000000005,0.0022179999999999422,0.9769255370304804,0.9976419404531018,double,-0.9008440000000001
44,0.366667,stand,0.007919366450685196,0.051715862730983234,-0.05771538276938616,0.18051140857514614,0.014552858641149214,-0.025241163127432024,-0.0007199424046016899,0.00011999040076472805,-0.000599952003839876,-0.000479961603065573,0.0004799616030722338,-0.0004799616030718175,-1.55525183378029,5.312642802865127,-5.326955837302215,-0.08638617765799007,-0.04320000000045361,-0.1007873295205339,0.10080287965576627,0.014392512898870039,-0.10078905731314877,-0.07148699999999997,0.195069,-0.900368,0.127093,-0.13243700000000003,-0.902585,0.19857999999999998,0.327506,0.0022170000000000245,0.9762553243992538,0.9986144701963346,double,-0.900368
45,0.375,stand,0.029041161646461665,0.03480139205568381,0.012120484819394935,0.186485116704971,-0.2997298898558873,-0.1010000390813602,0.00012000480018213558,-0.0006000240009573092,0.0015600624024959984,-0.0010800432017324826,0.0008400336013415652,-0.00024000960038383963,2.5347168121656694,-2.0298176737428855,8.380639336227203,0.10079769648191858,-0.08640518441402126,0.2592120972441953,-0.07201267234692321,0.043210368207048155,0.028795392138242948,-0.07172800000000001,0.194774,-0.900456,0.126842,-0.13272000000000006,-0.902688,0.19857000000000002,0.32749400000000006,0.0022320000000000118,0.9748870402728601,0.9976847400090392,double,-0.900456
46,0.383333,stand,-0.001320052802110077,0.010200408016320887,-0.010920436817466994,-0.07478983569930084,0.13302039679515512,-0.0725854107052837,0.0,-0.0006000240009639708,-0.0004800192007680956,-0.00012000480018879719,-0.00012000480018213558,-0.000240009600384256,-3.6434914734875576,-2.952236174170525,-2.7650211972713294,-0.014401152067939023,-7.994185753252674e-13,-0.2448195851750989,0.11520921655390469,-0.11520921655150644,-4.996528732614267e-14,-0.07171700000000003,0.19468399999999997,-0.9003690000000001,0.12685200000000002,-0.13280599999999998,-0.902599,0.19856900000000005,0.32748999999999995,0.0022299999999999542,0.9764193239254653,0.9995100824547501,double,-0.9003690000000001
47,0.391667,stand,0.004799616030722338,0.0033597312214989758,0.012598992080622824,0.03886914520820663,0.08101192191118839,-0.10556701641363722,-0.0010799136069025348,-0.0005999520038369618,0.0007199424046079344,-0.0010799136069158564,-0.00011999040077138885,-0.0002399808015357006,0.7343015158186237,-0.8208155501346177,2.8221056993148306,-0.1295792664869851,8.638964123941069e-06,0.14398387393520864,-0.1151798424198534,1.727791066322935e-06,3.4555853798177163e-06,-0.071766,0.19465100000000002,-0.9004679999999999,0.12680299999999994,-0.13283499999999998,-0.902706,0.19856899999999994,0.327486,0.0022380000000000733,0.9752369155892031,0.9981454246669198,double,-0.9004679999999999
48,0.4,stand,0.010320412816502953,0.005160206408258139,-0.005160206408258139,-0.05922186613883757,0.027128404818566685,-0.013032334399601848,0.0007200288011461016,-0.0002400096003842544,-0.0006000240009602196,-0.0001200048001887964,0.0002400096003775928,0.0004800192007680924,0.6625221151782781,0.21606566503770017,-2.1311890662283557,0.21600172903499684,0.043194816206973,-0.15840230476036823,0.11519366455382887,0.0432017282070059,0.08640345641471138,-0.07184599999999997,0.194606,-0.90043,0.12671600000000005,-0.13287600000000005,-0.902659,0.19856200000000002,0.32748200000000005,0.0022290000000000365,0.9760974839497054,0.9990834481989426,double,-0.90043
49,0.408333,stand,0.016560662426507,0.00012000480018879719,0.011640465618626424,0.0659705827678482,0.03737996189280713,-0.11323499006356083,-0.0001200048001954588,-0.000720028801152768,0.000240009600384256,0.00012000480018879719,0.000480019200768512,0.00024000960038383963,0.7488599075967913,-0.6048483869037986,2.01616128967774,-0.10080806448356683,-0.05760460827655284,0.10080806448391669,0.028802304137476798,0.02880230413907594,-0.028802304138275933,-0.07198500000000008,0.19459900000000002,-0.9005249999999999,0.12657899999999994,-0.13287300000000002,-0.902754,0.19856400000000002,0.32747200000000004,0.0022290000000000365,0.9764293239254682,0.9990834481989375,double,-0.9005249999999999
50,0.416667,stand,0.011759059275249745,0.0038396928245778704,-0.0002399808015294561,0.013476871022950861,0.03170248243576653,-0.02374192921166115,-0.00035997120230084497,-0.0007199424046083507,-0.0008399328053755765,-0.00035997120230084497,-0.0007199424046016899,-0.0008399328053755765,-0.5761462864479542,0.4463268567781461,-1.4255395272565237,-0.028793664759465553,1.0366755989591536e-05,-0.1295827220734139,-0.05759251289772519,-0.14398387393450934,-0.12958272207336394,-0.07208599999999998,0.19456099999999998,-0.90053,0.12647800000000003,-0.132911,-0.902759,0.19856400000000002,0.327472,0.0022289999999999255,0.9757710831703805,0.9980610831703876,double,-0.90053
51,0.425,stand,0.017520700828030703,0.004560182407294202,0.007440297611905274,0.030300027538573256,-0.09139549978835017,-0.08747980360797229,0.00036001440057305316,0.0,-0.000240009600384256,0.000480019200768512,-0.0001200048001954588,0.0003600144005759676,0.6914246433194494,0.0864622084142966,0.9216702764232269,0.08640172841400455,0.0863965444147789,0.07199366434553246,0.10080288048354243,0.07199539234444169,0.1439994246911733,-0.07222899999999999,0.194523,-0.900594,0.12633600000000006,-0.13295,-0.902818,0.19856500000000005,0.327473,0.0022240000000000038,0.9770388608993471,0.9989801553034918,double,-0.900594
52,0.433333,stand,0.018360734429385468,0.003960158406336867,0.0,-0.003075910173807744,-0.1495312761533234,-0.07852989902309651,-0.00012000480018213478,0.0008400336013482211,0.0007200288011519304,0.0,0.0007200288011594248,0.0,0.10080806448515078,-0.07200576034529373,-0.8928714282857606,-0.05760460827495331,0.1008080644843655,0.115209216553004,-0.05760460827655226,0.10080806448516501,-0.043203456207364224,-0.07238299999999998,0.19449700000000003,-0.900588,0.126183,-0.13297699999999996,-0.902818,0.19856599999999996,0.327474,0.0022299999999999542,0.9758452021089818,0.9987999519980677,double,-0.900588
53,0.441667,stand,0.004799616030709049,0.0027597792176620325,0.005279577633781285,-0.02177196964235012,0.13341175640312797,-0.048702632255382426,-0.00035997120231416894,-0.0011999040076805924,-0.0002399808015357022,0.00035997120230084735,-0.000479961603072237,-0.0002399808015357022,-1.627204031518658,-0.14403397992258715,0.6334986361628647,-0.02879366476266325,-0.24477293124895907,-0.11519193696755917,0.043193088828995606,-0.14398732952143853,-0.028795392552880196,-0.07242599999999999,0.19446400000000003,-0.9006339999999999,0.12614600000000004,-0.13300399999999996,-0.902864,0.19857200000000003,0.327468,0.0022300000000000653,0.9755741409061739,0.9989230531943198,double,-0.9006339999999999
54,0.45,stand,0.004440177607112037,0.0,0.0010800432017324755,0.006309878595928025,0.1830389458429682,-0.008403566120254852,0.000120004800195458,0.0004800192007685088,0.0004800192007680924,0.0006000240009639668,0.0,-0.0002400096003842544,-0.043134336205089434,-0.3311867535895861,-0.5039642904174717,0.05759942427812612,0.20159884896785002,0.08640345641471157,0.028807488139099773,0.05759769627651926,-3.456000066266934e-06,-0.07246200000000003,0.19446800000000003,-0.900639,0.126114,-0.13300399999999996,-0.902875,0.19857600000000003,0.327472,0.0022360000000000158,0.9764910415123512,0.9989229239555251,double,-0.900639
55,0.458333,stand,0.008040321612869245,0.000480019200768512,-0.0012000480019146184,0.0019786499532551895,0.06082510252492774,-0.01606161727178203,-0.0001200048001954588,0.0008400336013415652,-0.000120004800192128,0.00012000480018879719,-0.0003600144005863764,0.000240009600384256,0.43203456207334895,0.057604608276552643,-0.27362188931322445,-0.02880230413907565,0.043203456207015156,-0.07200576034564045,-0.05760460827735158,-0.04320345620861362,0.05760460827655245,-0.0725300000000001,0.194471,-0.90063,0.12604799999999994,-0.13301100000000005,-0.9028630000000001,0.19857800000000003,0.32748200000000005,0.0022330000000000405,0.9762416571805819,0.9992516385881761,double,-0.90063
56,0.466667,stand,0.01775857931364601,0.0005999520038436226,0.006959443244540729,-0.03417364422780185,0.008080021308407966,0.0009638453781835967,-0.00011999040075806724,-0.00035997120230084497,-0.0004799616030718175,0.0004799616030722338,-0.0004799616030589122,-0.0008399328053755765,1.166097636282308,0.014390785106204767,0.9790606247246627,1.7277942634460501e-06,-0.14398905731250408,-0.04319136103667977,0.04319136103712939,-0.014392512895672631,-0.1295827220734139,-0.07267899999999994,0.194463,-0.900692,0.12590400000000002,-0.13301999999999997,-0.9029280000000001,0.19858299999999995,0.32748299999999997,0.0022360000000000158,0.9766202776750734,0.99820014398849,double,-0.900692
57,0.475,stand,0.01116044641785791,0.00012000480018879719,0.0015600624024876715,-0.0004861771895562181,0.01370761275251606,-0.01371200229083467,0.00036001440057305316,0.0,-0.0003600144005759676,0.001080043201725821,-0.0002400096003909176,0.000120004800192128,-0.7918076197993656,-0.05759596827731028,-0.6479516191111329,0.05760288027494559,0.04319827220698978,0.01439424006910479,0.07201267234532448,0.02879539213584486,0.11519712055294694,-0.07276899999999997,0.19446200000000002,-0.900708,0.12582,-0.133023,-0.90294,0.19858899999999996,0.327485,0.0022320000000000118,0.9768314379200965,0.9981452021089863,double,-0.900708
58,0.483333,stand,0.009480379215174717,0.010680427217089328,-0.011880475219003938,-0.08131751775496822,-0.03537933430054082,-0.03941270860070147,0.0,-0.000120004800195458,0.0004800192007680924,0.0008400336013482211,0.000120004800195458,-0.0009600384015361848,-0.20161612896714107,1.2673013820833419,-1.612929031740256,-0.043203456207014476,-0.014401152069537682,0.10080806448386614,-0.028802304137477374,0.04320345620861324,-0.12961036862214187,-0.07284800000000002,0.194372,-0.900605,0.12574799999999997,-0.13311099999999998,-0.902849,0.198596,0.32748299999999997,0.0022440000000000238,0.9767353458887105,0.9978644989295457,double,-0.900605
59,0.491667,stand,0.008039356851443264,-0.011399088072955562,0.01295896328293699,0.08080902938670446,0.007270436148724685,-0.005431295915868124,0.00011999040077138885,-0.0005999520038369618,-0.0004799616030718175,-0.00011999040077138885,-0.00035997120230084497,0.000959923206143635,-0.17290885093969902,-2.6493298884143113,2.980494180698453,0.014397696276864498,-0.057589057312395414,-0.1151884813822785,-0.1151936647611722,-0.05759251289852442,0.230376962764557,-0.07291399999999992,0.19446200000000002,-0.900717,0.12568000000000001,-0.13301899999999994,-0.902949,0.19859399999999994,0.32748099999999997,0.0022320000000000118,0.9763839555438775,0.9982796725727865,double,-0.900717
60,0.5,stand,0.0066002640105637085,0.009360374414979321,-0.012000480019199476,-0.0772232056078796,0.00774623071874172,-0.025872024218842195,0.0007200288011461063,0.000240009600384256,-0.0004800192007680956,0.001440057602305536,-0.0001200048001954588,-0.001320052802112159,-0.1726980488275002,2.4912351479581103,-2.9952530063766383,0.07200748834450005,0.10079942448352573,-6.912000033370985e-06,0.18721324889918742,0.02879712013745191,-0.2736080653133085,-0.072963,0.194386,-0.900621,0.125637,-0.133098,-0.90286,0.1986,0.327484,0.002238999999999991,0.9761132771763853,0.9967379682326671,double,-0.900621
61,0.508333,stand,0.006720268810759123,-0.0008400336013482211,0.0003600144005730508,-0.0022416192706987636,0.008637202233186795,-0.0033831862511904346,0.0,0.0002400096003842544,0.0003600144005759652,0.0002400096003842544,-0.000240009600390916,0.0006000240009598033,0.014401152069532427,-1.2240979258763351,1.483318663119222,-0.08640691241402895,-1.9191146098837303e-16,0.10080806448386623,-0.14401152069138085,-0.014401152069537586,0.23041843310595878,-0.07301900000000006,0.19439500000000004,-0.900621,0.12558299999999994,-0.13309300000000002,-0.9028579999999999,0.198602,0.32748800000000006,0.0022369999999999335,0.976908860899343,0.998851041512349,double,-0.900621
62,0.516667,stand,0.005879529637624912,-0.0008399328053730844,0.0005999520038436266,0.007182886689580288,0.006289066800625152,-0.013473765825468637,-0.0005999520038436266,-0.0013198944084519821,0.00011999040076805925,0.000479961603072237,0.00011999040077138965,-0.00035997120230376147,-0.10088063032567984,1.2094549452456355e-05,0.02879020917573521,-0.07198848138272498,-0.18717350717977507,-0.02880057593087441,0.028791936967600667,0.04319654441592365,-0.11519020917489443,-0.07307300000000005,0.19439099999999998,-0.900625,0.12553799999999998,-0.133085,-0.9028660000000001,0.19861100000000004,0.327476,0.0022410000000000485,0.9751653228435664,0.9989802776750658,double,-0.900625
63,0.525,stand,0.00504020160806268,-0.002760110404415595,0.002400096003842544,0.009793042480537011,0.013128694103584398,-0.00893143060783802,0.0007200288011594248,0.0007200288011527632,-0.0006000240009598033,0.001080043201725814,-0.0004800192007685088,0.0001200048001921272,-0.10072339248316668,-0.23043052910626452,0.21602592103671062,0.15840403276167597,0.24480057717565545,-0.08640518441471973,0.07201267234532274,-0.07200403234608137,0.057599424276477455,-0.07310899999999998,0.19441999999999998,-0.9006500000000001,0.12550499999999998,-0.13306600000000002,-0.902885,0.19861399999999996,0.327486,0.002234999999999987,0.9756801496456187,0.9980200218135533,double,-0.9006500000000001
64,0.533333,stand,0.00864034561381995,-0.005280211208447005,-0.0020400816032695203,-0.0022714822443814387,0.005840786370390304,0.020388258518244953,-0.0007200288011594343,0.0009600384015370304,0.0007200288011519401,0.0002400096003842576,0.0001200048001954596,-0.0007200288011519401,0.4320345620733593,-0.30242419345151006,-0.5328426265585149,-0.17281382483125793,0.028802304138277855,0.15841267276032106,-0.10080806448356702,0.07200576034609071,-0.10080806448386835,-0.073187,0.19447199999999998,-0.900627,0.12543500000000002,-0.133021,-0.902874,0.19862200000000002,0.327493,0.002246999999999999,0.9751975259430923,0.9987193239254696,double,-0.900627
65,0.541667,stand,0.0027597792176619956,0.0005999520038369578,0.0009599232061444612,-0.003603535687118413,0.008373323624187214,-0.030174305136166805,-0.00011999040075806644,-0.0008399328053730732,-0.000839932805375571,0.0004799616030722306,-0.00011999040077138805,0.0,-0.7056115186174597,0.7055631404228363,0.35997177938732405,0.07199884814031238,-0.21597926648789176,-0.1871804183498319,0.028791936967599133,-0.028797120346393788,0.08639654441467898,-0.07321099999999992,0.19446000000000002,-0.900642,0.12541600000000003,-0.133027,-0.902882,0.19862699999999994,0.32748700000000003,0.0022399999999999087,0.9756101843110465,0.9991754448392871,double,-0.900642
66,0.55,stand,0.00552022080883119,-0.0019200768030740352,0.0008400336013415596,0.007305854743452197,0.011573060660081848,-0.016194668702267337,0.0004800192007685088,0.0004800192007685088,-0.0001200048001921272,0.0,0.000240009600390916,-0.0002400096003842544,0.3312662415899655,-0.30241555345145593,-0.014387328069470915,0.07200403234448251,0.15840057676005956,0.08639481641466948,-0.05759769627651849,0.04320172820860465,-0.028802304138275937,-0.0732529999999999,0.19448000000000004,-0.90065,0.12537000000000004,-0.13300899999999993,-0.902891,0.19862299999999994,0.327489,0.0022410000000000485,0.9764410415123518,0.9994342919467203,double,-0.90065
67,0.558333,stand,0.003960158406343581,-0.0007200288011527728,-0.0001200048001954596,-0.0012043490458004524,0.022248524447177,-0.017319921555562813,-0.00036001440058637876,0.00012000480018879799,0.0010800432017283265,0.0006000240009639748,-0.0002400096003909192,-0.00024000960038384123,-0.18721497689759062,0.14401152069138046,-0.11520921655310548,-0.10080806448516684,-0.043203456207814,0.1440115206912834,0.07200576034609148,-0.05760460827815188,4.9581464404166255e-14,-0.07328900000000005,0.19448700000000002,-0.90064,0.125342,-0.13300499999999998,-0.9028919999999999,0.19863100000000006,0.327492,0.0022519999999999207,0.975572045278972,0.9988510415123433,double,-0.90064
68,0.566667,stand,0.014038876889852754,-0.0020398368130536497,0.013558915286780522,0.038922804769888554,0.011159893016507256,0.007559358850014345,0.0010799136069158492,-0.0002399808015361153,0.0,0.0004799616030722306,0.0004799616030722306,-0.0009599232061436286,1.2093494700634866,-0.15836429228472126,1.6413391033088407,0.17277753869717027,-0.04319481662165953,-0.12959481662206843,-0.014406335240189977,0.08638963324491772,-0.08638272207340796,-0.07339700000000005,0.194502,-0.900753,0.12522899999999998,-0.132984,-0.903013,0.19862600000000002,0.327486,0.0022599999999999287,0.9755562386094454,0.9980405649605758,double,-0.900753
69,0.575,stand,0.0016800672026831415,-0.001920076803067399,0.003360134405379606,0.015624105651116157,0.08518648490246862,-0.01013829148848485,-0.0007200288011461112,-0.0002400096003842576,-0.0007200288011523564,0.0007200288011527728,0.0006000240009639748,0.0004800192007680988,-1.483116487119852,0.014371776069393,-1.2239026618745963,-0.2160017290365987,-3.4560000170758437e-06,-0.08640691241478016,0.028809216138310854,0.014408064069572216,0.17280000082944205,-0.07341699999999995,0.19451599999999997,-0.900787,0.12522100000000003,-0.132963,-0.903037,0.19863799999999998,0.32747899999999996,0.0022499999999999742,0.9757563706774173,0.9982449369199937,double,-0.900787
70,0.583333,stand,0.0032401296051841034,-0.0004800192007685088,0.0002400096003775928,-0.0005837205548528431,0.027376784698320614,-0.0167683758245514,0.0004800192007685088,-0.0002400096003842544,-0.0003600144005759652,-0.000120004800195458,-0.0004800192007685088,-0.0002400096003842544,0.18721497689919062,0.17281382482885926,-0.37442995379839195,0.1440115206905814,3.8382292197674606e-16,0.04320345620741506,-0.10080806448436665,-0.12961036862264239,-0.08640691241477862,-0.07343999999999995,0.19451799999999997,-0.9007919999999999,0.125193,-0.132963,-0.903041,0.19863299999999995,0.32748099999999997,0.0022490000000000565,0.9764329239555306,0.9990834481989347,double,-0.9007919999999999
71,0.591667,stand,-0.0034797216222636805,-0.004319654427650075,0.0059995200383962215,0.0328386484967281,0.11847232494370456,-0.026341209406865875,0.0,0.0,0.0007199424046075133,-0.00011999040076472725,0.0004799616030722306,-0.000479961603071398,-0.8063176418823773,-0.4607193696762103,0.6910859656849754,-0.05759769627651849,0.028798848138259246,0.12958444986602716,1.7277934642128253e-06,0.11518848138237726,-0.028791936967499612,-0.073411,0.194554,-0.900836,0.12522099999999997,-0.13292299999999996,-0.903095,0.19863199999999998,0.32747699999999996,0.002259000000000011,0.9762100959923208,0.998851179376343,double,-0.900836
72,0.6,stand,0.008760350414015409,0.0043201728069166365,-0.004680187207489692,-0.029539997668332468,-0.105898025817597,-0.013908360305584653,0.0004800192007685152,0.0,0.0001200048001921288,-0.0001200048001954596,0.0004800192007685152,0.00024000960038384123,1.468867399049466,1.0368207409776542,-1.2816161341516872,0.057604608276553414,0.0,-0.07199539234554063,-1.7280008079142116e-06,6.9120000341516875e-06,0.08640000041464609,-0.07347999999999999,0.19451799999999997,-0.9007959999999999,0.12514699999999995,-0.132955,-0.9030539999999999,0.19862699999999994,0.32747299999999996,0.0022579999999999822,0.9765953458887112,0.999083448198935,double,-0.9007959999999999
73,0.608333,stand,0.002760110404415595,-0.0002400096003842544,0.0010800432017324755,-0.008111159340492736,0.021208303578713394,-0.019416504557697056,-0.0007200288011594248,0.0004800192007685088,0.0003600144005759652,-0.0001200048001887964,0.00012000480018213478,0.00024000960038383804,-0.7200576034561129,-0.5472437786272497,0.69125529931863,-0.1440115206921799,0.05760460827655187,0.02880230413822578,7.996169922595042e-13,-0.04320345620861381,-3.8382292197674606e-16,-0.07350900000000005,0.19452399999999997,-0.900802,0.12512299999999998,-0.13295200000000007,-0.903061,0.19863200000000003,0.32747600000000004,0.002259000000000011,0.975847887580312,0.9995100824547507,double,-0.900802
74,0.616667,stand,0.00035997120230084735,0.0010799136069092029,0.00011999040077138965,-0.0070158801937503165,0.04227495496570029,-0.014202356680072635,0.0002399808015427793,-0.0005999520038369659,-0.0007199424046075229,-0.0008399328053797451,-0.00011999040075806804,-0.0008399328053755821,-0.2879936647605905,0.1583781146260457,-0.1151971203457033,0.1151919369693076,-0.12958617765844502,-0.12958444986603004,-0.08638444986692499,-0.028797120343197046,-0.1295827220733653,-0.07350999999999996,0.19451000000000002,-0.900809,0.12511299999999997,-0.13296199999999997,-0.903069,0.19862299999999994,0.327472,0.0022600000000000398,0.9757876774361455,0.9980101843110386,double,-0.900809
75,0.625,stand,0.0008400336013415596,0.0018000720028785772,-0.0006000240009639668,-0.012470429374245336,0.014694041399079864,-0.008069371878791077,-0.000120004800195458,-0.0007200288011527632,-0.0001200048001921272,0.0004800192007685088,0.0002400096003775928,0.0003600144005763816,0.05760979227657629,0.08642246441490115,-0.08640518441561904,-0.04320000020859664,-0.014409792069578407,0.071995392345541,0.15840057676086025,0.04320172820540733,0.14399942469122268,-0.07351799999999997,0.19448900000000002,-0.900805,0.12511,-0.132975,-0.903061,0.19862799999999997,0.32746400000000003,0.0022560000000000358,0.9762070678821194,0.9989229239555344,double,-0.900805
76,0.633333,stand,-0.0031201248049886453,0.002280091203647086,0.002040081603269493,0.0024995494723327565,0.016204604979770713,-0.03030966971804789,0.000120004800195458,0.0004800192007685088,-0.00012000480019171084,-0.0003600144005730508,-0.000120004800195458,-0.0008400336013440577,-0.4752380182803538,0.05760460827655187,0.31682534552183467,0.028802304139075363,0.14401152069137968,4.996528732614234e-14,-0.10080806448356606,-0.04320345620701419,-0.14401152069127976,-0.07349099999999997,0.19447400000000004,-0.900823,0.125133,-0.13299500000000003,-0.903085,0.19862399999999997,0.32746900000000007,0.0022619999999999862,0.976531437920091,0.9984637093988034,double,-0.900823
77,0.641667,stand,0.001559875209974779,0.0002399808015361185,0.000959923206144474,0.001590947909597896,0.01947576068482245,0.022597432860621276,-0.0005999520038436266,-0.0005999520038436266,0.0005999520038394636,-0.0007199424046083555,0.0,0.0002399808015357022,0.561555077389423,-0.24479366476013667,-0.1296086389638859,-0.08638790545225447,-0.12958617765924427,0.08638790545130531,-0.04318790545180067,0.01439942406952948,0.129591361036689,-0.07350899999999994,0.194467,-0.900826,0.12511400000000006,-0.13299700000000003,-0.9030910000000001,0.198623,0.32746400000000003,0.0022650000000000725,0.9756180877454042,0.998735190120722,double,-0.900826
78,0.65,stand,-0.0010800432017191524,0.0014400576023055264,-0.0010800432017324755,-0.014121599397626392,0.012811902821569765,0.007496224898810488,-0.0003600144005730508,0.0006000240009639668,-0.00024000960038383804,0.0008400336013415596,0.0004800192007685088,-0.0008400336013440577,-0.3168028815185312,0.14401497669139599,-0.24480576117567995,0.028793664139034544,0.1440028806921383,-0.10079942448377513,0.18720460889834495,0.05760460827655187,-0.12960691262207555,-0.07350299999999999,0.19446000000000002,-0.900819,0.12512999999999996,-0.13300500000000004,-0.903089,0.19863299999999995,0.32746500000000006,0.0022699999999999942,0.9760670678821186,0.9978644989295533,double,-0.900819
79,0.658333,stand,-0.005640225609026723,0.001800072002878601,0.0014400576023055455,-0.005856355504884438,0.016953135025857973,-0.009507749060406754,0.0007200288011461112,0.0,-0.0006000240009602277,-0.0009600384015370304,0.0001200048001954596,0.0004800192007680988,-0.5472437786280586,0.043203456207017626,0.30242419345230337,0.12961036862104547,-0.07200576034609052,-0.04320345620741545,-0.21601728103667422,-0.04320345620701458,0.15841267276037066,-0.07345000000000002,0.19444500000000003,-0.900836,0.12516899999999997,-0.133019,-0.903097,0.198619,0.32746400000000003,0.0022610000000000685,0.9758278875803292,0.9981999279971178,double,-0.900836
80,0.666667,stand,0.0002399808015294545,0.0004799616030722306,-0.00011999040077138805,0.0012036926969652222,0.009339719374438412,0.030651044618115686,-0.0005999520038436186,0.0,0.0007199424046075133,0.0,0.0005999520038436186,-0.00011999040076805765,0.7055683238008318,-0.1584005759306888,-0.1871907851064221,-0.15838502579670266,0.0,0.15838329800428735,0.11519539255303853,0.05758905731319359,-0.071995392552934,-0.073457,0.19444100000000003,-0.900829,0.12516700000000003,-0.13301799999999997,-0.9030969999999999,0.19862400000000002,0.327459,0.0022679999999999367,0.9757580750188132,0.9989802776750609,double,-0.900829
81,0.675,stand,-0.00552022080883119,0.0014400576023055264,0.002880115204611053,0.0070004832682562645,0.004602263381951352,-0.0021000677454016,0.000360014400586374,-0.0003600144005797124,-0.0010800432017278956,-0.0002400096003842544,0.0006000240009639668,-0.0004800192007680924,-0.6912518433170071,0.11521612855313715,0.3600270737288406,0.11520057655466082,-0.043203456207813615,-0.21600691303676964,-0.028802304138275937,8.640000041777102e-06,-0.04320518420737228,-0.07340799999999992,0.194426,-0.900862,0.12521100000000002,-0.13302499999999995,-0.903125,0.19861899999999993,0.32745099999999994,0.002262999999999904,0.9753799455236009,0.9986583055457169,double,-0.900862
82,0.683333,stand,-0.003360134405366283,0.0002400096003842576,-0.0004800192007685152,-0.0110366169531693,0.0173413602331147,0.026448963267693942,-0.0006000240009639748,-0.0002400096003842576,-0.0004800192007680988,0.0001200048001954596,0.00012000480018213638,0.0002400096003842576,0.259220737245281,-0.14401152069138123,-0.40323225793586925,-0.1152092165547051,0.014401152069537487,0.0720057603455901,0.04320345620781439,-0.0576046082781513,0.08640691241477938,-0.07338500000000003,0.19442199999999998,-0.900862,0.12523999999999996,-0.13302600000000003,-0.903119,0.198625,0.327448,0.0022569999999999535,0.9760883055457169,0.9995100824547456,double,-0.900862
83,0.691667,stand,-0.009479241660673224,-0.0034797216222703414,0.0005999520038436186,-0.01376312358853088,0.1095997584412599,0.05242328160746749,0.0,-0.0002399808015361153,0.000839932805375571,-0.0007199424046083459,0.0,0.00011999040076764134,-0.7342341319062748,-0.44633204015533606,0.12958617765924232,0.07199712034604874,3.455585330248683e-06,0.15838157021162225,-0.10078560172831763,-0.014399424067930822,-0.014401151861844893,-0.07330599999999998,0.19444899999999998,-0.90086,0.125313,-0.13299700000000003,-0.903123,0.198619,0.327446,0.002263000000000015,0.9759140944945841,0.9987835448103544,double,-0.90086
84,0.7,stand,-0.003600144005757202,0.0007200288011527728,-0.0001200048001954596,-0.007458929324727013,-0.01678090845441567,0.04937411132101684,0.0,-0.0007200288011527728,0.0006000240009602277,-0.0003600144005730556,0.0004800192007685152,0.0004800192007680988,0.7055199393875046,0.5039902104191951,-0.0863982724155868,0.0,-0.05760806427657048,-0.028790208138166986,0.04319308820776353,0.057604608276553414,0.043205184207423586,-0.07327600000000001,0.19443699999999997,-0.900854,0.12534,-0.13299900000000003,-0.903118,0.19861600000000001,0.327436,0.0022639999999999327,0.9757978875803208,0.9987193239254721,double,-0.900854
85,0.708333,stand,-0.0031201248049886453,-0.0014400576023055264,-0.0009600384015370176,-0.027864230818393898,-0.0636206863308953,0.049028682823430404,-0.0004800192007685088,0.0002400096003842544,-0.0008400336013440577,0.0003600144005730508,-0.00012000480018213478,-0.00132005280211215,0.05760460827655762,-0.2592207372444846,-0.10080806448356587,-0.05760460827655187,0.1152092165531049,-0.1728138248295067,0.08640691241402897,-0.07200576034449147,-0.21601728103687043,-0.07325400000000004,0.19445099999999998,-0.900853,0.12536899999999995,-0.13298799999999994,-0.903121,0.198623,0.3274389999999999,0.0022679999999999367,0.9756586087717667,0.9977108038037028,double,-0.900853
86,0.716667,stand,-0.002399808015361153,-0.0002399808015361153,0.0017998560115175344,0.007957602965864535,-0.010159003066197063,0.04490158859001785,0.0002399808015294545,0.0002399808015361153,0.0011999040076793276,0.00035997120230084253,0.0,0.00011999040076805765,0.08643110026727703,0.1439976962766261,0.3311608366996078,0.08639308882864864,-3.4555853298649062e-06,0.24477293124830446,-5.1833779947502e-06,0.014399424067930629,0.17279136103674067,-0.07323200000000007,0.194455,-0.9008579999999999,0.12539199999999995,-0.13298599999999994,-0.903135,0.19862400000000002,0.3274409999999999,0.0022770000000000845,0.9751517052944958,0.9993675950603662,double,-0.9008579999999999
87,0.725,stand,-0.001320052802110086,0.0008400336013482324,0.002880115204611091,0.015560132605291155,-0.047633255284489535,0.02658475313556994,0.0,-0.0003600144005730556,0.0,-0.0003600144005730556,0.0007200288011461112,0.0001200048001921288,0.12957580862247414,0.1296069126226278,0.1296362886227729,-0.028798848137460302,-0.07200230434527496,-0.14399424069114827,-0.08640172841400513,0.0864069124140307,1.7280000085379219e-06,-0.07322100000000009,0.19444499999999998,-0.900882,0.12539999999999996,-0.13298700000000002,-0.903158,0.19862100000000005,0.327432,0.0022760000000000558,0.976639975999045,0.9986434797425756,double,-0.900882
88,0.733333,stand,-0.0009600384015370176,0.0009600384015303559,0.002280091203647086,0.009158864330429662,-0.037471620182756425,0.050215544354345276,0.0,-0.001080043201725814,0.00024000960038383804,-0.000120004800195458,-0.0008400336013415596,0.00024000960038383804,0.04320345620701631,0.01440115206793748,-0.07200576034609416,0.0,-0.08640691241482723,0.028802304138225973,0.02880230413747709,-0.18721497689759561,0.014401152069087812,-0.07321300000000008,0.19442800000000005,-0.900899,0.12540699999999994,-0.13300199999999995,-0.903175,0.19862000000000002,0.32743,0.0022759999999999447,0.9753960173492391,0.9985302473642279,double,-0.900899
89,0.741667,stand,-0.003839692824577896,-0.00011999040076472885,0.0015598752099881005,0.02398177845042315,-0.01263953505436966,0.046310614697990846,-0.00035997120230084735,0.00035997120230084735,0.00035997120230376147,0.00011999040077138965,0.0007199424046016947,-0.0005999520038394636,-0.3455308882938439,-0.12959308882830464,-0.08641900571862124,-0.043193088828995606,0.17278790545076428,0.014394240691135603,0.028797120346394173,0.18718214614150028,-0.10078732952043513,-0.07318400000000003,0.194432,-0.9009090000000001,0.12544,-0.13299500000000003,-0.903193,0.19862400000000002,0.327427,0.0022839999999999527,0.9761208526472527,0.9984253243992527,double,-0.9009090000000001
90,0.75,stand,-0.0033601344053795614,0.00252010080403134,-0.0034801392055750194,-0.002858425318631415,-0.019319474351411743,0.05133714544522988,-0.0003600144005730508,-0.0001200048001887964,-0.00012000480019171084,0.0,0.0004800192007685088,0.0004800192007680924,0.05754931227629097,0.31682361752022775,-0.6048259229044881,-5.18400002441181e-06,-0.05759942427572804,-0.057599424276427495,-0.014399424069529479,-0.028791936137427688,0.12960172862205108,-0.07315899999999997,0.19441000000000003,-0.9008809999999999,0.12546800000000002,-0.13301200000000002,-0.90316,0.198627,0.32742200000000005,0.002279000000000031,0.9765466485078755,0.9988685838934566,double,-0.9008809999999999
91,0.758333,stand,-0.002640105604220137,0.0016800672026897807,0.0015600624025009842,0.010264343515881489,-0.037592585364920765,0.04358479745033656,-0.000120004800195458,-0.0007200288011527632,-0.0004800192007680924,-0.0003600144005730508,-0.0002400096003775928,0.00012000480019171084,0.08640691241562722,-0.10080806448356605,0.6048483869045941,0.02880230413747651,-0.07200576034608956,-0.0432034562074139,-0.04320345620701419,-0.08640691241402838,-0.0432034562074139,-0.07313800000000004,0.19439,-0.900898,0.12548700000000002,-0.13302799999999998,-0.903172,0.19862500000000005,0.327418,0.0022739999999999982,0.9758039197789332,0.9992516385881985,double,-0.900898
92,0.766667,stand,-0.00467962562995098,0.004079673626107353,0.0021598272138184057,0.007851215738973783,-0.014620034450966556,0.023702358533584718,-0.00011999040077138965,-0.0007199424046083555,-0.0008399328053755821,-0.00035997120230750815,0.00035997120230084735,-0.00035997120230376147,-0.24472282526168165,0.28792973643119585,0.07196602007648487,1.727792664789373e-06,1.0366755988446779e-05,-0.04318617765868632,5.183377194939765e-06,0.07199193696645591,-0.05759251289842513,-0.07310000000000005,0.19435000000000002,-0.900923,0.125523,-0.13305899999999998,-0.903193,0.19862300000000005,0.327409,0.0022699999999999942,0.9754454246669261,0.9989608526472462,double,-0.900923
93,0.775,stand,-0.0008400336013415596,-0.0009600384015370176,0.0007200288011594248,0.004487357633958922,-0.020598795257970752,0.06959381292477773,-0.0004800192007551856,0.0001200048001887964,0.0008400336013440577,0.0,0.0004800192007685088,-0.0007200288011519304,0.460769474212097,-0.6047896349027181,-0.1727827208279101,-0.04320518420542355,0.10079769648351714,0.20160403296767465,0.04319827220778911,0.014406336069562094,-0.04320864020738839,-0.07309699999999997,0.194359,-0.900922,0.12552999999999997,-0.13304699999999997,-0.903205,0.19862699999999994,0.327406,0.002283000000000035,0.975545127324177,0.9985577217986861,double,-0.900922
94,0.783333,stand,-0.0037201488059526618,0.004560182407300894,0.003360134405366283,0.0003136598552407576,-0.013422022001929672,0.025652897960861395,-0.0007200288011594343,-0.001320052802110086,0.0001200048001921288,-0.0007200288011527728,-0.0003600144005730556,0.0020400816032641075,-0.3456276496593218,0.6624529951803627,0.31682534551864666,-0.02880230414067574,-0.17281382482886062,-0.08640691241472885,-0.08640691241483012,-0.100808064483568,0.3312264975898312,-0.07307200000000003,0.19430999999999998,-0.900949,0.12555499999999997,-0.13308799999999998,-0.903216,0.198627,0.32739799999999997,0.002267000000000019,0.9748159384195385,0.9963447204123175,double,-0.900949
95,0.791667,stand,-0.00611951043916761,0.0017998560115175344,-0.0034797216222636805,-0.0021400440772990008,0.007324743419680017,0.04131425312418944,0.0002399808015427761,0.0002399808015361153,-0.00011999040076805765,-0.00035997120230084253,-0.0003599712023141642,-0.000599952003839872,-0.28790036395667506,-0.3312126704803622,-0.8207170659503134,0.11519193696930682,0.1871890573129577,-0.028797120345594503,0.04320345558578444,5.183376396859439e-06,-0.3167786905572305,-0.07301899999999995,0.194297,-0.900921,0.12560300000000002,-0.13310600000000006,-0.903192,0.19862199999999997,0.32740300000000006,0.002271000000000023,0.9766900479961522,0.9986886172057573,double,-0.900921
96,0.8,stand,-0.0016800672026831191,0.002640105604226798,0.002760110404415595,-0.0002952775337146527,-0.026719484313718796,0.042101548871130524,0.00012000480018213478,0.0002400096003842544,-0.0003600144005759652,-0.0002400096003842544,0.000120004800195458,-0.00012000480019171084,0.532754498558079,0.10083398448449062,0.7488097955933337,-0.014397696071119742,3.4560000166919748e-06,-0.028804032138234317,0.014395968068713265,0.05759942427812555,0.05759596827651015,-0.07300400000000007,0.19427699999999998,-0.900947,0.12561499999999998,-0.13312700000000005,-0.903216,0.19861900000000005,0.32740400000000003,0.0022689999999999655,0.976561638588193,0.9995100824547392,double,-0.900947
97,0.808333,stand,-0.0036001440057705256,0.002640105604220172,0.0004800192007685152,-0.000597810506086569,0.014102574624421266,0.029726520712978245,-0.0006000240009506516,-0.0007200288011527728,0.0009600384015357813,-0.0009600384015370304,0.0001200048001954596,0.0006000240009598112,-0.23041843310781518,-7.951770067637668e-13,-0.2736218893132246,-0.08640691241243165,-0.11520921655310644,0.15841267276032145,-0.0864069124148305,1.9191146098837557e-16,0.08640691241468001,-0.0729789999999999,0.194249,-0.900943,0.12563700000000005,-0.133148,-0.903215,0.19861599999999996,0.327397,0.0022719999999999407,0.9750438425762099,0.9981025575061975,double,-0.900943
98,0.816667,stand,-0.0037197024238064566,0.0032397408207342263,0.00011999040077138805,-0.004919704200734429,0.010693615250130852,0.031157810709850197,0.00035997120230084253,0.0002399808015361153,-0.00011999040076764134,0.0,0.0,0.00011999040076805765,-0.01434586249531199,0.07195046994409045,-0.04319999999965495,0.11519020917344454,0.11519193696770828,-0.1295930888293034,0.11519539255303853,-0.01439942406952948,-0.05759942406908446,-0.07294499999999993,0.194224,-0.900945,0.12566800000000006,-0.133175,-0.9032150000000001,0.19861299999999998,0.327399,0.0022700000000001053,0.9765517283843783,0.9998000159987199,double,-0.900945
99,0.825,stand,-0.0014400576022922224,0.0031201248049953488,0.0008400336013415707,0.0014616191776198378,-0.0016094344261402202,0.019607348830360277,-0.0006000240009639748,-0.0003600144005730556,0.0,-0.0010800432017258282,0.00024000960037759599,0.00024000960038384123,0.2735683213145632,-0.014354496068508178,0.08640864041403928,-0.11520403255308125,-0.07200230434527496,0.014399424069079856,-0.12961036862184544,0.02880230413747728,0.014402880069096926,-0.07293800000000006,0.194195,-0.900952,0.12567099999999998,-0.13319900000000007,-0.90322,0.19860900000000004,0.3273940000000001,0.0022680000000000478,0.9761537629715467,0.9981131282987266,double,-0.900952
100,0.833333,stand,-0.0034801392055750194,0.003960158406336867,0.0015600624024876611,-0.007031608628826146,0.046699065501942034,0.027607843898561968,0.000240009600390916,0.0002400096003842544,0.00012000480019171084,0.0002400096003842544,0.0004800192007685088,0.0001200048001921272,-0.2448195851773417,0.10080806448356111,0.08640691241402705,0.10080806448516588,0.0720057603452907,0.014401152069088003,0.15841267276011967,0.028802304139074978,-0.014401152069088388,-0.07290699999999994,0.194164,-0.900964,0.12570200000000004,-0.13322800000000007,-0.9032319999999999,0.19860899999999998,0.32739200000000007,0.0022679999999999367,0.9767199759990322,0.9990834481989359,double,-0.900964
101,0.841667,stand,-0.003119750419962838,0.0040796736261072995,-0.002159827213818377,-0.021214069257009124,0.04357943533893406,0.014541255663715768,0.00011999040075806644,-0.0005999520038436186,-0.0009599232061432123,-0.0002399808015361153,-0.00011999040075806644,0.0002399808015361153,0.043243194817876,0.014340679118122339,-0.4463510458730513,-0.014401151863792734,-0.10078732952098231,-0.12958099428064734,-0.05759424069118863,-0.07199539255178435,0.01439596848379976,-0.07288000000000006,0.194125,-0.900954,0.125726,-0.13326299999999996,-0.903212,0.19860600000000006,0.32738799999999996,0.0022579999999999822,0.9755227851810833,0.9994000479961653,double,-0.900954
102,0.85,stand,0.00024000960037759599,0.0054002160086424646,0.0012000480019146262,-0.002108697279686586,-0.017571851625462685,0.008692348075371616,0.0002400096003909192,-0.0006000240009573131,0.0,-0.0004800192007685152,0.0,0.0,0.40318732993405315,0.1584714247612117,0.4032011539341215,0.014402880071145308,-8.639999243308441e-06,0.11519539255288865,-0.028805760138293782,0.014399424067930822,-0.02879884813825963,-0.07287999999999994,0.194075,-0.900964,0.12572000000000005,-0.13330799999999998,-0.903222,0.1986,0.327383,0.0022579999999999822,0.9763429239555312,0.9991999679987191,double,-0.900964
103,0.858333,stand,0.0004800192007685088,0.005280211208446935,0.000240009600390916,-0.0009926214658564551,-0.010176368765140303,-0.0019055719783686962,-0.0006000240009639668,-0.0003600144005797124,-0.0003600144005759652,0.0003600144005730508,0.00012000480018213478,-0.0008400336013440577,0.028802304139074978,-0.01440115206954627,-0.1152092165515068,-0.1008080644851653,0.028802304137477468,-0.04320345620736394,0.10080806448356684,0.014401152067938832,-0.10080806448386585,-0.07288899999999998,0.19402799999999998,-0.900969,0.12571900000000003,-0.13335100000000005,-0.903231,0.198608,0.32737900000000003,0.0022619999999999862,0.9760684598335252,0.9984637093988062,double,-0.900969
104,0.866667,stand,-0.0007199424046016947,0.005879529637624912,0.0007199424046016947,-0.004594727030613141,0.016093447056526027,0.0051584338487657725,0.00035997120230084735,-0.000479961603072237,-0.0008399328053755821,0.00011999040077138965,0.0005999520038436266,-0.00011999040076805925,-0.14398387393451048,0.07191245850467724,0.05758732951893225,0.11519020917504434,-0.01439251289807119,-0.057585601727816134,-0.02880057593012509,0.05758905731479417,0.08639827220734371,-0.07288000000000006,0.193975,-0.900982,0.125726,-0.13339499999999999,-0.903238,0.19860600000000006,0.32737,0.0022560000000000358,0.975719672572787,0.9989608526472394,double,-0.900982
105,0.875,stand,0.0,0.0050402016080693425,0.0010800432017324755,-0.00033860738183742056,0.021790855367689172,-0.0012543162672108096,-0.0002400096003775928,-0.0002400096003842544,0.00024000960038383804,-0.0003600144005797124,-0.000120004800195458,0.0004800192007680924,0.08639654441397956,-0.10072339248236718,0.04321382420866186,-0.0720005763444663,0.028795392138243323,0.12959827262203477,-0.057602880277343095,-0.08639827241558642,0.07200403234563173,-0.072882,0.19393099999999996,-0.900989,0.12572299999999997,-0.13343800000000006,-0.903243,0.19860499999999998,0.327369,0.0022539999999999782,0.9767671519630571,0.9989801553034887,double,-0.900989
106,0.883333,stand,-0.000240009600390916,0.00588023520940424,-0.0007200288011461016,-0.0033896792941811443,0.02872252473009758,-0.004834451488704638,0.000120004800195458,-0.0004800192007685088,-0.00024000960038383804,-0.001080043201725814,0.0006000240009639668,0.00012000480019171084,-0.028802304139075363,0.10080806448276657,-0.21601728103666978,0.04320345620701419,-0.028802304138275937,-0.057604608276451946,-0.08640691241402838,0.08640691241562723,-0.0432034562074139,-0.07287899999999992,0.193878,-0.900985,0.12571600000000005,-0.133482,-0.903236,0.19859499999999997,0.32736,0.002251000000000003,0.976573448198935,0.9979311011574887,double,-0.900985
107,0.891667,stand,-0.004919606431480438,0.013918886489081551,-0.009839212862974197,-0.09949136526721461,0.09400346722141095,0.013394008336679808,0.0,0.0008399328053797451,-0.00011999040076805925,-0.0007199424046083555,-0.00011999040077138965,0.0,-0.5615066991948102,0.9645609886821883,-1.0942145502553573,-0.01439942406952948,0.1583815702121744,0.014401151861744597,0.04320863896297822,-0.08639481662291343,-0.014399424069079856,-0.07283799999999996,0.19376900000000002,-0.900904,0.125751,-0.13359900000000002,-0.903154,0.19858899999999996,0.32736800000000005,0.0022499999999999742,0.9760858995656547,0.9987835448103535,double,-0.900904
108,0.9,stand,0.0019200768030740352,0.007320292811716428,0.0010800432017324755,0.0016385736176656991,-0.02421049930372813,-0.015185088682215128,0.0,-0.0002400096003842544,0.0,-0.0002400096003842544,0.000240009600390916,-0.00012000480019171084,0.8207948199393309,-0.7918629158004434,1.310363142290487,0.0,-0.1295982726225843,0.014399424069129816,0.05759424027650296,0.043201728208604843,-0.014401152069088003,-0.07285399999999997,0.193706,-0.9009130000000001,0.12573299999999998,-0.133658,-0.9031640000000001,0.19858699999999996,0.327364,0.002251000000000003,0.9770899839993596,0.9993999759990322,double,-0.9009130000000001
109,0.908333,stand,-0.0004800192007685152,0.007320292811709864,0.00012000480018213638,-0.0028651605689134566,0.009981998405976834,-0.004881767034759139,0.00012000480018213638,-0.0001200048001954596,0.0006000240009598112,-0.0008400336013415707,0.0003600144005730556,0.0007200288011519401,-0.28802304138276397,-7.877347453613702e-13,-0.11520921655470392,0.014401152067939215,0.014401152068738257,0.07200576034559183,-0.07200576034529244,0.0144011520679396,0.10080806448381838,-0.07284900000000005,0.19364399999999998,-0.900909,0.12573,-0.133716,-0.9031589999999999,0.19857900000000006,0.32736,0.0022499999999999742,0.9764607279445789,0.9980608504910577,double,-0.900909
110,0.916667,stand,0.015358771298298058,0.014518838492918323,0.006719462443011228,0.12200408307763086,-0.14655116015427483,-0.019305950870052165,0.0002399808015427761,-0.00011999040076472725,-0.000479961603071398,-0.0007199424046083459,0.00011999040077138805,-0.0004799616030718143,1.9005028196624014,0.8637563812345097,0.7918715674140918,0.014395968485797791,1.7277934644047138e-06,-0.12958790545130802,0.014409790824720898,-0.028800575930125475,-0.1439873295204878,-0.07297500000000001,0.19352200000000003,-0.900969,0.12559599999999999,-0.13383599999999996,-0.903219,0.198571,0.327358,0.0022499999999999742,0.9765835581763513,0.9985440944945825,double,-0.900969
111,0.925,stand,0.002160086403451628,0.007440297611905225,-0.0006000240009639668,-0.015941413510977435,0.0026871102516875683,-0.017302037634799733,0.0004800192007685088,0.0001200048001887964,0.00048001920076767607,-0.0003600144005797124,0.0002400096003775928,-0.0001200048001921272,-1.5839055436033092,-0.8494588840769314,-0.8783735082173485,0.0288057601374933,0.028800576137468215,0.11520230455287053,0.04319308820696412,0.014402880067947226,0.04319654420733057,-0.07298899999999997,0.193461,-0.90096,0.125575,-0.13389600000000002,-0.903215,0.19856399999999996,0.327357,0.002255000000000007,0.9763010415123536,0.9992516385881896,double,-0.90096
112,0.933333,stand,0.005400216008635803,0.011160446417857985,0.0004800192007685152,0.004006890121246083,-0.10033186755365392,-0.03453015482889098,-0.0004800192007685152,0.0013200528021167475,0.0003600144005763864,-0.00012000480018879799,0.0004800192007685152,0.0007200288011523564,0.38883110586633923,0.44643571414290106,0.12961036862264394,-0.11520921655310605,0.14401152069218312,-0.014401152069037656,0.028802304139075554,0.028802304139076515,0.10080806448391831,-0.07303799999999994,0.19337900000000002,-0.900961,0.12552900000000006,-0.13398500000000002,-0.903213,0.198567,0.32736400000000004,0.0022520000000000318,0.9750632941370391,0.998543919778935,double,-0.900961
113,0.941667,stand,0.00011999040077138805,0.010079193664510181,-0.0002399808015294545,0.04216150888561699,0.05445169719851905,0.01926582769111417,0.00035997120230084253,-0.00011999040077138805,0.0005999520038394556,-0.0004799616030722306,-0.00011999040077138805,-0.00011999040076805765,-0.6335763868327784,-0.12973995120563903,-0.0863930888286494,0.10079078510551372,-0.17279136103769194,0.028790209174834103,-0.04319136103712862,-0.07199539255338357,-0.10079424069119362,-0.07303599999999999,0.19329399999999997,-0.900954,0.12552400000000002,-0.13407000000000008,-0.903212,0.19856000000000001,0.32736400000000004,0.0022579999999999822,0.9762368786930865,0.9991515397393949,double,-0.900954
114,0.95,stand,0.0021600864034516565,0.008520340813631152,-0.0019200768030740608,-0.006507424967211037,0.010060807852711776,0.009541443990677302,-0.0004800192007685152,0.0008400336013482324,-0.00024000960038384123,-0.0004800192007685152,-0.00048001920075519197,0.0012000480019200388,0.2448213131741614,-0.18706982489848123,-0.20161958496875335,-0.10080288048354319,0.11520748855389766,-0.10079942448377589,-6.9120000341516875e-06,-0.04320518420542508,0.15841094476036344,-0.07305799999999996,0.19323,-0.9009400000000001,0.12550200000000006,-0.13414499999999996,-0.903186,0.19856000000000001,0.32737499999999997,0.0022459999999999702,0.975878608771761,0.997702083024713,double,-0.9009400000000001
115,0.958333,stand,-0.0028801152045977293,0.010680427217089328,0.002160086403451628,0.01380656483418356,0.03541078549047224,-0.01352395047579475,0.0004800192007685088,-0.0004800192007685088,-0.0002400096003842544,0.0003600144005730508,0.0007200288011461016,-0.0009600384015361848,-0.6048483869013999,0.2592207372444699,0.48963917034989457,0.11520921655310452,-0.15841267276091872,-4.958146440416559e-14,0.10080806448356684,0.14401152068898218,-0.2592207372442355,-0.07303000000000004,0.193137,-0.90096,0.12552899999999995,-0.13422800000000001,-0.903212,0.19855899999999999,0.327365,0.0022520000000000318,0.9762799519980787,0.9979118551724317,double,-0.90096
116,0.966667,stand,0.009959203263732133,0.01319894408447302,0.0017998560115175344,-0.0050813579299673235,-0.07991056023186,0.004818092595838405,0.00011999040077138805,0.0004799616030722306,-0.000239980801535699,-0.0005999520038369578,0.0002399808015294545,0.0002399808015361153,1.5405949686020837,0.30219784825817997,-0.04322418909696313,-0.04319999999965418,0.11518848138237726,3.4555853798176934e-06,-0.11518675358891303,-0.057601151861848256,0.14399078510586646,-0.07311199999999995,0.193031,-0.900977,0.12544100000000002,-0.13433600000000007,-0.903225,0.19855299999999998,0.3273670000000001,0.0022479999999999167,0.9766035581763529,0.9988511793763498,double,-0.900977
117,0.975,stand,-0.0032401296051841467,0.008760350414015409,0.0032401296051841467,-0.01368716651648875,0.06909319164694952,0.02213667304961004,0.00024000960037759599,-0.0001200048001954596,0.00036001440057597004,-0.00036001440057971716,0.0007200288011594343,0.0,-1.5839833036021123,-0.5326525465567804,0.17283974482978826,0.014402880067947802,-0.07199884834605733,0.07200230434557477,0.02879366413743464,0.05760806427816923,-0.02879884813825963,-0.07308300000000001,0.192957,-0.9010009999999999,0.125465,-0.134403,-0.9032519999999999,0.198548,0.32736,0.002251000000000003,0.9767416385881931,0.9986583055457081,double,-0.9010009999999999
118,0.983333,stand,0.0007200288011594248,0.00720028801152097,0.0013200528021100684,0.006188705413966766,-0.020217468943478107,0.018954953863226397,-0.0007200288011461016,0.000120004800195458,-0.0006000240009602196,0.0007200288011527632,-0.0004800192007685088,0.0003600144005759652,0.4752380182819579,-0.18721497689840783,-0.23041843310621268,-0.11520921655150528,0.028802304139075554,-0.1152092165530044,0.129610368622642,-0.14401152069218026,0.04320345620736394,-0.07309500000000002,0.19289800000000001,-0.901017,0.12546499999999994,-0.134467,-0.90326,0.19855999999999996,0.327365,0.002242999999999995,0.9759951354306216,0.9984378875803206,double,-0.901017
119,0.991667,stand,0.0035997120230351165,0.012119030477557332,-0.006719462442997997,0.007601655386142947,-0.10511783398143888,0.006332409965279758,0.001079913606902542,0.0,-0.00011999040076764294,0.0,0.0002399808015294577,0.00011999040076805925,0.34553434387757476,0.5902018797739849,-0.964664656240474,0.21597581090096638,-0.01439942406952948,0.057599424069183995,-0.0863965444147789,0.08639308882865017,-0.02880057593087441,-0.07311600000000007,0.19279700000000005,-0.900962,0.12543499999999996,-0.13456600000000002,-0.903203,0.19855100000000003,0.32736300000000007,0.0022409999999999375,0.9757790678469596,0.9995528221787352,double,-0.900962
120,1.0,stand,0.0006000240009639668,0.006720268810752461,0.0013200528021100684,0.01044689224773381,-0.022342772260140774,0.02145941267576022,0.0007200288011594248,0.0006000240009573052,0.0,-0.0002400096003842544,-0.0003600144005730508,-0.0003600144005759652,-0.35997696172700555,-0.6478773151091861,0.9647804206297889,-0.0431879042053421,0.07200576034529013,0.014399424069079856,-0.028802304138275937,-0.0720023043444745,-0.057602880276493754,-0.07311500000000004,0.19274600000000003,-0.900973,0.12542799999999993,-0.134625,-0.903217,0.19854299999999997,0.327371,0.0022440000000000238,0.9759978875803154,0.9990618793232113,double,-0.900973
121,1.008333,stand,-0.0072002880115277276,0.008760350414022072,0.0022800912036471162,-0.04359692604287533,0.08223691260214075,0.003074754974686668,-0.0004800192007685152,-0.0001200048001954596,-0.00036001440057597004,0.00036001440057971716,0.0007200288011594343,0.00012000480019171244,-0.9360748844943917,0.24481958517576252,0.11520921655310892,-0.14401152069218182,-0.08640691241482916,-0.04320345620736509,0.07200576034609109,0.1296103686226443,0.057604608276452904,-0.07305899999999999,0.19267199999999995,-0.900995,0.12549100000000002,-0.13469199999999998,-0.903235,0.19855,0.32736399999999993,0.0022400000000000198,0.9765801553034918,0.9986434797425512,double,-0.900995
122,1.016667,stand,0.0032397408207342263,0.0056395488360887185,0.0027597792176619956,-0.0011407336696811793,-0.033620011164773346,0.039778843872067066,0.0004799616030722306,0.0,-0.000599952003839872,-0.0003599712023075034,-0.0002399808015427761,-0.0005999520038394556,1.252703243611936,-0.37446623205343527,0.057557957045221465,0.11518848138237801,0.01439942406952948,-0.028790209174934012,-0.0863913610375828,-0.11519193696930682,-0.0863879054513034,-0.07308199999999998,0.192625,-0.901023,0.125461,-0.134741,-0.903263,0.19854299999999997,0.327366,0.0022400000000000198,0.9763194775943052,0.998767215822134,double,-0.901023
123,1.025,stand,0.0074402976119053235,0.0019200768030740608,0.0001200048001954596,0.05857668373264535,-0.09856378227080219,0.0503047864368752,0.0001200048001954596,0.0009600384015370304,0.0014400576023042965,0.0002400096003842576,-0.0001200048001954596,0.0007200288011519401,0.504086978419673,-0.44635449814168865,-0.316785601520048,-0.0431965442069812,0.11520921655310683,0.24481094517510946,0.07200057634606583,0.014397696069520892,0.15840403276027934,-0.07314299999999996,0.19261699999999998,-0.901012,0.12540099999999998,-0.13475800000000004,-0.903258,0.19854399999999994,0.327375,0.0022459999999999702,0.9746485178817534,0.9987193239254696,double,-0.901012
124,1.033333,stand,-0.006360254410172664,0.007320292811709669,0.002520100804024645,-0.036569259930034514,0.07947897270156444,0.014784839504454398,-0.0001200048001954564,0.0014400576023055071,-0.0010800432017282976,0.0014400576023055071,0.0033601344053795167,0.0006000240009602116,-1.6561324879488475,0.648051843109986,0.2880230413811524,-0.028802304139074978,0.057604608276547266,-0.30242419345164406,0.1440115206913751,0.41763341000539006,-0.014401152069089929,-0.07309100000000002,0.19256800000000002,-0.901042,0.12546599999999997,-0.134791,-0.9032739999999999,0.19855699999999998,0.327359,0.0022319999999999007,0.974673220453141,0.9938256134083572,double,-0.901042
125,1.041667,stand,-0.0035997120230351646,0.007319414446848381,-0.0050395968322518945,-0.035728482049795014,0.021489903614783944,0.03843546237677144,0.00011999040077139125,0.0003599712023075129,-0.0007199424046075325,-0.0004799616030722434,-0.002399808015361217,-0.00047996160307182706,0.33123858736951667,-0.00010539535172642957,-0.9070911490612771,0.028797120346394554,-0.1295999999997618,0.04320863896337557,-0.23038387393541962,-0.691137799464944,-0.129587905451411,-0.07306000000000001,0.19251000000000001,-0.901006,0.12549199999999994,-0.13487200000000005,-0.9032359999999999,0.19855199999999995,0.32738200000000006,0.0022299999999999542,0.9763436425119706,0.9958434105889835,double,-0.901006
126,1.05,stand,0.0033601344053661936,0.003000120004799809,0.006120244809795074,0.03755199064740794,-0.02226402931519425,0.019498726813249264,-0.0004800192007685024,0.0002400096003842512,0.00024000960038383484,-0.0004800192007685024,-0.0008400336013415484,-0.000960038401536172,0.8352149800073486,-0.5183360664884791,1.3392345664282699,-0.07200403234607981,-0.014395968069513935,0.11519884855290419,-6.91200003108092e-06,0.1871804168990329,-0.05761152027653145,-0.07309199999999993,0.19248700000000002,-0.9010549999999999,0.12546000000000002,-0.13490400000000002,-0.903295,0.19855199999999995,0.32739100000000004,0.0022400000000000198,0.9766201649094824,0.997728345795514,double,-0.9010549999999999
127,1.058333,stand,-0.002880115204597768,0.006360254410172833,-0.005280211208453667,-0.008810903903682677,0.03416458789998594,0.037889397407367256,0.0004800192007685152,0.001440057602298884,0.0004800192007680988,0.0004800192007685152,0.0,0.0013200528021121676,-0.7488599075919858,0.403232257935084,-1.3681094465677242,0.11520921655310529,0.14401152069058487,0.02880230413827747,0.11520921655310529,0.10080806448356608,0.2736218893133758,-0.07306400000000002,0.192446,-0.901007,0.12548799999999993,-0.134957,-0.9032399999999999,0.19855199999999995,0.327403,0.0022329999999999295,0.9750165940314846,0.9976589663765107,double,-0.901007
128,1.066667,stand,-0.0002399808015427761,0.0052795776337945365,0.0008399328053863948,0.009967883702921879,-0.018144595857086002,0.03315828321438723,0.0,0.0013198944084519646,-0.0004799616030718143,0.00011999040077138805,0.0005999520038436186,0.00011999040076805765,0.31679078510378833,-0.12967083949823477,0.7343585329781634,-0.05759769627651926,-0.014418429787247234,-0.11518848138227811,-0.04319999999965495,0.07198848138272307,-0.1439959684838134,-0.07306199999999996,0.192413,-0.9010180000000001,0.12549100000000002,-0.134996,-0.903246,0.19855299999999998,0.327409,0.0022279999999998967,0.9753792472780666,0.9989608526472394,double,-0.9010180000000001
129,1.075,stand,-0.0014400576023055455,0.004080163206525717,0.0027601104044156313,0.012787400354906116,-0.022652930276166928,-0.0009505897219807464,0.0004800192007685152,-0.0006000240009639748,0.0002400096003842576,0.0006000240009573131,-0.0004800192007685152,0.00012000480019171244,-0.1440149766906013,-0.14393548869180733,0.23043052910467468,0.057604608276553414,-0.2303994251069191,0.086400000414746,0.05760633627576257,-0.12960172862260214,1.7279999585726346e-06,-0.07304599999999994,0.192374,-0.901039,0.125508,-0.135034,-0.9032680000000001,0.19855399999999995,0.327408,0.0022290000000000365,0.9763683055457164,0.9987038000123221,double,-0.901039
130,1.083333,stand,0.00168006720269642,0.0044401776071053166,0.0010800432017191379,-0.0026001794886197347,-0.03273501554330273,0.017190849885164013,0.0004800192007685024,0.0,-0.0006000240009602116,0.0001200048001954564,-0.000360014400573046,-0.0007200288011519209,0.37442995379838123,0.0432034562077995,-0.20161612896873443,-1.5352916879069637e-15,0.07200576034608956,-0.1008080644839139,-0.05760460827575283,0.014401152069538832,-0.10080806448381359,-0.07305600000000001,0.19233699999999998,-0.901053,0.12549499999999997,-0.13507399999999997,-0.903283,0.19855099999999998,0.32741099999999995,0.0022299999999999542,0.9764193239254697,0.9986434797425662,double,-0.901053
131,1.091667,stand,0.0003599712023008521,0.002759779217662069,0.0009599232061444868,0.009715874272894555,-0.007329557610511084,0.018185956907731993,0.0005999520038303131,0.0004799616030722434,-0.00011999040076806085,0.0002399808015361217,-0.00035997120231417377,0.0005999520038398879,-0.15839884813962,-0.20163167619909764,-0.014413246409245661,0.014390785104609187,0.05759078510586183,0.05759942406913366,0.014395968483401437,5.183376394556916e-06,0.15838502579695632,-0.07305400000000006,0.192318,-0.9010619999999999,0.125494,-0.13510000000000005,-0.9032859999999999,0.19854800000000006,0.32741800000000004,0.0022240000000000038,0.9764639555438865,0.9987672158221317,double,-0.9010619999999999
132,1.1,stand,-0.0008400336013415484,0.0034801392055683117,-0.0006000240009506356,-0.014970636629174219,0.009664015054517193,0.018085288930138037,-0.000360014400573046,-0.0002400096003842512,-0.00012000480019170925,-0.0003600144005797076,0.0006000240009639587,-0.0001200048001921256,-0.14400633669055318,0.08644665641500422,-0.1872011528975273,-0.11520057655146314,-0.08640000041479444,-1.727999957806569e-06,-0.0720023043460721,0.11520403255467608,-0.0863982724147367,-0.07305000000000006,0.19228699999999999,-0.901058,0.12549799999999994,-0.13512400000000002,-0.903282,0.198548,0.327411,0.0022240000000000038,0.9770116385881926,0.99881673671284,double,-0.901058
133,1.108333,stand,0.001320052802110086,0.003120124804988687,0.0003600144005730556,0.0009687794744736765,-0.007864404216918596,0.013046408439260014,-0.00024000960037759599,0.0008400336013482324,-0.0002400096003842576,-0.00012000480018879799,-0.0007200288011461112,0.00024000960038384123,0.25922073724368827,-0.04320345620780367,0.11520921655150607,0.014401152069536915,0.1296103686226441,-0.0144011520691887,0.02880230413907498,-0.15841267276012025,0.04320345620736471,-0.07306299999999999,0.19226800000000005,-0.9010630000000001,0.125486,-0.13515599999999994,-0.9032830000000001,0.19854899999999998,0.327424,0.0022199999999999998,0.9762899727118506,0.9987193239254806,double,-0.9010630000000001
134,1.116667,stand,0.0008399328053730732,0.001799856011524195,0.0004799616030722306,-0.004861620996068471,0.0075022089830050695,0.010499617177013434,0.000599952003830297,0.0002399808015361153,-0.000239980801535699,-0.00011999040077138805,-0.00011999040077138805,0.0010799136069116863,-0.05760979082517508,-0.1584195816492059,0.01439251289886898,0.1007873295185849,-0.072000575931379,3.45558538020147e-06,1.7277918658439693e-06,0.07199884813711527,0.10078041834987266,-0.07306500000000005,0.192255,-0.901069,0.12547799999999998,-0.13517200000000001,-0.903278,0.19854300000000003,0.327427,0.0022090000000000165,0.9767611793763559,0.9981780590394463,double,-0.901069
135,1.125,stand,0.001800072002878601,0.0033601344053729447,0.00024000960037759599,-0.004846262870806301,-0.030140394904435656,0.000794185864034978,0.00036001440058637876,-0.0001200048001954596,0.00024000960038384123,0.0002400096003842576,-0.0003600144005730556,-0.0008400336013440688,0.11522131255316652,0.18724089689772758,-0.02879539213904198,-0.028793664135835888,-0.04320000020779769,0.05760115227643641,0.043201728207806184,-0.02880403213748587,-0.23040288110593696,-0.07307699999999995,0.192226,-0.901069,0.125465,-0.13520299999999996,-0.903287,0.19854199999999994,0.32742899999999997,0.0022179999999999422,0.9770716385881735,0.9984251354306166,double,-0.901069
136,1.133333,stand,0.0020400816032695203,0.0019200768030740608,0.0001200048001954596,0.003931634778393932,-0.02410515773076652,0.004442615426379959,0.0006000240009506516,0.0002400096003842576,-0.0004800192007680988,0.00036001440057971716,0.0003600144005730556,-0.0001200048001921288,0.02880230413907614,-0.17281382482886082,-0.014401152067939215,0.028802304135878434,0.043203456207814774,-0.08640691241473018,0.01440115206953806,0.0864069124140307,0.08640691241473018,-0.07308900000000007,0.192212,-0.901074,0.12545099999999998,-0.135216,-0.903289,0.19854000000000005,0.327428,0.002214999999999967,0.9765083055457334,0.9991281853387045,double,-0.901074
137,1.141667,stand,0.0037197024238064566,-0.0004799616030722306,0.008159347252214599,-0.045878759211851826,0.04608172251245107,0.019270756896492252,0.0002399808015427761,0.00011999040076472725,0.0002399808015361153,0.00011999040076472725,0.0004799616030722306,0.0007199424046075133,0.20153837539439926,-0.2879815702119358,0.964643922728471,-0.04320172779072147,-0.014401151862194556,0.08639308882939868,-0.02880057593172403,0.01439251289886898,0.10078560172781806,-0.07311800000000002,0.19221699999999997,-0.9011399999999999,0.12542099999999995,-0.135208,-0.903351,0.19853899999999997,0.32742499999999997,0.002211000000000074,0.9772900479961542,0.9985440944945848,double,-0.9011399999999999
138,1.15,stand,0.0008400336013415707,0.0027601104044156313,-0.006960278411136808,0.0419676498543011,-0.039320073741388975,-0.009009975756964233,0.0003600144005730556,0.0001200048001954596,0.0,0.0002400096003842576,0.0,-0.0010800432017279101,-0.34557408165905584,0.3888241938663016,-1.8144276567084536,0.01440460806795639,1.7280008079142116e-06,-0.02879884813825963,0.014402880069546554,-0.05759769627651926,-0.21600691303677425,-0.07312200000000002,0.192195,-0.9010819999999999,0.12541599999999997,-0.135231,-0.9033019999999999,0.198538,0.327426,0.0022199999999999998,0.9771675191687359,0.9981560173492355,double,-0.9010819999999999
139,1.158333,stand,0.002400096003842512,0.000360014400573046,0.006120244809795074,-0.04797433082131124,0.005793780355521626,0.016903203163033214,0.0,0.000360014400573046,-0.0007200288011519209,0.0,-0.0002400096003909128,0.000480019200768086,0.18721497689918562,-0.28802304138276047,1.5697255755348198,-0.0432034562070142,0.028802304137475365,-0.08640691241472559,-0.028802304138275937,-0.028802304139074596,0.1872149768985922,-0.07314200000000004,0.192195,-0.901139,0.12539599999999995,-0.13523600000000002,-0.903349,0.198538,0.327431,0.0022099999999999342,0.9765583055457243,0.999105537030476,double,-0.901139
140,1.166667,stand,-0.0004799616030722434,0.00275977921766873,-0.008039356851443425,0.04062927898318703,-0.07696309252980031,-0.007994780342422137,0.0003599712023008521,0.0,0.0005999520038394717,0.0003599712023008521,0.0,-0.0005999520038398879,-0.3455792664884581,0.28794874215211536,-1.6990162780464084,0.04319308882899676,-0.04319827220698978,0.1583850257969064,0.04319308882899676,0.02879884813905896,-0.12958617765874664,-0.07313500000000006,0.19217199999999995,-0.9010670000000001,0.12540299999999993,-0.13525900000000007,-0.9032870000000001,0.198538,0.327431,0.0022199999999999998,0.9766339029088011,0.9988339029088005,double,-0.9010670000000001
141,1.175,stand,0.0012000480019145944,0.0,0.0013200528021100508,0.011772564125238787,-0.009835806619453012,0.005476337322125058,0.0004800192007685024,0.0003600144005797076,-0.00024000960038383484,0.0007200288011527536,-0.0008400336013415484,0.000480019200768086,0.20160921696709566,-0.3311867535903854,1.1231740853898131,0.014406336069560563,0.04320345620781247,-0.10079942448377437,0.04320864020783573,-0.10080806448356339,0.12960172862209948,-0.07314100000000001,0.19217499999999998,-0.90108,0.12539899999999998,-0.13526600000000005,-0.903294,0.19854,0.32744100000000004,0.0022140000000000493,0.9767829239555275,0.9979899444735569,double,-0.90108
142,1.183333,stand,0.0014400576023055455,-0.00036001440057971716,0.0055202208088312625,-0.05347903645047027,0.007806015803637309,0.015886445908495615,0.0001200048001954596,0.00012000480018879799,-0.0006000240009602277,0.0004800192007685152,0.0,0.0008400336013440688,0.028802304139079967,-0.04320345620781477,0.5040403224194469,-0.04320345620701381,-0.02880230413907498,-0.04320345620741583,-0.0288023041382744,0.10080806448356608,0.04320345620736663,-0.073152,0.192179,-0.901131,0.12539099999999997,-0.13526300000000002,-0.903333,0.19854299999999997,0.327442,0.0022020000000000373,0.9769407279445761,0.9983874839496978,double,-0.901131
143,1.191667,stand,0.0005999520038436186,0.001559875209981419,-0.00155987520998808,-0.012114728987935048,-0.022722640698784716,0.006559042687321566,0.0004799616030722306,0.0002399808015361153,-0.00011999040076764134,0.0010799136069158492,-0.00011999040075806644,-0.0004799616030718143,-0.10080460744683471,0.23036832380143046,-0.8495435587736128,0.043191361036329284,0.014395968484199231,0.057599424069184384,0.07198157021206257,-0.014397696275265843,-0.1583867535896176,-0.07315300000000002,0.192168,-0.901119,0.12539499999999998,-0.13527699999999993,-0.903324,0.198548,0.32744499999999993,0.0022050000000000125,0.977033558176354,0.9980202593919212,double,-0.901119
144,1.2,stand,0.0021600864034516565,-0.0002400096003842576,-0.007920316812673838,0.04907436838586037,-0.10317350763456921,0.021869124658841166,-0.0006000240009639748,-0.0002400096003842576,-0.0001200048001921288,-0.0001200048001954596,-0.0004800192007685152,-0.0006000240009598112,0.18722361689764216,-0.21599481703656462,-0.7632835236632446,-0.12960345662261075,-0.05760115227653633,-1.7280000584967037e-06,-0.14399596869210604,-0.04320518420862259,-0.014408064069122525,-0.07317600000000002,0.192168,-0.901054,0.125376,-0.13527899999999993,-0.9032629999999999,0.198552,0.32744699999999993,0.0022089999999999055,0.976814511065426,0.9987038000123178,double,-0.901054
145,1.208333,stand,-0.0021600864034515992,0.002400096003842512,0.0021600864034649224,0.014668592853629253,0.029199147599656507,-0.011905930546338414,0.0016800672026830968,0.007560302412100582,0.0030001200048002255,0.001200048001921256,-0.00036001440058636917,0.00012000480019170925,-0.5184414744873611,0.31682534552102765,1.2096967738075826,0.27362188931321635,0.936074884493544,0.3744299537972278,0.1584126727609135,0.014401152067939987,0.08640691241467753,-0.0731440000000001,0.19221100000000002,-0.901047,0.12540399999999996,-0.13530200000000003,-0.9032800000000001,0.19854800000000006,0.32751300000000005,0.0022330000000000405,0.9638274811208416,0.9979022983955887,double,-0.901047
146,1.216667,stand,0.001919846412275652,-0.00143988480921673,-0.001799856011530904,0.003121485718879072,-0.05580220109303048,0.03639725851449384,0.0,-0.0046796256299510425,-0.003239740820734729,0.0,0.00011999040077139125,-0.0009599232061432379,0.4895527736653862,-0.4607608367001818,-0.4751550773933167,-0.20159193696701808,-1.4686738711365317,-0.7487234011921134,-0.14399424069129815,0.057595968485453515,-0.12958099428065367,-0.07316,0.19218400000000002,-0.9010589999999999,0.12538800000000005,-0.135289,-0.903273,0.19854800000000006,0.327473,0.0022140000000000493,0.96837392590542,0.9983876774361451,double,-0.9010589999999999
147,1.225,stand,-0.0010800432017191379,0.0,-0.0015600624024876403,0.004097586872263217,-0.03573944928993424,0.02342980039099029,-0.000720028801146092,-0.0008400336013415484,-0.0007200288011519209,0.0,-0.000720028801146092,0.0004800192007676697,-0.3600011537255175,0.17279308882955777,0.028776384140556752,-0.0864069124140261,0.46076947421209974,0.3023775374514297,0.0,-0.10080633648355557,0.17280000082933905,-0.07315700000000003,0.19217700000000004,-0.901052,0.12539699999999998,-0.13529499999999994,-0.9032560000000001,0.198554,0.327472,0.0022040000000000948,0.975759911996488,0.998557721798695,double,-0.901052
148,1.233333,stand,-0.0004800192007685152,0.0009600384015370304,-0.00108004320173249,0.002138135605393933,-0.045926152040520266,0.0014262912917258615,0.0006000240009639748,0.00024000960037759599,-0.0001200048001921288,0.00012000480018879799,0.0004800192007685152,0.0007200288011523564,0.07200576034448915,0.11520921655310683,0.05760460827494956,0.15841267276011986,0.12961036862104336,0.07200576034558955,0.01440115206873864,0.1440115206905818,0.028802304138328207,-0.07314799999999999,0.19217099999999998,-0.901044,0.12540199999999996,-0.13529899999999995,-0.903241,0.19854999999999995,0.32746999999999993,0.0021970000000000045,0.9769345110654302,0.998543919778935,double,-0.901044
149,1.241667,stand,-0.003839692824577845,-0.0013198944084453037,-0.0007199424046016851,0.006486309311130647,-0.002006928586956727,0.021159730108227685,0.00035997120230084253,0.0002399808015361153,-0.000479961603071398,0.0007199424046083459,0.0002399808015294545,0.0005999520038394556,-0.4031285845703509,-0.2735700515937505,0.0432086389645791,-0.028804031517054286,-3.4555845309195254e-06,-0.043191361036629045,0.07198675359005799,-0.028802303724389113,-0.014408063032505386,-0.07311299999999998,0.19218399999999997,-0.901042,0.12544,-0.13528600000000002,-0.90323,0.19855299999999998,0.32747,0.0021879999999999677,0.9770430531943206,0.9983876774361474,double,-0.901042
150,1.25,stand,-0.0027601104044156313,-0.0001200048001954596,-0.0014400576023055455,-0.0012724682111683251,-0.025337595377867072,0.010614729870412197,0.00024000960037759599,0.00036001440057971716,-0.0003600144005763864,0.0001200048001954596,0.0,-0.0007200288011519401,0.1295550726223717,0.14399251269049024,-0.08641728041568067,-0.014395968069512497,0.014404608069555137,0.014394240069004286,-0.07199539234524081,-0.028798848137460302,-0.15840403276027934,-0.07308800000000004,0.19218800000000003,-0.901033,0.12546400000000002,-0.135285,-0.903224,0.19855200000000006,0.327473,0.002191000000000054,0.9771518793232086,0.9987833988298928,double,-0.901033
151,1.258333,stand,-0.004200168006721177,-0.0003600144005730556,-0.0012000480019279496,0.006050951108338785,-0.039824782366267054,0.014710359136211586,0.0,-0.00036001440057971716,-0.0007200288011519401,-0.0008400336013482324,0.0001200048001954596,0.00024000960038384123,-0.1728138248296603,-0.028802304137477284,0.028802304137477277,-0.02880230413747728,-0.08640691241562953,-0.04320345620731513,-0.11520921655390626,0.014401152069538065,0.11520921655295692,-0.07305300000000003,0.19218799999999997,-0.901029,0.125492,-0.13528099999999998,-0.9032119999999999,0.19854500000000003,0.32746899999999995,0.002182999999999935,0.9768283055457194,0.9985302473642172,double,-0.901029
152,1.266667,stand,-0.0016798656107461464,-0.00011999040077138805,-0.0007199424046016851,0.014123091536032303,-0.04485317614973131,0.014301627648393331,0.0020398368130603107,0.005639548836095379,0.002999760019198527,0.0005999520038436186,-0.0002399808015427761,-0.00107991360691127,0.30241209454943746,0.028800575930125475,0.05760806303410857,0.24476083670029938,0.71988999720123,0.4463389513259466,0.17278444986703145,-0.043194816623258095,-0.15837811462624204,-0.07302200000000003,0.19223600000000002,-0.900998,0.12551099999999998,-0.135282,-0.903215,0.19853300000000002,0.32751800000000003,0.0022170000000000245,0.9666541324632787,0.9979025500996467,double,-0.900998
153,1.275,stand,-0.002400096003842576,0.010920436817473728,-0.018240729629190253,-0.048747568645011584,-0.09587137657369467,-0.0021305703454749356,-0.0006000240009639748,-0.004200168006721177,-0.0019200768030719789,-0.0014400576023055455,0.0,0.0009600384015361976,-0.08643110441574897,1.3249042623599205,-2.102578570093451,-0.31679596952169803,-1.1808132536681442,-0.5904040348338594,-0.24481094517570895,0.028798848139058957,0.2448040331750254,-0.07300700000000004,0.19211,-0.9008619999999999,0.125519,-0.13537300000000002,-0.9030549999999999,0.19852600000000004,0.327483,0.0021930000000000005,0.9703082463650796,0.9971154435973706,double,-0.9008619999999999
154,1.283333,stand,-0.003480139205574973,-0.000360014400573046,0.0004800192007685024,0.01881967410947504,-0.052682217958776985,0.006033364519756876,0.00036001440058636917,0.0037201488059525624,0.002400096003840014,0.0006000240009572972,0.0002400096003909128,-0.0001200048001921256,-0.12961036862263028,-1.353708294497369,2.2465797227839226,0.11520921655470144,0.9504760365622945,0.5184414744884096,0.24481958517494382,0.028802304139074596,-0.1296103686221414,-0.0729749999999999,0.19214399999999998,-0.9008459999999999,0.12555300000000003,-0.135368,-0.90306,0.19852799999999993,0.32751199999999997,0.0022140000000000493,0.9704570016707363,0.9989045110654322,double,-0.9008459999999999
155,1.291667,stand,-0.006239500839925843,-0.000719942404608365,-0.0002399808015294609,0.004953975575368491,-0.019263072310081952,0.01699568398468948,0.001919846412275652,0.0031197504199695822,0.0015598752099831258,-0.0005999520038369739,0.0002399808015294609,0.0,-0.3310969083694411,-0.04318790545180296,-0.08639308882865095,0.18716486821326045,-0.07204204295452263,-0.10081842978844541,-0.1439856017271771,-3.455586927274412e-06,0.014399424069129816,-0.07290700000000006,0.192176,-0.900831,0.1256,-0.13536000000000004,-0.903058,0.19850700000000004,0.32753600000000005,0.002226999999999979,0.9710942668494422,0.9989230531943257,double,-0.900831
156,1.3,stand,-0.004320172806916521,-0.0013200528021100508,0.002400096003842512,0.030228566115586424,-0.021639412836180733,0.015351061969252159,0.0006000240009639587,0.001200048001921256,0.0001200048001921256,-0.0008400336013415484,-0.0002400096003775896,-0.0001200048001921256,0.2303285771041987,-0.07201612834533486,0.31682188952021195,-0.15838502475839075,-0.23037350510599938,-0.17279136082935018,-0.028810944138313973,-0.05760115227493605,-0.014401152069137585,-0.07286599999999999,0.192197,-0.90085,0.12562900000000005,-0.135351,-0.9030790000000001,0.19849500000000003,0.327548,0.0022290000000000365,0.9754649157645615,0.9985302473642315,double,-0.90085
157,1.308333,stand,-0.0057602304092088585,0.0008400336013415707,-0.001320052802123409,0.008894139581323228,-0.05428754029993203,0.0003713018377902902,-0.0037201488059526618,-0.008040321612869298,-0.004680187207488443,-0.0009600384015370304,0.0003600144005730556,0.0012000480019200388,-0.17281382482807517,0.25922073724368666,-0.4464357141444804,-0.5184414744889788,-1.1088887093232496,-0.576046082764984,-0.01440115206954075,0.07200576034449185,0.1584126727603716,-0.07284900000000005,0.192123,-0.900878,0.12566899999999998,-0.135355,-0.9030579999999999,0.19851800000000003,0.327478,0.0021799999999999597,0.9615008291062481,0.9973693054846264,double,-0.900878
158,1.316667,stand,-0.008399328053757375,0.0028797696184333834,-0.0029997600191914503,0.020751423264048562,-0.10039794439875534,-0.012367109847522482,0.0010799136069158492,0.003839692824577845,0.0031197504199661683,0.00011999040076472725,0.00011999040077138805,-0.0011999040076793276,-0.3166663840350967,0.24474874215164352,-0.2015487421487915,0.5759614126312065,1.425487693478168,0.9359176418831955,0.1295930888291036,-0.028800575930125475,-0.2879712034556453,-0.07277,0.192131,-0.900827,0.12573999999999996,-0.135378,-0.903043,0.19850999999999996,0.327509,0.0022159999999999958,0.9694002960379071,0.9979802605914803,double,-0.900827
159,1.325,stand,-0.016680667226689247,-0.0002400096003842576,-0.008400336013442354,-0.04690031867776101,0.07245381456466274,0.0544064488211862,-0.0008400336013415707,-0.004560182407300894,-0.0028801152046081767,-0.0004800192007685152,0.0009600384015370304,0.00036001440057597004,-0.9938004527699446,-0.37438848179739226,-0.6480950431118389,-0.23040288110613674,-1.0080253488394115,-0.7200126754559463,-0.07200403234528356,0.10080979248357735,0.18719769689851337,-0.07263799999999998,0.19209499999999996,-0.9007809999999999,0.12587499999999996,-0.135368,-0.9029699999999999,0.19851299999999994,0.32746299999999995,0.0021889999999999965,0.9690123837629094,0.998113128298719,double,-0.9007809999999999
160,1.333333,stand,-0.010920436817480098,-0.007800312012484833,0.005280211208453526,0.053134084553853024,0.003564270558456969,0.02494567646070253,0.000360014400573046,0.0037201488059525624,0.0030001200048002255,-0.0009600384015303431,0.0006000240009506356,0.0002400096003842512,0.6912552993170584,-0.9072725803552674,1.6417313358809122,0.1440115206905791,0.9936794927701083,0.7056564513870514,-0.057604608275749376,-0.04320345620861496,-0.014401152069088773,-0.07254399999999994,0.192191,-0.9008,0.12595800000000007,-0.13529800000000003,-0.903012,0.198502,0.32748900000000003,0.0022119999999999918,0.9698921902685244,0.9980711926955252,double,-0.9008
161,1.341667,stand,-0.009839212862961006,0.0008399328053797563,-0.0002399808015427825,0.048459156665306494,-0.040698649046933696,-0.014038222649876954,0.00143988480921673,0.0025197984161259472,0.0008399328053755933,-0.0008399328053797563,-0.0002399808015294609,0.0,0.12973649562264364,1.036746438428696,-0.662370051595442,0.1295740831105957,-0.14403052433724958,-0.25920172779273737,0.014411518616581366,-0.10079251289658178,-0.02879884813825963,-0.07245000000000001,0.19220499999999996,-0.900791,0.12603299999999995,-0.135307,-0.90301,0.19848299999999997,0.32751199999999997,0.002218999999999971,0.9727745315126732,0.9985440944945805,double,-0.900791
162,1.35,stand,-0.009240369614783679,0.0013200528021100508,-0.0014400576023055071,0.014109797949694679,-0.02246416855957964,-0.006777529030293033,-0.0022800912036470555,-0.008160326413051217,-0.003720148805952146,-0.0009600384015370048,0.0002400096003775896,0.00024000960038383484,0.07186406434385181,0.05761670427580537,-0.14401497669059204,-0.44641497814277215,-1.2816662461510833,-0.5472316826266241,-0.014413248068792316,0.05760115227493605,0.028802304138225206,-0.07239200000000001,0.19212600000000002,-0.90081,0.12610199999999994,-0.13531600000000005,-0.9029959999999999,0.19849399999999995,0.32744200000000007,0.0021859999999999102,0.9627173209739217,0.9983028758401871,double,-0.90081
163,1.358333,stand,-0.008160326413064758,0.01068042721708947,-0.0027601104044156313,0.0019175204968836053,-0.15808783936639836,-0.039753980873917474,-0.0012000480019279496,-0.001200048001921288,0.0001200048001921288,-0.0014400576023055455,0.0002400096003909192,-0.00024000960038384123,0.12961036862101646,1.1232898613919964,-0.15841267276012674,0.12961036862103875,0.8352668200083995,0.4608368662119657,-0.057604608276556474,1.5996178074410065e-12,-0.057604608276452716,-0.07233400000000001,0.192027,-0.900786,0.126158,-0.135403,-0.902975,0.198492,0.32743,0.0021889999999999965,0.9752743972001257,0.9975341357642389,double,-0.900786
164,1.366667,stand,-0.01367890568753859,0.0008399328053730732,-0.011039116870647982,0.05474052608959182,-0.0641567119822361,-0.011442179654368861,-0.0002399808015294545,-0.0005999520038436186,0.000839932805375571,-0.0004799616030655698,0.00035997120230084253,-0.00035997120230375665,-0.6621765388137496,-1.1807648682165013,-0.9934013038435672,0.11519884813996734,0.07200575930857508,0.08638444986602313,0.11520230372449825,0.014394240689935495,-0.01439424069113445,-0.07222200000000001,0.192015,-0.900687,0.126268,-0.135407,-0.902886,0.19849,0.327422,0.002198999999999951,0.9762437891236033,0.9988339029088079,double,-0.900687
165,1.375,stand,-0.014280571222846672,0.014160566422657875,-0.0030001200047932272,-0.030565452312707707,-0.09389421753132716,-0.08544824169872985,-0.0001200048001954596,-0.0006000240009573131,-0.0004800192007680988,-0.001200048001921288,0.0002400096003909192,0.00012000480019171244,-0.07220275234706439,1.5985399756732177,0.9647182126310847,0.014397696067922237,-8.639999243308441e-06,-0.15840057676031224,-0.0864138244156636,-0.014395968067913647,0.05759942427642787,-0.07210400000000006,0.191892,-0.9006660000000001,0.12637699999999996,-0.13552299999999995,-0.90286,0.19848100000000002,0.32741499999999996,0.0021939999999999182,0.9767638000123214,0.9979505278679186,double,-0.9006660000000001
166,1.383333,stand,-0.005280211208453667,0.003960158406336919,0.006840273610941349,0.07200046233903078,-0.11186556256042841,-0.04106601346708045,-0.00108004320173249,-0.0008400336013415707,0.0014400576023042965,-0.0008400336013482324,0.00024000960037759599,0.0004800192007680988,1.080086405183378,-1.2240979258755609,1.1808944696669466,-0.11520921655310683,-0.02880230413827671,0.23041843310601376,0.04320345620701535,-1.598850161597053e-12,0.04320345620741506,-0.07206900000000005,0.19185200000000002,-0.900711,0.12641399999999997,-0.135554,-0.9029130000000001,0.19848300000000002,0.32740600000000003,0.0022020000000000373,0.9746692784996881,0.9983386087717638,double,-0.900711
167,1.391667,stand,-0.009359251259901835,0.0017998560115175344,0.0004799616030722306,0.013498295389103982,-0.027605455678612174,-0.006788460630129389,-0.00011999040075806644,-0.0002399808015361153,-0.000599952003839872,-0.0010799136069091885,0.0004799616030722306,0.00011999040076805765,-0.4894456505217348,-0.25921555013431347,-0.7631763868333418,0.11519712034730217,0.07200057593057965,-0.24478157021168143,-0.02878329800347424,0.028791936968398463,-0.0432000000000046,-0.07199199999999994,0.19183500000000003,-0.9007200000000001,0.126483,-0.135565,-0.902916,0.19847499999999996,0.3274,0.0021959999999999757,0.9769446425135913,0.9980202593919294,double,-0.9007200000000001
168,1.4,stand,-0.01248049921996807,-0.0006000240009573131,0.0022800912036471162,0.036334374536759875,-0.047253580154059956,-0.03133609856745161,-0.001320052802123409,-0.00036001440057971716,0.0018000720028802666,-0.001320052802110086,0.0003600144005730556,0.00024000960038384123,-0.3745647377974636,-0.28799712138183964,0.2160241930367097,-0.14401324869379017,-0.014404608069555137,0.2880144013824745,-0.02881785613835349,-0.014394240069503912,0.014402880069096926,-0.07189900000000005,0.19183699999999998,-0.900724,0.12657600000000002,-0.13555700000000004,-0.902933,0.19847500000000007,0.327394,0.0022090000000000165,0.9741415605261254,0.9976847400090468,double,-0.900724
169,1.408333,stand,-0.009240369614783679,0.0022800912036470555,0.000720028801146092,0.01890175297983575,-0.003277564809426133,-0.007441337952398596,0.0004800192007685024,-0.000360014400573046,-0.0015600624024963837,-0.0001200048001954564,0.0039601584063434754,0.000480019200768086,0.3888311058663549,0.3456276496585045,-0.1872149768991956,0.21601728103826714,8.005700440911816e-13,-0.40323225793550843,0.14401152069058065,0.4320345620749258,0.0288023041382744,-0.07181800000000005,0.191815,-0.900743,0.126652,-0.13554299999999997,-0.9029349999999999,0.19847000000000004,0.327358,0.0021919999999999717,0.9752942109130001,0.9933484182773926,double,-0.900743
170,1.416667,stand,-0.026517878569718135,0.006719462443004746,0.006719462443011408,-0.03540723762193074,0.2186213809523508,-0.05537484337315287,-0.0007199424046017042,-0.0013198944084519997,0.0002399808015361217,-0.0011999040076806084,0.0008399328053730955,0.0,-2.073135223774272,0.5326819341681995,0.7198744470680861,-0.14398387393451278,-0.11517638683452988,0.21598790545146865,-0.1295775386951251,-0.374397120346825,-0.057597696276469296,-0.07160299999999997,0.19174799999999997,-0.9007970000000001,0.126863,-0.135592,-0.902991,0.19846599999999998,0.32733999999999996,0.0021939999999999182,0.9755224874929085,0.9975588841661207,double,-0.9007970000000001
171,1.425,stand,-0.011400456018235278,0.0025201008040313068,-0.0007200288011594152,0.01426755863773293,0.0004974910740753743,-0.030336214126023355,-0.0008400336013415484,-0.0001200048001887948,0.0007200288011519209,-0.0016800672026830968,0.0002400096003775896,-0.0006000240009597953,1.8141632727088195,-0.5039435544189808,-0.8927746602868946,-0.01441152006958383,0.14399251269208976,0.057608064276465955,-0.05762188827582863,-0.0719936643460333,-0.07200576034558799,-0.071515,0.191726,-0.900785,0.126944,-0.13561100000000004,-0.90299,0.198459,0.32733700000000004,0.0022050000000000125,0.976095202108989,0.9969998799952091,double,-0.900785
172,1.433333,stand,-0.01176047041882196,0.0026401056042268333,-0.0008400336013415707,0.01816815424074079,0.0028325716302019365,-0.03374796627351773,-0.0006000240009639748,-0.0006000240009573131,-0.0004800192007680988,-0.00108004320173249,0.000840033601354894,-0.00036001440057597004,-0.043203456208650626,0.014401152069546098,-0.01440115206794151,0.0288023041374746,-0.05760460827655379,-0.14401152069123133,0.07200576034448725,0.07200576034769109,0.02880230413822482,-0.07142199999999999,0.191699,-0.900782,0.127033,-0.13562599999999997,-0.902986,0.198455,0.327325,0.0022039999999999837,0.9763351273241645,0.9976419404530914,double,-0.900782
173,1.441667,stand,-0.014518838492911662,0.005159587233016487,-0.004679625629950918,-0.012503110707343897,0.0984623461723906,-0.013518582755768492,-0.00011999040077138805,-0.0009599232061444612,0.00035997120230375665,-0.003119750419962838,-0.0020398368130603107,-0.0004799616030718143,-0.3309776906755077,0.3023136103659269,-0.46071418629821426,0.05759942406918444,-0.043184449866468126,0.10079078510581342,-0.2447452865647147,-0.34555680518540705,-0.014392512898469326,-0.07130200000000009,0.19164800000000004,-0.90074,0.12712799999999996,-0.13568599999999997,-0.902951,0.19843000000000005,0.327334,0.002210999999999963,0.9761696725727835,0.9937363171892786,double,-0.90074
174,1.45,stand,-0.008280331213260217,0.003000120004799889,0.0002400096003909192,0.0242986973469241,-0.0021145041034412323,-0.024041059060484433,-0.00024000960037759599,-0.0006000240009639748,-0.0006000240009598112,-0.0020400816032628585,0.0003600144005730556,-0.0002400096003842576,0.7486508195909639,-0.2591464332433239,0.5903798428347392,-0.014402880067947802,0.04318963220694704,-0.11520403255293131,0.1295654406216236,0.2879936653826219,0.0287953921381926,-0.07123499999999994,0.191618,-0.9007470000000001,0.12718000000000007,-0.135708,-0.9029550000000001,0.198415,0.327326,0.0022079999999999878,0.9764502473642234,0.9965242315298675,double,-0.9007470000000001
175,1.458333,stand,-0.008760350414015176,0.003600144005763768,-0.0008400336013415484,0.0094653381839806,0.00100732003101441,-0.03457753923200022,-0.0004800192007685024,-0.0009600384015370048,0.0010800432017278813,-0.0015600624025009636,0.0008400336013415484,0.0,-0.057604608274925126,0.07200576034607806,-0.12961036862263875,-0.02880230413907383,-0.043203456207011125,0.20161612896767828,0.05760460827575741,0.05760460827654919,0.028802304138275937,-0.07116599999999995,0.19157999999999997,-0.9007310000000001,0.12724000000000002,-0.13573100000000005,-0.9029480000000001,0.19840599999999997,0.327311,0.0022170000000000245,0.9752921829792283,0.9970469172646388,double,-0.9007310000000001
176,1.466667,stand,-0.013318934485238102,0.0046796256299510425,-0.004559635229192973,0.03449714782440767,-0.03139553654211198,-0.06428055916620601,-0.00011999040077139125,-0.0003599712023008521,0.0,0.005399568034559408,-0.0002399808015294609,0.0016798656107511866,-0.5469863296403903,0.12952743270785877,-0.44631649002297763,0.04319999999965419,0.07200230372404176,-0.12959481662201847,0.8350888453396333,-0.12959136103564073,0.2015677478703166,-0.07105600000000001,0.19153799999999999,-0.900693,0.127396,-0.135772,-0.9028959999999999,0.19845200000000002,0.32731,0.002202999999999955,0.9773375950603644,0.9905667735260583,double,-0.900693
177,1.475,stand,-0.004560182407294111,0.001200048001921256,0.005400216008648983,0.046263319169445684,-0.07102989743762811,-0.04348734088101579,-0.000360014400573046,-0.001800072002878553,-0.0007200288011519209,-0.004080163206525609,0.0006000240009639587,-0.001680067202688093,1.0510922930449824,-0.4175660180042872,1.1952299577393235,-0.028804032137483566,-0.1728190088296743,-0.08640691241472559,-1.1376132534603205,0.10080460848354794,-0.4032080659353439,-0.071021,0.191513,-0.900744,0.1274,-0.13577699999999998,-0.9029550000000001,0.19842100000000001,0.32728999999999997,0.002211000000000074,0.9746035331963002,0.9925781129984113,double,-0.900744
178,1.483333,stand,-0.005640225609026723,0.004200168006714515,0.006120244809795237,0.035765252948775986,0.052563691627472084,-0.03795131459566302,0.0,0.001200048001921288,0.0006000240009598112,-0.004200168006721177,0.0006000240009506516,0.0,-0.12961036862265948,0.3600288017272634,0.0864069124140479,0.0432034562070142,0.36002880172805335,0.1584126727603197,-0.014401152069551146,-1.5969245415139156e-12,0.2016161289677317,-0.07097399999999998,0.19148800000000005,-0.9007900000000001,0.12741200000000003,-0.135807,-0.9030060000000001,0.198386,0.32729500000000006,0.0022159999999999958,0.9756038425762016,0.9929286493341086,double,-0.9007900000000001
179,1.491667,stand,-0.01367890568753859,0.00923926085913711,-0.0005999520038436186,-0.020250000578450094,0.03497411536006331,-0.06363560005392291,-0.0002399808015427761,-0.0009599232061444612,-0.00011999040076764134,-0.00011999040077138805,0.00359971202304839,0.0004799616030718143,-0.9645644442658754,0.6046427708690372,-0.8063591089079439,-0.028795392553728615,-0.25917581090301567,-0.0863948166219639,0.48958214614227963,0.35993376795028986,0.05759078510580881,-0.07086200000000009,0.191403,-0.900786,0.12752499999999994,-0.13585399999999997,-0.902997,0.19838700000000004,0.32725699999999996,0.002211000000000074,0.9762288081227624,0.9939440829014601,double,-0.900786
180,1.5,stand,-0.010440417616711875,0.006240249609984035,0.0,0.026917707594983947,-0.048905113601719195,-0.07655373024903515,0.0001200048001954596,0.0004800192007685152,0.0,-0.0007200288011527728,0.001320052802110086,0.00036001440057597004,0.38863411386376395,-0.3598957457282013,0.07199712034604873,0.043200000208597024,0.17280000082959193,0.014399424069079856,-0.07200748834530064,-0.2735700493145716,-0.01439424006910421,-0.070774,0.191355,-0.900786,0.127606,-0.135895,-0.9029940000000001,0.19838,0.32725,0.0022080000000000988,0.9770953458887098,0.9974230771777444,double,-0.900786
181,1.508333,stand,-0.0037201488059526618,0.00864034561381995,-0.0022800912036471162,0.002026665456586181,-0.08138216470600745,-0.07610472507295933,-0.0003600144005730556,-0.00036001440057971716,0.00012000480019171244,-0.0021600864034516565,-0.0043201728069166365,0.0002400096003842576,0.8064645158717478,0.2880230413819677,-0.273621889313229,-0.057604608276553414,-0.10080806448436817,0.014401152069088388,-0.1728138248288608,-0.6768541472491029,-0.01440115206908839,-0.07074599999999998,0.19128,-0.9007660000000001,0.12761900000000004,-0.13600299999999999,-0.902973,0.198365,0.327283,0.002206999999999959,0.9770581853387047,0.9919399009241898,double,-0.9007660000000001
