frame_id,timestamp,gait_type,root_linear_velocity_x,root_linear_velocity_y,root_linear_velocity_z,root_angular_velocity_x,root_angular_velocity_y,root_angular_velocity_z,left_linear_velocity_x,left_linear_velocity_y,left_linear_velocity_z,right_linear_velocity_x,right_linear_velocity_y,right_linear_velocity_z,root_acceleration_x,root_acceleration_y,root_acceleration_z,left_acceleration_x,left_acceleration_y,left_acceleration_z,right_acceleration_x,right_acceleration_y,right_acceleration_z,left_pos_rel_x,left_pos_rel_y,left_pos_rel_z,right_pos_rel_x,right_pos_rel_y,right_pos_rel_z,step_length,step_width,step_height,left_contact_prob,right_contact_prob,support_type,max_foot_height
1,0.008333,stand,0.09348373934957421,0.1405256210248408,0.000840033601341563,-0.12402051410928584,-0.05586645073945349,0.1179347439008433,0.0010800432017274838,-0.0004800192007685108,-0.003240129605184117,0.0,-0.00036001440057638307,-0.0004800192007680944,0.0,0.0,0.0,0.0,0.0,0.0,0.0,0.0,0.0,0.069105,0.17661,-0.9113169999999999,-0.06376,-0.065237,-0.9130069999999999,0.132865,0.24184699999999998,0.0016899999999999693,0.9773517269237972,0.9989999599983994,double,-0.9113169999999999
2,0.016667,stand,0.07919366450683954,0.1463882889368853,0.009359251259901906,-0.11912001806331418,-0.09663872340939098,0.11895824029619008,0.002519798416125899,0.0031197504199661917,-0.0020398368130544976,0.0016798656107511545,0.0002399808015361171,-0.0004799616030714016,-1.7146718073835698,0.7034638723355511,1.0222243410799545,0.17275680518339515,0.4319377994642071,0.14402361316650097,0.2015677478703089,0.0719936647603192,6.911170709477753e-06,0.068466,0.175416,-0.911412,-0.064406,-0.066455,-0.9130889999999999,0.132872,0.241871,0.0016769999999999285,0.9757312665949727,0.997060847440865,double,-0.911412
3,0.025,stand,0.09444377775110957,0.1456858274330973,-0.0037201488059526275,-0.10518320264085385,-0.09262705174151405,0.08436636776430588,0.0007200288011527661,0.0025201008040346817,0.00024000960038342268,0.0018000720028798337,0.0001200048001921277,-0.0007200288011523498,1.830086792784115,-0.08429875240465605,-1.5695907915342053,-0.2159809930364974,-0.07196083234507501,0.273592513313083,0.014425344069204276,-0.014397696069121491,-0.028809216138359316,0.067685,0.17422300000000002,-0.9113789999999999,-0.065178,-0.067668,-0.913064,0.132863,0.24189100000000002,0.0016850000000000476,0.9787634820993875,0.9967625876922601,double,-0.9113789999999999
4,0.033333,step_acsent,0.08328333133325334,0.1609264370574821,0.011520460818430936,-0.21242023659835252,-0.01824355611295136,0.0941109484256616,0.0025201008040313506,0.006600264010560361,0.0036001440057605,0.0010800432017283165,0.0010800432017274838,0.0006000240009602221,-1.3393071424284442,1.8289463127786882,1.8289463127785386,0.2160172810366716,0.48963917034989557,0.40323225793556666,-0.08640691241467865,0.11520921655290485,0.15841267276041907,0.06701199999999999,0.172937,-0.911445,-0.065863,-0.069,-0.9131549999999999,0.132875,0.241937,0.0017099999999999893,0.9696843285437966,0.997264931731034,double,-0.911445
5,0.041667,step_acsent,0.08963282937365065,0.15718742500599975,0.0027597792176620164,-0.009096245234806594,-0.16829994913188526,0.05160777891587892,0.001319894408448644,0.0032397408207342506,0.0014398848092150374,0.002879769618430491,-0.0009599232061428032,-0.00263978881689479,0.7618788145425132,-0.44864555453352045,-1.0511976962765681,-0.14401324641021193,-0.40323052433718626,-0.259210366756115,0.21594989401273992,-0.2447763868334877,-0.3887464384275272,0.066276,0.171654,-0.9114559999999999,-0.066586,-0.07031799999999999,-0.9131999999999999,0.132862,0.24197200000000002,0.0017439999999999678,0.976254951295722,0.9932953145291418,double,-0.9114559999999999
6,0.05,step_acsent,0.07800312012480473,0.13824552982119287,0.02616104644186385,-0.014419230964884159,-0.2927555387835896,0.08271567983543521,0.0021600864034549676,0.002400096003839223,-0.0003600144005755504,0.002640105604224311,0.0007200288011519335,-0.0016800672026881223,-1.3956209346988981,-2.2731183469107017,2.8082643974801194,0.10082707248365817,-0.10076140848374264,-0.215996545036672,-0.028760832138027142,0.2016023049675671,0.11517120055282226,0.065644,0.170522,-0.911677,-0.067214,-0.071464,-0.913432,0.132858,0.241986,0.001755000000000062,0.9770349888512841,0.9946481506619225,double,-0.911677
7,0.058333,step_acsent,0.06024240969638731,0.1791671666866672,-0.02820112804512003,-0.19065351880778678,-0.03700313291533748,0.12242528049905868,-0.0007200288011511008,0.0014400576023055323,-0.002160086403456633,0.003120124804991989,0.0004800192007676781,-0.001440057602303867,-2.1313705062303394,4.9107928555711435,-6.523721887313559,-0.34562764965871456,-0.11520921655270502,-0.21601728103697138,0.05760460827645242,-0.02880230413827618,0.028802304138276173,0.065136,0.16904100000000002,-0.91146,-0.06769,-0.072953,-0.913209,0.132826,0.24199400000000001,0.0017490000000000006,0.978019831529131,0.9942170357635107,double,-0.91146
8,0.066667,step_acsent,0.05087592992560604,0.1664266858651311,-0.0295176385889091,-0.12542084206661583,-0.13425534568001418,0.16927910834630513,-0.0014398848092150374,-0.0009599232061444684,-0.0032397408207342506,0.0021598272138229724,0.0007199424046075187,-0.000719942404607935,-1.1238876614808344,-1.5287353997523534,-0.15796862776446713,-0.08637581090280017,-0.2879746590412768,-0.1295481662200165,-0.11522649282085631,0.02878848138227029,0.08640691117061816,0.06470000000000001,0.16764600000000002,-0.9112410000000001,-0.06809599999999999,-0.07433400000000001,-0.912969,0.132796,0.24198,0.0017279999999999518,0.9765983985821076,0.9960203686220835,double,-0.9112410000000001
9,0.075,step_acsent,0.17508700348013959,0.1384855394215764,0.030841233649340206,-0.2624011761658169,0.525705588471474,0.19206607630972905,-0.0002400096003842556,-0.0002400096003842556,0.000720028801151934,0.0018000720028802516,0.0002400096003842556,-0.0008400336013440619,14.90592506354658,-3.3530716960944096,7.243354402766033,0.1439907846910816,0.0863930884147622,0.4751913622808338,-0.04317235220721482,-0.05759424027640268,-0.014411520069138,0.063239,0.16649,-0.911492,-0.06953999999999999,-0.075486,-0.913233,0.132779,0.241976,0.0017409999999999926,0.9812632970157384,0.9966652002079015,double,-0.911492
10,0.083333,step_acsent,0.09384375375014968,0.15660626425056995,-0.0009600384015370207,-0.018171330374172723,0.03471471137923811,0.1136157313354066,0.00012000480019212759,0.0008400336013448932,0.0012000480019204432,0.0022800912036479264,0.00012000480019212759,-0.0014400576023038656,-9.749579950796813,2.174573962437721,-3.8163052983171966,0.04320345620741424,0.12961036862224262,0.057604608276552116,0.05760460827645198,-0.014401152069138112,-0.07200576034559021,0.06245800000000001,0.165192,-0.911474,-0.070303,-0.07679,-0.913237,0.13276100000000002,0.241982,0.001762999999999959,0.9799204122737064,0.9955009312855712,double,-0.911474
11,0.091667,step_acsent,0.08531317494600478,0.1660667146628275,0.013078953683708401,-0.3182928384242734,-0.0758392685331126,0.18975692695509938,-0.0008399328053764106,-0.002039836813056997,-0.003719702423806488,0.0033597312215023116,0.0,-0.002279817614591033,-1.0235875694918295,1.135163236411993,1.6845442866865168,-0.1151832980043843,-0.3455568051838123,-0.5903228252612112,0.12954643842745212,-0.014399424069129791,-0.10076314042322629,0.061739999999999996,0.163791,-0.911614,-0.070986,-0.078174,-0.913365,0.132726,0.24196499999999999,0.001750999999999947,0.9752822481037733,0.9932329716359934,double,-0.911614
12,0.1,step_acsent,0.09372374894995755,0.17388695547821886,-0.00588023520940426,0.0369748705924405,-0.022722236386218144,0.09869061963685223,-0.0003600144005763828,0.00012000480019212759,0.0003600144005763828,0.004800192007680107,0.0012000480019196105,-0.004200168006719886,1.0093092528444456,0.938466436504424,-2.2751936749205144,0.05759251227649435,0.2591913612443445,0.48958560235003806,0.17286220882968853,0.14401152069118078,-0.23045126510606637,0.060955999999999996,0.162343,-0.9115620000000001,-0.071727,-0.079613,-0.913351,0.132683,0.241956,0.0017889999999999295,0.9812381853387047,0.9891829134901484,double,-0.9115620000000001
13,0.108333,step_acsent,0.08628345133805411,0.15996639865594647,0.01164046561861308,-0.07896993510383271,0.10642558266846475,0.1690573194611601,0.0001200048001921278,0.0001200048001921278,-0.004200168006720309,0.002640105604224313,0.001440057602304701,-0.0007200288011523505,-0.8928714282855453,-1.6705336400182889,2.102568202090166,0.05760460827655238,2.4395524701911947e-17,-0.5472437786267484,-0.25922073724418526,0.028802304138376405,0.41763341000450477,0.06023799999999999,0.161011,-0.911694,-0.072424,-0.080934,-0.913454,0.132662,0.241945,0.0017599999999999838,0.9753940078050574,0.9948461543554834,double,-0.911694
14,0.116667,step_acsent,0.0897528197744178,0.17782577393808444,0.014158867290624237,-0.05631607091259287,-0.25167717380226245,0.11928775942546094,-0.0004799616030705686,-0.0023998080153578385,-0.005039596832253459,0.0017998560115192117,0.000959923206143635,0.001319894408447394,0.4162909090909158,2.142953597568748,0.30218402591926496,-0.07199020917478952,-0.30235334959802784,-0.10072340119188258,-0.10082188537378219,-0.05761151861783842,0.24477120345569267,0.059486000000000004,0.159509,-0.911854,-0.073157,-0.082408,-0.9135610000000001,0.132643,0.241917,0.001707000000000014,0.9735926529638206,0.9959506326031281,double,-0.911854
15,0.125,step_acsent,0.09396375855034196,0.17136685467418694,-0.0033601344053795783,-0.19399551388895708,0.21129327948206475,0.2242075082203603,0.0010800432017274847,0.000600024000960639,0.0002400096003842556,0.001920076803071963,0.0018000720028794187,-0.0006000240009598062,0.5053328664255561,-0.7751013157203288,-2.1023642980923833,0.18720806489836248,0.3599942417278867,0.6335781150411279,0.014427072069212947,0.10082188848383347,-0.23039942510586844,0.058712,0.158086,-0.911824,-0.073924,-0.083821,-0.913538,0.132636,0.241907,0.0017139999999999933,0.9807622983955958,0.9955009312855716,double,-0.911824
16,0.133333,step_acsent,0.09228369134765368,0.1814472578903154,0.01668066722668908,-0.0014488658211912191,-0.07618976569353034,0.12441744707896084,-0.0008400336013432277,-0.003360134405376242,-0.004680187207488812,0.001680067202688121,0.0021600864034566312,0.0021600864034557986,-0.2016161289677517,1.2096967738063669,2.404992395544059,-0.23041843310580953,-0.4752380182811565,-0.5904472348341611,-0.02880230413822655,0.04320345620751377,0.3312264975897759,0.05793600000000001,0.15654600000000002,-0.912002,-0.074679,-0.085315,-0.913659,0.132615,0.241861,0.0016570000000000196,0.9737260042636036,0.9941894319587445,double,-0.912002
17,0.141667,step_acsent,0.09347252219822459,0.1929445644348463,0.011999040076792563,-0.20744121030244314,0.22265236397006713,0.19506120087212153,0.002159827213821729,0.0009599232061411404,-0.0007199424046075204,0.0,0.002759779217662023,0.0023998080153590953,0.14264829020529277,1.3795664200301094,-0.5617503179621465,0.3599545014596789,0.5183654441465554,0.4751913610368732,-0.2015919369676176,0.07195738111415803,0.028764292285012875,0.057175,0.15494599999999997,-0.9121079999999999,-0.075458,-0.0869,-0.913739,0.132633,0.241846,0.001631000000000049,0.9795720773774184,0.9939045873713594,double,-0.9121079999999999
18,0.15,step_acsent,0.08880355214208532,0.1657266290651625,0.012840513620554321,-0.08028850159223602,0.028066118949416054,0.22312085194082187,0.0015600624024959932,-0.0016800672026864554,-0.005400216008639913,0.005400216008640329,0.006600264010561189,0.0003600144005759664,-0.5602988186894593,-3.2662828956778815,0.10098086448599036,-0.07197465634534204,-0.31681152152017206,-0.5616552986958344,0.6480518431105634,0.460876610212308,-0.24478502517498224,0.056448,0.153551,-0.9122600000000001,-0.076153,-0.088226,-0.9138430000000001,0.132601,0.241777,0.001583000000000001,0.9743920836340826,0.9857741014423901,double,-0.9122600000000001
19,0.158333,step_acsent,0.07968318732749362,0.1942877715108597,-0.008040321612869218,-0.1799442371963011,-0.025953360998055702,0.1502056126721624,0.002880115204609397,-0.0008400336013448932,-0.0019200768030723761,0.0025201008040321815,0.003960158406336047,0.00024000960038383885,-1.094487557253294,3.4274741924513608,-2.5058004600292234,0.15841267276051874,0.10080806448356673,0.4176334100045042,-0.34562764965896375,-0.3168253455208375,-0.01440115206913806,0.055808,0.151925,-0.912209,-0.076796,-0.089812,-0.913774,0.132604,0.24173699999999998,0.0015649999999999276,0.9784134337054837,0.9921664242459436,double,-0.912209
20,0.166667,step_acsent,0.0777537796976236,0.17038636909047314,0.0113990880729489,0.041600991131349886,0.01230115341035696,0.2126947742986292,0.0044396448284131675,0.0009599232061444676,-0.0002399808015361169,0.00191984641228727,0.002639788816894788,0.002639788816894788,-0.23151039475282092,-2.8679388553379592,2.3325425588934605,0.1871285845696867,0.2159775386956274,0.20159539255294667,-0.07202476502818704,-0.15843167619885506,0.28795046994371815,0.055197,0.150513,-0.912306,-0.077428,-0.09121,-0.913847,0.132625,0.241723,0.0015410000000000146,0.9770090499075981,0.9930034174527889,double,-0.912306
21,0.175,step_acsent,0.10236409456378276,0.20964838593543778,-0.002160086403451642,-0.10086777938559267,0.38479867442470544,0.1911627543323417,0.0016800672026881264,-0.00180007200288192,-0.006600264010560378,0.00012000480019171164,0.004200168006720316,0.004560182407296284,2.953355918175833,4.711630486615233,-1.6271660238090215,-0.33116256158946933,-0.331212673590111,-0.7632645156635398,-0.21598963303678903,0.18725299289877975,0.2304564491061443,0.054358000000000004,0.148751,-0.912343,-0.07828,-0.092922,-0.913791,0.132638,0.24167299999999997,0.0014480000000000048,0.9737790022629385,0.9896651780609114,double,-0.912343
22,0.183333,step_acsent,0.08880355214208616,0.17160686427457092,0.011160446417857874,-0.10004953692799556,-0.17900502469720894,0.21884705832258988,0.003600144005760497,-0.0006000240009573072,-0.003240129605184114,0.0019200768030723761,0.005640225609024168,0.004080163206528174,-1.6273301838109435,-4.565165205912256,1.5985278796723275,0.23041843310600854,0.14401152069178108,0.40323225793546874,0.21601728103692103,0.17281382482945531,-0.057604608276504154,0.053648,0.147316,-0.912463,-0.079004,-0.094305,-0.91385,0.132652,0.241621,0.001387000000000027,0.97799579486873,0.987964569476115,double,-0.912463
23,0.191667,step_acsent,0.08351331893448459,0.18982481401487863,0.0035997120230350926,0.010209085660849531,0.38840999188597347,0.2370718217786683,0.003839692824572875,-0.0009599232061444676,-0.005639548836092919,0.0014398848092150361,0.0044396448284131675,0.002279817614591029,-0.6347772027359685,2.185979090509683,-0.9072155501347221,0.02874355877278348,-0.043184449866469896,-0.28790727512704617,-0.05761842978849766,-0.14405816901979837,-0.21602418909732943,0.052983999999999996,0.145726,-0.91254,-0.079688,-0.09585,-0.913861,0.13267199999999998,0.241576,0.0013210000000000166,0.9753070168626876,0.9913427482513752,double,-0.91254
24,0.2,step_acsent,0.1017640705628226,0.18900756030241195,0.006720268810759145,0.00979513532438299,0.17732362439159974,0.23567776583959604,0.0212408496339866,0.0015600624024943279,0.033601344053762416,-0.0012000480019200269,0.006720268810752484,0.0068402736109441946,2.1901778025126606,-0.09807436847074116,0.37448179379863794,2.088222346023486,0.30241036945143324,4.70909551060306,-0.3168046095205881,0.2736858253137303,0.5472766106268044,0.052313000000000005,0.144164,-0.912316,-0.080546,-0.09736900000000001,-0.91386,0.132859,0.241533,0.0015439999999999898,0.91825561330725,0.9838934561980175,double,-0.912316
25,0.208333,step_acsent,0.090723628945158,0.198007920316813,0.008760350414015352,0.005998802437300748,0.1600375364145464,0.16980058755526137,0.0050402016080643795,-0.0006000240009573092,-0.009000360014401272,-0.0038401536061443485,0.00864034561382489,0.004920196807872252,-1.3249059903593712,1.080086405184336,0.24481958517415234,-1.9441555293318447,-0.2592207372436868,-5.112408984539036,-0.31682534552074026,0.23041843310601343,-0.23041843310595794,0.051599000000000006,0.142509,-0.912464,-0.081334,-0.09894700000000001,-0.913892,0.132933,0.241456,0.0014279999999999848,0.9684983936224407,0.9822352808546044,double,-0.912464
26,0.216667,step_acsent,0.10139188864890782,0.17710583153347692,-0.006359491240710428,0.08182586210790072,0.19592964889212247,0.26270600269939,0.005279577633787911,-0.0019198464122889352,-0.0017998560115192117,-0.006479481641468495,0.010439164866810261,0.012359011279097947,1.2800887573493893,-2.508050009999527,-1.814235859698316,0.028722825260802862,-0.1583660200781887,0.8639913610369635,-0.31669402871659996,0.21584104307479848,0.8925863296407114,0.050797999999999996,0.141017,-0.912426,-0.082233,-0.10033600000000001,-0.913736,0.13303099999999998,0.24135299999999998,0.0013100000000000334,0.9770681877023593,0.9709547763892503,double,-0.912426
27,0.225,step_acsent,0.08964358574343022,0.21048841953678113,0.0033601344053795727,-0.038572817818000385,0.25656054680119733,0.1593812614222468,0.0030001200048015244,-0.0006000240009606379,-0.0019200768030715435,-0.009720388815552759,0.010440417616705108,0.01260050402016049,-1.4098527427670213,4.0060708032286305,1.166401733600143,-0.2735458573126586,0.15838502476038596,-0.01442707206916257,-0.388924417866826,0.0001503360008215611,0.028980288139030617,0.050076,0.139258,-0.91247,-0.083061,-0.102003,-0.913659,0.133137,0.241261,0.0011889999999999956,0.9820897924143781,0.9682780753920883,double,-0.91247
28,0.233333,step_acsent,0.089283571342853,0.18828753150126,-0.022560902436093343,0.21503435280601924,0.003649192770786437,0.2868084464176494,0.007440297611903584,0.00024000960038425518,0.002040081603263671,-0.009720388815552343,0.013800552022080517,0.016080643225729278,-0.04320345620751419,-2.664213132787843,-3.110648846930624,0.532842626557309,0.10080806448396645,0.4752380182809565,4.996203458951558e-14,0.4032322579353662,0.41763341000465437,0.049394,0.137691,-0.912265,-0.08388599999999999,-0.103457,-0.9133370000000001,0.13328,0.241148,0.001072000000000073,0.9764155824385904,0.9611438449966183,double,-0.912265
29,0.241667,step_acsent,0.07679385649148106,0.2002639788816904,-0.017638588912887998,0.294587470630276,0.1523623737074319,0.12636907753319623,0.004319654427646788,0.000839932805376412,-0.0034797216222695435,-0.00827933765298815,0.016918646508279647,0.01427885769138485,-1.4986458904933975,1.437058720953973,0.5906303723548544,-0.37444722633270977,0.07198502579699521,-0.6623234011918919,0.17291230652318157,0.3741414070313339,-0.2161969683638628,0.04879000000000001,0.136029,-0.912147,-0.084595,-0.104985,-0.913071,0.133385,0.241014,0.0009239999999999249,0.9814098122329717,0.9606061973072212,double,-0.912147
30,0.25,step_acsent,0.09384375375014968,0.21576863074522892,-0.0247209888395583,0.21704295949774632,0.13871522888174384,0.17916441404133507,0.0034801392055683693,-0.0015600624024943279,-0.0070802832113288664,-0.023640945637825404,0.04632185287411462,0.04296171846873838,2.0460695138207856,1.860632648930579,-0.8499219880799588,-0.10074585648366947,-0.2880109453823038,-0.43208467407408135,-1.8434666968483426,3.528525904936391,3.4420809765214813,0.04803700000000001,0.134218,-0.9119999999999999,-0.085574,-0.10639699999999999,-0.912507,0.133611,0.24061500000000002,0.0005070000000000352,0.9815264791169513,0.887573263137859,double,-0.9119999999999999
31,0.258333,step_acsent,0.15444617784711467,0.2031681267250695,0.010440417616711805,-0.025309409262385382,0.3282387927915915,0.08766791082588314,0.019200768030720496,0.06048241929676922,0.07440297611904524,-0.016680667226689136,0.011760470418816886,0.028441137645506022,7.272581794907613,-1.5121209672578237,4.219537556254673,1.8865509210551021,7.445395619736434,9.778382254935114,0.8352668200091545,-4.147531795907574,-1.7425394003639016,0.04691,0.133029,-0.911467,-0.087,-0.107992,-0.9123570000000001,0.13391,0.24102099999999999,0.0008900000000000574,0.8281191269544272,0.941655914463084,double,-0.911467
32,0.266667,step_acsent,0.13018958483321352,0.1689464842812581,-0.011879049676034457,0.05820928182735937,0.5629875060372681,0.22793192174754895,0.001679865610751153,0.0011999040076805846,-0.011039116870650553,-0.013678905687544925,0.030717542596592158,0.046196304295655875,-2.910558317002775,-4.106268591770022,-2.678121825383518,-2.1023401031880637,-7.113332768069184,-10.252230980285063,0.3601825700916976,2.2746666879979904,2.130449562053016,0.045839,0.131631,-0.9114599999999999,-0.088199,-0.109144,-0.9118729999999999,0.134038,0.24077500000000002,0.0004129999999999967,0.977152523067278,0.9047696008129198,double,-0.9114599999999999
33,0.275,step_acsent,0.10908436337453453,0.22092883715348466,-0.020520820832823774,0.20706627835524896,0.30831434564227583,0.09147332302431946,0.004080163206528994,0.014640585623426194,0.005520220808832022,-0.01368054722188876,0.03744149765990621,0.06840273610944422,-2.532727884156835,6.238131869941958,-1.0370540209755528,0.288047233382675,1.612946311741936,1.9872000095382822,-0.0001969920009402304,0.8069068838730378,2.664878412791102,0.044964000000000004,0.12991200000000003,-0.911243,-0.089222,-0.110673,-0.911132,0.134186,0.24058500000000002,0.00011099999999997223,0.9730500815829389,0.8669392787000751,double,-0.911132
34,0.283333,step_acsent,0.08904356174246987,0.1634465378615151,-0.012600504020163448,0.4020145137215049,0.13146441431231098,0.21383242821811158,0.00588023520940761,0.007440297611901943,0.0007200288011519352,-0.010560422416896855,0.05976239049562062,0.08568342733709362,-2.4049923955435872,-6.898151841110007,0.9504760365607039,0.21601728103667597,-0.8640691241478781,-0.5760460827649225,0.3744299537971814,2.67861428485713,2.073765897953851,0.044271,0.128612,-0.911132,-0.09005200000000001,-0.111537,-0.910313,0.134323,0.240149,0.0008190000000000142,0.984148813911701,0.8168122574780102,double,-0.910313
35,0.291667,step_acsent,0.08387329013678876,0.21994240460763134,-0.0221982241420675,0.33462085191653246,0.5812795968023151,0.1618490807078524,0.006599472042236554,0.003359731221502306,-0.005399568034556802,0.000959923206143635,0.058795296376289524,0.10187185025198005,-0.6203829620447686,6.778961692598533,-1.1516342838857743,0.0863015158182077,-0.4896287965442324,-0.7342928768548994,1.382330888293794,-0.11604201095885461,1.9424553533581004,0.043627,0.126807,-0.910992,-0.090743,-0.11288000000000001,-0.9092790000000001,0.13437,0.23968699999999998,0.0017129999999999646,0.9847250968291115,0.7868280387724547,double,-0.9092790000000001
36,0.3,step_acsent,0.13212528501140136,0.20124804992199713,-0.018840753630154104,0.150726786203417,0.4693670521720036,0.03589502736943813,0.005160206408256507,0.00060002400096064,-0.0056402256090241866,0.006960278411136346,0.09576383055322238,0.1304452178087124,5.7904710037936775,-2.2434122987680616,0.4029125779327257,-0.1727187848289992,-0.3311781135895443,-0.02888006413865173,0.7200714274562253,4.4364015572942455,3.42894126445847,0.042568999999999996,0.125135,-0.910882,-0.091786,-0.113759,-0.9080349999999999,0.134355,0.238894,0.002847000000000044,0.9872198174354205,0.7015757262642572,double,-0.9080349999999999
37,0.308333,step_acsent,0.1111244449777982,0.14976599063962484,0.007560302412100682,0.18765473752990072,0.8683733427573956,0.17318073563644748,0.000840033601343225,-0.002280091203647086,-0.005400216008640727,-0.012240489619584483,0.049921996879874954,0.17940717628705113,-2.520201612096852,-6.178094237654155,3.1682534552087693,-0.5184414744885713,-0.345627649658912,0.028802304138180527,-2.3041843310597323,-5.501240090405284,5.8756700442023915,0.04164999999999999,0.123868,-0.91099,-0.09281400000000001,-0.114591,-0.9066029999999999,0.134464,0.238459,0.00438700000000003,0.9901304613852755,0.6450879777323111,double,-0.9066029999999999
38,0.316667,step_acsent,0.11939044876409906,0.21898248140149,-0.033477321814258554,0.31157671516663316,0.479356294593298,-0.06866172310149074,-0.00011999040076805925,-0.0015598752099847703,-0.002759779217662865,-0.011519078473722447,0.07163426925845977,0.21826253899688164,0.9918411070675425,8.305314466266564,-4.924120977484938,-0.11519366476017395,0.08641900571902084,0.31682706875184513,0.08656241251044397,2.6052642642890493,4.662270543536204,0.040653999999999996,0.12202999999999999,-0.9107339999999999,-0.093905,-0.115819,-0.904505,0.13455899999999998,0.23784899999999998,0.006228999999999929,0.9947127013573288,0.5543669072603115,double,-0.904505
39,0.325,step_acsent,0.11664466578663106,0.14700588023520758,0.0772830913236633,-0.2516915719441607,0.8737829556083287,0.15533743285336743,0.0018000720028802425,-0.0013200528021100684,-0.00048001920076767607,-0.023880955238209163,0.13224528981159178,0.25489019560782333,-0.3295071375816616,-8.637537641459511,13.291781247800479,0.2304167051059995,0.02877984013856965,0.27358214531323405,-1.4834845511204446,7.2736134109122474,4.395494613097509,0.039696999999999996,0.12079400000000001,-0.911382,-0.095076,-0.11594199999999999,-0.9030250000000001,0.134773,0.236736,0.008356999999999948,0.9961945882654444,0.43618663427152865,single,-0.9030250000000001
40,0.333333,step_acsent,0.14508580343213787,0.2304092163686559,-0.016560662426507,0.38463594547382374,-0.08977510158506355,-0.2441264289605446,0.0018000720028802544,-0.006960278411136762,-0.016560662426497008,-0.0334813392535704,0.11448457938317602,0.31117244689787643,3.4130730403824403,10.008800688041346,-11.261700918057187,1.4312041158455032e-15,-0.676854147249095,-1.9297543772626153,-1.1520921655299725,-2.131370506230146,6.754140320419205,0.038502999999999996,0.118816,-0.9113819999999999,-0.096564,-0.116908,-0.9002939999999999,0.135067,0.235724,0.011087999999999987,0.9699102603875378,0.38912,single,-0.9002939999999999
41,0.341667,step_acsent,0.14086873050155907,0.18046556275498007,0.029877609791223243,-0.052087342449779014,0.612715894583799,-0.03059003054441075,0.0035997120230384233,-0.003959683225342598,-0.005279577633789576,-0.02807775377969737,0.13378929685625113,0.35337173026157825,-0.5060082710077745,-5.992759012920061,5.572146894376073,0.21593952725679952,0.3600426188857885,1.3536218853740605,0.6483783865938355,2.316380786306106,5.06350892293038,0.037359,0.117279,-0.911675,-0.09797199999999999,-0.11729700000000001,-0.897598,0.135331,0.234576,0.014077000000000006,0.9874710382307987,0.35923000000000005,single,-0.897598
42,0.35,step_acsent,0.14160566422656948,0.15168606744269822,0.07536301452057644,-0.010627136242559955,0.44282601954521805,0.07892027453963524,-0.007320292811711481,-0.004440177607105405,-0.01692067682707256,-0.04512180487219516,0.16980679227169124,0.42949717988719727,0.08843558442462617,-3.4536775845772145,5.458466906198645,-1.3104529982899236,-0.05766163227682804,-1.3969877827052695,-2.0453679458175724,4.322272340746454,9.135419371849178,0.03611800000000001,0.11597799999999998,-0.912444,-0.09952799999999999,-0.117146,-0.894647,0.13564600000000002,0.233124,0.017797000000000063,0.9683943057030125,0.32203000000000004,single,-0.894647
43,0.358333,step_acsent,0.15828633145325754,0.15840633625344802,0.06468258730349993,-0.025228684183136594,0.6382453169911108,0.014626962954885383,-0.0015600624024976536,-0.004680187207486299,-0.012480499219968738,-0.06312252490099562,0.2264490579623175,0.4657386295451793,2.001760137608064,0.8064645158706077,-1.2817025341505408,0.6912552993176291,-0.028802304137872634,0.5328426265575185,-2.160172810368462,6.79734377662619,4.3491479248748215,0.034786,0.11461900000000001,-0.9130870000000001,-0.10137299999999999,-0.11657899999999999,-0.891305,0.136159,0.23119800000000001,0.02178200000000008,0.9776330596280752,0.28218000000000004,single,-0.891305
44,0.366667,step_acsent,0.16174706023518126,0.1391888648908096,0.02663786897047567,-0.23104128110350114,1.0868114916702094,0.18612652094164678,0.0011999040076805846,-0.004319654427646774,-0.006239500839933211,-0.10103191744660447,0.2864170866330691,0.5350371970242381,0.4152542334921662,-2.305912090549366,-4.565000999882917,0.3311694756633352,0.043260472742923495,0.7488598968125176,-4.548763204416704,7.1955877934667045,8.315162884456294,0.033448000000000006,0.113423,-0.913361,-0.103563,-0.11535200000000001,-0.887068,0.137011,0.228775,0.02629300000000001,0.987194775943057,0.23707,single,-0.887068
45,0.375,step_acsent,0.15648625945037836,0.12948517940717622,0.09588383535341367,-0.32325581613163384,0.9713448261693801,0.16534390602785695,0.002520100804031357,0.000120004800192128,-0.003000120004799869,-0.11196447857914342,0.3121324852994127,0.5779431177247097,-0.6313213470302307,-1.1644888375895113,8.309848359886978,0.1584299527602035,0.5327804185574119,0.3887412498659966,-1.3119598142972486,3.085971278812391,5.148916440714235,0.032165,0.112345,-0.914185,-0.1058,-0.11383,-0.883051,0.137965,0.22617500000000001,0.031133999999999995,0.9934667454813961,0.18866000000000005,single,-0.883051
46,0.383333,step_acsent,0.15768630745229964,0.11472458898355944,0.06156246249849837,-0.17603668203533854,1.0893292159790222,0.278856816536743,-0.0006000240009589745,-0.002040081603262845,-0.006000240009600571,-0.1418456738269529,0.35077403096123955,0.6219848793951782,0.14401152069138135,-1.7713417045021969,-4.118729491769517,-0.37442995379699257,-0.2592207372440872,-0.3600288017281542,-3.585886865211755,4.637170966257886,5.285222809368604,0.030846,0.11137200000000001,-0.914748,-0.108296,-0.11186299999999999,-0.878381,0.139142,0.22323500000000002,0.03636700000000004,0.9893901458379342,0.13633,single,-0.878381
47,0.391667,step_acsent,0.16030717542596457,0.08231341492680651,0.0989920806335583,-0.3024558449314319,1.6039131368726676,0.36974255947082774,0.003599712023036758,-0.0011999040076805846,-0.006359491240700437,-0.16234701223902073,0.39680825533957215,0.7038636909047264,0.3144789985199091,-3.8890297644291945,4.491194880616738,0.5039280086387963,0.10081324641015835,-0.04310669919604824,-2.45996381234315,5.523665032197331,9.824671407433184,0.029539999999999997,0.110676,-0.915626,-0.110985,-0.109242,-0.87334,0.14052499999999998,0.219918,0.042286000000000046,0.987657568095186,0.07714000000000004,single,-0.87334
48,0.4,step_acsent,0.16728669146765876,0.14880595223808785,0.03624144965797578,-0.00977279120950148,0.7223644220327592,0.17718371433963176,0.0008400336013448903,-0.0024000960038392132,-0.007560302412096519,-0.2745709828393131,0.4766590663626527,0.8749549981999251,0.8375754280204207,7.979423654299899,-7.530376932147156,-0.33117465758932635,-0.14402880069106247,-0.1441031046917169,-13.467415168641772,9.582480621994506,20.53177814654961,0.028152999999999997,0.10941600000000001,-0.915991,-0.114667,-0.10651,-0.866351,0.14282,0.215926,0.04964000000000002,0.9867058607481232,0.003599999999999992,single,-0.866351
49,0.408333,step_acsent,0.14100564022560882,0.0830433217328693,0.12648505940237634,-0.017952129800647556,1.3466655956229292,0.45096550936471935,0.003720148805952637,0.000240009600384256,-0.0022800912036487664,-0.28345133805352235,0.5156606264250584,0.9846393855754243,-3.153852303138126,-7.891831333879601,10.829666355982333,0.3456276496589168,0.3168253455206379,0.6336506910413735,-1.0656852531152394,4.680374422465592,13.162652991179588,0.027009000000000005,0.10872600000000002,-0.917064,-0.118204,-0.102905,-0.8592,0.145213,0.211631,0.057864000000000027,0.9927168520916693,0.0,single,-0.8592
50,0.416667,step_acsent,0.13846892248620124,0.08963282937365141,0.13486921046316447,-0.6166427990322424,0.6274380839328296,0.4594529605926292,0.0026397888168939554,-0.0017998560115208768,-0.004199664026877882,-0.29613630909527267,0.5625149988000954,1.0487161027117817,-0.3043817781866549,0.7906776626808387,1.0060176458829042,-0.12963282806079682,-0.24476429228523286,-0.2303303123625047,-1.522074759029314,5.622074919010911,7.688590969085357,0.025876999999999997,0.10796399999999999,-0.918223,-0.121826,-0.09896400000000001,-0.851584,0.147703,0.206928,0.066639,0.9912052502090644,0.0,single,-0.851584
51,0.425,step_acsent,0.1396855874234971,0.12144485779431195,0.08124324972999404,0.34494053269751135,1.496860011190657,0.2611212895956959,0.011160446417856245,-0.007560302412097402,-0.012720508820352245,-0.30853234129365215,0.6605064202568119,1.1603264130565265,0.14600563270081138,3.8175961143238473,-6.435372702888583,1.0225198129079935,-0.6912812193179574,-1.0225422769080024,-1.487583367140227,11.759440952444116,13.3937729922891,0.024805999999999995,0.10688899999999998,-0.919006,-0.125561,-0.094472,-0.842592,0.150367,0.20136099999999998,0.07641399999999998,0.9691092839613553,0.0,single,-0.842592
52,0.433333,step_acsent,0.1563662546501852,0.14004560182407255,0.09468378735149842,-0.5173558386486065,0.8099829586052946,0.20062248864087653,0.008760350414016958,-0.00420016800671779,-0.004320172806912415,-0.3865354614184553,0.6877475099003931,1.3313332533301268,2.001760137608067,2.2321785707140913,1.6129290317417884,-0.28802304138236856,0.40323225793586914,1.008080644838569,-9.360748844930136,3.269061519690516,20.521641698499884,0.023576,0.105687,-0.9198310000000001,-0.130085,-0.089908,-0.832287,0.153661,0.19559500000000002,0.08754400000000007,0.9822792460231726,0.0,single,-0.832287
53,0.441667,step_acsent,0.11075113990880878,0.12023038156947381,0.08375329973601876,-0.16292868575118202,0.35917395269392594,0.2780017718406677,0.0147588192944563,-0.00779937604991719,-0.002399808015358687,-0.24130069594432568,0.7182625389968843,1.2992560595152467,-5.4733758988932895,-2.3776362196542897,-1.3115535895704005,0.7197586849579286,-0.43187041555068645,0.23042534095917191,17.42677771467848,3.661510570733303,-3.84895534135832,0.02277599999999999,0.10462,-0.9205490000000001,-0.133019,-0.084924,-0.822157,0.155795,0.189544,0.09839200000000003,0.9718924638296151,0.0,single,-0.822157
54,0.45,step_acsent,0.10596423856954172,0.11820472818912704,0.0859234369374698,-0.4127172474062261,0.09348032372882134,0.14773456817816188,-0.008760350414015293,-0.0007200288011527632,-0.0026401056042243,-0.18264730589223524,0.6791071642865685,1.4154566182647246,-0.5744511387575945,-0.24308812916677808,0.2604268812493736,-2.8224132615470414,0.8495556520778108,-0.028836864138438972,7.038688353784975,-4.698832918554622,13.944624834930684,0.021820000000000006,0.103629,-0.921287,-0.135424,-0.08024999999999999,-0.811078,0.157244,0.183879,0.110209,0.9847036371014868,0.0,single,-0.811078
55,0.458333,step_acsent,0.06708268330733293,0.11208448337933596,0.01956078243130021,-0.18967393064732688,0.18370970414907842,0.16973393389320307,0.008760350414015352,-0.001800072002878589,0.007800312012480826,-0.09144365774630993,0.6950678027121104,1.5369014760590445,-4.665973270395883,-0.7344587555251523,-7.96383709422414,2.102568202091766,-0.1296103686218443,1.2529002300138186,10.944875572533967,1.915353225194048,14.573965893954183,0.021333999999999992,0.10268000000000001,-0.921385,-0.136745,-0.075392,-0.798434,0.158079,0.178072,0.12295100000000003,0.9802214435643648,0.0,single,-0.798434
56,0.466667,step_acsent,0.06203503719702294,0.14050875929925657,0.0795536357091395,1.4397842150367255,0.23518318076374184,-0.20310705254891961,0.004199664026878715,-0.0014398848092167015,0.0005999520038394596,-0.14854811615070732,0.7556995440364761,1.693424526037917,-0.6056690797108208,3.4106402591697362,7.198566508020066,-0.5472385873694063,0.04321900571896895,-0.8639740831103142,-6.851986849579713,7.2752269407686105,18.78126349638498,0.02085200000000001,0.10149699999999999,-0.922043,-0.13849999999999998,-0.07026500000000001,-0.7849839999999999,0.159352,0.171762,0.13705900000000004,0.992533335452124,0.0,single,-0.7849839999999999
57,0.475,step_acsent,0.04404176167046767,0.19308772350894077,-0.04128165126605206,3.1523962933618694,1.799845216833057,-0.41535648737893055,0.003960158406335228,-0.001080043201725821,-0.004320172806912445,-0.06492259690387629,0.794911796471861,1.6216248649946035,-2.159279434364012,6.30972809428589,-14.500814469601806,-0.02874182413818408,0.04318272020771406,-0.5904385948340234,10.035463728168875,4.70565851858695,-8.616303977356747,0.020517999999999995,0.09987900000000001,-0.921735,-0.139408,-0.06525,-0.7711269999999999,0.15992599999999998,0.16512900000000003,0.15060800000000008,0.9900678354990735,0.0,single,-0.7711269999999999
58,0.483333,step_acsent,0.16968678747149799,0.25081003240129435,0.096483859354377,-0.8302864266484429,2.822210874399955,-0.6671543248661568,0.002640105604225133,-0.004800192007681757,-0.0033601344053762307,-0.11808472338893575,0.831993279731186,1.7233889355574166,15.07800621637223,6.92695414524821,16.532522575354434,-0.15841267276012114,-0.4464357141432762,0.1152092165530073,-6.379710366621773,4.449955989358546,12.212176954615707,0.019126000000000004,0.097749,-0.922567,-0.141806,-0.060406999999999995,-0.75757,0.16093200000000002,0.158156,0.16499700000000006,0.9892888292819721,0.0,single,-0.75757
59,0.491667,step_acsent,0.07751379889608916,0.18622510199184023,-0.13078953683704383,-0.3335241851980067,-0.26089051324465895,-0.5879946148990467,0.03251739860811054,0.026637868970482332,0.05351571874250078,-0.035517158627309496,0.8342932565394762,1.731941444684424,-11.059873839141918,-7.749571683399815,-27.27062589289904,3.5849883613973335,3.772265536136796,6.824556413232177,9.907315186180245,0.2759751389837043,1.0262189977210616,0.01875099999999999,0.096419,-0.921031,-0.142748,-0.05500599999999999,-0.742046,0.161499,0.151425,0.17898500000000006,0.8865822688262817,0.0,single,-0.742046
60,0.5,step_acsent,0.05652226089043566,0.17232689307572427,-0.06912276491059911,0.26016207710171346,-0.34952127892543866,-0.6795002054612301,0.004320172806913277,0.01356054242169714,0.024240969638785706,-0.09096363854554225,0.8095523820952852,1.8045121804872233,-2.5190853240913893,-1.6678517840052791,7.400308643519126,-3.3838024482416094,-1.5693419595326081,-3.5131104168624923,-6.6538437439377045,-2.969023694250689,8.70883664980194,0.018316,0.095096,-0.920253,-0.14397700000000002,-0.049696000000000004,-0.726433,0.16229300000000002,0.144792,0.19382,0.9531498602847817,0.0,single,-0.726433
61,0.508333,step_acsent,0.059042361694466625,0.13320532821312794,0.12324492979719139,1.0203629735793631,1.573829067871995,-0.5265312792523466,0.0006000240009589705,0.020520820832833766,0.03528141125644959,0.0,0.8424336973478902,1.7776311052442015,0.3024241934514525,-4.694775574534521,23.085046766805437,-0.44643571414308064,0.8352668200091918,1.3249059903592748,10.91607326839576,3.945915666939256,-3.2258580634851355,0.017828999999999998,0.094157,-0.9209860000000001,-0.14446900000000001,-0.043786000000000005,-0.712647,0.162298,0.137943,0.20833900000000005,0.931967285306142,0.0,single,-0.712647
62,0.516667,step_acsent,0.03179745620350406,0.1459083273338135,0.015958723302128566,0.03544164826465543,0.5884531621765539,-0.5384577872200725,0.016798656107511644,0.016318694504439405,0.019078473722102272,-0.03887688984881207,0.9140868730501611,1.837532997360221,-3.2691271287452266,1.5242379554458407,-12.873314914214474,1.9436803583576634,-0.5042148222215485,-1.94419696836422,-4.664853593569989,8.597693268811055,7.187652041759038,0.017703999999999998,0.09307700000000001,-0.92096,-0.145058,-0.037384,-0.6974659999999999,0.162762,0.130461,0.22349400000000008,0.9496544496914737,0.0,single,-0.6974659999999999
63,0.525,step_acsent,0.0416416656666265,0.12888515540621637,0.13788551542062424,-0.21489982352738068,1.617484999366602,-0.40120511377375806,0.026881075243009846,0.03216128645145678,0.013560542421697049,-0.004800192007680092,0.922356894275767,1.791311652466094,1.1813523896702742,-2.0428623458054807,14.631800326232469,1.2099386938075314,1.901187081125322,-0.6621782431783512,4.0893673156284445,0.9924422447624858,-5.546783258625574,0.017581,0.09227099999999999,-0.921996,-0.145445,-0.030772000000000008,-0.6836880000000001,0.163026,0.123043,0.23830799999999996,0.9265752678814771,0.0,single,-0.6836880000000001
64,0.533333,step_acsent,0.04092163686547429,0.10440417616704713,0.20400816032640579,-0.00840205166839218,1.8846870693202933,-0.3234326644875058,0.0033601344053762754,0.0009600384015370304,0.011040441617665023,-0.06960278411136558,0.9597983919356868,1.8207128285131529,-0.08640691241476277,-2.9378350221012197,7.935034790085461,-2.822625805548276,-3.7442995379719233,-0.30242419345158394,-7.776622117327024,4.49315944556825,3.528282256937383,0.017268000000000006,0.091409,-0.923604,-0.146366,-0.023644,-0.6702159999999999,0.163634,0.115053,0.25338800000000006,0.9806994870485776,0.0,single,-0.6702159999999999
65,0.541667,step_acsent,0.07319414446844356,0.0647948164146862,0.27513798896087976,0.28310583999036726,2.7568827072661803,-0.30353709576583365,0.007319414446844856,0.014398848092153596,0.014278857691384705,-0.09335253179745477,0.977081833453316,1.8008159347252108,3.8723911210665984,-4.752742950847208,8.53489664440526,0.47507559892831186,1.612528160621126,0.3885788425389558,-2.8497417429912413,2.073847074349537,-2.3874362596522514,0.016718999999999998,0.09098900000000001,-0.925778,-0.147754,-0.016041,-0.6575009999999999,0.164473,0.10703000000000001,0.2682770000000001,0.9640684898732319,0.0,single,-0.6575009999999999
66,0.55,step_acsent,0.03516140645625663,0.10980439217568647,0.08328333133326299,-0.6455772023130409,0.1478148147650697,-0.3409098332773922,-0.06192247689907601,-0.07752310092403755,-0.1216848673946954,-0.06012240489619577,0.99783991359654,1.7292691707668209,-4.564111125907449,5.401365145925848,-23.023479854508096,-8.309359335883906,-11.03107512494789,-16.316299662316037,3.9877747391406295,2.491069259957268,-8.585955113211291,0.015910000000000007,0.08942800000000001,-0.927486,-0.14854799999999999,-0.008640999999999996,-0.643785,0.164458,0.098069,0.283701,0.7383204287945331,0.0,single,-0.643785
67,0.558333,step_acsent,0.04536181447257972,0.11796471858874436,0.13620544821792963,-0.8985216404154172,-0.1673867667360515,-0.3153987325968527,-0.008040321612864302,-0.013080523220928715,-0.013680547221889359,-0.0907236289451586,1.0247209888395636,1.6884675387015666,1.224097925875817,0.9792783407005836,6.350908062482554,6.4661172790366255,7.733418661119575,12.961036862211333,-3.6722937776266793,3.225858063485405,-4.896391703498692,0.015465000000000007,0.08833600000000001,-0.9287350000000001,-0.14968199999999998,-0.0010849999999999888,-0.63085,0.165147,0.089421,0.29788500000000007,0.9657256075642675,0.0,single,-0.63085
68,0.566667,step_acsent,0.06911447084233294,0.10931125509959227,0.048356131509470615,-2.703292028783185,0.3624389878757378,0.03735593184038186,0.009839212862970736,-0.0038396928245745146,0.0025197984161267127,-0.10979121670266284,1.0614350851931755,1.634989200863915,2.8500907571097955,-1.0383325520940743,-10.541074719037479,2.1453725072996046,1.1088109426870805,1.943885965684659,-2.287927496700755,4.405339135302569,-6.416887189542973,0.014970999999999998,0.087393,-0.929117,-0.151173,0.006849999999999995,-0.6176269999999999,0.16614400000000001,0.080543,0.31149000000000004,0.9819028290418508,0.0,single,-0.6176269999999999
69,0.575,step_acsent,0.03828153126125078,0.14904596183847407,0.07032281291252752,-1.2698742266059933,0.3485473057296767,-0.4345318453879726,-0.07392295691827806,-0.03096123844953925,-0.04212168486739474,-0.1814472578903172,1.0836433457338406,1.6055442217688891,-3.700100753760043,4.768355542887575,2.6361072126553595,-10.051862448247878,-3.254715663622343,-5.357192281713892,-8.599068905274814,2.665097868794582,-3.533538832956467,0.014035999999999993,0.085893,-0.930054,-0.153004,0.014638000000000012,-0.6048340000000001,0.16704,0.07125499999999999,0.32521999999999995,0.8491004916625073,0.0,single,-0.6048340000000001
70,0.583333,step_acsent,-0.2288491539661584,0.314892595703827,-0.6480259210368473,1.6975519371190806,-5.357320433198554,-1.868695747906501,-0.03768150726028963,-0.011640465618623015,-0.0218408736349455,-0.16968678747149882,1.080763230529215,1.5064202568102638,-32.0569645058692,19.90239215952865,-86.20529628577604,4.349147924875588,2.3185854831292643,2.433794699681886,1.411312902774312,-0.3456276496610583,-11.89535160909935,0.015629000000000004,0.08317200000000001,-0.924836,-0.152511,0.021019999999999997,-0.586881,0.16814,0.06215200000000001,0.337955,0.9248627147156756,0.0,single,-0.586881
71,0.591667,step_acsent,0.04859611231101506,0.03335733141348672,-0.04679625629949586,1.4698076412472336,-0.570009513303323,-0.13769086440155648,0.0157187425005989,0.007919366450681814,-0.0014398848092150266,-0.20794336453083492,1.0952723782097344,1.4365250779937475,33.29076869176522,-33.781529192505175,72.14178842540758,6.407517369916981,2.3469920889494453,2.447922825261617,-4.590422013359229,1.7409584449867246,-8.386750517940458,0.015354999999999994,0.08295999999999999,-0.924458,-0.15464899999999998,0.029869999999999994,-0.574519,0.170004,0.05309,0.349939,0.9705670017457669,0.0,single,-0.574519
72,0.6,step_acsent,0.010800432017279933,0.1987279491179671,0.23100924036962475,-1.8983697719685098,0.8843478939440397,-0.6997832923063754,0.012360494419777608,0.005760230409218851,-0.0090003600144005,-0.2544101764070599,1.103564142565714,1.3655346213848711,-4.535663061770728,19.845267935255237,33.33799312001958,-0.4030058899341561,-0.2591066892431276,-0.9072933163549194,-5.576240474766036,0.995051524778534,-8.519195560887677,0.015368000000000007,0.08135200000000001,-0.926458,-0.156859,0.03741,-0.565065,0.17222700000000002,0.04394200000000001,0.36139299999999996,0.9727680458806274,0.0,single,-0.565065
73,0.608333,step_acsent,-0.007920316812672067,0.017760710428416506,0.11220448817951569,0.7464703625087227,2.806865268549597,-0.2549280809307139,-0.006960278411136715,-0.0004800192007685088,-0.014640585623425361,-0.2724108964358556,1.1083643345733776,1.2714508580343187,-2.246579722783142,-21.716937320238788,-14.257140548434966,-2.3185854831290342,-0.7488599075947838,-0.6768541472488704,-2.160172810367891,0.5760460827629502,-11.290503222195136,0.015376,0.08120000000000001,-0.927515,-0.159063,0.046498,-0.5554049999999999,0.174439,0.03470200000000001,0.37211000000000005,0.9729700453513713,0.0,single,-0.5554049999999999
74,0.616667,step_acsent,0.023398128149748242,0.23386129109671436,0.3429325653947736,-1.094809836047548,2.1826521748038594,-0.9196825631989869,-0.004199664026877078,-0.005519558435327395,-0.015478761699063823,-0.32541396688265195,1.112550995920333,1.1838252939764868,3.757912762469461,25.929995280573443,27.685154453474834,0.33124722633305165,-0.6046963324404745,-0.10057308322995762,-6.359859664842412,0.5023591729008242,-10.514226548815975,0.015146000000000007,0.07920499999999998,-0.9305019999999999,-0.16197,0.053820999999999994,-0.548397,0.177116,0.02538399999999999,0.3821049999999999,0.9717307210819843,0.0,single,-0.548397
75,0.625,step_acsent,-0.08088323532941212,0.01716068642745587,-0.2019680787231469,1.075085681443109,-0.9825611994693042,0.15977643979158637,0.0012000480019196066,-0.0031201248049919765,-0.0027601104044164275,-0.3663746549861979,1.1198847953918118,1.0873634945397754,-12.514264188066715,-26.005112764821504,-65.39069292186706,0.6479913631101238,0.2879435533823843,1.5262992073259742,-4.9154791915931595,0.8800911402230649,-11.575878967564023,0.015829999999999997,0.079036,-0.928842,-0.16434900000000002,0.06301000000000001,-0.5376529999999999,0.180179,0.016025999999999985,0.391189,0.9927747542428946,0.0,single,-0.5376529999999999
76,0.633333,step_acsent,-0.03156126245049781,0.4092163686547457,-0.23988959558381912,0.022395806390401906,-2.7560585636870796,-1.5713020876382533,-0.009360374414975928,-0.0031201248049919765,-0.008760350414016125,-0.3976959078363115,1.1386055442217637,0.9823592943717739,5.918873500409709,47.04856380982697,-4.5507640538428005,-1.2673013820827423,0.0,-0.720057603456099,-3.7587006900412128,2.2465797227831295,-12.601008060482545,0.016015,0.07559999999999999,-0.926916,-0.1674,0.069088,-0.527468,0.183415,0.00651199999999999,0.3994479999999999,0.9780091226386678,0.0,single,-0.527468
77,0.641667,step_acsent,-0.0076793856491491315,0.15502759779217767,0.04235661147107496,-0.34848354431995937,0.6489611162317431,-0.4155521664568053,0.0007199424046066903,0.0017998560115208887,-0.00119990400767976,-0.4612431005519585,1.1622270218382595,0.9053275737940978,2.8655959684843793,-30.500212486509415,33.8668354997475,1.209541255049517,0.5903504699439517,0.9071809942808265,-7.625053121627955,2.8343505659342374,-9.243067023959274,0.016085000000000002,0.074323,-0.927279,-0.17118,0.077482,-0.520276,0.18726500000000001,0.003158999999999995,0.407003,0.9962003039756797,0.0,single,-0.520276
78,0.65,step_acsent,-0.0057602304092154435,0.12624504980199125,-0.0819632785311396,0.7400323784542152,-0.050247502759206863,-0.3746977094952462,0.005040201608064346,0.004440177607102045,0.005880235209408404,-0.5073802952118058,1.1741269650785966,0.8018720748829945,0.23030784110568583,-3.4540439205791795,-14.918983559608069,0.518451842488616,0.31685126552035825,0.8496506920782593,-5.53668482657472,1.4280503108528744,-12.415156475591365,0.016174999999999995,0.07330799999999998,-0.926547,-0.17536000000000002,0.08621399999999999,-0.5129109999999999,0.191535,0.012906,0.4136360000000001,0.9851212329186008,0.0,single,-0.5129109999999999
79,0.658333,step_acsent,-0.06948277931117429,0.220688827553105,-0.09876395055801208,-0.32970432034958086,-1.5181868255047806,-0.5938631419576655,0.004800192007680155,0.008040321612865968,0.005760230409216353,-0.5625825033001369,1.209408376335065,0.7164286571462894,-7.647011748705079,11.33370667840089,-2.016161289676303,-0.028802304138268654,0.43203456207415764,-0.014401152069128967,-6.6245299517978635,4.233938708324572,-10.25362027321563,0.016794000000000003,0.07153599999999999,-0.925676,-0.179469,0.09445299999999998,-0.5061180000000001,0.196263,0.022916999999999993,0.419558,0.9816766035023088,0.0,single,-0.5061180000000001
80,0.666667,step_acsent,-0.042476601871849116,0.15946724262058876,0.03383729301654563,0.3395377518152474,0.5580330836517109,-0.37792203815417535,0.0015598752099830842,0.006839452843772625,0.0031197504199661683,-0.6119510439164829,1.2161027117830487,0.6226301895848284,3.2404820541546635,-7.346002511700958,15.910876358838097,-0.3888069111707519,-0.14409272487321018,-0.3168322521298494,-5.923750973883563,0.8032559932785891,-11.254915714118109,0.017160999999999996,0.070264,-0.925932,-0.18421500000000002,0.10325899999999999,-0.501211,0.201376,0.032995,0.424721,0.9872041490496389,0.0,single,-0.501211
81,0.675,step_acsent,-0.11712468498739956,0.1164046561862468,-0.1834873394935793,1.9433576291897476,-2.3707193976661936,-0.5424130581725883,-0.004920196807872219,0.005280211208446935,-0.0022800912036479186,-0.6504260170406783,1.2522500900035949,0.5469818792751695,-8.958128298997975,-5.167717080804245,-26.079999101178927,-0.7776397477325424,-0.18711648089831795,-0.6480069151102921,-4.617181462161908,4.337858900821552,-9.078160363573573,0.018096,0.06933799999999998,-0.924422,-0.188659,0.11272399999999999,-0.49512399999999995,0.206755,0.04338600000000001,0.429298,0.987385217783736,0.0,single,-0.49512399999999995
82,0.683333,step_acsent,-0.04632185287411508,0.16068642745710057,0.05352214088564281,0.15460097264530667,0.9032176501112038,-0.30157219189807916,0.0007200288011527728,0.004560182407297563,0.0016800672026881377,-0.6861874474979063,1.2473298931957377,0.46597863914557314,8.496679720783046,5.314025113507041,28.44227533652037,0.6768541472488951,-0.08640691241442199,0.4752380182810623,-4.291543316600065,-0.5904472348322576,-9.720777646657519,0.018488000000000004,0.06803699999999999,-0.924854,-0.193991,0.12177899999999997,-0.491687,0.212479,0.053741999999999984,0.43316699999999997,0.9918118766788815,0.0,single,-0.491687
83,0.691667,step_acsent,-0.053515718742500426,0.13066954643628156,0.0273578113750905,0.5263871448244134,0.0016197504396353625,-0.2102841805238321,0.006839452843772625,0.005279577633787876,0.005759539236860939,-0.7314614830813484,1.2861771058315277,0.390568754499638,-0.8631948486183452,-3.601737583491574,-3.13946838379555,0.7342721433429092,0.08632052153711392,0.4894974843019883,-5.4324496740390895,4.661292612885727,-9.048462280529703,0.018991000000000008,0.066992,-0.925034,-0.199641,0.13140900000000003,-0.48866,0.218632,0.06441700000000003,0.43637400000000004,0.9826935828043208,0.0,single,-0.48866
84,0.7,step_acsent,-0.051362054482179495,0.1568462738509558,0.051962078483141806,0.26642590826171975,0.7012607666912638,-0.29923715454593575,0.0073202928117115295,0.004560182407297563,0.0032401296051841467,-0.7719908796351918,1.3006120244809862,0.3282131285251425,0.2584500492404837,3.1413329430786585,2.9526301581725107,0.05770310427684016,-0.0863308804140549,-0.3023412494511959,-4.863722135346661,1.732259528316176,-7.482974435916966,0.019479999999999997,0.065723,-0.92544,-0.205646,0.14093999999999998,-0.486358,0.225126,0.07521699999999998,0.43908200000000003,0.9846449076221697,0.0,single,-0.486358
85,0.708333,step_acsent,-0.05712228489139592,0.13332533301332009,0.018720748829945195,0.4362635282865582,0.1629392788923472,-0.2030782731297397,0.0008400336013448903,0.0020400816032628316,-0.0022800912036479186,-0.8331933277331064,1.315492619704786,0.2643705748229931,-0.6912552993179406,-2.822625805548494,-3.989119123148502,-0.7776622117324627,-0.3024241934519046,-0.6624529951796522,-7.344587555251937,1.7857428565702325,-7.66141290077393,0.01996300000000001,0.06462899999999999,-0.925615,-0.212113,0.150791,-0.48431099999999994,0.232076,0.08616200000000002,0.44130400000000003,0.9947120668561147,0.0,single,-0.48431099999999994
86,0.716667,step_acsent,-0.05255579553635596,0.15142788576913888,0.04319654427646079,0.5696788750774922,0.2783061868647604,-0.324512690739592,0.0053995680345575985,0.002399808015361153,-0.001199904007679744,-0.89188864890808,1.3248140148788023,0.2177825773938015,0.5479348878137654,2.1721325600934307,2.9368605047414693,0.5471003639564043,0.043163716354489894,0.12961209454861608,-7.042875110987894,1.1184779426465372,-5.590112482504348,0.020446000000000006,0.063387,-0.925985,-0.219108,0.16057000000000002,-0.482856,0.239554,0.09718300000000002,0.44312899999999994,0.9899509283046125,0.0,single,-0.482856
87,0.725,step_acsent,-0.05784231369254779,0.14988599543981898,0.05280211208448338,0.3076899708493814,0.7407523826285839,-0.25625479017293207,0.004080163206527382,0.0014400576023022146,-0.0014400576023038802,-0.88707548301933,1.3284531381255333,0.13320532821312972,-0.6344075550452268,-0.1850342408880246,1.1527142455325425,-0.15833491276013778,-0.11517465655333581,-0.028819584138262147,0.5776030107704259,0.4367122580980468,-10.149675888716255,0.020961999999999995,0.06214999999999998,-0.926437,-0.226018,0.170391,-0.482186,0.24698,0.108241,0.44425099999999995,0.992399695987842,0.0,single,-0.482186
88,0.733333,step_acsent,-0.07176287051482046,0.09000360014400546,-0.07848313932556458,0.49372207293958786,-0.9919447360951421,-0.029411317972013132,-0.002760110404415595,0.0002400096003842544,-0.004560182407295837,-0.9246369854794141,1.3451338053522115,0.08928357134285603,-1.6705336400183137,-7.1861748824928915,-15.754860363620233,-0.8208656679398715,-0.14401152069098225,-0.37442995379718513,-4.507560597633972,2.0017601376068748,-5.270821657299113,0.021537,0.061401999999999984,-0.925821,-0.233125,0.18085,-0.48078800000000005,0.254662,0.11944800000000003,0.44503299999999996,0.9911069506478607,0.0,single,-0.48078800000000005
89,0.741667,step_acsent,-0.06059515238780997,0.12862970962322962,-0.031677465802741,0.20755605512616368,-0.10534837141083839,-0.20422111587690023,-0.002039836813055342,-0.0007199424046083555,-0.005159587233021552,-0.9996400287977025,1.3636909047276247,0.08411327093832627,1.340018973723368,4.6347623565184035,5.616231524216924,0.08642591688987965,-0.11518502579705008,-0.0719228252610653,-8.999645226576538,2.226673791146301,-0.6203864176301642,0.022025000000000003,0.06032399999999999,-0.9256,-0.240951,0.19114299999999998,-0.479823,0.262976,0.130819,0.445777,0.9906755113775894,0.0,single,-0.479823
90,0.75,step_acsent,-0.06444257770310735,0.1329653186127437,-0.025921036841472827,0.17309765965297955,-0.16134779393849044,-0.20692913411636574,0.0021600864034566243,0.0002400096003842544,-0.0034801392055683576,-1.010920436817467,1.3643345733829317,0.06132245289811371,-0.4617095062159323,0.5202938904973065,0.6907991073164707,0.5040109464192906,0.11519884855305483,0.20154182496738116,-1.3537031104961395,0.07724332836998318,-2.7350075651281007,0.022580000000000003,0.05921799999999999,-0.925413,-0.248838,0.201404,-0.479096,0.271418,0.142186,0.446317,0.9931615980650105,0.0,single,-0.479096
91,0.758333,step_acsent,-0.060842433697348534,0.14280571222848815,0.005400216008635731,0.24950177493513753,0.09263315601850805,-0.2815504006212206,0.0006000240009589705,-0.0001200048001921272,-0.002520100804032173,-0.9929197167886679,1.4111364454578148,-0.03984159366374626,0.43203456207353913,1.1808944696681167,3.7587006900406132,-0.18721497689879363,-0.04320345620741391,0.11520921655300381,2.160172810368291,5.616449306958223,-12.140171194270916,0.023092,0.058026999999999995,-0.9254789999999999,-0.25660499999999997,0.21197300000000002,-0.479473,0.279697,0.15394600000000003,0.44600599999999996,0.9956777905546277,0.0,single,-0.479473
92,0.766667,step_acsent,-0.064674826013919,0.14302855771538342,0.009119270458372504,-0.00125601322110212,0.28574248968204763,-0.2677970049789884,0.003959683225342625,0.0023998080153611848,0.0032397408207342692,-1.0146388288936965,1.372090232781382,-0.06263498920086032,-0.45985028996526073,0.026739319281890408,0.4462508339017031,0.40312685677749865,0.3023533495984313,0.6911257049155837,-2.6060849658061866,-4.685170707515364,-2.7349886653604734,0.023664000000000004,0.05685500000000002,-0.925528,-0.26452200000000003,0.222216,-0.480071,0.288186,0.16536099999999998,0.445457,0.9905816239986245,0.0,single,-0.480071
93,0.775,step_acsent,-0.051602064082563064,0.1646465858634353,0.046321852874114465,0.23457259519782614,0.33621827968195517,-0.4405623120314462,-0.0008400336013448903,0.0019200768030707043,-0.0013200528021117337,-1.0464418576743,1.3058922356894225,-0.09864394575783529,1.5687941835300465,2.5942671484521536,4.464488469427794,-0.57598905876485,-0.057570048276788494,-0.5471971226264232,-3.8165161143169746,-7.944077414131672,-4.321247636742449,0.024086999999999997,0.05549899999999999,-0.925925,-0.272812,0.231726,-0.48127900000000007,0.29689899999999997,0.176227,0.44464599999999993,0.9958718813871471,0.0,single,-0.48127900000000007
94,0.783333,step_acsent,-0.055562222488899006,0.1669266770670846,0.035881435257403206,0.029045611163971613,0.5413335788024097,-0.35221784345652907,-0.05820232809312417,-0.012000480019199556,0.08664346573863038,-1.0088803552142176,1.363734549381986,-0.09816392655706142,-0.47523801828104867,0.27362188931349146,-1.252900230014563,-6.883750689041139,-1.670533640018047,10.556044466667817,4.507560597633833,6.941355297319568,0.05760460827719577,0.02406499999999999,0.054008,-0.9255019999999999,-0.280756,0.24169899999999997,-0.482396,0.304821,0.18769099999999997,0.44310599999999994,0.8248919962538033,0.0,single,-0.482396
95,0.791667,step_acsent,-0.06299496040316865,0.1491480681545458,-0.041396688264943256,-0.1764585076834909,-0.30691601592179646,-0.2567639372154883,0.0011999040076805766,0.003359731221502284,0.0035997120230375663,-1.0177585793136492,1.326853851691856,-0.15238780897528,-0.89185720113626,-2.133262408511962,-9.272633012040542,7.127697636285613,1.8430779026519946,-9.964453289607894,-1.0653016677983624,-4.4253296964398405,-6.506345382555576,0.02460000000000001,0.05279300000000001,-0.9251269999999999,-0.288713,0.251514,-0.48332099999999995,0.313313,0.19872099999999998,0.441806,0.9915531909119502,0.0,single,-0.48332099999999995
96,0.8,step_acsent,-0.056042241689666775,0.17712708508340322,0.004920196807880545,-0.23479567758888925,0.5033729501599744,-0.31825280148785945,0.003000120004799849,0.0024000960038392132,-0.0015600624024959882,-1.0768030721228814,1.2755310212408442,-0.14292571702868026,0.8343596200050222,3.3576163361163225,5.55824853868038,0.21603456103675328,-0.11516083255287012,-0.6191976989719828,-7.085622562010313,-6.158986013561936,1.135496453450103,0.025092000000000003,0.051336999999999994,-0.925181,-0.297219,0.260667,-0.484553,0.322311,0.20933,0.440628,0.9930888625372345,0.0,single,-0.484553
97,0.808333,step_acsent,-0.0494419776791071,0.16452658106324203,0.007920316812673838,-0.12736538425267238,0.13361094666836024,-0.3518733244851367,0.0007200288011511073,0.0020400816032628585,0.0007200288011519401,-1.0325213008520435,1.3076923076923184,-0.35425417016681116,0.79206336380172,-1.5121209672580471,0.36002880172726753,-0.273621889313424,-0.043203456207411256,0.2736218893133264,5.314025113505134,3.8595087545271207,-25.36042879372769,0.02550999999999999,0.049983,-0.925241,-0.305411,0.270193,-0.48757100000000003,0.330921,0.22021,0.43766999999999995,0.9961998479939222,0.0,single,-0.48757100000000003
98,0.816667,step_acsent,-0.05603551715862797,0.1729061675065979,-0.006839452843769295,-0.10349604427571683,0.10414784471521833,-0.3074620831504907,0.004679625629950918,-0.0077993760499137565,-0.01007919366450685,-0.9730021598272037,1.2993760499160008,-0.24538036957043477,-0.7911614446269282,1.0054699356078487,-1.7710306763190569,0.4751136103671442,-1.1806404671438133,-1.295803031636514,7.141725584933926,-0.9978711034698285,13.063810966687731,0.02601600000000001,0.04847700000000002,-0.9252680000000001,-0.31305299999999997,0.279581,-0.4895590000000001,0.339069,0.231104,0.435709,0.9773726254940873,0.0,single,-0.4895590000000001
99,0.825,step_acsent,-0.05244209768390699,0.17604704188167974,0.030841233649340462,0.04716102570837474,0.3861351775239962,-0.3490100838478358,-0.0024000960038409107,-0.0008400336013449015,-0.0064802592103682935,-1.0192007680307307,1.2462498499940085,-0.2545301812072487,0.431227586069965,0.37692000180989693,4.52186325370336,-0.8496005800782304,0.8351545000082706,0.4318894100730337,-5.544054746613149,-6.375399006599398,-1.0980213172703706,0.026432999999999998,0.04700299999999999,-0.925579,-0.321109,0.28849899999999995,-0.491937,0.347542,0.241496,0.433642,0.9883978119026571,0.0,single,-0.491937
100,0.833333,step_acsent,-0.05688227529101167,0.11880475219008602,-0.03060122404896246,0.22907174320403392,-0.18678957872352386,-0.23202357854088085,-0.0007200288011510978,0.001320052802113399,-0.0013200528021117337,-0.9678387135485399,1.2059282371294837,-0.2968918756750229,-0.5328426265576219,-6.869349536972698,-7.373389859390695,0.2016161289679354,0.25922073724448474,0.6192495389723435,6.163693085586291,-4.838787095226757,-5.0836066804001,0.026901000000000008,0.04602400000000001,-0.925335,-0.3287,0.297558,-0.494156,0.355601,0.25153400000000004,0.43117900000000003,0.9966652002079013,0.0,single,-0.494156
101,0.841667,step_acsent,-0.05735541156707327,0.14962802975761802,-0.02639788816894604,-0.16079893123482888,-0.40094194588281634,-0.28280756555594844,0.0,0.0017998560115175344,-0.000839932805375571,-1.0355171586272984,1.197384209263245,-0.23062155027598033,-0.056771811382481344,3.6984974283095475,0.5043599568054221,0.0863965444145779,0.057571779386144904,0.05760979082507309,-8.120763748351093,-1.0252013278424157,7.951802903652755,0.027379,0.044792,-0.925122,-0.336852,0.30628999999999995,-0.495858,0.36423099999999997,0.261498,0.429264,0.9966896757544925,0.0,single,-0.495858
102,0.85,step_acsent,-0.06120244809792573,0.16656666266650821,-0.006960278411136808,0.15119145056837063,-0.016439751073019128,-0.29502226236276835,-0.0001200048001921288,0.0021600864034549876,-0.0006000240009598112,-0.9227169086763557,1.1488059522380998,-0.32149285971438996,-0.46166285021630776,2.0327172577571524,2.332606475196137,-0.014401152069138353,0.04322937620754308,0.02879020813821696,13.536571456971531,-5.829624027978594,-10.90499333234255,0.02788800000000001,0.04342199999999999,-0.925069,-0.344031,0.31447499999999995,-0.498479,0.371919,0.271053,0.42659,0.9962581929409456,0.0,single,-0.498479
103,0.858333,step_acsent,-0.05256210248409842,0.17448697947917974,0.010920436817466921,0.21639513963717755,0.3715612384399171,-0.39797195236705696,-0.0001200048001921272,0.0021600864034582896,-0.0010800432017283122,-0.8538341533661357,1.1645265810632432,-0.3435737429497171,1.0368829489772318,0.9504760365620414,2.1457716582987705,1.9191146098837303e-16,3.9626138683809417e-13,-0.057604608276550937,8.266261287677876,1.8865509210540503,-2.6498119807184746,0.028325000000000003,0.041985999999999996,-0.9251689999999999,-0.350708,0.32272500000000004,-0.501433,0.379033,0.280739,0.4237359999999999,0.9959699504620931,0.0,single,-0.501433
104,0.866667,step_acsent,-0.057115430765539585,0.16558675305975523,-0.015838732901357178,-0.16029836414238186,-0.321203781508942,-0.3564302018565525,0.0003599712023025125,0.0016798656107494992,-0.004079673626109851,-0.8142548596112308,1.112550995920333,-0.38600911927045695,-0.5463556853181174,-1.0679417349921474,-3.2108434987790075,0.057592512898325225,-0.057621885374225246,-0.35992685677724456,4.749135319763031,-6.236571291445947,-5.091837811463893,0.028803999999999996,0.04061999999999999,-0.9250710000000001,-0.35701799999999995,0.33061700000000005,-0.504518,0.385822,0.28999700000000006,0.42055300000000007,0.9926222435222408,0.0,single,-0.504518
105,0.875,step_acsent,-0.07176287051482046,0.16368654746189829,-0.03864154566183165,0.05237694678738104,-0.3817328996030003,-0.2713780765624976,0.0015600624024976536,0.0019200768030740352,-0.0012000480019204393,-0.8244329773190945,1.0546021840873545,-0.3469338773550966,-1.7577630804369146,-0.2280337930945564,-2.736446989136491,0.144016704691604,0.028826496138789754,0.34556889765863436,-1.2214229818629132,-6.954135585380807,4.689216598507159,0.02941500000000001,0.039272,-0.924759,-0.36329,0.338041,-0.5070870000000001,0.392705,0.29876899999999995,0.41767199999999993,0.99541724099468,0.0,single,-0.5070870000000001
106,0.883333,step_acsent,-0.063482539301572,0.20004800192007618,0.010680427217089328,-0.27173699646663224,0.13254220616901363,-0.35542007354781346,-0.005160206408256473,-0.0075603024120973516,-0.03168126725068994,-0.7818312732509259,0.9835593423736952,-0.36565462618504185,0.9936794927695222,4.363549076944407,5.91887350041051,-0.8064645158711267,-1.1376910134611,-3.657892625557347,5.112408984539585,-8.525482024920073,-2.2465797227823296,0.02990100000000001,0.03754199999999999,-0.925112,-0.369276,0.34457000000000004,-0.510223,0.399177,0.307028,0.41488900000000006,0.9450381799855619,0.0,single,-0.510223
107,0.891667,step_acsent,-0.07019438444924306,0.17386609071274134,-0.04103671706262964,-0.15610188557568466,-0.348501431871559,-0.309443728905609,-0.005639548836093789,-0.005399568034556005,-0.009599232061434749,-0.758099352051839,0.9091672666186691,-0.35673146148308377,-0.8053569891613993,-3.1415780186387083,-6.205560868696815,-0.05751649002127651,0.2592673839142499,2.6496322521304676,2.8476027356715976,-8.926334983804486,1.07069410870628,0.030438999999999994,0.036048000000000024,-0.9248500000000001,-0.37500900000000004,0.35069799999999995,-0.512854,0.40544800000000003,0.31465,0.41199600000000003,0.9793773922462263,0.0,single,-0.512854
108,0.9,step_acsent,-0.08316332653306253,0.18552742109684545,-0.04356174246969887,-0.16873911936042438,-0.0787136783484419,-0.22341774894816918,0.0012000480019196066,0.0007200288011494323,-0.006120244809792658,-0.7008280331213234,0.8843153726149093,-0.3288131525261021,-1.5563353034704694,1.3994156227173957,-0.30301516945508483,0.8207844519396816,0.7343809955244704,0.41749517000384934,6.872833184989246,-2.9823465743141306,3.3503310880813086,0.031142000000000003,0.03450799999999998,-0.9245380000000001,-0.380156,0.35652100000000003,-0.515231,0.411298,0.32201300000000005,0.4093070000000001,0.9895363123648722,0.0,single,-0.515231
109,0.908333,step_acsent,-0.06468258730349247,0.17592703708148427,0.02796111844472937,0.17832828992156444,-0.08655296844121102,-0.3570677375650469,-0.0009600384015353649,0.0010800432017291591,-0.004440177607104602,-0.6841473658946434,0.8017520700828031,-0.3235329413176528,2.217777418645174,-1.1520921655299727,8.583086633196796,-0.25922073724408873,0.043203456207815925,0.20161612896772726,2.0017601376071146,-9.907992623557776,0.6336506910415626,0.03167300000000001,0.033051,-0.924808,-0.38531800000000005,0.36173599999999995,-0.51816,0.416991,0.328685,0.406648,0.9922176581229867,0.0,single,-0.51816
110,0.916667,step_acsent,-0.08771298296136189,0.1767458603311724,-0.034197264218859796,-0.05482313694446272,-0.374884409515481,-0.25062922544401883,0.0003599712023041729,0.0002399808015361153,-0.005279577633788709,-0.6207103431725395,0.7548596112311013,-0.31569474442044326,-2.763426404831923,0.0982509298881835,-7.458409246890892,0.15838848138223274,-0.10079942406923895,-0.10071994560644354,7.611833779950019,-5.626644930609723,0.940508386994179,0.032407000000000005,0.03158,-0.924567,-0.38976,0.36655400000000005,-0.5205059999999999,0.422167,0.334974,0.4040610000000001,0.9911712102813208,0.0,single,-0.5205059999999999
111,0.925,step_acsent,-0.0820832833313334,0.18984759390375536,0.03588143525741606,-0.06458624015350117,0.36637473894370565,-0.273048260353721,0.0009600384015353521,0.0021600864034549585,-0.0034801392055683576,-0.5796231849273948,0.7056282251290018,-0.3325333013320547,0.6755909792425856,1.5722709195467302,8.409780328366201,0.07201094434551503,0.23042188910582445,0.2159412490364027,4.930656215665962,-5.9080026523580145,-2.0207076576996745,0.033099,0.030015999999999987,-0.924895,-0.393906,0.370852,-0.523576,0.427005,0.34083600000000003,0.401319,0.9929883002748289,0.0,single,-0.523576
112,0.933333,step_acsent,-0.08556342253690123,0.17268690747630014,-0.03840153606145457,-0.14237409289438813,-0.5704764147568178,-0.2648195386979957,0.004080163206529049,0.0033601344053762754,0.0,-0.5414616584663455,0.643345733829353,-0.3363734549382006,-0.41763341000454407,-2.0593647458844804,-8.914313130789788,0.3744299537973989,0.14401152069138698,0.4176334100046069,4.579566357980278,-7.47419792387488,-0.4608368662121569,0.033846,0.02860499999999999,-0.9245749999999999,-0.39770500000000003,0.37477399999999994,-0.5260589999999999,0.431551,0.34616899999999995,0.398516,0.991190561404237,0.0,single,-0.5260589999999999
113,0.941667,step_acsent,-0.0849532037436999,0.19018478521718155,0.007439404847612913,-0.008453412683583484,-0.13674391627921176,-0.3019774504667526,0.001679865610751142,0.0015598752099847495,-0.0022798176145905976,-0.4988000959923128,0.5892728581713417,-0.3520518358531281,0.07322039755235529,2.0995773627167353,5.5004728712583555,-0.28801267047970824,-0.21601382234119415,-0.2735562292525294,5.1189779786455984,-6.48822602087964,-1.8812552093745374,0.034568,0.027033,-0.9246559999999999,-0.401154,0.3781,-0.5290549999999999,0.435722,0.35106699999999996,0.395601,0.9946115536415847,0.0,single,-0.5290549999999999
114,0.95,step_acsent,-0.09864394575783161,0.18576743069722884,-0.04896195847833525,0.022631018136849448,0.04710764944244681,-0.20755207811388646,0.003840153606143125,0.0032401296051841467,-0.0010800432017283265,-0.47533901356054586,0.5447017880715364,-0.306972278891159,-1.6429547598862164,-0.5301037465441911,-6.768434336487301,0.2592449292442101,0.20163859296764822,0.14397868869102148,2.8154425095124367,-5.348742361671154,5.409763225965378,0.035421999999999995,0.025512000000000007,-0.924257,-0.404293,0.38109100000000007,-0.5312049999999999,0.43971499999999997,0.35557900000000003,0.39305200000000007,0.9914346121423415,0.0,single,-0.5312049999999999
115,0.958333,step_acsent,-0.07728309132365331,0.18144725789031646,0.014280571222846481,0.06522953719903493,-0.5285272422770622,-0.30454509516428657,0.0016800672026881154,0.0032401296051841034,0.003000120004799849,-0.47509900396015525,0.42325693027720296,-0.35677427097083775,2.563405068304118,-0.5184414744884631,7.589407140427393,-0.25922073724408984,-5.204378603074523e-15,0.4896391703501931,0.028802304139038833,-14.573965893955705,-5.97647810868577,0.03608,0.024026999999999993,-0.9243509999999999,-0.40760799999999997,0.38310599999999995,-0.534297,0.44368799999999997,0.359079,0.3900539999999999,0.9921256771530749,0.0,single,-0.534297
116,0.966667,step_acsent,-0.09599232061434954,0.19498440124789718,-0.03347732181424479,0.21694594341879392,-0.16313871895360618,-0.23650374297323207,0.003599712023038399,0.003959683225342572,-0.00011999040076722505,-0.42632589392848586,0.38216942644588064,-0.3761699064074844,-2.244927920649878,1.6243272567291354,-5.73048872535288,0.23033895132592622,0.08633952725683505,-0.37438329800420567,5.852305019398731,-4.930106051274538,-2.3272900691920424,0.03691,0.02243500000000001,-0.924073,-0.410361,0.38466599999999995,-0.537153,0.447271,0.36223099999999997,0.38692000000000004,0.9910788304842821,0.0,single,-0.537153
117,0.975,step_acsent,-0.0871234849393989,0.18780751230049503,-0.01380055202209148,-0.1303422359850921,-0.09515153582399613,-0.24555684337029765,0.0013200528021117513,0.001800072002878601,-0.0007200288011527728,-0.3385335413416589,0.3829353174127066,-0.35401416056642687,1.0643028531082095,-0.8612611241332311,2.3613068273315116,-0.27357004931317275,-0.2591637132442087,-0.07200748834580022,10.535503730568552,0.09191059244281183,2.6587958527610356,0.037647,0.020884999999999987,-0.923964,-0.41245600000000004,0.386292,-0.5399879999999999,0.45010300000000003,0.36540700000000004,0.3839760000000001,0.9960908795780465,0.0,single,-0.5399879999999999
118,0.983333,step_acsent,-0.09744389775590902,0.19524780991239443,-0.04416176647064952,-0.3437706063598198,-0.06143282267748346,-0.22442747951318687,0.0022800912036487512,0.0033601344053762307,0.0037201488059526123,-0.31957278291131164,0.33157326293051104,-0.3616944677787116,-1.238499077944326,0.8928714282850563,-3.6434914734858883,0.11520921655310164,0.18721497689879074,0.5328426265577063,2.275382026922741,-6.163693085586864,-0.9216737324234622,0.038478,0.019285999999999998,-0.9235650000000001,-0.414307,0.387428,-0.5426340000000001,0.452785,0.36814199999999997,0.380931,0.9908213977314414,0.0,single,-0.5426340000000001
119,0.991667,step_acsent,-0.11459083273338168,0.1906647468202563,-0.010439164866817825,-0.11846990045238391,0.030610354607932325,-0.2167950914556733,0.0019198464122872829,0.002159827213821736,0.00035997120230417775,-0.27561795056395566,0.3033357331413474,-0.3419726421886225,-2.05746759988874,-0.549923577170405,4.046388481381316,-0.043225916890025244,-0.14402534095926345,-0.40318905731322935,5.274157949046823,-3.388232516098371,2.366429756430193,0.039449,0.01771499999999998,-0.9234749999999999,-0.415649,0.38836699999999996,-0.5453969999999999,0.455098,0.370652,0.378078,0.9951465238382894,0.0,single,-0.5453969999999999
120,1.0,step_acsent,-0.13416536661466497,0.1850474018960736,-0.04776191047641999,-0.6647060400402808,-0.13589848230470053,-0.007096826442696159,0.0015600624024959882,0.0014400576023055264,-0.0003600144005763816,-0.22380895235809406,0.26209048361935267,-0.374294971798875,-2.3490380272750757,-0.6741083552361306,-4.478908629497421,-0.04317580820728347,-0.08637580841428136,-0.08640172841480334,6.2173284778424796,-4.949627927756454,-3.8788347066185485,0.040580000000000005,0.016185000000000005,-0.92308,-0.416396,0.38900900000000005,-0.548118,0.456976,0.37282400000000004,0.374962,0.9964109847504032,0.0,single,-0.548118
121,1.008333,step_acsent,-0.32125285011400734,0.22188887555502632,-0.024480979239167627,-3.053158229979252,1.8303576245087227,0.673931874993864,0.036841473658946904,-0.025321012840512528,0.014160566422657042,-0.19428777151086,0.2248889955598162,-0.3558142325693055,-22.451396075764322,4.421153685221775,2.793823501410366,4.233938708322482,-3.2114569114146523,1.7425394003640413,3.5426834090044808,-4.464357141430074,2.217777418645106,0.043564000000000005,0.014124999999999999,-0.922758,-0.415338,0.389034,-0.550879,0.458902,0.37490899999999994,0.37187899999999996,0.9218447145093898,0.0,single,-0.550879
122,1.016667,step_acsent,-0.14554835613150824,0.2223422126229877,-0.04163666906647271,1.3597220674917394,1.9803054589168867,-0.19625827582311797,-0.00011999040076805765,0.001919846412285592,0.0005999520038394556,-0.17326613870890206,0.1867050635949112,-0.33513318934484865,21.082852649687755,0.05439609646764833,-2.058518097828768,-4.435020885494922,3.2686416190062286,-1.6271435587733962,2.5223941447033558,-4.581705299364615,2.481526664801619,0.044776,0.012287999999999993,-0.9224060000000001,-0.41556899999999997,0.388737,-0.5533250000000001,0.460345,0.376449,0.369081,0.9966416975394499,0.0,single,-0.5533250000000001
123,1.025,step_acsent,-0.014640585623424724,0.24120964838593573,0.06996279851194113,0.5620505069017406,0.7445403473043692,-0.4873791168567238,0.0004800192007685152,0.0021600864034549876,-0.0016800672026881377,-0.12840513620545124,0.13080523220929383,-0.3268930757230324,15.709560843403903,2.2641828588681387,13.392471808282115,0.07200403234568323,0.028829952138413276,-0.2736132493132862,5.3835356418398215,-6.708248096197996,0.9888531887455099,0.044902000000000004,0.010296,-0.923003,-0.41651699999999997,0.387817,-0.556632,0.461419,0.377521,0.366371,0.9953694800180859,0.0,single,-0.556632
124,1.033333,step_acsent,-0.10716428657146157,0.18360734429376896,-0.02412096483859393,-0.14548353183523838,-0.22811243226478975,-0.2208497140585614,-0.0010800432017291303,0.0010800432017291303,-0.0001200048001921256,-0.06840273610944497,0.07416296651866033,-0.26965078603143644,-11.103288245294038,-6.912552993179618,-11.290503222192898,-0.18721497689879013,-0.1296103686218455,0.18721497689859412,7.200576034562009,-6.797343776626965,6.869349536972873,0.045786,0.008775000000000005,-0.922803,-0.416194,0.38690500000000005,-0.558678,0.46198,0.37813,0.36412500000000003,0.9974464687917884,0.02015446259158382,single,-0.558678
125,1.041667,step_acsent,-0.16318694504439957,0.16378689704823987,-0.059755219582434356,-0.804302567307307,-0.5496617931386579,-0.11895667760238822,-0.0002399808015361217,0.0013198944084486693,-0.00251979841612678,-0.033717302615788466,0.02999760019198191,-0.18514518838492805,-6.722181242253307,-2.3782634083908647,-4.27576850778031,0.10079942406923742,0.028779842418951707,-0.28795219773634506,4.161919065713603,-5.299420005601064,10.1398605287389,0.047144,0.007421000000000011,-0.922326,-0.41511499999999996,0.38578999999999997,-0.559723,0.462259,0.37836899999999996,0.362603,0.9952422297202731,0.18238976850087868,single,-0.559723
126,1.05,step_acsent,-0.10428417136685222,0.22920916836673005,0.08472338893555408,-1.040970384689298,-0.16417018757155244,-0.44549197682519726,-0.059642385695426466,-0.037201488059522295,-0.08532341293651553,0.10524420976838424,0.03840153606144022,-0.17400696027840892,7.0686155859289945,7.850986597682592,17.3381265472202,-7.128573730215925,-4.622750806188682,-9.936831215695104,16.676048528041555,1.0085126448407735,1.3366408384158084,0.047515999999999996,0.005201000000000011,-0.923743,-0.41336900000000004,0.3842,-0.561879,0.460885,0.378999,0.36186399999999996,0.8157503981579762,0.15507873729815147,single,-0.561879
127,1.058333,step_acsent,-0.03552142085683515,0.17616704668186853,0.0349213968558795,0.5751426929619637,-0.3226908202589799,-0.45271693179623473,-0.007080283211328938,0.006240249609984035,0.0030001200048003053,0.18456738269531422,0.022200888035520512,-0.21984879395176013,8.251860135607547,-6.365309214552023,-5.976478108685352,6.307704606276012,5.213217049022768,10.599247922874913,9.519161517692392,-1.944155529331556,-5.501240090405811,0.047753,0.0037850000000000106,-0.924009,-0.411535,0.38291699999999995,-0.564002,0.459288,0.37913199999999997,0.36000699999999997,0.983494794963176,0.020151961593256718,single,-0.564002
128,1.066667,step_acsent,-0.05759539236861022,0.17962562994960246,-0.03215742740581281,0.2149528837026736,-1.392465433922056,-0.34145556283683187,-0.001319894408446969,-0.015598752099830842,-0.030237580993520554,0.1807055435565083,0.03839692824573848,-0.20794336453084075,-2.6486646882379294,0.41499679238467807,-8.04881500620252,0.691191361036948,-2.6204705675323625,-3.988205063393401,-0.4633836259666292,1.9433693556776874,1.428537247530512,0.048222,0.002158000000000021,-0.923993,-0.40954900000000005,0.38173999999999997,-0.5654669999999999,0.45777100000000004,0.379582,0.358526,0.943250685450514,0.03641116030842939,single,-0.5654669999999999
129,1.075,step_acsent,-0.049321972878914974,0.18312732509300533,0.0062402496099906975,-0.35681691509682667,-0.5835461044376836,-0.3673733198376488,-0.009240369614783925,-0.009960398415936697,-0.018360734429377384,0.15756630265210855,0.0313212528501223,-0.14484579383174956,0.9928500527655493,0.4202202260173892,4.607905558118788,-0.9504950445622259,0.6766295072475935,1.425278598841147,-2.776819981327249,-0.8491150120744326,7.572011364345586,0.048556,0.0005490000000000217,-0.9241980000000001,-0.407825,0.380475,-0.5667260000000001,0.45638100000000004,0.379926,0.357472,0.961931693847034,0.1394893105209914,single,-0.5667260000000001
130,1.083333,step_acsent,-0.06864274570982756,0.19188767550701896,-0.04776191047641935,-0.006402017644573491,-0.2978208822490461,-0.23643532568645756,-0.006960278411136623,-0.007680307212289376,-0.012480499219968572,0.17508700348014136,0.05712228489139849,-0.14664586583463093,-2.3185854831287953,1.0512841010456588,-6.480518431106337,0.27362188931324394,0.27362188931324627,0.7056564513871006,2.102568202091984,3.0962476948608835,-0.21601728103700277,0.04907,-0.0011140000000000039,-0.9239040000000001,-0.405794,0.379352,-0.56755,0.454864,0.3804660000000001,0.35635400000000006,0.972961167060888,0.10763033237753927,single,-0.56755
131,1.091667,step_acsent,-0.10967122630189771,0.19114470842332776,-0.10439164866811303,0.49277646754786647,0.25379332836504936,-0.2234805078065105,-0.01703863690904799,-0.0023998080153578866,-0.005399568034557326,0.10331173506119715,0.049196064314845,0.00431965442764353,-4.92302382914218,-0.08914891812949581,-6.7950249810048895,-1.2093062752473671,0.6336092148945992,0.8496437707477058,-8.612343222815644,-0.9510703835557525,18.114413278411007,0.049842,-0.0027269999999999794,-0.923079,-0.40401899999999996,0.378169,-0.5666439999999999,0.45386099999999996,0.38089599999999996,0.35643500000000006,0.9699431297745996,0.30915228031083397,single,-0.5666439999999999
132,1.1,step_acsent,-0.10044401776070837,0.19524780991239515,0.136205448217926,-1.2161807815508012,0.057213174538367925,-0.203044502518928,-0.003120124804991935,-0.01728069122764943,-0.011400456018240274,0.03984159366374573,0.0486019440777609,0.08364334573382827,1.1073093173153945,0.4923918743630534,28.87280653858572,1.670288264017258,-1.785777416571617,-0.7201353634564793,-7.6167216365594985,-0.07129728034130428,9.519223725691031,0.050653,-0.004498000000000002,-0.9243089999999999,-0.40285,0.3769469999999999,-0.567082,0.453503,0.3814449999999999,0.35722699999999996,0.9651061981973272,0.32563041454560476,single,-0.567082
133,1.108333,step_acsent,-0.11904476179047269,0.1863674546981895,-0.030001200047998892,0.14022936330845562,-0.08333397937597266,-0.14075416898874174,-0.006960278411136808,0.005640225609023392,0.020520820832833207,-0.013560542421700562,0.025081003240131603,0.08928357134285722,-2.2321785707145674,-1.0656852531148135,-19.945595615735797,-0.4608368662120375,2.750620045202572,3.8307064503868684,-6.408512670760444,-2.8226258055477635,0.6768541472493703,0.051586999999999994,-0.006004000000000009,-0.923888,-0.401971,0.37560299999999996,-0.5660879999999999,0.453558,0.381607,0.3578000000000001,0.9626814870140219,0.3437905506304889,single,-0.5660879999999999
134,1.116667,step_acsent,-0.0865130789536838,0.1377489800815903,-0.036237101031920106,0.27967815175889116,-1.0530519782562384,-0.48961858691334353,0.00479961603071731,-0.011519078473720213,-0.01235901127909745,-0.033117350611950605,0.011519078473720213,0.07595392368610389,3.9034896612417365,-5.83375025397154,-0.7482482582098833,1.4110744470667183,-2.0589517737873138,-3.945264232293065,-2.3466292524897883,-1.627300787906322,-1.5994297644292332,0.052348,-0.007247999999999977,-0.923689,-0.401526,0.37455099999999997,-0.565153,0.453874,0.38179899999999994,0.35853599999999997,0.9707277794410383,0.3605721352997555,single,-0.565153
135,1.125,step_acsent,-0.13728549141965796,0.16020640825633206,-0.05232209288371486,-0.43535729649798655,0.42223001777878977,0.016014488379342263,0.001200048001921288,0.0002400096003842576,-0.0031201248049920177,-0.0520820832833306,-0.018600744029749986,0.12168486739469203,-6.092933213245484,2.6949991809362723,-1.9302762332647185,-0.4319654420732095,1.4111470147731402,1.1087107253216748,-2.2758589549238177,-3.614523281347711,5.487932762341121,0.05350200000000001,-0.008580999999999978,-0.923279,-0.400816,0.3730610000000001,-0.5637030000000001,0.454318,0.38164200000000004,0.3595759999999999,0.9944140805457138,0.2772287045317562,single,-0.5637030000000001
136,1.133333,step_acsent,-0.12564502580103312,0.20076803072123162,0.1150846033841416,-0.41804837820310375,0.0680432555489137,-0.17824652263111151,-0.0003600144005763864,0.0010800432017258282,-0.009960398415937113,-0.047521900876036374,-0.020760830433228288,0.08088323532941487,1.396911750705021,4.867589399363966,20.089607136428416,-0.1872149768987986,0.10080806448356874,-0.8208656679401366,0.5472437786264576,-0.25922073724688843,-4.896391703501444,0.054546000000000004,-0.010245000000000004,-0.9243210000000001,-0.400165,0.37121499999999996,-0.563988,0.454711,0.38145999999999997,0.360333,0.983291249773246,0.3398660205006915,single,-0.563988
137,1.141667,step_acsent,-0.14314854811614958,0.14542836573073933,-0.07103431725462352,0.1937243953704015,-0.2037269074350489,0.08603250617892617,0.00011999040076805765,0.0029997600191981107,-0.0074394048476120805,-0.020998320134386777,0.020998320134393438,-0.00659947204223318,-2.100254657441363,-6.640228580572577,-22.33248387794141,0.05759596848385414,0.23034759028944898,0.3024950285967139,3.182575082991288,5.010697212337582,-10.497085117788263,0.055740000000000005,-0.011431999999999998,-0.923791,-0.399147,0.370178,-0.5634509999999999,0.454887,0.38161,0.3603400000000001,0.986629457923009,0.44929902674151107,single,-0.5634509999999999
138,1.15,step_acsent,-0.15768630745229903,0.11676467058682474,-0.19356774270970722,-0.010288257010686483,-1.108773483195044,0.2893021428098166,0.0018000720028802666,0.0037201488059526618,0.007080283211328521,-0.03624144965798959,-0.02700108004320566,0.04608184327373083,-1.7446009043741253,-3.439781008510123,-14.704599238579723,0.20161785696774562,0.08645011241504351,1.7424322643634627,-1.8292487127808654,-5.760158427649051,6.3220107183444725,0.057069,-0.012373999999999996,-0.922119,-0.398135,0.36898,-0.561454,0.455204,0.38135399999999997,0.360665,0.9863363644919764,0.3924252549733587,single,-0.561454
139,1.158333,step_acsent,-0.1188047521900861,0.15312612504499903,-0.03300132005280456,0.6710370006546033,-0.11368545614967551,-0.06680737512433013,-0.0043201728069131905,0.013200528021120492,0.01716068642745689,-0.0308412336493463,-0.025081003240130934,0.03936157446297722,4.665973270396286,4.363549076943916,19.26874146848672,-0.734458755525423,1.1376910134606582,1.2096967738063356,0.6480518431109075,0.23041843310628757,-0.8064645158710533,0.058023,-0.013539999999999996,-0.921701,-0.39740200000000003,0.36749499999999996,-0.560851,0.455425,0.38103499999999996,0.36085,0.9632045069268182,0.406762371080521,single,-0.560851
140,1.166667,step_acsent,-0.18814494840413123,0.17182625389969328,-0.0719942404607699,-1.1251962445303623,0.38729760077031233,0.4001099063326515,-0.000599952003838639,0.0061195104391644425,0.0125989920806339,-0.0329973602111801,-0.019678425725935336,0.07283417326613634,-8.32015793305093,2.243835955686897,-4.67877614686418,0.44639078510614616,-0.8496541375037417,-0.5473595328561407,-0.2587144902608396,0.6482574411081954,4.016390545135559,0.05958600000000001,-0.014921000000000018,-0.9209959999999999,-0.396109,0.365899,-0.559644,0.45569499999999996,0.38082000000000005,0.3613519999999999,0.9766343704539583,0.3627564713596151,single,-0.559644
141,1.175,step_acsent,-0.14016560662426197,0.15912636505459865,-0.05760230409215367,0.5430749561090632,0.16361566341094697,-0.04751490565597166,-0.0031201248049936,0.0,0.0008400336013440465,-0.027241089643589195,-0.02628105124204553,0.0769230769230759,5.757751323637156,-1.524047623316261,1.727101448291849,-0.3024328334519281,-0.7343706275248213,-1.4111314627732687,0.6907800993148687,-0.7923467558034415,0.4906880663553932,0.06072799999999999,-0.01624700000000001,-0.920509,-0.395168,0.36435400000000007,-0.5585230000000001,0.455896,0.3806010000000001,0.3619859999999999,0.9946146197776544,0.35711377503343456,single,-0.5585230000000001
142,1.183333,step_acsent,-0.13380535221409037,0.17268690747630014,-0.006720268810759212,-0.2732722980423907,-0.23875923075857675,-0.13072845905536462,-0.0006000240009589786,0.0001200048001921288,0.005760230409216353,-0.006720268810752551,-0.018240729629190253,0.013320532821316304,0.7632610596629856,1.627330183811546,6.106088477306483,0.3024241934518955,0.014401152069138353,0.5904472348340756,2.462597003820573,0.9648771886301872,-7.632610596635087,0.061838000000000004,-0.017685000000000006,-0.9204049999999999,-0.39410900000000004,0.362763,-0.558356,0.455947,0.380448,0.36204899999999995,0.990345599115047,0.4607245190658996,single,-0.558356
143,1.191667,step_acsent,-0.13222942164626714,0.2024238060955101,0.027237820974319114,0.27270709322930153,0.5816329203876448,-0.33523592197769986,-0.003359731221502284,-0.001559875209981419,0.000239980801535699,0.006719462443004568,-0.01463882889368305,-0.0345572354211673,0.18909654041555363,3.5681423829145364,4.074644802625158,-0.3311383753951625,-0.2015694756627712,-0.6623769627646523,1.6126387393516939,0.43219351277983853,-5.744872599290045,0.062912,-0.019384999999999986,-0.92063,-0.392951,0.36095400000000005,-0.5588709999999999,0.455863,0.38033900000000004,0.36175900000000005,0.9938134116077695,0.4364554179498218,single,-0.5588709999999999
144,1.2,step_acsent,-0.14196567862714596,0.19536781471259249,0.033721348853964876,-0.1268526047624011,1.2093560726703143,-0.4874503569578871,-0.003000120004799889,-0.0022800912036471162,-0.00012000480019171244,0.012840513620547788,-0.02748109924397418,-0.045241809672389256,-1.1683975736084136,-0.8467528360635653,0.778054467736208,0.043155072207176064,-0.08642937641494106,-0.04320000020729806,0.7345555235261342,-1.5411340873984456,-1.2822001981545725,0.06407,-0.021031999999999995,-0.9209120000000001,-0.391661,0.359097,-0.559529,0.455731,0.380129,0.361383,0.9937164374285365,0.4092177368625388,single,-0.559529
145,1.208333,step_acsent,-0.13980559222368644,0.19200768030720777,-0.023280931237252382,0.16649153720610257,0.4188513339206254,-0.3656677271853101,-0.0024000960038408465,-0.0032401296051840604,0.0008400336013440465,0.01836073442937856,-0.03000120004799809,-0.05148205928236526,0.2592207372446278,-0.40323225793647594,-6.840547232835265,0.07200576034549766,-0.11520921655309341,0.11520921655295117,0.6624529951794883,-0.302424193450602,-0.748859907593411,0.065215,-0.022658999999999985,-0.9207110000000001,-0.390343,0.35724700000000004,-0.5597639999999999,0.45555799999999996,0.379906,0.36094700000000013,0.993135324492287,0.39608241779260384,single,-0.5597639999999999
146,1.216667,step_acsent,-0.13882889368850818,0.18790496760259678,-0.08219342452604508,0.5558373527800141,-0.9176349426609829,-0.1923170742518265,-0.0008399328053747607,-0.004799616030719103,-0.0023998080153591356,0.03203743700503561,-0.026517878569718135,-0.060235181185506595,0.1171944486655003,-0.4922861416619951,-7.068933679960861,0.18720460744733808,-0.18712340119211332,-0.38874989401286825,1.6410730232370185,0.41796514018238795,-1.0502906051285699,0.06636500000000001,-0.02426500000000001,-0.9200459999999999,-0.388919,0.35546,-0.5595809999999999,0.455284,0.379725,0.36046500000000004,0.9909475479579559,0.37800418602194275,single,-0.5595809999999999
147,1.225,step_acsent,-0.14448577943117433,0.1735269410776404,-0.08316332653305311,0.024815613754881432,-0.8883118558109416,-0.14073987983637481,-0.0003600144005763768,-0.003360134405376186,-0.0034801392055678953,0.03576143045722012,-0.019920796831872863,-0.06864274570982923,-0.6788534432576566,-1.7254322002827458,-0.11639289655682357,0.057592512276296116,0.1727447048293402,-0.1296449286221938,0.44689709014573886,0.7916814758004508,-1.0089481008427321,0.067566,-0.025739000000000012,-0.919382,-0.387417,0.353848,-0.5594600000000001,0.454983,0.379587,0.35992199999999996,0.9919151234323746,0.366796473672933,single,-0.5594600000000001
148,1.233333,step_acsent,-0.2462498499940018,0.22764910596423849,-0.044881795271809535,-0.39571699480433986,1.1796682353802594,0.010786166382183531,-0.0024000960038409107,-0.004080163206529049,-0.004320172806912473,0.03888155526220976,-0.010200408016320954,-0.0703228129125142,-12.212176954617592,6.494919583175156,4.593967510049673,-0.24481958517515331,-0.08640691241484089,-0.10080806448392962,0.374429953796912,1.1664933175989436,-0.20161612896735734,0.069598,-0.02767,-0.9190440000000001,-0.385041,0.351866,-0.559672,0.454639,0.379536,0.35937200000000014,0.989318748811696,0.36499874816181055,single,-0.559672
149,1.241667,step_acsent,-0.15574754019678314,0.191144708423326,-0.08783297336213827,0.16768123744100863,-0.40283898813420216,-0.0827647961915072,-0.0021598272138217073,-0.0017998560115175344,-0.0040796736261097975,0.04355651547876163,-0.006359491240697064,-0.10067194624430378,10.859408422992317,-4.3801772907262055,-5.153729072513608,0.028829948406431667,0.2736149742034434,0.028857593088873753,0.5609503499582238,0.46087314322340545,-3.641604671441007,0.070878,-0.029278,-0.918346,-0.38338,0.35022000000000003,-0.559779,0.454258,0.379498,0.35856699999999997,0.9917423314846581,0.3168754679178667,single,-0.559779
150,1.25,step_acsent,-0.17748709948398111,0.1760470418816764,-0.16776671066842952,-0.6360807344071584,-1.241521031698986,0.09990660361318286,-0.0020400816032645243,-0.003480139205568404,-0.004320172806912473,0.043081723268930935,0.0016800672026831415,-0.10284411376455112,-2.608851468522522,-1.811792456696236,-9.592432174041999,0.014370048068784846,-0.20164204896806492,-0.02886105613856689,-0.056977344273454994,0.9647856046298188,-0.2606705292508525,0.07234,-0.030773999999999996,-0.9169839999999999,-0.381542,0.348767,-0.5592379999999999,0.453882,0.379541,0.357746,0.9901487176638861,0.3141403662733456,single,-0.5592379999999999
151,1.258333,step_acsent,-0.1490459618384749,0.17832713308532352,-0.10356414256569724,-0.3173037453168593,-0.7611034534281358,-0.019177309613667058,-0.0012000480019196224,-0.0044401776071054345,-0.007560302412096203,0.04056162246489956,0.011280451218053445,-0.1036841473658927,3.4130730403823915,0.27362188931322834,7.704616356982224,0.10080806448396851,-0.11520921655310684,-0.3888311058662858,-0.3024241934515057,1.1520921655310683,-0.10080806448356959,0.073572,-0.03229699999999999,-0.916184,-0.379962,0.34737500000000004,-0.559239,0.453534,0.379672,0.35694499999999996,0.9852508507823615,0.3134904216664278,single,-0.559239
152,1.266667,step_acsent,-0.23758099352051687,0.11795056395488411,-0.1996640268778481,0.4172292477585735,-2.337825524029749,0.7021396999285752,-0.003599712023038399,-0.003599712023038399,-0.007919366450683895,0.041996640268780215,0.017158627309815593,-0.0865130789536863,-10.623353933530272,-7.244608726954518,-11.531063632367426,-0.2879366476024428,0.10084780226386238,-0.04308423789149141,0.17218836139676533,0.7053247050350495,2.0603633803943198,0.075522,-0.033310000000000006,-0.914586,-0.37763199999999997,0.34653500000000004,-0.558296,0.453154,0.37984500000000004,0.35629,0.9843092190657281,0.33718919368490885,single,-0.558296
153,1.275,step_acsent,-0.15444617784711528,0.2918516740669641,-0.6031441257650331,-2.3095214355007245,-4.083442082190083,-0.020019190721719284,-0.0002400096003842576,-0.003000120004799889,-0.005040201608064413,0.03756150246009967,0.03216128645145055,-0.06576263050521997,9.976576943886037,20.868967972168676,-48.41954864840857,0.403180417935218,0.07195392034543567,0.34551360165840733,-0.5322378265547324,1.8003911126407168,2.4901534199527813,0.076807,-0.03576699999999999,-0.909602,-0.376032,0.344371,-0.553818,0.452839,0.380138,0.355784,0.9902159487910438,0.36286727450873635,single,-0.553818
154,1.283333,step_acsent,-0.14712588503539858,0.23832953318132494,-0.006720268810759033,0.23110918916175427,-0.3226795873177979,-0.05004702240645307,-0.003000120004799809,-0.002400096003839181,-0.0076803072122885434,0.018840753630140403,0.04056162246490514,-0.008040321612862422,0.8784702762170373,-6.422913822829501,71.57372578354297,-0.33122649758976397,0.07200576034569751,-0.3168253455207109,-2.246579722783984,1.0080806448403272,6.926954145248594,0.07800800000000001,-0.037773,-0.90961,-0.374649,0.342723,-0.5538289999999999,0.45265700000000003,0.38049600000000006,0.3557810000000001,0.985687194957547,0.42426533917728493,single,-0.5538289999999999
155,1.291667,step_acsent,-0.15466762658987598,0.22402207823374312,-0.0053995680345527465,0.20782661498625063,-0.4068657342117764,-0.020488919831141747,-0.0027597792176637342,-0.0019198464122889736,-0.006959443244540452,0.015238780897527076,0.042596592272618305,0.02723782097431984,-0.9049365916099763,-1.7167572531296003,0.15847141543152293,0.02883858736934,0.0576253409587493,0.08649675638926145,-0.43220215174146825,0.24417684277816215,4.233038467384561,0.079274,-0.039656,-0.9096230000000001,-0.37323300000000004,0.34121100000000004,-0.5535570000000001,0.452507,0.38086700000000007,0.356066,0.987118484189113,0.4119881793306588,single,-0.5535570000000001
156,1.3,step_acsent,-0.1765270610824402,0.23112924516980407,-0.040921636865478186,0.06555892116778445,-0.03657418234512521,0.08628595888620011,-0.0012000480019195906,-0.00216008640345493,-0.003120124804992351,0.023280931237252382,0.032401296051840604,0.0014400576023055071,-2.6232370685904045,0.8528941480932227,-4.262818772461877,0.1871752328986099,-0.028829952137999774,0.4607366422114525,0.9650966446328052,-1.2234844858727376,-3.0958554388592203,0.080735,-0.0416,-0.909308,-0.371568,0.33955500000000005,-0.553204,0.452303,0.381155,0.356104,0.9933664850786934,0.4334601307692011,single,-0.553204
157,1.308333,step_acsent,-0.17184687387495648,0.2344893795751865,-0.00864034561381995,0.2611744292959392,-0.19295840950922935,0.05932913827005519,-0.0015600624024960088,-0.001200048001921288,-0.0044401776071041855,0.012240489619583813,0.022200888035520512,0.006840273610941349,0.5616449306952802,0.40323225793621353,3.873909906595288,-0.04320345620741888,0.1152092165527002,-0.158412672760332,-1.3249059903598548,-1.2240979258754572,0.6480518431100313,0.082154,-0.04356400000000002,-0.909273,-0.37003400000000003,0.33778600000000003,-0.553075,0.45218800000000003,0.38135,0.356198,0.9919052336714074,0.45623616540118117,single,-0.553075
158,1.316667,step_acsent,-0.1925845932325398,0.2168226541876637,-0.03971682265418379,0.04186846860665753,-0.18447035104746604,0.1117275162066741,-0.0022798176145914302,0.0,-0.0020398368130548987,0.011399088072955485,0.012359011279093286,0.004319654427650075,-2.48832725672944,-2.119837459505961,-3.7288789345288698,-0.08636371635414157,0.14399424069129815,0.2880178538576036,-0.10096010878669565,-1.1809307363123531,-0.3024501059864716,0.08374,-0.04537100000000002,-0.9089590000000001,-0.368334,0.336082,-0.552708,0.452074,0.381453,0.3562510000000001,0.9949013883753365,0.4710679059853523,single,-0.552708
159,1.325,step_acsent,-0.20592823712948732,0.22716908676346997,-0.09228369134765711,-0.2271177406793704,-0.28571016098410984,0.13728415166616004,-0.002400096003839245,0.0009600384015370304,-0.003120124804992434,-0.0019200768030740608,-0.001560062402487682,0.007800312012478379,-1.601301319686506,1.2416215739597234,-6.3082765742798275,-0.014433984069100656,0.11520921655310683,-0.1296397446222903,-1.598363719672347,-1.670355656015972,0.4176956180041204,0.08543600000000001,-0.04725599999999999,-0.908216,-0.366634,0.33417600000000003,-0.551874,0.45207,0.38143200000000005,0.35634200000000005,0.9932469526716534,0.4863612727539296,single,-0.551874
160,1.333333,step_acsent,-0.20448817952717718,0.24372974918996393,-0.011280451218053144,0.27812033590568186,0.20510069939012493,-0.02125069294715954,-0.0036001440057604373,0.00216008640345493,-0.0046801872074879024,-0.009600384015356725,-0.011640465618626191,0.002640105604226763,0.17281382483020707,1.9873589855386613,9.720777646658172,-0.14401152069136822,0.14401152069097306,-0.18721497689852887,-0.9216737324232004,-1.2096967738075524,-0.6192495389717418,0.08710999999999999,-0.04926900000000001,-0.908161,-0.36501,0.332048,-0.551758,0.45211999999999997,0.381317,0.356403,0.9895210313233102,0.47447017154917903,single,-0.551758
161,1.341667,step_acsent,-0.2047036237101074,0.2516198704103705,0.0069594432445408685,0.33113794207020886,0.13103696959947084,-0.02995063515084534,-0.004199664026878799,0.002039836813057034,0.0,-0.01427885769138925,-0.014278857691382589,0.002639788816890678,-0.0258512338529172,0.946738807344217,2.1886122465316005,-0.07193664760239661,-0.01442879654402424,0.5615775386954633,-0.5613719313694042,-0.31658172219299835,-3.801143941504616e-05,0.088781,-0.05134899999999998,-0.908219,-0.363423,0.32983200000000007,-0.551794,0.452204,0.38118100000000005,0.356425,0.9922185919293052,0.46605805450890025,single,-0.551794
162,1.35,step_acsent,-0.22092883715348213,0.24456978279131214,-0.04476179047161288,-0.06946231325747382,0.24887660420424843,0.023734270751105433,-0.00540021600863899,0.0032401296051840604,0.002400096003840014,-0.0168006720268776,-0.011160446417857689,0.0032401296051840604,-1.9471034973448287,-0.8460443560612287,-6.206796317791054,-0.144072000691248,0.14404089669110828,0.28802304138245194,-0.3026298254516147,0.37422432179585335,0.07204377634625847,0.090577,-0.05336000000000002,-0.907826,-0.361722,0.327701,-0.551394,0.452299,0.38106100000000004,0.35643199999999997,0.9887674538324761,0.465952786675503,single,-0.551394
163,1.358333,step_acsent,-0.2118084723388954,0.24852994119764893,0.038521540861636706,0.3646587916086202,0.11245753573503993,-0.08943016007211102,0.05340213608544402,0.0486019440777622,0.09444377775111085,-0.015240609624383703,-0.005160206408258207,0.001560062402501005,1.0944875572527069,0.47523801828115025,9.99439953597148,7.0565645138705815,5.4436354821287125,11.045683637018081,0.18721497689834526,0.7200576034560826,-0.20161612896712716,0.09278700000000001,-0.05502600000000002,-0.90736,-0.36008399999999996,0.325587,-0.551702,0.45287099999999997,0.38061300000000003,0.35565800000000003,0.8018588868274864,0.47305676200074687,single,-0.551702
164,1.366667,step_acsent,-0.21814254859611068,0.25869930405567254,-0.05291576673866347,-0.09884719983253037,-0.08520671393708808,-0.10552614179777792,-0.003959683225342572,0.003959683225342572,0.005759539236860939,-0.009479241660673224,-0.0009599232061444612,-0.011999040076799104,-0.7600283485979389,1.220225924888833,-10.971599184101208,-6.882867687879308,-5.356642770868645,-10.641257321124218,0.6913088509371773,0.5039936647604648,-1.6269621405447572,0.094572,-0.057149000000000005,-0.906871,-0.358345,0.323423,-0.551361,0.452917,0.380572,0.35551,0.986611522915513,0.4744638362215156,single,-0.551361
165,1.375,step_acsent,-0.2148085923436957,0.2545301812072487,0.1153246129845192,0.40477495380181056,0.30002626471437066,-0.24396595587731612,-0.0037201488059526618,0.005640225609023392,0.003960158406336503,-0.0033601344053729447,0.004920196807867288,-0.01968078723148914,0.4000907539199577,-0.5003147544010433,20.18965315290822,0.02874528013799503,0.20167315296781896,-0.2159343370364158,0.7343222435257812,0.7056426273865118,-0.9218465324241095,0.096331,-0.059223,-0.907799,-0.356583,0.321343,-0.552486,0.452914,0.38056599999999996,0.355313,0.9869472750117934,0.4657285255520367,single,-0.552486
166,1.383333,step_acsent,-0.22044881795272023,0.2614904596183855,0.05064202568103172,0.5023791833207086,0.0615718808372252,-0.22481658244551703,-0.005400216008640799,0.006120244809795237,0.006240249609984452,-0.0006000240009573131,0.007560302412100783,-0.019920796831873394,-0.676854147248839,0.835266820009228,-7.762220965257177,-0.20161612896773706,0.05760460827695304,0.2736218893133289,0.3312264975897824,0.31682534552184316,-0.02880230413827646,0.09812299999999999,-0.06135099999999996,-0.908169,-0.354751,0.31922700000000004,-0.5530740000000001,0.452874,0.38057799999999997,0.35509499999999994,0.9828762312148421,0.464473939620919,single,-0.5530740000000001
167,1.391667,step_acsent,-0.22486201103911513,0.2597792176625884,-0.0037197024238064566,0.02427835279921318,-0.24009180780827002,-0.25243524644162174,-0.0031197504199661683,0.007199424046073468,0.005039596832253425,0.0010799136069091885,0.010079193664503522,-0.00959923206143129,-0.5295408071028158,-0.20533260808700804,-6.522885541737192,0.27363397992255983,0.1294911490614618,-0.1440668079830834,0.20157638683303203,0.302242770866657,1.2384886933575745,0.09997099999999999,-0.06345600000000001,-0.908096,-0.352868,0.317146,-0.553123,0.452839,0.380602,0.354973,0.9844577559973436,0.4767321386114902,single,-0.553123
168,1.4,step_acsent,-0.21636865474619182,0.30673226929077474,0.0289211568462664,0.29461180889574223,0.5471705880783816,-0.37099237485880593,-0.004200168006719512,0.008520340813634482,0.004800192007680155,0.0028801152046044293,0.014160566422664536,-0.005160206408258207,1.0192435248918015,5.634591579045576,3.9170597948005703,-0.1296552966222673,0.15851635276143358,-0.02872972813791821,0.21603283303675233,0.4897843223522203,0.532704386556237,0.101739,-0.065941,-0.908297,-0.35104100000000005,0.31470800000000004,-0.553407,0.45278,0.380649,0.35489000000000004,0.9822611958489186,0.47442633542216195,single,-0.553407
169,1.408333,step_acsent,-0.23784951398055504,0.30649225969038235,-0.0021600864034515992,0.12811618566108504,0.4919075833561132,-0.3718914180928603,-0.0007200288011527536,0.010080403216128558,0.0034801392055683117,0.004200168006721065,0.008880355214197309,-0.01896075843033586,-2.5778062203723553,-0.028802304139251618,-3.729898385901531,0.41763341000440385,0.18721497689836172,-0.15841267276032886,0.15841267276090398,-0.633650691043698,-1.656132487948807,0.103715,-0.068411,-0.90825,-0.349024,0.31222799999999995,-0.553547,0.452739,0.38063899999999995,0.354703,0.9821858093890512,0.4644092521281257,single,-0.553547
170,1.416667,step_acsent,-0.2487401007919414,0.2974562035037264,0.01739860811134551,0.16196257505575098,0.21194531014683476,-0.30512243362635466,-0.0031197504199662516,0.007919366450682025,0.006119510439164859,0.006839452843776138,0.015598752099841249,-0.011639068874491912,-1.3067658760962997,-1.084240003198476,2.3468555933282316,-0.2879435587729234,-0.259303667560184,0.3166992120946241,0.3166888453389876,0.806143134826502,0.878532464104162,0.105762,-0.07082400000000003,-0.9083439999999999,-0.346894,0.309879,-0.553789,0.452656,0.380703,0.35455499999999995,0.9825279893927049,0.4656178701721493,single,-0.553789
171,1.425,step_acsent,-0.2734909396375807,0.27145085803431496,-0.07800312012479503,-0.41689694821643225,-0.32704540931358905,-0.17452616847938435,0.0021600864034565953,0.011040441617665563,0.009960398415936432,0.0024000960038358505,0.016320652826115757,-0.00432017280690986,-2.9702194702554747,-3.1207662869808006,-11.448665334950062,0.6336057630412522,0.37454400179808983,0.46092499421234917,-0.5327441305580475,0.08663155241503612,0.8783026602162395,0.108059,-0.072994,-0.9076110000000001,-0.34459500000000004,0.30775300000000005,-0.553175,0.452654,0.38074700000000006,0.3544360000000001,0.9749574328510395,0.471579151696735,single,-0.553175
172,1.433333,step_acsent,-0.2760110404416202,0.2734909396375851,-0.025561022440900118,-0.151352232554953,-0.2859649241259277,-0.23073775161746882,0.0028801152046077604,0.010200408016320954,0.009720388815552856,0.005760230409222182,0.005880235209404319,-0.02436097443897883,-0.30242419345248406,0.24481958517582456,6.293303454205615,0.08640691241463719,-0.10080806448393327,-0.028802304138194856,0.40323225793668094,-1.2529002300145848,-2.40499239554412,0.110383,-0.07518799999999998,-0.907317,-0.34224699999999997,0.30552300000000004,-0.553165,0.45263,0.380711,0.354152,0.9760307288146328,0.45714318101379686,single,-0.553165
173,1.441667,step_acsent,-0.48164146868250174,0.16750659947204197,-0.32265418766499065,-1.897272707553781,-0.6978639834477588,0.9948000646035305,0.005159587233021483,0.013078953683704962,0.016798656107511002,-0.003839692824577845,0.0004799616030722306,-0.005639548836095379,-24.673677494706016,-12.71710345158895,-35.64832796065374,0.2735147622286664,0.34539784825821757,0.8493241291046427,-1.1518986361651014,-0.6479809942803032,2.246391361037114,0.11444,-0.07647499999999999,-0.904488,-0.33826500000000004,0.30413100000000004,-0.550523,0.452705,0.380606,0.353965,0.9634899094277397,0.4886009119270391,single,-0.550523
174,1.45,step_acsent,-0.32965318612744804,0.39409576383055794,0.014520580823237591,-0.5077152835208535,1.229509069499258,-0.5616767576134649,0.011640465618624835,0.005640225609023392,0.015840633625345178,-0.0015600624024943435,0.00024000960037759599,-0.009960398415936697,18.239323479545792,27.191787394517945,40.462590722216646,0.7777365157330386,-0.8926830762848479,-0.114967296551762,0.2735665933137552,-0.02879539213904198,-0.5185226904885825,0.117284,-0.079712,-0.904477,-0.335531,0.300849,-0.550727,0.45281499999999997,0.380561,0.35375,0.9659152095506462,0.48319218634813094,single,-0.550727
175,1.458333,step_acsent,-0.23892955718228306,0.3360134405376186,0.09456378255130171,0.5126458988583351,1.205053219602932,-0.5040250246659159,0.013200528021120492,0.014160566422657497,0.023880955238208844,-0.01032041281651614,-0.023280931237239056,-0.023160926437056924,10.887270964258176,-6.9701576014566555,9.60556843010473,0.18721497689855157,1.0224817969079512,0.9648771886311682,-1.051284101046639,-2.822625805546171,-1.5841267276035036,0.11938499999999999,-0.08239400000000002,-0.905066,-0.33362600000000003,0.29785500000000004,-0.5517080000000001,0.45301100000000005,0.38024900000000006,0.35335799999999995,0.9487631966980706,0.4426283753498511,single,-0.5517080000000001
176,1.466667,step_acsent,-0.3212143028557775,0.1526277897768202,-0.10547156227502891,-0.13207503841838755,-2.409168491190008,0.37513556581820223,0.014158867290617858,0.013918886489081737,0.018358531317494993,-0.006599472042233355,-0.015118790496769006,0.0004799616030722434,-9.873379610450685,-22.004517729877836,-24.002321193464653,0.11499151301864463,-0.02899927208732476,-0.6626378594569181,0.4464771747399635,0.9793785385733388,2.836679630445118,0.12218000000000001,-0.08355000000000001,-0.904034,-0.331004,0.29645699999999997,-0.5508249999999999,0.45318400000000003,0.380007,0.3532090000000001,0.954930775584641,0.47249438337852934,single,-0.5508249999999999
177,1.475,step_acsent,-0.23076923076922687,0.4059762390495512,0.13848553942158637,0.40517262459383085,0.1804510811622274,-0.9419352554516112,0.011280451218048148,0.012000480019199237,0.017640705628224975,-0.003000120004799809,0.008280331213246674,-0.01968078723148861,10.85384280409805,30.403030033928548,29.276023244523103,-0.34542374565818557,-0.2302179851053002,-0.08614252841353717,0.43193952207290087,2.8080069254788516,-2.4193866356126845,0.124197,-0.086833,-0.9050410000000001,-0.329106,0.293143,-0.552143,0.453303,0.379976,0.35289800000000004,0.9597765064699036,0.4640641779195423,single,-0.552143
178,1.483333,step_acsent,-0.3811352454098201,0.21312852514100755,-0.1300852034081477,-0.7220341575181668,-0.4291204069502552,0.45836263358881435,0.011400456018240577,0.005760230409218851,0.005640225609024225,-0.003000120004799889,0.01068042721708947,-0.023760950438014853,-18.044643542613056,-23.142651375080455,-32.229778330701606,0.014401152069174453,-0.7488599075939568,-1.4401152069123797,-9.57605662965725e-15,0.28802304138279355,-0.4896391703499675,0.127468,-0.08856099999999997,-0.90391,-0.325955,0.291456,-0.5512569999999999,0.453423,0.38001699999999994,0.3526530000000001,0.9767284868519578,0.4562947050213801,single,-0.5512569999999999
179,1.491667,step_acsent,-0.3086153107751354,0.3698104151667873,0.06263498920086615,0.07782993029031064,0.5643638400045142,-0.5079818777796135,0.009959203263738794,0.014278857691382209,0.029757619390449155,0.0009599232061444612,0.018958483321333125,-0.034317254619631185,8.70169602048046,18.800322777271244,23.124573147229707,-0.17293649562056296,1.0221535015794687,2.8938557453113445,0.47516717193956326,0.9932872695276688,-1.2666551693803998,0.130123,-0.09152400000000002,-0.904184,-0.32337499999999997,0.28853199999999996,-0.552065,0.45349799999999996,0.38005599999999995,0.35211899999999996,0.9425401730093574,0.43463734699056267,single,-0.552065
180,1.5,step_acsent,-0.32953318132725634,0.34957398295932146,0.024720988839558547,-0.18962532151949704,0.07431993999346709,-0.272107973797458,0.014040561622465746,0.01572062882515555,0.04284171366854668,0.005040201608062748,0.021600864034569858,-0.03588143525740987,-2.5102448760495806,-2.4284690036560703,-4.549862037838467,0.4897825943510127,0.17301945683107553,1.5701541195364987,0.48965299434997284,0.3170983695231918,-0.18770918490083963,0.132986,-0.094306,-0.904033,-0.320587,0.285799,-0.55257,0.453573,0.380105,0.35146299999999997,0.9204232032110157,0.42969356052446805,single,-0.55257
181,1.508333,step_acsent,-0.3564142565702661,0.32137285491420114,-0.07656306252250489,-0.7810606781997085,-0.5190125800896428,-0.15306553985117632,0.013560542421695566,0.01848073922956785,0.05052202088083626,0.009360374414979384,0.04104164166566142,-0.01656066242650045,-3.2258580634837397,-3.3842707362439186,-12.154572346341578,-0.05760460827675319,0.33122649758938283,0.9216737324240549,0.5184414744889806,2.3329866351964164,2.3185854831284765,0.136069,-0.09683000000000003,-0.9029739999999999,-0.31753899999999996,0.28346299999999996,-0.5520700000000001,0.45360799999999996,0.380293,0.3509039999999999,0.907535282597968,0.42460679923439787,single,-0.5520700000000001
182,1.516667,step_acsent,-0.3522918166546651,0.30081593472521745,0.07259419246459828,-0.21216591978774638,0.2434634274939732,-0.18711313551437408,0.0020398368130553146,0.022918166546675698,0.057355411567074105,0.008279337652985986,0.027237820974319114,-0.027117830573554387,0.4946532176147091,-2.466633092030662,17.897438803347974,-1.382374083110171,0.5324486821583649,0.8199412870455716,-0.12971403431646142,-1.6563259768829133,-1.2667588369395075,0.139022,-0.09914600000000001,-0.9031009999999999,-0.314534,0.28118299999999996,-0.552901,0.45355599999999996,0.380329,0.35019999999999996,0.8970026088772483,0.43447173937873973,single,-0.552901
183,1.525,step_acsent,-0.3693747749910027,0.31969278771151133,0.044041761670467965,-0.4076536811126765,-0.10221104812312005,-0.15026796731246245,0.0015600624024960088,0.0225609024360969,0.06504260170406885,0.0,0.008040321612869298,-0.02988119524781009,-2.050037001840605,2.2653129708741213,-3.4264287524457666,-0.05757523227640828,-0.042873408205784516,0.922499716428035,-0.9935602607687581,-2.303792075057001,-0.3316170255917112,0.142113,-0.10162200000000002,-0.902926,-0.311456,0.278586,-0.553517,0.453569,0.380208,0.34940899999999997,0.8852300834293902,0.44842662721164145,single,-0.553517
184,1.533333,step_acsent,-0.3769350774030893,0.3141725669026717,0.05328213128525047,-0.42269634421827756,-0.37943895258120064,-0.146765207653783,-0.004440177607103651,0.023640945637825428,0.06648265930637097,0.0015600624024943019,0.013680547221882333,-0.027961118444735287,-0.9072725803535909,-0.6624529951805508,1.1088887093222544,-0.7200576034560848,0.1296103686221661,0.17281382482924448,0.18721497689838887,0.6768541472474422,0.23041843310629673,0.14521699999999998,-0.10404300000000002,-0.902816,-0.308302,0.27608199999999994,-0.554194,0.453519,0.38012499999999994,0.348622,0.8821659184809204,0.4480541063629573,single,-0.554194
185,1.541667,step_acsent,-0.39008879289657616,0.29445644348452826,0.00143988480921673,-0.730309831683768,-0.5434838118721251,-0.04605500386742101,0.004319654427645195,0.024838012958965282,0.07199424046076407,0.0031197504199695822,0.0159587233021421,-0.026997840172790378,-1.5783195936509626,-2.365745550533215,-6.2205719313696575,1.0510957565093608,0.1436365876097764,0.6613368315806578,0.187147590289814,0.27335926089030604,0.11558414590171914,0.148504,-0.10629000000000002,-0.902228,-0.305025,0.273761,-0.554431,0.45352899999999996,0.380051,0.347797,0.8728653714271721,0.44747230714204256,single,-0.554431
186,1.55,step_acsent,-0.35725429017160065,0.3273730949237855,0.05124204968199433,-0.7860929219797665,-0.1847389195297286,-0.38667571063822237,0.001920076803072344,0.02628105124204886,0.08424336973478806,0.006360254410172664,0.014760590423614795,-0.022560902436092965,3.940297938914549,3.9501561789579607,5.976498844686994,-0.2879608333820724,0.17317152083085957,1.469954311055296,0.3888760338657177,-0.14378169669114182,0.5324538265567426,0.151497,-0.10879899999999998,-0.901953,-0.301995,0.271156,-0.555046,0.453492,0.379955,0.34690699999999997,0.8528858559788324,0.45383236509599156,single,-0.555046
187,1.558333,step_acsent,-0.3958958358334365,0.3232929317172752,0.11568462738509225,-0.6459569743481639,0.02858003136831699,-0.23295124744204507,-0.0031201248049920177,0.026521060842433816,0.09780391215648754,0.008640345613826612,0.01680067202688471,-0.02496099843993614,-4.637170966258997,-0.48963917034805854,7.733418661118265,-0.6048483869032051,0.028802304138360563,1.6273301838113043,0.2736218893140488,0.24481958517579896,-0.28802304138283913,0.15477,-0.11127200000000001,-0.902102,-0.298624,0.268602,-0.556218,0.45339399999999996,0.37987400000000004,0.34588399999999997,0.8310267355128437,0.4478258898814158,single,-0.556218
188,1.566667,step_acsent,-0.40688744900407636,0.30969522438204705,0.11915046796256468,-0.5843181109239418,-0.1517571038716689,-0.2625605310858429,-0.0025197984161258805,0.03467722582193536,0.11795056395488245,0.008999280057594332,0.00863930885528683,-0.05435565154788016,-1.318888069431217,-1.6315943526791497,0.4158675998886972,0.07203340399161659,0.978661504619808,2.4174048234214967,0.04306868775710556,-0.9792852377727163,-3.527076206856707,0.15814,-0.113564,-0.902112,-0.29515800000000003,0.26609299999999997,-0.557664,0.453298,0.37965699999999997,0.344448,0.795052886821731,0.4070519626313441,single,-0.557664
189,1.575,step_acsent,-0.42337693507740737,0.29341173646945845,0.13104524180967142,-0.41811028882674905,-0.4266766422485926,-0.06096888014852397,0.015240609624383703,0.04788191527660943,0.13068522740909752,0.009600384015363643,0.015480619224774622,-0.03108124324973138,-1.9788174814989987,-1.9540967133791851,1.4274299588511763,2.131334218229899,1.5846261196056868,1.5282207433355564,0.07213536034673178,0.8209900839419003,2.793040717406576,0.161795,-0.11560999999999999,-0.902115,-0.29155,0.26377700000000004,-0.559015,0.453345,0.37938700000000003,0.34309999999999996,0.766645342312234,0.4399569453832899,single,-0.559015
190,1.583333,step_acsent,-0.4275771030841155,0.3240129605184193,0.2350894035761309,-0.362886990454735,0.29380403870668526,-0.3602085025268526,-0.0001200048001921256,0.04992199687987429,0.1442457698307909,0.011040441617662232,0.017160686427457307,-0.02460098403935577,-0.5040403224178645,3.672293777626346,12.485798843928675,-1.843347464847661,0.244819585175186,1.6273301838105299,0.17281382482882085,0.2016161289670774,0.7776622117335287,0.16535699999999998,-0.11789400000000003,-0.9028719999999999,-0.287895,0.26122,-0.5611789999999999,0.453252,0.37911400000000006,0.341693,0.7455994939748669,0.44672949206906415,single,-0.5611789999999999
191,1.591667,step_acsent,-0.44864410847133157,0.3113750899928015,0.23002159827214952,-0.48214396666746684,0.028856026109457297,-0.14008761465935385,0.011039116870651606,0.05015598752099948,0.16174706023518368,0.0073194144468417205,0.013438924886009493,-0.02603791696664589,-2.5278384193924244,-1.5164231492222298,-0.6080879894386216,1.3389874815027532,0.02807663080455909,2.0999868495792064,-0.44648754149515024,-0.4465756589210325,-0.17241815782219166,0.169188,-0.12007099999999998,-0.903441,-0.284095,0.25873700000000005,-0.563313,0.453283,0.37880800000000003,0.3401280000000001,0.7171592680195036,0.4496635859138628,single,-0.563313
