frame_id,timestamp,gait_type,root_linear_velocity_x,root_linear_velocity_y,root_linear_velocity_z,root_angular_velocity_x,root_angular_velocity_y,root_angular_velocity_z,left_linear_velocity_x,left_linear_velocity_y,left_linear_velocity_z,right_linear_velocity_x,right_linear_velocity_y,right_linear_velocity_z,root_acceleration_x,root_acceleration_y,root_acceleration_z,left_acceleration_x,left_acceleration_y,left_acceleration_z,right_acceleration_x,right_acceleration_y,right_acceleration_z,left_pos_rel_x,left_pos_rel_y,left_pos_rel_z,right_pos_rel_x,right_pos_rel_y,right_pos_rel_z,step_length,step_width,step_height,left_contact_prob,right_contact_prob,support_type,max_foot_height
1,0.004167,stand,0.009359251259875264,0.0028797696184300753,-0.00239980801534785,-0.007878540547194309,0.009780825091611543,-0.002189085516995055,-0.0007199424046549771,-0.00023998080153611714,-0.001679865610751155,0.00047996160308555594,0.0,-0.0009599232061428034,0.0,0.0,0.0,0.0,0.0,0.0,0.0,0.0,0.0,-0.020685000000000064,0.150303,-0.9225570000000001,0.005346999999999991,-0.172174,-0.92487,0.026032000000000055,0.322477,0.0023129999999998985,0.9737977874778234,0.9982112887148937,double,-0.9225570000000001
2,0.008333,stand,0.009361497839683694,0.0028804608737393474,0.0014402304368580146,0.01920524625832371,0.004136545163310708,0.017351881806186534,-0.0012001920306794792,-0.00024003840614522323,-0.00048007681229044646,-0.0009601536245542433,-0.00048007681229044646,0.00024003840614355762,0.0005392654364929394,0.00016592782267694044,0.9217567096029439,-0.11527835478264574,-1.3827318556429053e-05,0.2879953908931129,-0.34568296390777703,-0.11523687284936304,0.28803687284838236,-0.020728999999999997,0.15029,-0.922565,0.005303999999999975,-0.17218799999999998,-0.924875,0.026032999999999973,0.322478,0.0023100000000000342,0.9747087591715156,0.9981666763902777,double,-0.922565
3,0.0125,stand,0.008879289656789706,0.004799616030717347,-0.0038396928245778734,-0.018495349826045348,0.02810817489159165,0.010331113846107676,0.0007199424046016905,0.0007199424046083513,0.0,0.001439884809203381,0.0002399808015361171,0.0009599232061444684,-0.115720706238058,0.4605603928432923,-1.267080216327307,0.4607954008354138,0.23037696442370398,0.11520921821225015,0.5759631470500657,0.17280000331810977,0.17275853131771313,-0.020762999999999865,0.150273,-0.922549,0.005273000000000083,-0.172207,-0.924855,0.026035999999999948,0.32248,0.0023060000000000302,0.9752430794788002,0.997088188989184,double,-0.922549
4,0.016667,stand,0.01079913606913193,0.003359731221502309,-0.0038396928245512303,-0.0033696225991188887,0.01901517597950474,0.00919495432085802,0.00047996160303226935,-0.0014398848092167025,-0.0002399808015344519,-0.00047996160308555583,0.0,0.0004799616030722342,0.46072628085966494,-0.3455447106347582,6.3938526965823815e-12,-0.057590785113851954,-0.5183170659527365,-0.05759078510546001,-0.460726280846877,-0.057590785105859625,-0.11518157021171925,-0.020806000000000102,0.150253,-0.9225340000000001,0.005225999999999953,-0.17222099999999999,-0.924837,0.026032000000000055,0.322474,0.002302999999999944,0.9744089551886305,0.9988687196525126,double,-0.9225340000000001
5,0.020833,stand,0.005760921747485359,0.0014402304368713397,-0.0014402304368846645,0.004952488818624881,0.019841637464291437,-0.009497729429278463,0.00048007681230377136,0.0012001920307261164,0.0,0.0002400384061785353,-0.00048007681229044656,0.0,-1.2093649355848708,-0.4607539089368626,0.5759631271403183,2.7654649904465845e-05,0.6337198367601583,0.057604609105725374,0.1728276546481256,-0.11523687284936308,-0.11520921821225018,-0.02082800000000007,0.150252,-0.922528,0.005203000000000069,-0.172229,-0.924831,0.026031000000000137,0.322481,0.002302999999999944,0.9748155893714352,0.9991054296777229,double,-0.922528
6,0.025,stand,0.013918886489054826,-0.0004799616030722342,0.0026397888168906273,0.025587430437905064,-0.03582431861983592,-0.025495704973678035,-0.00047996160308555583,0.0002399808015361171,-0.0009599232061444684,0.00047996160303226935,-0.0009599232061444684,-0.0016798656107511545,1.9577549175832654,-0.4608092248484698,0.9791262908028056,-0.23039078843036406,-0.23043226042476583,-0.2303631404234385,0.057576961088009124,-0.11515392221118832,-0.4031354957406178,-0.020888000000000018,0.150255,-0.922543,0.005147000000000013,-0.172231,-0.9248489999999999,0.02603500000000003,0.322486,0.0023059999999999192,0.975107116352698,0.9966776162455482,double,-0.922543
7,0.029167,stand,0.009839212863014113,0.0,-0.0016798656107461602,0.007913412972956519,-0.012010724278673317,-0.012669310628513116,0.00023998080156942131,0.0,0.0004799616030722346,0.00023998080156942131,0.0,-0.0002399808015361173,-0.9790433467820292,0.11518157021171935,-1.0366341319022776,0.17277235532876833,-0.057590785105859674,0.3455447106351581,-0.05759078508827651,0.2303631404234387,0.3455447106347584,-0.020928000000000058,0.150255,-0.922534,0.005106999999999973,-0.172231,-0.924843,0.02603500000000003,0.322486,0.0023090000000000055,0.9760156443574257,0.9994343598262249,double,-0.922534
8,0.033333,stand,0.006721075372039597,0.0012001920307244498,-0.0002400384061518855,-0.024631100804684093,0.01117910786835141,-0.00425020198055984,0.0012001920307327777,-0.0009601536245808924,-0.0004800768122904462,0.00048007681225047176,0.0009601536245808924,0.0009601536245792267,-0.7484727534744393,0.2880921821230074,0.34561382731499607,0.23048757301088713,-0.2304737456987258,-0.23044609106161307,0.05763226372564817,0.2304737456987258,0.28807835480445104,-0.020950999999999942,0.150246,-0.922535,0.005080999999999891,-0.172232,-0.9248379999999999,0.026031999999999833,0.322478,0.002302999999999944,0.9742862890332347,0.9975996159385718,double,-0.922535
9,0.0375,stand,0.00815934725224131,0.004559635229181233,-0.0014398848092033823,-0.012072026361165725,0.012177379351661152,-0.008490912133147701,0.001679865610719517,-0.0014398848092133734,0.0007199424046083519,0.0,-0.0002399808015361173,-0.0002399808015361173,0.3451576386373204,0.8062018714799102,-0.2879401015242375,0.11511245020080145,-0.11512627420985874,0.28798157352982934,-0.11520921820265709,-0.28800922153036007,-0.2880092215299604,-0.020978000000000163,0.150221,-0.922526,0.005046999999999802,-0.172252,-0.924833,0.026024999999999965,0.322473,0.002307000000000059,0.9730521663407993,0.999434359826264,double,-0.922526
10,0.041667,stand,0.008639308855273566,0.0014398848092167015,-0.0011999040076872453,0.020946781629527407,0.011489349262043392,0.0037549297713179346,0.0004799616030855554,-0.0011999040076805846,-0.0014398848092150361,0.00023998080156942094,0.0002399808015361169,0.0,0.115181570202125,-0.748680206374977,0.05759078510106473,-0.2879539255181091,0.057590785105060854,-0.5183170659523365,0.057590785113851864,0.11518157021171915,0.05759078510585963,-0.02101200000000003,0.15021,-0.922527,0.0050120000000000164,-0.172257,-0.924828,0.026024000000000047,0.322467,0.0023009999999999975,0.9737653548722841,0.9994343598262249,double,-0.922527
11,0.045833,stand,0.008161305808897623,0.004320691310609026,0.0002400384061518859,-0.0021467867616674187,-0.012287177544539521,-0.016573947904202187,-0.0004800768123037718,0.0007201152184356705,0.0007201152184340048,-0.0009601536246075436,0.00024003840614522347,-0.00048007681228878134,-0.11473908938452781,0.6915042010063196,0.3456414819585052,-0.23044609106800962,0.4608783548046704,0.5184829639099959,-0.2880783548192428,1.3827318556546181e-05,-0.11523687284896346,-0.021047999999999956,0.150195,-0.922525,0.004974000000000034,-0.17227399999999998,-0.924831,0.02602199999999999,0.322469,0.0023059999999999192,0.9750635334614148,0.9981666763902007,double,-0.922525
12,0.05,stand,0.01679865610751486,0.008159347252219649,0.0019198464122889352,-0.01305928552491648,-0.040316274947885485,0.05355998169873422,-0.00023998080151613449,0.0016798656107494879,0.0007199424046083507,0.0,0.0,-0.0004799616030722338,2.07279824780831,0.9212037296881735,0.4031216717391523,0.05761843311438375,0.2303216684218422,-4.1472000396954224e-05,0.23041843643089577,-0.05760460910612509,2.764800013139836e-05,-0.021118999999999888,0.150168,-0.9225300000000001,0.0049040000000000195,-0.172308,-0.924841,0.026022999999999907,0.322476,0.002310999999999952,0.9738177874778606,0.9992000639948796,double,-0.9225300000000001
13,0.054167,stand,0.008399328053757444,0.007439404847612976,0.00047996160305891297,0.01158874197725119,-0.02997294243187772,0.006457367961933028,-0.0016798656107728034,0.0007199424046083519,-0.0011999040076805865,0.0004799616030855562,-0.0004799616030722346,0.0,-2.015677478703485,-0.1727723553171763,-0.3455447106383545,-0.3455447106447492,-0.23036314042263897,-0.4607262808468775,0.11518157021491637,-0.11518157021171944,0.11518157021171925,-0.021160999999999985,0.15014,-0.9225369999999999,0.00487100000000007,-0.172341,-0.924843,0.026032000000000055,0.322481,0.0023060000000000302,0.9732961180788668,0.9988687196525126,double,-0.9225369999999999
14,0.058333,stand,0.006240998559789125,0.004560729716754241,0.0012001920307327777,0.01401674515125766,0.0019078299092555662,-0.0047435039572131,-0.00024003840612523588,0.0007201152184356692,-0.0007201152184340036,-0.00024003840612523588,-0.0004800768122904462,-0.0002400384061452231,-0.5180819716678631,-0.690992590220531,0.17288296391595395,0.34561382732778845,4.148195566905291e-05,0.11516773625698093,-0.17282765463533165,-2.765463711271495e-05,-0.05761843642468145,-0.021187999999999985,0.150124,-0.922545,0.0048440000000000705,-0.172362,-0.924849,0.026032000000000055,0.322486,0.0023040000000000838,0.9752161614084169,0.999020047310469,double,-0.922545
15,0.0625,stand,0.0047996160306957025,0.003599712023038429,-0.0007199424046016911,-0.004675329437768881,0.017621725473039685,-0.013832390083232475,-0.0016798656107728034,0.0016798656107494907,-0.0002399808015361173,-0.00023998080156942131,0.0009599232061444692,0.0004799616030722346,-0.3459041346516495,-0.2306257964280809,-0.46079540084820503,-0.3455308866444849,0.23032166842184357,0.11522304221211584,1.3823987476497515e-05,0.3455723586356891,0.17278617931784454,-0.021214999999999984,0.150116,-0.922543,0.004823000000000022,-0.172373,-0.924844,0.026038000000000006,0.32248899999999997,0.0023009999999999975,0.9730103686220603,0.9981671163526955,double,-0.922543
16,0.066667,stand,0.007679385649155741,0.0045596352291812255,-0.001439884809230023,-0.012826043757262852,0.0030933348943384563,-0.007362914000075785,0.0007199424046016899,0.0002399808015361169,-0.0002399808015361169,-0.00047996160303226897,0.0004799616030722338,-0.0004799616030722338,0.6910894212767064,0.2303631404230371,-0.1727723553223737,0.5759078510617929,-0.34554471063435865,9.75703898925039e-17,-0.05759078508827632,-0.11518157021171946,-0.2303631404234383,-0.02124400000000004,0.150098,-0.922538,0.004789000000000154,-0.17239,-0.92484,0.026033000000000195,0.322488,0.0023020000000000262,0.97565345620737,0.9986144701963663,double,-0.922538
17,0.070833,stand,0.0057609217474853735,0.003840614498320251,0.001440230436884668,0.006233011851172771,0.013491481111766828,-0.01273013457336145,0.0,-0.0007201152184323405,0.0007201152184356717,0.00024003840612523667,0.0,-0.0014402304368696776,-0.46050501720364195,-0.1725925902210697,0.6913382731912383,-0.17281382731677672,-0.23045991837937108,0.2304599183801707,0.1728276546225414,-0.11520921821225037,-0.2305014003354408,-0.021268000000000065,0.15007900000000002,-0.922541,0.004766000000000048,-0.172406,-0.924852,0.026034000000000113,0.322485,0.002310999999999952,0.9751926721526989,0.997566505628787,double,-0.922541
18,0.075,stand,0.004799616030748981,0.0045596352291812255,-0.001439884809230023,0.0004943166481770213,0.012564248965416415,-0.018985286434429993,0.0011999040076872453,-0.0011999040076805846,0.0004799616030705686,-0.0019198464122889352,0.000479961603065573,0.0009599232061428024,-0.23069491642342008,0.1725511713129287,-0.691172365278303,0.2879539255308961,-0.11514009821172154,-0.05763225710705613,-0.5183308899482049,0.1151815702101206,0.5759907950593899,-0.021283000000000163,0.150055,-0.9225329999999999,0.004737999999999909,-0.17242300000000002,-0.9248419999999999,0.026021000000000072,0.32247800000000004,0.0023090000000000055,0.9739708474408552,0.9963342327054189,double,-0.9225329999999999
19,0.079167,stand,0.005039596832211829,0.003119750419966189,0.0002399808015427777,-0.012061740025400426,0.013186423640330888,-0.006112301269034133,0.0009599232061711108,-0.0014398848092167015,-0.0007199424046066855,-0.0007199424046016899,0.0002399808015361169,-0.0004799616030705686,0.057590785088276454,-0.3455447106347576,0.40313549574581214,-0.057590785101064135,-0.05759078510585953,-0.2879539255284984,0.2879539255308961,-0.05759078510426107,-0.34554471063435793,-0.021299999999999875,0.150036,-0.9225369999999999,0.004714000000000107,-0.172435,-0.924845,0.02601399999999998,0.322471,0.0023080000000000878,0.9737961500376096,0.9985034567687578,double,-0.9225369999999999
20,0.083333,stand,0.008401344215076146,0.0026404224675941226,0.0002400384061518855,0.00811869828048874,-0.005337379437567965,-0.014728648342632048,0.0007201152184290069,-0.0009601536245775612,-0.0012001920307244498,0.0,-0.00048007681228378376,-0.0002400384061452231,0.8069484836448185,-0.11505711770812918,1.382731855683894e-05,-0.057563127158450245,0.1151539089388238,-0.11527835480503215,0.17281382731677614,-0.17284148195388865,0.057590781787168824,-0.021331999999999907,0.15002100000000002,-0.922543,0.0046790000000001,-0.172448,-0.924847,0.026011000000000006,0.322469,0.0023039999999999727,0.9741311202545015,0.9991054296777575,double,-0.922543
21,0.0875,stand,0.005039596832265132,0.005279577633789593,0.0009599232061444707,-0.007265543915672121,0.010432812819984628,-0.016594069111118506,0.00023998080151613527,-0.0019198464122889415,0.0002399808015344525,-0.000479961603085557,0.0007199424046016923,0.0,-0.8067548314881262,0.6333465721611417,0.1727585313157156,-0.11522304221571221,-0.23030784442317798,0.34561383063568646,-0.11518157021491676,0.2879815735266328,0.057604609106125186,-0.021352000000000038,0.14999099999999999,-0.922546,0.0046559999999999935,-0.172467,-0.924851,0.02600800000000003,0.322458,0.0023050000000000015,0.9737006445865799,0.9985578948582212,double,-0.922546
22,0.091667,stand,0.007439404847639606,0.00383969282457454,-0.0007199424046016899,-0.004550090083609364,0.00721319278432995,-0.005938252639328028,0.0009599232061711108,0.0,0.0002399808015361169,0.0,-0.0007199424046016899,-0.0007199424046083507,0.5759078510617883,-0.34554471063476166,-0.40313549573941904,0.17277235532876767,0.4607262808468778,3.9942715744927297e-13,0.11518157021491637,-0.34554471063196085,-0.1727723553175786,-0.021379000000000037,0.149975,-0.9225420000000001,0.004624999999999879,-0.17248599999999997,-0.9248510000000001,0.026003999999999916,0.322461,0.0023090000000000055,0.975260889678534,0.9983030794788001,double,-0.9225420000000001
23,0.095833,stand,0.0072011521843433676,0.0048007681228994644,0.00048007681227712134,0.01071792906215315,0.0018000398617540852,-0.014379198400208074,-0.000480076812303771,0.0009601536245808924,-0.0012001920307244498,0.0016802688430365487,0.0007201152184290069,0.0009601536245808924,-0.05718978955742643,0.2306949827952289,0.28805070016294054,-0.3456553092834567,0.2304737456987258,-0.3456967912291324,0.4033290549775678,0.3456691365892212,0.4032875730171008,-0.02141100000000007,0.149959,-0.922549,0.004601999999999995,-0.17250300000000002,-0.924849,0.026013000000000064,0.322462,0.0023000000000000798,0.9743162890332384,0.9965585192562373,double,-0.922549
24,0.1,stand,0.00527957763378125,0.0026397888168939554,-0.0002399808015427777,-0.0010795955113853393,0.010945279344371108,-0.006471935918659148,-0.0009599232061711108,-0.0002399808015361169,0.0007199424046083507,-0.0007199424046016899,0.0004799616030722338,-0.0004799616030722338,-0.46114100085483933,-0.5185935459576451,-0.1728000033165103,-0.1151539222143843,-0.2880092215303595,0.4607954008478039,-0.5760046190636516,-0.05763225710505708,-0.34560000663621904,-0.02143700000000015,0.149947,-0.922545,0.004577000000000053,-0.172512,-0.92485,0.026014000000000204,0.322459,0.0023050000000000015,0.974910555350098,0.9983508896785851,double,-0.922545
25,0.104167,stand,0.005279577633781268,0.0033597312215023173,-0.0031197504199495475,0.03702088700167929,0.03702240080114511,0.006706298183655022,0.00023998080156942172,0.0009599232061444707,0.0011999040076789234,0.0,0.0009599232061444707,0.0019198464122872764,4.163003302080181e-15,0.17277235531758187,-0.6910894212639253,0.287953925543685,0.2879539255292994,0.1151815702113208,0.1727723553159807,0.11518157021172021,0.5759078510581992,-0.021457999999999977,0.14993700000000001,-0.922527,0.004555000000000087,-0.172522,-0.924829,0.026013000000000064,0.322459,0.0023020000000000262,0.9743879110877408,0.9964225774298048,double,-0.922527
26,0.108333,stand,0.005520883341306819,0.006000960153625581,-0.0002400384061518855,-0.017051360831730224,-0.00915655291306383,-0.0018434751521280684,0.0014402304368580138,0.0002400384061452231,0.0,0.0007201152184290069,-0.0016802688430165617,-0.0012001920307261153,0.05792263742812069,0.6339963831308837,0.6912414819485502,0.2881060094307708,-0.1727999999998193,-0.28802304553022623,0.1728553092724451,-0.6337474913972709,-0.748929054972009,-0.02147499999999991,0.14991300000000002,-0.922526,0.004535000000000178,-0.172554,-0.924833,0.02601000000000009,0.322467,0.002307000000000059,0.9744965056288007,0.9963552434072875,double,-0.922526
27,0.1125,stand,0.005759539236866806,0.0035997120230384233,0.0016798656107461574,-0.007827914399119321,0.008055751645344044,-0.01608120908045114,-0.0009599232061178244,-0.0007199424046083507,-0.0007199424046083507,0.00047996160303226897,0.0007199424046083507,-0.0009599232061428024,0.05727283310774826,-0.5762534510648321,0.46074010484714206,-0.5759907950505966,-0.2303769644237036,-0.1727723553175786,-0.057632257114647874,0.5760046190604536,0.057659905107586444,-0.021502999999999828,0.149895,-0.922536,0.004512999999999989,-0.172566,-0.924844,0.026015999999999817,0.322461,0.0023079999999999767,0.9745878058176246,0.9978461063886598,double,-0.922536
28,0.116667,stand,0.0019198464122889352,0.003839692824572875,-0.0014398848092033799,-0.0036318534482703405,0.005228520254087385,-0.0078099286864034495,0.00047996160303226897,0.0,-0.0004799616030705686,0.0007199424046549763,-0.0004799616030722338,0.0009599232061428024,-0.9214525616937526,0.057590785105459875,-0.7486802063713784,0.3455447106191726,0.1727723553175786,0.05759078510625916,0.05759078512663957,-0.28795392552929766,0.46072628084607703,-0.021509,0.149879,-0.922532,0.0045080000000001785,-0.17258400000000002,-0.924834,0.02601700000000018,0.322463,0.0023020000000000262,0.9758487196525771,0.9978461063885917,double,-0.922532
29,0.120833,stand,0.006481036965914382,0.003840614498320251,0.002160345655287028,0.016815900349775575,-2.860682234081247e-05,-0.0013290069649846646,0.00048007681230377255,-0.00024003840614522388,-0.00024003840614522388,-0.00048007681230377255,0.001680268843016567,0.00048007681229044776,1.0948609106158087,0.0002212370973058368,0.8641935824508923,2.765464990484328e-05,-0.057618436424681826,0.057590781787168824,-0.2880507001821296,0.5185382731850231,-0.11518156357473737,-0.021533999999999942,0.149862,-0.922542,0.004479000000000122,-0.172593,-0.9248409999999999,0.026013000000000064,0.322455,0.00229899999999994,0.9760300473104373,0.9969795829591562,double,-0.922542
30,0.125,stand,0.006719462443037916,0.005279577633789576,-0.0007199424046016899,0.005560487704510136,0.004743392422796908,-0.018776595846844192,0.0004799616030855554,-0.0014398848092167015,-0.0004799616030722338,0.0007199424046016899,-0.0009599232061444676,0.0002399808015361169,0.05721753710667953,0.34532352663050725,-0.6912138372663104,-2.764800053207442e-05,-0.287940101529032,-0.05757696110559388,0.28798157353142817,-0.6335954041663144,-0.05761843310639084,-0.021560000000000024,0.149834,-0.9225409999999999,0.004453999999999958,-0.17261900000000002,-0.924837,0.02601399999999998,0.322453,0.0022960000000000758,0.9743869124147132,0.9979605553501394,double,-0.9225409999999999
31,0.129167,stand,0.0035997120230084494,0.0026397888168939554,-0.0004799616030589122,-0.01616389100036224,0.004691080535496777,-0.0045352260707702385,0.0,-0.0002399808015361169,-0.0002399808015361169,0.0007199424046016899,0.0007199424046083507,0.0009599232061428024,-0.74868020639056,-0.6334986361640552,0.057590785107458,-0.11518157021491598,0.28795392552929766,0.057590785105859535,0.0,0.4031354957410167,0.17277235531717897,-0.0215749999999999,0.149822,-0.92254,0.004442000000000057,-0.172627,-0.9248310000000001,0.026016999999999957,0.322449,0.002291000000000043,0.9765243598262641,0.9976678058176018,double,-0.92254
32,0.133333,stand,0.0074411905905219025,0.0040806529044654614,-0.0007201152184556565,0.001823039350136981,0.01131625644213091,-0.007901612506562095,-0.0012001920307327777,0.0009601536245808924,0.0014402304368696728,-0.0016802688430365487,-0.0007201152184356692,-0.0004800768122887806,0.9221023925860419,0.34586271905220956,-0.05764609106978975,-0.2880921821250064,0.28807835480485083,0.40331522765381383,-0.576142882294344,-0.34566913659241927,-0.34565530927306337,-0.021611000000000047,0.149809,-0.922531,0.0044039999999998525,-0.172647,-0.9248299999999999,0.0260149999999999,0.322456,0.00229899999999994,0.9734994525574445,0.9968498928332166,double,-0.922531
33,0.1375,stand,0.009599232061444677,0.0026397888168939554,-0.0007199424046016899,-0.0003868584184298876,0.004937804083006357,0.006133958390549131,0.0009599232061178244,-0.0007199424046083507,0.0014398848092150361,0.0009599232061711108,0.0011999040076805846,0.0,0.5178885219397101,-0.34577971863966994,4.147200719139191e-05,0.5183861859492681,-0.4031907917420786,-8.294400159268471e-05,0.6335954041775035,0.46076775284767263,0.11520921821185028,-0.021647000000000194,0.149795,-0.922522,0.0043679999999999275,-0.172653,-0.924827,0.02601500000000012,0.322448,0.0023050000000000015,0.9738261500376562,0.9974389551885815,double,-0.922522
34,0.141667,stand,0.006719462442984675,0.0019198464122872829,-0.000959923206144474,0.008112721823808481,0.015681359882233285,0.003101933425916517,-0.001199904007633967,0.0007199424046083555,0.0,0.00023998080151613608,0.0002399808015361185,0.0014398848092150459,-0.6910894212767023,-0.172772355317177,-0.05759078510745991,-0.5183170659351581,0.3455447106351606,-0.34554471063475983,-0.1727723553287686,-0.2303631404234393,0.3455447106347622,-0.02167999999999992,0.14979,-0.922518,0.004340999999999928,-0.17266,-0.924817,0.02602099999999985,0.32245,0.002299000000000051,0.9746778058176608,0.9975344316442865,double,-0.922518
35,0.145833,stand,0.006961113778218132,0.0050408065290446875,0.0007201152184290069,0.01493847791042614,-0.028999642965414893,0.012228468349235504,-0.000960153624607542,0.0004800768122904462,0.0,0.000960153624607542,0.0004800768122904462,-0.0004800768122904462,0.058005601352246035,0.7491502920685076,0.40327374569694663,0.05754929981431224,-0.05757695446901324,0.0,0.17286913660379388,0.05763226374323752,-0.46086452748571544,-0.021713000000000093,0.149771,-0.9225209999999999,0.0043159999999999865,-0.172679,-0.9248219999999999,0.02602900000000008,0.32245,0.0023009999999999975,0.9752008593554555,0.9980400946208745,double,-0.9225209999999999
36,0.15,stand,0.007679385649155741,0.002399808015359504,0.0011999040076872453,0.02420871241174145,-0.007204403275004234,0.01039778956059859,0.0016798656107728006,0.0,-0.001679865610751153,0.00023998080151613449,0.0,0.0,0.1723714593082813,-0.6337889401692299,0.11514009821411997,0.6335539321767074,-0.11520921821225,-0.4031354957406171,-0.17282765132983124,-0.11520921821225,0.11520921821225,-0.021738000000000035,0.149761,-0.9225329999999999,0.004284999999999872,-0.172689,-0.924827,0.026022999999999907,0.32245,0.0022940000000000182,0.9731005187838271,0.9996000319974732,double,-0.9225329999999999
37,0.154167,stand,0.0035997120230084494,0.0021598272138217216,-0.003119750419949537,-0.015069259414989438,0.025256804509960477,-0.0073359456045508885,-0.0011999040076872453,0.0002399808015361169,0.0,-0.0007199424046016899,0.0002399808015361169,0.0011999040076789193,-0.9790433468076043,-0.057590785106259174,-1.0366341319022747,-0.6910894212767082,0.057590785105859535,0.4031354957406171,-0.23036314041704428,0.057590785105859535,0.28795392552889804,-0.021757999999999944,0.149753,-0.92252,0.004267000000000021,-0.172697,-0.9248090000000001,0.026024999999999965,0.32245,0.0022890000000000965,0.975070555350122,0.9976337573861749,double,-0.92252
38,0.158333,stand,0.0064810369659143606,0.0021603456553053423,0.002400384061438906,0.010969558793130062,-0.0032424216869370746,-0.0022619414667188866,0.000480076812303771,0.0009601536245808924,0.0007201152184356692,0.00024003840612523588,-0.0002400384061452231,0.0012001920307261153,0.6916286468809191,0.00012444586740773577,1.325044282618444,0.4032599183847852,0.1728691365926008,0.17285530927404433,0.2304322637366599,-0.11522304553080644,6.913659318196754e-05,-0.021782999999999886,0.149748,-0.922527,0.004240999999999939,-0.172707,-0.924814,0.026023999999999825,0.322455,0.002287000000000039,0.9749755893714354,0.9979212064239495,double,-0.922527
39,0.1625,stand,0.008879289656842987,0.00191984641228727,-0.0023998080153478474,0.008558108629302908,0.014695193528439876,0.0026329133785533763,0.00023998080151613449,0.0002399808015361169,0.00191984641228727,0.0004799616030855554,0.0002399808015361169,-0.0009599232061444676,0.5755346030546253,-0.057715201108248605,-1.1519539421134506,-0.05761843311438355,-0.17282765131864047,0.2879124535281017,0.05757696111358754,0.11519539421198453,-0.518386185954063,-0.021819000000000033,0.149741,-0.922509,0.004205999999999932,-0.172714,-0.9248080000000001,0.026024999999999965,0.322455,0.002299000000000051,0.9737606445865823,0.998167116352698,double,-0.922509
40,0.166667,stand,0.00743940484758632,0.002159827213823387,-0.0043196544276634255,-0.016376840192491207,-0.0024516152533697474,-0.0019752283688413115,-0.0004799616030855554,0.0,-0.0014398848092150361,-0.0004799616030855554,0.0007199424046083507,0.0007199424046083507,-0.34554471064474807,0.05759078510585953,-0.46072628085327005,-0.17277235531598015,-0.057590785105859535,-0.8062709914812343,-0.23036314042983197,0.11518157021171907,0.4031354957410167,-0.021851999999999983,0.149732,-0.922497,0.004172999999999982,-0.17271999999999998,-0.924787,0.026024999999999965,0.322452,0.0022900000000000142,0.974570380241439,0.9981239837773571,double,-0.922497
41,0.170833,stand,0.0,0.005760921747478691,0.0009601536245808924,-0.013026411572943144,0.01056967478099947,-0.01808898977679015,0.000960153624607542,-0.0007201152184356692,-0.0009601536245808924,0.000720115218482306,0.0002400384061452231,-0.0002400384061452231,-1.7857428822818806,0.8644009922360302,1.2673567096121734,0.3456829639205704,-0.17285530927404433,0.11515390893762444,0.2880645275006867,-0.11519539089369354,-0.23043226374305642,-0.021847999999999868,0.149705,-0.922505,0.00417600000000018,-0.17274299999999998,-0.924792,0.026024000000000047,0.322448,0.002286999999999928,0.9745683404394669,0.998673137785832,double,-0.922505
42,0.175,stand,0.010799136069131993,-0.0007199424046066903,-0.0016798656107461687,0.005252935932092733,0.002025793694526776,0.012482726740338587,0.001919846412288948,-0.0007199424046083555,0.0,-0.0011999040076872533,0.0,0.0011999040076789273,2.5915853297653118,-1.5552829738625915,-0.6335539321639252,0.23030784441598548,4.147200079522382e-05,0.23041843642450152,-0.46076775286046806,-0.05760460910612538,0.3455585346350272,-0.021884999999999932,0.149705,-0.922498,0.004126000000000074,-0.17274,-0.92478,0.026011000000000006,0.322445,0.0022820000000000062,0.9737626718881185,0.9971717991313146,double,-0.922498
43,0.179167,stand,0.0038396928245778704,0.003359731221502306,0.0014398848092033799,0.02845028761864711,0.006608902734069212,0.010632299294119248,-0.0007199424046016899,0.0002399808015361169,0.0002399808015361169,0.002399808015321204,0.0004799616030722338,-0.0009599232061428024,-1.670132768071542,0.9790433467984142,0.7486802063713812,-0.6334986361628595,0.23036314042343928,0.057590785105859535,0.8638617765799026,0.11518157021171907,-0.5183170659519385,-0.021903999999999924,0.149692,-0.922503,0.0041199999999999015,-0.172752,-0.92479,0.026023999999999825,0.322444,0.002287000000000039,0.9758034562073701,0.9956185700544118,double,-0.922503
44,0.183333,stand,0.005760921747485354,0.004080652904463795,-0.00024003840612523588,-0.009917931537115007,0.004475112235481385,-0.006409349218969325,0.0,0.0014402304368680073,0.0004800768122904462,-0.0012001920306794786,0.0002400384061452231,0.0002400384061452231,0.4611687284943547,0.17304889173343466,-0.403246091053436,0.17281382731677614,0.2881060094411641,0.057632263743237905,-0.8641382731638695,-0.05759078178756854,0.2880368728487817,-0.021927999999999948,0.149681,-0.9225,0.004091000000000067,-0.17276799999999998,-0.924788,0.026019000000000014,0.322449,0.0022880000000000678,0.9745897730355537,0.9979212064240179,double,-0.9225
45,0.1875,stand,0.003359731221492315,0.004079673626110657,-0.0011999040076872453,-0.0046187452403521935,-0.011985375206615368,-0.005541964314836137,-0.0004799616030855554,0.0004799616030722338,0.0002399808015361169,0.0007199424046016899,0.0002399808015361169,0.0002399808015361169,-0.5762396270681632,-0.00023500800411283693,-0.23034931642956766,-0.11518157021491598,-0.23044608442423148,-0.05761843310639046,0.46079540083541315,-1.3824000265464796e-05,-1.3824000265464796e-05,-0.021943999999999964,0.149666,-0.922494,0.0040800000000000836,-0.172784,-0.924782,0.026024000000000047,0.32245,0.0022879999999999567,0.9759200959923047,0.99867345620737,double,-0.922494
46,0.191667,stand,0.003599712023061736,0.001679865610751153,0.0007199424046016899,0.009617165475296523,0.019604442121925622,0.009270327150840193,-0.00023998080156942094,0.0016798656107528183,-0.0011999040076805846,-0.00023998080156942094,0.0,0.0011999040076789193,0.057590785113851864,-0.5759078510581959,0.4607262808468763,0.05759078510106413,0.28795392552929766,-0.3455447106351572,-0.230363140429832,-0.057590785105859535,0.23036314042303851,-0.0219600000000002,0.149666,-0.9225019999999999,0.0040639999999998455,-0.172791,-0.9247799999999999,0.026024000000000047,0.322457,0.0022780000000000022,0.9737561754908132,0.9979605553501247,double,-0.9225019999999999
47,0.195833,stand,0.0072011521843433676,0.0021603456553036765,-0.002400384061438906,0.03807596748526149,0.023592788738007853,0.008907040570434866,-0.00024003840612523588,0.0004800768122904462,0.0014402304368713384,0.000480076812303771,0.0,-0.0002400384061452231,0.8644839561405735,0.11533366407885817,-0.748998191560392,-1.382730576450901e-05,-0.28799539089351206,0.6337336640787136,0.17284148196668062,0.0,-0.3456414819549067,-0.021991000000000094,0.14965900000000001,-0.922486,0.0040359999999999285,-0.17279999999999998,-0.924771,0.026027000000000022,0.322459,0.0022849999999999815,0.9745883404394997,0.9991054296777278,double,-0.922486
48,0.2,stand,0.002639788816890625,0.0026397888168956207,-0.0004799616030855554,-0.014214551040977833,0.007692687606134336,0.004070998337625642,-0.0007199424046016899,0.0004799616030722338,0.0,-0.0004799616030855554,0.0,-0.0004799616030722338,-1.0946396370176956,0.11505715420972973,0.4608645208431362,-0.11516774621465169,-2.7648000530929593e-05,-0.34562765463674994,-0.23039078843036367,0.0,-0.057576961105594064,-0.022005000000000052,0.14965,-0.922484,0.004022999999999888,-0.172811,-0.924771,0.02602799999999994,0.322461,0.002287000000000039,0.9756878948582335,0.9988687196525126,double,-0.922484
49,0.204167,stand,0.0033597312214923374,0.007679385649147466,0.0004799616030855586,0.01051154304807669,-0.001188605065545102,0.0034639424006872492,0.00023998080151613608,-0.001919846412288948,-0.000479961603072237,0.0009599232061711172,0.0,0.0,0.17277235531598664,1.2094064872214723,0.23036314042983427,0.2303631404170462,-0.5759078510586022,-0.1151815702117206,0.3455447106447518,0.0,0.11518157021171983,-0.022018000000000093,0.14961,-0.922488,0.004013000000000044,-0.172843,-0.9247730000000001,0.026031000000000137,0.322453,0.0022850000000000925,0.9738276162455337,0.9984001279897148,double,-0.922488
50,0.208333,stand,-0.000960153624607542,0.003840614498320238,-0.0038406144983235695,0.010051347107625999,0.03130785558965183,-0.005376759744794417,-0.00048007681225047176,0.0,-0.0004800768122904462,-0.000480076812303771,0.0009601536245808924,0.0,-1.0369382731876802,-0.9214525085999101,-1.0371042010103517,-0.17284148194109633,0.46083687284900304,-2.76546371121424e-05,-0.3456553092834583,0.2304737456987258,0.0,-0.022015999999999813,0.149594,-0.922474,0.004015000000000102,-0.17285499999999998,-0.924757,0.026030999999999915,0.322449,0.002283000000000035,0.9760384481018438,0.9982108593554853,double,-0.922474
51,0.2125,stand,0.006719462443037916,0.0026397888168939554,0.004319654427636783,-0.00955536738178584,-0.012444622226996842,0.012204905465271015,0.002399808015321204,-0.0002399808015361169,0.001679865610751153,0.0007199424046016899,0.0,0.0007199424046083507,1.842960419401356,-0.28817510953354486,1.9583078776002745,0.6911170692516614,-0.057590785105859535,0.5183447139528671,0.28798157353142784,-0.2304184364245,0.1727723553175786,-0.02203400000000011,0.149582,-0.922485,0.003989999999999938,-0.172866,-0.9247719999999999,0.026024000000000047,0.32244799999999996,0.002286999999999928,0.9722314124014926,0.9983030794788001,double,-0.922485
52,0.216667,stand,0.0019198464122889352,0.004799616030717342,-0.0004799616030589122,0.0003979991487082132,0.001817789520716219,0.019174057944655182,-0.00023998080151613449,-0.0004799616030722338,0.0,-0.0007199424046016899,-0.0004799616030722338,-0.0002399808015361169,-1.1518157021235844,0.5183170659523362,-1.1518157021107966,-0.6334986361500687,-0.057590785105859535,-0.4031354957406171,-0.3455447106319603,-0.11518157021171907,-0.23036314042343814,-0.022043000000000035,0.14956,-0.922483,0.003978999999999955,-0.172888,-0.924771,0.02602199999999999,0.32244799999999996,0.0022879999999999567,0.9762256443574655,0.9985034567687563,double,-0.922483
53,0.220833,stand,0.005760921747485354,0.006481036965916027,-0.0050408065290563474,0.026413185932036627,0.03332446793603112,-0.0014614509081991548,0.0009601536245542427,-0.0012001920307227842,0.0007201152184356692,0.0007201152184290069,0.0007201152184290069,-0.0004800768122904462,0.9220056013433547,0.403605601343899,-1.0947779467108574,0.2880783547936573,-0.17288296391035765,0.17285530927404433,0.3456691365892212,0.28806452748469513,-0.057632263743237905,-0.022063000000000166,0.149528,-0.9224589999999999,0.003957999999999906,-0.172912,-0.924752,0.026021000000000072,0.32244,0.0022930000000001005,0.9742411202545207,0.9981235334614368,double,-0.9224589999999999
54,0.225,stand,0.0028797696184067597,0.0019198464122856048,0.0,-0.0006914589817573315,0.011227657578847174,0.007938107785830283,0.0,-0.0007199424046083507,-0.0004799616030722338,0.00023998080151613449,0.0009599232061444676,0.0009599232061444676,-0.6914211972830792,-1.094598165018099,1.209696791230224,-0.23041843641810458,0.11525069021224695,-0.287995397530094,-0.115223042215712,0.05754931310666198,0.34557235863568814,-0.022075000000000067,0.149517,-0.922461,0.003946999999999923,-0.17291600000000001,-0.924748,0.02602199999999999,0.322433,0.002287000000000039,0.9756878948582244,0.9977023587526881,double,-0.922461
55,0.229167,stand,0.0007199424046016899,0.002159827213823387,0.0002399808015427777,-0.018231637167888476,-0.016814966669809625,-0.0021832944041854955,0.0014398848092566662,0.0002399808015361169,-0.0009599232061428024,-0.00023998080151613449,-0.0004799616030722338,-0.0002399808015361169,-0.5183170659479404,0.057590785106259174,0.05759078510745799,0.34554471064474795,0.23036314042343814,-0.11518157021131945,-0.11518157020212827,-0.3455447106351572,-0.28795392552929766,-0.02207199999999987,0.149509,-0.922466,0.00394300000000003,-0.172927,-0.92475,0.0260149999999999,0.322436,0.0022839999999999527,0.9742481889891124,0.999020282480301,double,-0.922466
56,0.233333,stand,0.0024003840614655555,0.004560729716754241,-0.0014402304368580138,-0.0197109251963058,-0.007220885488846038,-0.028336190776665007,0.0014402304368580138,-0.0007201152184356692,0.0012001920307244498,-0.0009601536245542427,-0.0002400384061452231,0.0,0.40337053693323677,0.5763088101130227,-0.4033152276526141,8.296389854717473e-05,-0.23045991838016933,0.5185106185471077,-0.1728691365910004,0.05759078178756854,0.05760460910612499,-0.022075999999999985,0.149487,-0.922455,0.003929000000000071,-0.17294700000000002,-0.924744,0.026005000000000056,0.322434,0.0022889999999999855,0.9737628243457732,0.998350493828807,double,-0.922455
57,0.2375,stand,0.005519558435297421,0.0016798656107511643,0.0011999040076606101,0.0026880490825126565,0.00947609595805832,-0.0025766835865139426,0.0,-0.0002399808015361185,-0.0011999040076789273,0.0016798656107195255,0.0007199424046083555,-0.000479961603072237,0.748541966362343,-0.6913520772745605,0.6335815801580607,-0.3456276546335546,0.11522304221251582,-0.575976971059129,0.6335539321511359,0.23037696442370628,-0.1151815702117206,-0.02209899999999987,0.149479,-0.922465,0.003913000000000055,-0.17295100000000002,-0.924751,0.026011999999999924,0.32243,0.0022860000000000102,0.9751005553501355,0.9968506487985376,double,-0.922465
58,0.241667,stand,0.007679385649155741,0.00191984641228727,-0.0007199424046016899,0.0033076500811527946,0.017403179249952418,0.01023516866875924,0.0,0.0002399808015361169,-0.0004799616030722338,0.0004799616030855554,0.0007199424046083507,0.0009599232061444676,0.5183170659607194,0.05759078510585687,-0.46072628084048434,0.0,0.11518157021171944,0.1727723553171809,-0.2879539255181111,-1.1448259080720459e-15,0.34554471063515796,-0.0221309999999999,0.149472,-0.922464,0.003883000000000081,-0.172956,-0.924744,0.02601399999999998,0.322428,0.0022800000000000598,0.9763056443574506,0.9978461063886247,double,-0.922464
59,0.245833,stand,0.0050408065290563474,0.001920307249160119,0.00048007681227712134,0.003744576000480223,-0.004514893792466324,-0.004204213051155063,-0.0007201152184290069,-0.0014402304368713384,-0.0002400384061452231,-0.0007201152184290069,0.0,-0.0002400384061452231,-0.6333603264760901,0.00011061854845148441,0.28805070016294054,-0.1728553092724451,-0.4033152276542136,0.05759078178756854,-0.2880645274878928,-0.172813827318375,-0.28803687284918145,-0.022154999999999925,0.14945799999999998,-0.9224669999999999,0.003859000000000057,-0.172964,-0.924747,0.02601399999999998,0.322422,0.0022800000000000598,0.974486633868171,0.9987348865177847,double,-0.9224669999999999
60,0.25,stand,0.005519558435350671,0.002159827213823387,0.0002399808015427777,0.0039177172628143365,0.004366600167630022,0.007626699328859859,0.0,0.0009599232061444676,0.0009599232061428024,0.00023998080151613449,0.0002399808015361169,-0.0002399808015361169,0.11489126620934086,0.05748019310373596,-0.05761843310159429,0.17281382731677614,0.575990795060188,0.2879677495291635,0.23040461241784027,0.057590785105859535,1.3824000265464796e-05,-0.02217800000000003,0.149453,-0.922464,0.0038369999999998683,-0.17297200000000001,-0.9247489999999999,0.0260149999999999,0.322425,0.0022849999999999815,0.9748874393050584,0.9993072350981831,double,-0.922464
61,0.254167,stand,0.0026397888168906425,0.0016798656107511643,-0.000959923206144474,0.006287521480744961,0.0022694183811628184,0.0023920288455714276,0.00047996160303227217,0.000959923206144474,0.000479961603072237,0.00023998080156942253,-0.0002399808015361185,-0.0007199424046083555,-0.6910894212767087,-0.11518157021171717,-0.2879539255308996,0.11518157020212981,1.5351074676420716e-15,-0.11518157021131945,1.2788108684109725e-11,-0.11518157021172021,-0.11518157021172098,-0.02218700000000018,0.14945,-0.922458,0.003827000000000025,-0.17298000000000002,-0.924748,0.026014000000000204,0.32243,0.0022900000000000142,0.9751405649606018,0.9986734562073432,double,-0.922458
62,0.258333,stand,0.005520883341306819,0.0004800768122887806,0.0009601536245808924,-0.006551710670003193,0.00698580192676628,0.0036564122610721673,0.0,-0.0016802688430165617,-0.0012001920307244498,0.00024003840612523588,0.0002400384061452231,0.0,0.6915733375938968,-0.28799539089351484,0.4608921821232273,-0.11520921820265766,-0.6337474913972717,-0.4033014003352582,1.3827305764125141e-05,0.11522304553080683,0.17281382731837613,-0.022210000000000063,0.149441,-0.9224669999999999,0.0038050000000000583,-0.172981,-0.924752,0.02601500000000012,0.322422,0.0022850000000000925,0.973708519256262,0.999434224050922,double,-0.9224669999999999
63,0.2625,stand,0.00455963522917953,0.003359731221502284,-0.0009599232061444612,-0.008896386780941706,0.00686426378991733,-0.005487871409223901,0.0011999040076872372,-0.0007199424046050155,0.0002399808015361153,0.0,0.0007199424046083459,0.0002399808015361153,-0.2306810924231537,0.6910617732693739,-0.4607815768479335,0.2879539255308923,0.23045990842609523,0.3456138306360821,-0.057604609101328065,0.11516774621145168,0.057590785105858765,-0.02222400000000002,0.149424,-0.922462,0.003786000000000067,-0.172992,-0.924747,0.02601000000000009,0.32241600000000004,0.0022849999999999815,0.9747837573861603,0.9987351901207218,double,-0.922462
64,0.266667,stand,0.0064794816414685385,0.001439884809216711,-0.0004799616030589154,0.00045965379638437156,0.002161420311959721,0.01244904369854362,-0.0009599232061178308,0.0004799616030689066,0.0,0.0009599232061178308,0.0002399808015361185,0.0002399808015361185,0.460726280846897,-0.4607262808460724,0.11518157021491446,-0.5183170659479434,0.2879539255277007,-0.057590785105859535,0.23036314041704734,-0.11518157021171828,7.675537338210358e-16,-0.022254999999999914,0.14942,-0.9224600000000001,0.003762999999999961,-0.172997,-0.924744,0.026017999999999875,0.322417,0.0022839999999999527,0.9753712887149433,0.9983030794788341,double,-0.9224600000000001
65,0.270833,stand,0.004080652904502104,0.0014402304368696728,0.0007201152184290069,0.004048000934224942,0.006030490100106536,-0.004898407957260686,0.0014402304368580138,-0.000480076812287115,-0.0002400384061452231,-0.0016802688429832496,-0.0002400384061452231,0.0002400384061452231,-0.5758110266362056,8.296391093659186e-05,0.2880645274814982,0.5761290549629964,-0.23044609106001462,-0.05761843642468145,-0.6337474913828801,-0.11522304553080683,1.38273185560712e-05,-0.02226600000000012,0.149412,-0.922464,0.003738999999999937,-0.173004,-0.924746,0.026005000000000056,0.32241600000000004,0.0022820000000000062,0.9746183404395172,0.997142971504075,double,-0.922464
66,0.275,stand,0.003119750419922873,0.0031197504199661683,0.0009599232061444612,-0.005847481270460829,-0.03207793029015718,0.02030916933778948,0.0004799616030855522,0.0004799616030689002,0.003599712023038399,0.0007199424046016851,0.0002399808015361153,-0.0002399808015361153,-0.23059814844713789,0.4030525517390167,0.05754931310666007,-0.23044608441863554,0.2303907884223681,0.9214663856932068,0.5760046190508559,0.11519539421198338,-0.11519539421198338,-0.02227699999999988,0.149401,-0.922453,0.0037290000000000934,-0.173016,-0.924751,0.026005999999999974,0.322417,0.0022980000000000222,0.9709147534107349,0.99867345620737,double,-0.922453
67,0.279167,stand,0.0050395968322651495,0.0019198464122872829,0.001919846412288948,0.0079110665192987,0.006360842255028154,-0.00679925238528722,0.0,-0.0004799616030689066,0.0004799616030705718,-0.0007199424046016947,0.0,-0.0002399808015361185,0.4607262808596802,-0.2879539255288918,0.23036314042344427,-0.11518157021491598,-0.2303631404218412,-0.7486802063757727,-0.34554471063196257,-0.057590785105859535,-7.675537338210358e-16,-0.02229799999999993,0.149391,-0.922459,0.0037050000000000693,-0.173024,-0.92476,0.026003,0.322415,0.0023009999999999975,0.9758587196525341,0.9987351901207322,double,-0.922459
68,0.283333,stand,0.0021603456552870205,0.0028804608737393457,-0.0009601536245808924,0.0031727030902136675,0.011011369367631193,0.002674346908138226,-0.0002400384061785351,0.000480076812287115,-0.0014402304368696728,0.0012001920307327777,0.0009601536245808924,0.0002400384061452231,-0.6911308634128965,0.2305843642467744,-0.6913106185477288,-0.05761843643267761,0.23044609106001462,-0.46091983675953985,0.4609060094417837,0.2304737456987258,0.11522304553080683,-0.022307999999999995,0.14938099999999999,-0.922461,0.0037010000000001764,-0.173032,-0.924755,0.02600900000000017,0.322413,0.0022940000000000182,0.9744983404394904,0.9974072888868476,double,-0.922461
69,0.2875,stand,0.004079673626147319,0.002639788816893973,0.0007199424046016947,0.0014835933884450724,0.004541950816017525,0.012886605790507134,-0.00047996160303227217,-0.0002399808015327881,-0.0023998080153578545,0.0011999040076872533,0.0,0.0011999040076789273,0.4606018648572856,-0.057756673109041014,0.403190791740484,-0.057576961088010185,-0.1728000033165124,-0.2302801964214512,-6.912000132576331e-05,-0.23041843642450152,0.2303493164227765,-0.022326999999999986,0.149369,-0.922474,0.0036890000000000533,-0.173043,-0.9247529999999999,0.02601600000000004,0.32241200000000003,0.00227899999999992,0.9731115475698253,0.9971717991313146,double,-0.922474
70,0.291667,stand,0.0043196544276101105,-0.0002399808015361153,0.0004799616030855522,0.023655558823705722,0.006748110023507312,0.010592922595522756,0.000959923206117818,-0.0002399808015361153,-0.0004799616030722306,-0.0014398848092566567,-0.0002399808015361153,-0.001679865610751142,0.05759078508826254,-0.6910894212695143,-0.057590785101065675,0.34554471061916947,-7.984640333389706e-13,0.46072628084607853,-0.6334986361756395,-0.057590785105858765,-0.6910894212695098,-0.022340999999999944,0.149369,-0.922478,0.0036650000000000293,-0.173043,-0.9247620000000001,0.026005999999999974,0.32241200000000003,0.0022840000000000638,0.9753271163527464,0.9962908493338103,double,-0.922478
71,0.295833,stand,0.009361497839683687,0.0002400384061452231,-0.0021603456553136702,-0.012704662113533074,-0.026747145748824204,-0.010119760796180117,0.000960153624607542,-0.0012001920307261153,0.0014402304368696728,0.0007201152184290069,0.0004800768122904462,-0.0007201152184340036,1.210236056666724,0.11522304553080606,-0.6337751460391792,5.530928701966616e-05,-0.2304875730172826,0.46091983675993803,0.5184829639187859,0.1728414819554875,0.23037695446882803,-0.02237599999999995,0.149363,-0.922463,0.0036289999999998823,-0.173042,-0.924756,0.026004999999999834,0.322405,0.0022929999999999895,0.9735594525574305,0.9981235334614315,double,-0.922463
72,0.3,stand,0.004319654427663454,-0.0014398848092150459,-0.0011999040076872533,0.0009186450962571933,0.012204910377375772,-0.012720461148950308,0.00023998080151613608,0.000959923206144474,0.0,-0.00047996160303227217,-0.0002399808015361185,0.0016798656107511643,-1.2099456232350039,-0.4031493197408876,0.2304875564258273,-0.172827651329832,0.518386185954068,-0.34562765463635253,-0.28799539751890707,-0.17280000331811107,0.5759493230585989,-0.022393000000000107,0.149373,-0.922458,0.0036089999999999733,-0.173037,-0.924744,0.02600200000000008,0.32241,0.0022860000000000102,0.975490889678585,0.9970608474408827,double,-0.922458
73,0.304167,stand,0.0,0.002639788816895603,0.0004799616030855522,0.001272253036546695,0.04303326565680918,-0.007589561429053567,0.0009599232061711044,-0.0009599232061444612,-0.000959923206142796,0.0007199424046016851,0.0007199424046083459,-0.0004799616030722306,-1.0366341319086685,0.9790433467988042,0.4031354957458106,0.17277235532876475,-0.46072628084687317,-0.23036314042303543,0.28795392551810606,0.2303631404234358,-0.5183170659523346,-0.022388999999999992,0.149358,-0.9224640000000001,0.0036119999999999486,-0.173045,-0.924748,0.02600099999999994,0.322403,0.0022839999999999527,0.9743889403926316,0.9981239837773737,double,-0.9224640000000001
74,0.308333,stand,0.007921267402772374,0.0019203072491584534,0.0019203072491617847,0.022989098168865206,-0.011502802562488366,0.03353589526019644,0.00024003840612523588,0.0014402304368713384,0.0012001920307244498,-0.0002400384061785351,-0.0002400384061452231,0.0,1.9014084020096897,-0.172703208770319,0.3457382731820047,-0.17280000001101006,0.5761290549725872,0.5185106185471061,-0.23043226374945258,-0.23043226374305525,0.11520921821224922,-0.022421000000000024,0.14935600000000002,-0.922467,0.003577999999999859,-0.17305399999999999,-0.924756,0.025998999999999883,0.32241,0.0022889999999999855,0.9739598928332515,0.9994342240508591,double,-0.922467
75,0.3125,stand,0.01055915526756257,-0.0007199424046066903,-0.0007199424046283379,0.01614373411914298,-0.021931605993545787,0.006798079428004494,-0.0004799616030855586,-0.000479961603072237,0.0007199424046083555,0.0009599232061711172,0.0,-0.0002399808015361185,0.6330424441541184,-0.6336092281653848,-0.6336092281713793,-0.17278617931624637,-0.46080922484847286,-0.11525069021264626,0.2879677495439547,0.05760460910612538,-0.0575907851058603,-0.022467000000000015,0.14935700000000002,-0.922461,0.003538000000000041,-0.173051,-0.924754,0.026005000000000056,0.32240800000000003,0.0022929999999999895,0.9754208896785662,0.9983508896785339,double,-0.922461
76,0.316667,stand,0.0064794816414685385,-0.0007199424046083555,-0.0014398848092033894,-0.009119786008970532,-0.0023883069428543595,-0.01203197435029435,0.0011999040076872533,-0.001439884809216711,-0.000959923206144474,-0.0014398848092033894,0.0,0.0002399808015361185,-0.9790433467948295,-3.9962229822906067e-13,-0.1727723553095886,0.4031354957458175,-0.2303631404234412,-0.4031354957410221,-0.5759078510617999,0.0,0.1151815702117206,-0.02248899999999998,0.149354,-0.922459,0.0035050000000000914,-0.17304799999999998,-0.924747,0.025994000000000073,0.32240199999999997,0.0022879999999999567,0.9736102950214316,0.9975670896207305,double,-0.922459
77,0.320833,stand,-0.0038406144983235695,0.001920307249160119,0.0,-0.008290342425559772,0.025376748752242353,-0.01592784962057456,0.0,-0.0007201152184356692,-0.0012001920307244498,0.00048007681225047176,0.0004800768122904462,0.0002400384061452231,-2.4772194286586893,0.633761318715428,0.34562765463355455,-0.28802304553222574,0.17277234536270794,-0.057673745698505904,0.46086452747332207,0.1152368728493629,1.38273185560712e-05,-0.022472999999999965,0.149343,-0.922464,0.003522999999999943,-0.17305399999999999,-0.924746,0.025995999999999908,0.322397,0.0022820000000000062,0.9748472460014221,0.9987998079693183,double,-0.922464
78,0.325,stand,0.01055915526756243,0.0004799616030722306,-0.000479961603058909,0.004652711852973592,-0.02225620366995159,-0.0014509618957874075,0.0,-0.0007199424046050155,0.0004799616030722306,0.0007199424046549715,0.0002399808015361153,-0.0007199424046083459,3.455668290349385,-0.34565530263687966,-0.1151815702085206,0.0,4.1472001596757515e-05,0.40320461574194083,0.057563137126109415,-0.05761843310639046,-0.2303769644237009,-0.022516999999999898,0.149338,-0.9224600000000001,0.003482000000000207,-0.173055,-0.9247470000000001,0.025999000000000105,0.322393,0.002287000000000039,0.9756878948582288,0.9982565798961368,double,-0.9224600000000001
79,0.329167,stand,0.004079673626147319,-0.0019198464122872829,-0.0002399808015427793,0.010873032944840181,0.008629681610608017,-0.009226245405237754,0.0,0.0002399808015327881,0.0011999040076789273,0.0,0.0,0.0011999040076805924,-1.554951197843808,-0.5759078510582019,0.05759078510106337,0.0,0.23036314042184042,0.1727723553171828,-0.17277235532876786,-0.057590785105859535,0.46072628084688005,-0.022534000000000054,0.149347,-0.922454,0.0034650000000000514,-0.173047,-0.924741,0.025999000000000105,0.32239399999999996,0.002287000000000039,0.9750905553501367,0.998000159987199,double,-0.922454
80,0.333333,stand,0.0040806529044488055,0.0,-0.000480076812303771,-0.0012461073161710687,0.0036274491885384995,-0.012561269975440034,0.000960153624607542,0.0,-0.0007201152184356692,0.00024003840612523588,0.0007201152184356692,0.0004800768122887806,0.00023506440266125785,0.4608368728486033,-0.05763226374483713,0.23047374570512272,-0.05760460910532596,-0.46087835480427153,0.05761843641988375,0.17285530927404433,-0.17278617268166377,-0.022546999999999873,0.149347,-0.922455,0.0034490000000000354,-0.17304399999999998,-0.9247369999999999,0.025995999999999908,0.322391,0.0022819999999998952,0.9751796799487542,0.9985030975409059,double,-0.922455
81,0.3375,stand,0.0033597312214922927,-0.0007199424046083459,-0.001199904007660594,-0.0018972705148857022,-0.016837456345551196,-0.004001524852500021,0.00047996160303226577,0.0,-0.000959923206142796,-0.00023998080151613289,0.0004799616030722306,0.0,-0.1730073633204961,-0.1727723553175763,-0.1727447073090515,-0.1152368662287671,0.0,-0.05754931310466162,-0.11519539420239143,-0.05763225710665629,-0.11520921821184951,-0.022558999999999996,0.14934999999999998,-0.922454,0.003434000000000159,-0.173039,-0.924732,0.025993000000000155,0.322389,0.0022780000000000022,0.9754312887149335,0.9991056443574655,double,-0.922454
82,0.341667,stand,0.004799616030749013,0.000959923206144474,-0.000959923206144474,0.0043921751795577705,-0.015582398516533692,-0.004454360904220826,-0.00023998080151613608,-0.000719942404605025,0.0009599232061428088,-0.00023998080156942253,0.0004799616030655762,-0.0002399808015361185,0.3455447106447633,0.40313549574101976,0.05759078510106106,-0.17277235530319315,-0.17277235531678165,0.4607262808460801,-1.2788492460976636e-11,-1.5969280666779625e-12,-0.0575907851058603,-0.022580000000000044,0.149343,-0.9224460000000001,0.0034129999999998883,-0.173041,-0.924729,0.025992999999999933,0.322384,0.002282999999999924,0.9751305553501448,0.9990202824802737,double,-0.9224460000000001
83,0.345833,stand,0.0038406144983235695,-0.0012001920307244498,0.0026404224675907915,0.02387906434312198,0.01075168550279139,-0.0048564408435551425,-0.00024003840612523588,0.0,0.0004800768122904462,0.0,0.0002400384061452231,-0.0007201152184340036,-0.23019719933399976,-0.5185106185475089,0.8642212370943982,-1.3827318554919593e-05,0.1728138273175767,-0.1151815635747389,0.057604609114119625,-0.05759078178597046,-0.11525070016751915,-0.022596999999999978,0.149348,-0.922455,0.0033969999999998723,-0.17303500000000002,-0.924743,0.02599399999999985,0.32238300000000003,0.0022879999999999567,0.9762254296777625,0.9987348865177769,double,-0.922455
84,0.35,stand,0.0064794816414685385,0.0011999040076789273,-0.0004799616030855586,-0.0025628547919939984,-0.003604884916114549,0.008215160668361908,0.0007199424046016947,0.0,0.0,0.0,0.0002399808015361185,0.0,0.6332774521586235,0.575976971059129,-0.7488322703806979,0.2303769644173113,0.0,-0.11520921821225076,0.0,-1.382400026508111e-05,0.17281382731797643,-0.022621000000000002,0.149343,-0.922453,0.003369999999999873,-0.173039,-0.9247409999999999,0.025990999999999875,0.322382,0.0022879999999999567,0.9759200959923304,0.9996000319974399,double,-0.922453
85,0.354167,stand,0.0050395968322117955,-0.0004799616030722306,0.0002399808015427761,0.014170042897783827,-0.009120716219345142,-0.0035658642164653584,0.0,-0.01175905927525966,-0.0019198464122872573,0.00023998080156941934,-0.0011999040076739157,-0.0004799616030722306,-0.3455447106447641,-0.4031354957406156,0.1727723553223732,-0.17277235531598012,-2.8219484701846818,-0.4607262808464705,0.057590785113851094,-0.3455447106335549,-0.11518157021171753,-0.02264199999999983,0.14929599999999998,-0.922462,0.003350000000000186,-0.17304199999999997,-0.924744,0.025992000000000015,0.322338,0.0022820000000000062,0.9573220820937394,0.9978092850271749,double,-0.922462
86,0.358333,stand,0.0002400384061785351,0.0004800768122904462,0.0,-0.009547587220037991,-0.000940279987819431,-0.012533793020149848,-0.001440230436911313,0.0016802688430165617,-0.0021603456553036765,-0.0012001920307327777,0.0002400384061452231,0.0004800768122904462,-1.1520783547847473,0.23044609106161212,-0.057604609107723456,-0.3457106185576841,3.225954901170478,-0.0577290549727362,-0.34569679123912533,0.34564148195370564,0.23044609106161212,-0.02264900000000014,0.14930100000000002,-0.922471,0.0033440000000000136,-0.173043,-0.924742,0.025993000000000155,0.32234399999999996,0.002270999999999912,0.9721355357950048,0.9978087591714344,double,-0.922471
87,0.3625,stand,0.012718982481367654,-0.007199424046076894,0.000959923206144474,-0.029366701126995992,-0.052426832318834125,0.002293366705491762,0.00023998080156942253,0.004319654427643472,0.0009599232061428088,0.001919846412288948,0.001919846412282287,0.0009599232061428088,2.994707001485287,-1.8429327713864614,0.2303631404234412,0.403218439760198,0.6334018681610092,0.7488046223773706,0.7487493263791081,0.4031216717391585,0.11515392221079081,-0.02270099999999986,0.149349,-0.922471,0.003299000000000163,-0.17300500000000002,-0.924742,0.026000000000000023,0.32235400000000003,0.002270999999999912,0.9699041167456135,0.995200383969286,double,-0.922471
88,0.366667,stand,-0.0035997120230084256,0.0055195584353256565,-0.0011999040076872372,0.04663028595784372,0.04620039664847229,-0.024625084973628593,0.00023998080151613289,0.0038396928245745146,0.0014398848092150266,-0.0009599232061711044,-0.0011999040076805766,-0.0007199424046066807,-3.916173387179255,3.05231161060774,-0.5183170659543305,-1.2788492460976466e-11,-0.11518157021093199,0.11518157021171446,-0.6910894212767051,-0.7486802063745716,-0.40313549574021523,-0.022685000000000066,0.149342,-0.92246,0.003309999999999924,-0.17303300000000002,-0.92474,0.02599499999999999,0.322375,0.0022800000000000598,0.9703536506005038,0.9971717991312965,double,-0.92246
89,0.370833,stand,0.009601536245808923,-0.008161305808929258,0.0007201152184556565,-0.050036929335426805,-0.03547502360475535,0.00421905901245812,0.000960153624607542,0.004560729716755908,0.0026404224675941226,0.0002400384061785351,0.0007201152184356692,-0.0004800768122904462,3.1688065935711327,-3.2839328478768373,0.46087835481106393,0.17286913660379466,0.17307654637095354,0.28817514603434835,0.28803687286357144,0.4608783548046674,0.057576954468611226,-0.02272099999999999,0.149395,-0.922452,0.003271000000000024,-0.172996,-0.924745,0.025992000000000015,0.322391,0.0022929999999999895,0.9681422061111999,0.9985030975408806,double,-0.922452
90,0.375,stand,0.006959443244500811,-0.0014398848092150459,0.0009599232061178308,0.022928955941479118,-0.019747254830310753,0.0058391680591882225,-0.0004799616030855586,0.002159827213821736,-0.0007199424046066903,0.0,-0.0002399808015361185,-0.0009599232061428088,-0.6340515961862555,1.6130119989715022,0.05754931309387466,-0.3456000066458144,-0.5761705070636394,-0.8064230554837609,-0.057604609114119625,-0.23040461242423643,-0.11515392221079081,-0.022751999999999883,0.14941,-0.9224589999999999,0.003242000000000189,-0.172991,-0.9247529999999999,0.025994000000000073,0.322401,0.0022940000000000182,0.9731821663407573,0.9983508896785797,double,-0.9224589999999999
91,0.379167,stand,0.0045596352291795905,-0.0002399808015361185,-0.0009599232061178308,-0.010124286440068986,-0.002191515737247826,-0.003872499080954825,-0.0009599232061711172,-0.0009599232061411435,0.000479961603072237,-0.0004799616030855586,-0.000479961603072237,-0.000479961603072237,-0.5759078510490123,0.28795392552890187,-0.46072628083409467,-0.11518157021491753,-0.7486802063745854,0.28795392552890187,-0.11518157021491753,-0.0575907851058603,0.11518157021132097,-0.02277499999999999,0.149407,-0.9224530000000001,0.0032210000000001404,-0.172992,-0.9247510000000001,0.02599600000000013,0.322399,0.0022980000000000222,0.9746201919846129,0.998614470196315,double,-0.9224530000000001
92,0.383333,stand,0.0067210753720928955,-0.0014402304368696728,0.0012001920307061283,0.005344451026216914,0.00017445804793350152,-0.007649413822251644,0.0,-0.0012001920307261153,0.0,-0.000480076812303771,0.0002400384061452231,0.0007201152184340036,0.518828646882694,-0.2881060094415635,0.5185106185367157,0.2304184364308969,-0.05767374569970514,-0.11520921821225076,-2.7654637112910138e-05,0.1728276546369322,0.2880645274858953,-0.02280300000000013,0.14940799999999999,-0.922458,0.003190999999999944,-0.172985,-0.9247529999999999,0.025994000000000073,0.32239300000000004,0.002294999999999936,0.9750496799487898,0.9985030975408858,double,-0.922458
93,0.3875,stand,0.003839692824577845,-0.0004799616030722306,-0.0014398848092033701,0.0014992528094583224,0.00030330206091913245,-0.006714880031020344,0.0014398848092566567,-0.0014398848092166917,-0.0011999040076805766,0.0009599232061711044,-0.0002399808015361153,-0.0014398848092150266,-0.6914764932841442,0.2304460844246304,-0.6335677561577822,0.3455447106447434,-0.05752166510452953,-0.28795392552929383,0.34557235864527586,-0.11519539421198338,-0.5183585379527271,-0.022812999999999972,0.14940399999999998,-0.9224570000000001,0.003179000000000043,-0.17298400000000003,-0.924753,0.025992000000000015,0.322388,0.0022959999999999647,0.9731007720174757,0.9970881889891436,double,-0.9224570000000001
94,0.391667,stand,0.0007199424046016947,-0.00239980801535952,-0.0004799616030855586,-0.007866006665684072,0.005566757481645388,-0.020825155294394503,0.0007199424046016947,-0.0019198464122856175,-0.0002399808015361185,-0.0007199424046549812,0.0002399808015361185,0.0007199424046083555,-0.7486802063777701,-0.4607262808464843,0.2303631404170427,-0.17277235532876556,-0.11518157021092598,0.23036314042343736,-0.40313549575860214,0.11518157021171983,0.5183170659523385,-0.022812999999999972,0.149406,-0.9224559999999999,0.0031729999999998704,-0.17297300000000002,-0.924748,0.025985999999999843,0.322379,0.0022920000000000718,0.9736393451455769,0.9982565798961368,double,-0.9224559999999999
95,0.395833,stand,0.0024003840614655555,-0.0002400384061435575,-0.0012001920307061283,-0.00028360939688177526,-0.00852950947634088,0.005451570419327443,0.0014402304368580138,-0.0009601536245808924,0.0004800768122904462,0.000480076812303771,0.0009601536245808924,0.0007201152184340036,0.4033705369332356,0.5184276546365725,-0.1728829639031611,0.17289679122811294,0.2303631271494778,0.1728414819554883,0.28805070018212947,0.17286913659260042,4.148195526839778e-05,-0.022817000000000087,0.149403,-0.9224490000000001,0.0031649999999998624,-0.172968,-0.92474,0.02598199999999995,0.322371,0.002290999999999932,0.9740961950818088,0.9978455893714367,double,-0.9224490000000001
96,0.4,stand,0.0021598272138050553,-0.0004799616030722306,-0.0002399808015427761,-0.012218822481492423,-0.009417900934258452,-0.008057753603501444,-0.00023998080151613289,0.0007199424046083459,-0.0014398848092150266,0.0,0.0004799616030722306,-0.0002399808015344501,-0.05772902511651029,-0.05757696110599263,0.2304322604183693,-0.40321843973461335,0.40319079174207473,-0.46075392884700217,-0.11520921821544693,-0.11523686621278093,-0.23040461242343327,-0.02282699999999993,0.14940799999999999,-0.922454,0.0031559999999999366,-0.172964,-0.92474,0.025982999999999867,0.322372,0.0022860000000000102,0.9744272850239526,0.9991056443574519,double,-0.922454
97,0.404167,stand,0.0023998080153745066,0.0,0.0002399808015427793,0.009746710184540172,0.003955269190672118,-0.004337242127599439,0.0016798656107195255,-0.0011999040076805924,0.00239980801535952,0.0,-0.000479961603072237,0.0004799616030705718,0.05759078511385954,0.11518157021171907,0.11518157021491676,0.4607262808340939,-0.46072628084688005,0.9214525616929609,0.0,-0.23036314042343967,0.1727723553167809,-0.022830000000000128,0.149403,-0.9224450000000001,0.003145999999999871,-0.172966,-0.9247390000000001,0.025976,0.322369,0.0022940000000000182,0.9717840596919416,0.9988687196525301,double,-0.9224450000000001
98,0.408333,stand,0.003120499279841263,-0.0012001920307244498,-0.0002400384061518855,-0.006339055111399085,-0.002123591592427613,0.004802713728055296,0.0007201152184290069,-0.0002400384061452231,-0.0009601536245808924,0.000480076812303771,0.0002400384061452231,-0.0004800768122887806,0.17299358244521268,-0.2880921821230074,-0.1152230455340049,-0.2303769544624383,0.23040460910594543,-0.8065198367595798,0.11523687285256136,0.1728276546369322,-0.23044609106081412,-0.02283999999999997,0.14940699999999998,-0.922448,0.00313500000000011,-0.17296,-0.92474,0.02597500000000008,0.322367,0.0022919999999999607,0.9750400658050963,0.9987998079692609,double,-0.922448
99,0.4125,stand,0.002879769618460065,0.0002399808015344533,0.0,-0.0008510097747072093,0.0017912348557475562,-0.0077198828184627715,0.0,-0.011999040076792603,-0.0019198464122872829,-0.00023998080151613608,-0.0007199424046083555,0.0,-0.057770497091720496,0.34561383063568785,0.057604609107724226,-0.1728138273167773,-2.8219346461836925,-0.23030784442198127,-0.17280000331651335,-0.23037696442370628,0.11520921821185105,-0.022852000000000094,0.149356,-0.922456,0.003122000000000069,-0.172964,-0.92474,0.025974000000000164,0.32232,0.0022839999999999527,0.9569072379790882,0.9987351901207322,double,-0.922456
100,0.416667,stand,0.0035997120230084256,-0.001919846412285592,-0.0007199424046016851,0.0033852976364455675,-0.013832649009660726,0.009434549841924902,-0.0021598272138050553,0.001679865610752807,-0.0031197504199661683,0.00047996160303226577,-0.0009599232061444612,-0.0014398848092166917,0.1727723553031809,-0.5183170659515308,-0.17277235531597782,-0.5183170659479335,3.2826747510307905,-0.287953925528888,0.17277235530319088,-0.05759078510585646,-0.3455447106351526,-0.022875999999999896,0.149371,-0.922466,0.0031090000000000284,-0.17296,-0.9247430000000001,0.025984999999999925,0.32233100000000003,0.0022770000000000845,0.9703139067011624,0.9970069135375127,double,-0.922466
101,0.420833,stand,0.0033605376860730975,-0.001680268843014896,0.0007201152184290069,0.01856435527164054,-0.0037162095060669434,0.008848013283499436,0.0021603456552870205,-0.003840614498320238,-0.001920307249160119,-0.00024003840612523588,0.0007201152184356692,0.0009601536245808924,-0.057411026628739315,0.05750781787582714,0.3456691365892201,1.0370074097676603,-1.325127246536976,0.2879124269817687,-0.17282765462253988,0.4032737456985428,0.5761014003354734,-0.02288100000000015,0.149362,-0.922477,0.00309399999999993,-0.17295000000000002,-0.9247420000000001,0.02597500000000008,0.32231200000000004,0.0022650000000000725,0.9693387244381224,0.9979600658050962,double,-0.922477
102,0.425,stand,0.0009599232061178308,0.0,-0.0004799616030855586,-0.014260274764304323,0.0020530043886431075,-0.013597036843516314,-0.00023998080151613608,0.004079673626107353,0.0016798656107511643,0.00023998080151613608,0.0007199424046083555,0.000479961603072237,-0.576101387078301,0.4032322637424779,-0.28799539753169484,-0.5760322670513968,1.900717092495233,0.8639723685892258,0.11519539420239373,-4.147200079522382e-05,-0.11523686621278093,-0.022885999999999962,0.14937899999999998,-0.922468,0.003090999999999955,-0.17294700000000002,-0.924738,0.025976999999999917,0.322326,0.0022699999999999942,0.9699358080795506,0.9985034567687563,double,-0.922468
103,0.429167,stand,0.0023998080153744745,-0.0014398848092166917,-0.001199904007660594,-0.004012042776810159,-0.0056170363215265655,0.0015282030008702849,-0.00023998080151613289,0.005999520038399552,0.0028797696184317185,0.00023998080156941934,-0.0009599232061444612,-0.0011999040076805766,0.3455447106447403,-0.3455447106351526,-0.17277235530958243,7.675537338210256e-16,0.4607262808476564,0.2879539255292885,1.2786957353508824e-11,-0.4031354957410137,-0.4031354957410129,-0.022896999999999945,0.14941000000000002,-0.922451,0.003082000000000029,-0.17294500000000002,-0.9247380000000001,0.025978999999999974,0.322355,0.002287000000000039,0.9660313383525189,0.9974079110877387,double,-0.922451
104,0.433333,stand,0.005280844935181583,-0.0021603456553036765,0.0,0.007197970022211512,0.0029372959633113096,0.012959860972372408,-0.0002400384061785351,0.004800768122897799,0.0012001920307244498,0.00048007681225047176,-0.00096015362457423,-0.0007201152184340036,0.6915595102753496,-0.17293827318458577,0.28802304552582647,-1.382733134954623e-05,-0.28774649916028616,-0.40316312715008823,0.05763226372564864,-5.5309272628118515e-05,0.11516773625697853,-0.02292000000000005,0.149439,-0.922446,0.003061999999999898,-0.17293999999999998,-0.924741,0.02598199999999995,0.32237899999999997,0.002295000000000047,0.9687927718672792,0.9978455893714779,double,-0.922446
105,0.4375,stand,0.0016798656107728119,0.0002399808015361185,-0.0014398848092300326,-0.019954998737271433,-0.012134486454760647,-0.010931983429863743,0.004799616030749013,-0.01559875209983105,-0.0002399808015361185,0.0,0.0002399808015361185,0.0,-0.8641659045857432,0.5760322670601893,-0.34554471063835873,1.2094203112377193,-4.895493213997832,-0.3456138306360874,-0.11520921820265767,0.28800922152876296,0.17281382731797643,-0.02290700000000001,0.149373,-0.922441,0.003054999999999808,-0.17293999999999998,-0.924735,0.02596199999999982,0.32231299999999996,0.0022940000000000182,0.9498562945794087,0.9996000319974399,double,-0.922441
106,0.441667,stand,0.002879769618406779,-0.0031197504199678753,-0.0002399808015427793,-0.003710519380196158,0.01859425467826064,-0.011933537788063183,-0.0023998080153745066,0.0019198464122856175,-0.0016798656107511643,0.00023998080156942253,0.0,-0.0007199424046083555,0.2879539255181123,-0.8062709914816446,0.28795392553089993,-1.7277235531853996,4.204127312723006,-0.3455447106347622,0.05759078511385263,-0.0575907851058603,-0.1727723553175809,-0.022928999999999977,0.149394,-0.9224469999999999,0.0030440000000000467,-0.172927,-0.9247369999999999,0.025973000000000024,0.32232099999999997,0.0022900000000000142,0.9712626591795184,0.9987351901207042,double,-0.9224469999999999
107,0.445833,stand,0.004560729716752576,-0.001680268843014896,-0.0021603456552870205,-0.009321734531627391,-0.007486476837102949,-0.003280665471807034,-0.00024003840612523588,-0.003360537686029792,-0.0024003840614488996,-0.000960153624607542,0.00024003840613856067,0.001680268843014896,0.4034949828002391,0.3455308634068599,-0.4609613187096111,0.5184276546445676,-1.2674949827929443,-0.1729521005035369,-0.2880783548192423,0.05761843642308221,0.5761428822907465,-0.022948999999999886,0.149387,-0.922448,0.0030209999999999404,-0.17291900000000002,-0.924721,0.025969999999999827,0.322306,0.0022729999999999695,0.9703754216916278,0.996749864616463,double,-0.922448
108,0.45,stand,0.0019198464122889224,-0.0014398848092150266,-0.0007199424046016851,-0.007969125313972503,0.005931238378568833,-0.0030513727578792126,-0.0016798656107727896,0.005519558435327322,0.0,0.0009599232061711044,-0.0011999040076739157,-0.0019198464122872573,-0.6337612921678986,0.05768755310771958,0.3456691266343472,-0.34553088664447873,2.1310525849188977,0.5760460910604467,0.46078157686072274,-0.3455585346322211,-0.8639585445889431,-0.022963999999999984,0.149416,-0.9224450000000001,0.0030170000000000474,-0.172918,-0.924726,0.025981000000000032,0.322334,0.0022809999999999775,0.9675741170464853,0.9959015475697968,double,-0.9224450000000001
109,0.454167,stand,0.004319654427663454,-0.003599712023038447,-0.0007199424046283379,0.024001216119508555,0.0029586833409041315,0.014037000252363228,0.0016798656107728119,-0.00623950083993242,0.0004799616030705718,-0.0011999040076872533,0.0,0.0007199424046083555,0.575907851061806,-0.5183170659523476,-6.396168367169201e-12,0.8062709914916296,-2.821948470184739,0.11518157021132097,-0.5183170659607319,0.28795392552769916,0.6334986361640575,-0.022974999999999968,0.149405,-0.9224399999999999,0.002993999999999941,-0.17290299999999997,-0.92472,0.02596899999999991,0.322308,0.0022800000000000598,0.966400863930877,0.9976678058175846,double,-0.9224399999999999
110,0.458333,stand,0.0019203072491617847,-0.0007201152184340036,-0.00048007681227712134,-0.022941610462810416,-0.00017603786931588158,-0.017450188805416475,-0.0019203072491617847,0.004320691310607353,0.0,0.0,-0.0004800768122904462,0.0,-0.5759354725160029,0.6912138273174367,0.05757695447700825,-0.8641797551451258,2.5348516924003275,-0.11520921821185104,0.28802304553222574,-0.1152368728493629,-0.17281382731837613,-0.022990999999999984,0.149426,-0.922438,0.002985999999999933,-0.172902,-0.924718,0.025976999999999917,0.322328,0.0022800000000000598,0.9693196529030299,0.9991998719795159,double,-0.922438
111,0.4625,stand,0.0033597312214922927,-0.0014398848092150266,-0.0014398848092300135,0.012875277231874148,-0.002199051335390487,0.004459829538371975,0.0019198464122889224,-0.00455963522917953,-0.0002399808015361153,-0.00023998080151613289,0.0004799616030722306,0.0,0.3454341186298289,-0.17273088331677885,-0.23033549242929804,0.921563153695867,-2.1311078809183623,-0.057590785105858765,-0.05759078510106337,0.23039078842396676,0.0,-0.022996999999999934,0.14941300000000002,-0.922433,0.002971000000000057,-0.172894,-0.924712,0.02596799999999999,0.322307,0.002279000000000031,0.9689547534435065,0.9991056443574655,double,-0.922433
112,0.466667,stand,0.004079673626094032,0.0016798656107511643,-0.005279577633781285,-0.02965446932619543,0.040971977505641854,0.012891057407187377,-0.001919846412288948,0.0045596352291795905,-0.0009599232061428088,0.00023998080151613608,-0.000959923206144474,0.000479961603072237,0.1727723553159932,0.74868020637538,-0.9214525616873754,-0.9214525616937587,2.1884498340194796,-0.17277235531718205,0.11518157020212903,-0.3455447106351603,0.1151815702117206,-0.023021999999999876,0.149425,-0.922415,0.002955000000000041,-0.172905,-0.924688,0.025976999999999917,0.32233,0.0022729999999999695,0.9688706719462464,0.9981671163527148,double,-0.922415
113,0.470833,stand,0.0028804608737693265,-0.0024003840614505653,-0.00048007681227712134,-0.009529536363623699,0.01893773329921812,-0.0033412226535229064,0.00048007681225047176,0.004800768122901131,0.0028804608737393457,0.000480076812303771,0.0,-0.0004800768122904462,-0.2878571176967607,-0.9794166279888925,1.152064527485396,0.5760737456887705,0.057881155478046085,0.9218396735194795,0.05763226375123253,0.23041843642450152,-0.23044609106161365,-0.023032000000000163,0.149455,-0.922401,0.0029449999999999754,-0.172895,-0.9246880000000001,0.02597700000000014,0.32235,0.002287000000000039,0.9677647416300891,0.998868448101781,double,-0.922401
114,0.475,stand,0.002159827213805084,-0.0028797696184300918,-0.002639788816917286,0.004908974396476667,0.0063578971012767625,0.012404832415595462,0.002879769618460065,-0.009119270458362512,-0.0019198464122872829,0.0,0.0,0.000479961603072237,-0.17293824333195265,-0.1150433302086703,-0.5182894179602057,0.5758802030740598,-3.3405420161420016,-1.1519815901191879,-0.11520921821544845,0.0,0.23039078842397134,-0.023028999999999966,0.149429,-0.9223979999999999,0.0029360000000000497,-0.172883,-0.9246749999999999,0.025965000000000016,0.322312,0.0022769999999999735,0.9609733793833148,0.9992000639948796,double,-0.9223979999999999
115,0.479167,stand,0.00311975041997616,-0.0019198464122872573,0.00311975041997616,0.01747636153316474,-0.023239834626648997,0.015474878167014667,-0.0033597312214922927,0.004319654427643415,0.0004799616030722306,0.0,-0.0002399808015361153,-0.0007199424046083459,0.2303631404298221,0.23036314042304468,1.3821788425470127,-1.497360412755534,3.225083965924124,0.5759078510581942,0.0,-0.057590785105858765,-0.28795392552929533,-0.023055999999999965,0.149455,-0.922409,0.002923000000000009,-0.172876,-0.9246909999999999,0.025978999999999974,0.322331,0.0022819999999998952,0.9680243139410902,0.9987351901207218,double,-0.922409
116,0.483333,stand,0.006961113778164833,0.0004800768122904462,-0.0021603456553136702,-0.00520582760939507,0.0062124792827986325,0.014733654394876559,-0.0002400384061785351,0.005040806529046354,0.0009601536245808924,0.0,-0.0002400384061452231,0.0002400384061452231,0.9220747379233485,0.5760737456979601,-1.267425846204951,0.7488460910498693,0.17310420100886667,0.11526452748647657,0.0,-1.382731855683894e-05,0.23043226374305525,-0.02308599999999994,0.149474,-0.922396,0.002894000000000174,-0.172879,-0.924681,0.025980000000000114,0.322353,0.0022849999999999815,0.9685882562973888,0.9994342240508983,double,-0.922396
117,0.4875,stand,0.001919846412288948,-0.0011999040076789273,-0.0019198464122623048,-0.01758952576577356,0.023569533232799037,0.0008334064703048856,0.0009599232061711172,0.002639788816893973,0.0004799616030705718,-0.0007199424046016947,-0.0011999040076805924,0.0002399808015361185,-1.2098073832195617,-0.40316314374115264,0.05771520111623873,0.2879677495439547,-0.5761981550641695,-0.11523686621318055,-0.17277235531598242,-0.2303493164231761,-1.382400026508111e-05,-0.023089999999999833,0.14949,-0.922386,0.002883000000000191,-0.172879,-0.924672,0.025973000000000024,0.322369,0.0022860000000000102,0.9723906431137217,0.9976337573861724,double,-0.922386
118,0.491667,stand,0.0004799616030855522,-0.0011999040076805766,-0.0011999040076872372,-0.011073766456583058,0.015677492960736634,-0.0003902126299647796,0.003119750419922873,-0.011999040076792443,0.0011999040076789112,0.0007199424046016851,0.0,-0.0002399808015361153,-0.34554471063196185,-3.957975389452692e-13,0.17277235530959012,0.5183170659351426,-3.5130378914533966,0.17277235531757473,0.34554471063195796,0.28795392552929766,-0.11518157021171829,-0.02307900000000007,0.149445,-0.922376,0.0028840000000001087,-0.172874,-0.924668,0.02596300000000018,0.322319,0.0022920000000000718,0.9563201579516069,0.9987351901207322,double,-0.922376
119,0.495833,stand,0.0012001920307327777,-0.0024003840614488996,-0.0007201152184290069,0.008190533903803894,0.00386218344419952,0.012465232905084262,-0.0026404224675907915,0.0012001920307227842,-0.0016802688430132304,0.00024003840612523588,-0.0004800768122904462,-0.0002400384061452231,0.17288296390955954,-0.28816131871539175,0.11516773625977676,-1.3826627190383245,3.1683226374256406,-0.6913521005021939,-0.11519539089689121,-0.1152368728493629,-1.382731855683894e-05,-0.023095000000000088,0.14945999999999998,-0.9223800000000001,0.0028799999999999937,-0.17286600000000002,-0.924666,0.02597500000000008,0.322326,0.0022859999999998992,0.9715534101281208,0.999020047310469,double,-0.9223800000000001
120,0.5,stand,0.0014398848092033894,-0.0007199424046083555,-0.0002399808015427793,-0.016181968648918067,0.004739634190179949,-0.002130756551292128,-0.0007199424046016947,0.005279577633791277,-0.000959923206144474,-0.00023998080151613608,-0.0007199424046083555,-0.0007199424046083555,0.05752166509973915,0.40327373574287345,0.11522304220931853,0.4608783448497979,0.9789742267982998,0.17286912331863702,-0.11519539420239373,-0.057563137105330134,-0.11516774621145552,-0.023104000000000013,0.149485,-0.9223830000000001,0.0028730000000001255,-0.17286600000000002,-0.924668,0.02597700000000014,0.322351,0.0022849999999999815,0.9681263105570104,0.998256579896198,double,-0.9223830000000001
121,0.504167,stand,0.0021598272138583416,-0.0021598272138233727,-0.0007199424046016851,0.006770584488262391,0.004881496545321224,0.013392076000578132,0.0007199424046016851,0.00455963522917953,0.0014398848092150266,-0.00023998080156941934,0.0,-0.0002399808015344501,0.17277235532876092,-0.34554471063475073,-0.11518157020851982,0.34554471063195796,-0.17277235531839255,0.5759078510581911,-1.2786957353508824e-11,0.1727723553175786,0.11518157021211944,-0.023110000000000186,0.149513,-0.922374,0.002862999999999838,-0.172857,-0.924666,0.025973000000000024,0.32237,0.0022919999999999607,0.9690208680587163,0.9994343598262267,double,-0.922374
122,0.508333,stand,0.0028804608737160275,-0.0012001920307244498,-0.0016802688430365487,0.0038343317535509502,0.0020177765980038584,0.01007588538219625,-0.0009601536245542427,0.003840614498320238,0.0012001920307244498,0.0002400384061785351,0.0002400384061452231,0.0004800768122887806,0.17297975512666475,0.2303492998317144,-0.23051522766079283,-0.40328757300910384,-0.17259259022066523,-0.05753547251334053,0.11522304554679647,0.05761843642468145,0.172841481954688,-0.02312599999999998,0.149534,-0.9223619999999999,0.0028520000000000767,-0.172851,-0.924657,0.025978000000000057,0.32238500000000003,0.002295000000000047,0.9701554216916344,0.999020047310435,double,-0.9223619999999999
123,0.5125,stand,0.00023998080151613928,-0.001439884809215065,0.0011999040076872693,-0.004518223074181585,0.013911251079003463,0.0164963358689656,-0.002159827213805113,0.00287976961843013,0.000719942404608365,-0.00023998080156942573,-0.000719942404608365,-0.0002399808015361217,-0.6336645241660519,-0.057521665104540376,0.6911861892785872,-0.28789862952985196,-0.2305843244276761,-0.11525069021264552,-0.11519539422797455,-0.23037696442371164,-0.1728000033177144,-0.023135999999999823,0.149552,-0.922364,0.002850000000000019,-0.172848,-0.924663,0.025985999999999843,0.3224,0.002299000000000051,0.9708916660504223,0.9986734562073432,double,-0.922364
124,0.516667,stand,0.0016798656107727896,-0.0014398848092150266,-0.0007199424046016851,0.004996094901078126,0.008147798504740527,0.0061157916434798525,0.00047996160303226577,-0.0002399808015361153,0.0014398848092150266,0.0004799616030855522,0.0002399808015361153,0.0007199424046083459,0.34554471064474185,9.210644805852307e-15,-0.46072628084687783,0.6334986361500741,-0.7486802063753831,0.17277235531717208,0.17277235532876709,0.23036314042343964,0.23036314042343656,-0.023141000000000078,0.149557,-0.922355,0.0028449999999999864,-0.17284100000000002,-0.9246570000000001,0.025986000000000065,0.322398,0.0023020000000000262,0.9744189551886326,0.9985034567687356,double,-0.922355
125,0.520833,stand,0.000480076812303771,-0.001680268843014896,-0.0007201152184290069,-0.009390573015984243,0.010072820311080229,0.00981576076062872,0.0002400384061785351,-0.0021603456553036765,0.0012001920307244498,-0.00024003840612523588,0.0004800768122904462,0.0002400384061452231,-0.28799539089510745,-0.05770140033602236,-4.1481955670145956e-05,-0.05759078176997852,-0.4609613187152088,-0.05753547251334053,-0.17282765463533067,0.057632263743238286,-0.11519539089369238,-0.023141999999999996,0.149555,-0.922347,0.002842000000000011,-0.172832,-0.9246530000000001,0.025984000000000007,0.322387,0.0023060000000000302,0.9728017056997933,0.999020047310469,double,-0.922347
126,0.525,stand,0.00311975041997616,-0.0004799616030722306,0.0007199424046016851,0.017537379815505936,-0.005011210510510895,0.01415388886689768,0.0016798656107195032,-0.002639788816893938,-0.0014398848092150266,-0.0011999040076872372,-0.0011999040076805766,-0.0007199424046083459,0.6334709881623155,0.288050693530755,0.3455861826327528,0.3455308866189002,-0.11505715420932515,-0.6335677561649763,-0.2303493164295642,-0.40316314374154305,-0.2303769644237009,-0.02314800000000017,0.149546,-0.922356,0.0028239999999999377,-0.17283500000000002,-0.924659,0.025972000000000106,0.32238100000000003,0.002303000000000055,0.9712293792119269,0.996927787477844,double,-0.922356
127,0.529167,stand,0.0011999040076339509,-0.0014398848092150266,-0.0002399808015427761,-0.003383614988153132,0.01696507084660257,0.002991064113186952,-0.0007199424046016851,-0.0011999040076805766,-0.0004799616030705654,0.0007199424046016851,-0.0007199424046083459,-0.000959923206142796,-0.4607262808596579,-0.23036314042303543,-0.23036314042343506,-0.5759078510489969,0.3455447106343534,0.23036314042343506,0.4607262808468701,0.11518157021171756,-0.057590785105459154,-0.023155999999999954,0.14954699999999999,-0.922357,0.002822000000000102,-0.172832,-0.924662,0.025978000000000057,0.322379,0.0023050000000000015,0.9744844316442847,0.9976678058176018,double,-0.922357
128,0.533333,stand,0.0012001920307328098,-0.000480076812290459,-0.0014402304368580521,-0.003090724822319756,-0.0039311042765427465,0.014955057310885526,-0.0009601536245542683,0.0002400384061452295,0.0,-0.00048007681230378377,-0.00024003840613856707,-0.000960153624580918,6.913660558304573e-05,0.23039078178698813,-0.2881060094371837,-0.05765991837556156,0.3456414819553153,0.11520921821185258,-0.2880507001693471,0.11519539089529315,-5.5309274633217354e-05,-0.02316499999999988,0.14955000000000002,-0.922351,0.002815000000000012,-0.17283099999999998,-0.92466,0.025979999999999892,0.322381,0.0023090000000000055,0.9752604938288069,0.9981666763902309,double,-0.922351
129,0.5375,stand,0.0016798656107727896,-0.000959923206142796,-0.0007199424046016851,-0.002219199072548844,0.005775134287082004,-0.0025312602557337823,-0.00023998080156941934,-0.001679865610752807,0.0,0.00023998080156941934,0.0004799616030655698,0.0002399808015361153,0.11511245021357716,-0.11515392221078313,0.17285529931758137,0.1728276513042581,-0.4607401048471375,0.0,0.1728000033293011,0.17278617931464635,0.28800922153036335,-0.02317300000000011,0.14954699999999999,-0.9223480000000001,0.0028090000000000614,-0.172825,-0.924656,0.02598200000000017,0.322372,0.0023079999999999767,0.9740917991313126,0.9990202824802737,double,-0.9223480000000001
130,0.541667,stand,0.000959923206117818,-0.001679865610751142,-0.0004799616030855522,0.0009665174224650497,0.019899282383545363,0.011608704379797847,0.00023998080156941934,0.001679865610752807,0.0007199424046066807,-0.0011999040076872372,0.0009599232061444612,0.0014398848092150266,-0.17277235532876556,-0.17277235531757631,0.057590785101063365,0.11518157022770219,0.8062709914820226,0.1727723553171767,-0.3455447106447434,0.11518157021331599,0.2879539255288942,-0.023175999999999863,0.149561,-0.922343,0.0028000000000001357,-0.17281400000000002,-0.924648,0.025976,0.322375,0.0023050000000000015,0.9738777874778451,0.9964902950214336,double,-0.922343
131,0.545833,stand,0.00216034565534032,-0.0012001920307244498,-0.0009601536245808924,-0.005345894542959225,0.0014013696777389602,0.014338732196039176,-0.0007201152184290069,0.0004800768122904462,0.0,0.00048007681225047176,-0.0007201152184356692,-0.0004800768122887806,0.28814749141202617,0.11514008161946515,-0.11526452748327888,-0.23045991838656396,-0.2879953908935094,-0.17281382731797412,0.4032599183719894,-0.4032737456985428,-0.46086452748531104,-0.023187999999999986,0.149568,-0.922339,0.0027929999999998234,-0.17281200000000002,-0.924646,0.02598099999999981,0.32238,0.002306999999999948,0.9754875486976138,0.9983504938287975,double,-0.922339
132,0.55,stand,-0.0004799616030855522,-0.0019198464122872573,0.0,0.0014132889394122823,0.015782165975169342,-0.001274719634113127,0.0007199424046016851,-0.0011999040076805766,0.0002399808015361153,0.0004799616030855522,0.0,-0.0002399808015361153,-0.6336230521780302,-0.17270323531624718,0.23041843642449844,0.3455861826327528,-0.40316314374154305,0.057590785105858765,-2.7647987741675897e-05,0.17281382731837383,0.05761843310599075,-0.023182999999999954,0.149571,-0.922338,0.0027969999999999384,-0.172804,-0.924647,0.025979999999999892,0.322375,0.0023090000000000055,0.9745437573861726,0.9991056443574308,double,-0.922338
133,0.554167,stand,0.003839692824577947,-0.001439884809215065,-0.0002399808015427825,0.008185394997242211,0.006518292461232445,0.024896566770307764,-0.00095992320617113,0.000719942404608365,-0.0016798656107511866,-0.0007199424046017042,-0.0011999040076739477,-0.0004799616030722434,1.036634131908707,0.11518157021171141,-0.057590785107460296,-0.40313549574582364,0.460726280846887,-0.46072628084649353,-0.2879539255309046,-0.2879539255277107,-0.05759078510586337,-0.023203000000000085,0.14958,-0.9223439999999999,0.002777999999999947,-0.17280299999999998,-0.9246479999999999,0.025981000000000032,0.322383,0.0023039999999999727,0.9735193451455494,0.9975344316442928,double,-0.9223439999999999
134,0.558333,stand,0.0028804608737160275,0.0007201152184340036,-0.002400384061438906,-0.01324077188239554,0.005487941981306386,-0.008365440888219023,-0.0007201152184290069,0.0,0.0002400384061452231,-0.000480076812303771,0.0007201152184290069,0.0,-0.23025250860823787,0.5184829639100016,-0.5185797551358909,0.05756312715845485,-0.17281382731837844,0.46085070016716473,0.05757695446421822,0.46087835480147704,0.11520921821225229,-0.02321799999999996,0.14957700000000002,-0.922333,0.0027639999999999887,-0.172803,-0.924638,0.02598199999999995,0.32238,0.0023050000000000015,0.9756848865177847,0.9985575486976015,double,-0.922333
135,0.5625,stand,0.0014398848092033701,-0.0031197504199661683,-0.0004799616030855522,0.007773871682687418,0.008930687203931961,0.024844361147727145,-0.00023998080151613289,0.0002399808015361153,0.0,0.0004799616030855522,-0.0002399808015294545,-0.0004799616030722306,-0.3457105986351443,-0.9214940336933387,0.46086452084313395,0.11522304221571163,0.057590785105858765,-0.05760460910612461,0.23039078843036137,-0.2304046124210353,-0.11518157021171753,-0.02322499999999983,0.149591,-0.9223309999999999,0.0027600000000000957,-0.17279099999999997,-0.924638,0.025984999999999925,0.322382,0.002307000000000059,0.9763643598262877,0.9988000959923083,double,-0.9223309999999999
136,0.566667,stand,-0.000959923206117818,0.0,0.0,-0.0034451298026049867,0.01401837627941077,-0.0003078378992250524,-0.00023998080156941934,-0.0007199424046083459,-0.0011999040076789112,-0.0011999040076872372,-0.0004799616030722306,-0.0002399808015344501,-0.5759078510489969,0.7486802063753647,0.11518157021491446,-1.2787724907242645e-11,-0.23036314042343506,-0.2879539255288942,-0.40313549574580676,-0.05759078510745723,0.05759078510625838,-0.023222000000000076,0.149588,-0.9223359999999999,0.002758999999999956,-0.17279299999999997,-0.924639,0.025981000000000032,0.322381,0.002303000000000055,0.9746037573861599,0.9978092850271654,double,-0.9223359999999999
137,0.570833,stand,-0.00024003840612523588,-0.0021603456553053423,0.0,-0.00286525269583268,0.0052916971749546555,0.02004782839531137,0.000480076812303771,0.0,0.001680268843014896,0.000480076812303771,0.0,-0.0002400384061452231,0.1727999999982193,-0.5185659278217333,0.0,0.17284148196668023,0.17281382731837383,0.6913521005025937,0.40325991838478326,0.11520921821224922,-1.3827318956550655e-05,-0.0232190000000001,0.149597,-0.922329,0.002761999999999931,-0.172784,-0.9246399999999999,0.025981000000000032,0.322381,0.002310999999999952,0.9739774900426883,0.9991054296777278,double,-0.922329
138,0.575,stand,0.009599232061391582,-0.01079913606911382,0.00695944324455419,0.12470041047401113,0.044508627089624046,0.07050628897134822,-0.000479961603085565,0.0004799616030722434,-0.0009599232061444868,0.0,0.0002399808015361217,0.00047996160307057817,2.3612360133230155,-2.0731438478062496,1.6701327680715916,-0.23039078843037059,0.11518157021172366,-0.6335954041659306,-0.11520921821545,0.05759078510586183,0.1727861793174502,-0.023260999999999976,0.149644,-0.922362,0.0027220000000001132,-0.172738,-0.924667,0.02598300000000009,0.322382,0.0023050000000000015,0.9749905649605655,0.9991056443574531,double,-0.922362
139,0.579167,stand,-0.006959443244500718,0.007439404847611249,-0.006959443244554005,-0.11493671195333881,-0.019603108505963567,-0.0603689175723764,0.00023998080156941934,-0.0002399808015361153,0.0007199424046083459,-0.00023998080151613289,-0.0002399808015361153,0.0009599232061444612,-3.973764172280339,4.37689966804054,-3.34026553614305,0.1727723553287686,-0.17277235531757934,0.4031354957410175,-0.05759078510106337,-0.11518157021171907,0.11518157021211409,-0.023231,0.149612,-0.92233,0.00275000000000003,-0.17276999999999998,-0.924634,0.025981000000000032,0.322382,0.0023039999999999727,0.9756334562073432,0.9983030794788001,double,-0.92233
140,0.583333,stand,0.0012001920307327777,-0.0009601536245792267,-0.0016802688430098993,-0.0013644308300829982,0.004504694230451595,0.007099637531049898,0.00048007681225047176,-0.0002400384061452231,-0.0002400384061452231,0.0,0.0002400384061452231,-0.0007201152184356692,1.9586258461914283,-2.0162166279861906,1.2672046091080418,0.05763226372564864,-1.382731855683894e-05,-0.23043226374305525,0.057604609101328065,0.11522304553080606,-0.4032737456985428,-0.0232340000000002,0.149615,-0.9223239999999999,0.0027449999999999974,-0.172765,-0.92463,0.025979000000000196,0.32238,0.0023060000000000302,0.9759600473105098,0.9987348865177742,double,-0.9223239999999999
141,0.5875,stand,-0.0011999040076872372,-0.0019198464122872573,-0.00023998080151613289,0.0021736558176699665,0.012751771117619673,0.016081031930753855,-0.0007199424046016851,0.0004799616030722306,-0.0007199424046083459,-0.0004799616030855522,-0.0004799616030722306,0.0002399808015361153,-0.5759769710631142,-0.2303078444223718,0.34564147864021005,-0.28798157351863396,0.17278617931784213,-0.11516774621145168,-0.11518157021491446,-0.17278617931784213,0.2304046124242326,-0.02323200000000014,0.149625,-0.9223260000000001,0.0027479999999999727,-0.172759,-0.924628,0.025980000000000114,0.322384,0.0023019999999999152,0.9751039837773736,0.9988000959923047,double,-0.9223260000000001
142,0.591667,stand,0.004079673626093978,-0.010799136069113532,0.007919366450671823,0.12049199003517887,0.047436956253076146,0.06657273576533027,-0.0007199424046016851,0.0,0.0011999040076805766,-0.0004799616030855522,0.0002399808015361153,-0.0002399808015361153,1.2669972723256957,-2.1308590489143766,1.9580866935896075,0.0,-0.11518157021171753,0.4607262808468701,0.0,0.1727723553175763,-0.11518157021171753,-0.02325200000000005,0.14967,-0.922354,0.0027289999999999814,-0.172713,-0.924662,0.025981000000000032,0.322383,0.0023079999999999767,0.9745878058175999,0.9990202824802692,double,-0.922354
143,0.595833,stand,-0.019923187710047384,-0.05760921747479845,0.08281325012003088,1.0228114230800807,0.46249960241176363,0.1989054815489663,0.0,0.0007201152184356884,0.0004800768122887934,0.0007201152184290261,-0.000480076812290459,-0.0002400384061452295,-5.761608578046563,-11.236217332137814,17.9774084660012,0.17281382731677958,0.17285530927405354,-0.17278617268166152,0.2880645274879043,-0.17284148195549517,-1.3827318558374783e-05,-0.023168999999999995,0.14991300000000002,-0.9226970000000001,0.002815000000000012,-0.172475,-0.925008,0.025984000000000007,0.322388,0.002310999999999952,0.9754475486976061,0.9985030975409044,double,-0.9226970000000001
144,0.6,stand,-0.0059995200383829005,0.07751379889608864,-0.07559395248381637,-1.0426508948869464,-0.4182355044505353,-0.2578697730013648,-0.00047996160303226577,0.0002399808015361153,-0.000959923206142796,-0.00023998080151613289,0.0007199424046083459,0.0002399808015361153,3.341412928165197,32.42692977463068,-38.01468744992705,-0.11518157020212674,-0.11522304221251967,-0.34557235863488805,-0.23040461241784296,0.28798157352982856,0.11519539421198492,-0.02314599999999989,0.149591,-0.9223859999999999,0.002839000000000036,-0.17279499999999998,-0.924692,0.025984999999999925,0.322386,0.0023060000000000302,0.9751071163527392,0.99867345620737,double,-0.9223859999999999
145,0.604167,stand,0.016318694504429198,-0.0746340292776586,0.07127429805615297,1.006021054664992,0.4239411817215788,0.22775350495675728,0.0007199424046016851,-0.0011999040076805766,-0.0002399808015361153,-0.0009599232061711044,-0.0009599232061444612,-0.0004799616030705654,5.3559430148336755,-36.51255775707849,35.24556048475359,0.28795392551810456,-0.34554471063515263,0.1727723553171767,-0.17277235532876556,-0.4031354957410113,-0.1727723553171767,-0.02321099999999987,0.149897,-0.922684,0.002766999999999964,-0.17248799999999997,-0.924991,0.025977999999999835,0.322385,0.002307000000000059,0.9745637573861725,0.9976001919846101,double,-0.922684
146,0.608333,stand,-0.0019203072491617847,0.0696111377820464,-0.07729236677866856,-1.0642943771719948,-0.4550395440229627,-0.22419032083235288,-0.000480076812303771,-0.0004800768122904462,0.0007201152184356692,0.0002400384061785351,0.0004800768122904462,-0.0002400384061452231,-4.378060910607529,34.62437999512839,-35.66170543322646,-0.2880507001693363,0.17278617268126018,0.23045991838016897,0.28803687286357144,0.34565530927386134,0.057590781787168054,-0.02320499999999992,0.149605,-0.922359,0.0027760000000001117,-0.17277599999999999,-0.92467,0.025981000000000032,0.322381,0.002310999999999952,0.9752404938287531,0.9990200473104327,double,-0.922359
147,0.6125,stand,-0.01703863690903088,0.0011999040076789112,-0.0016798656107727896,-0.010189233205759152,0.028940844505985476,-0.00786020703315351,-0.0004799616030855522,0.0002399808015361153,0.0004799616030705654,0.00023998080151613289,0.0007199424046083459,0.0007199424046066807,-3.6281088696589827,-16.417382715230854,18.145548636403934,2.7648000532464515e-05,0.172800003318108,-0.05763225710705591,-1.3824013055485768e-05,0.05756313710532705,0.2303769644233013,-0.023136000000000045,0.14960099999999998,-0.92235,0.0028479999999999617,-0.172778,-0.9246599999999999,0.025984000000000007,0.32237899999999997,0.0023099999999999232,0.9757000959923064,0.9982565798961999,double,-0.92235
148,0.616667,stand,-0.005519558435350781,0.0016798656107511866,-0.004079673626094086,-0.03743767365362815,-0.01411155237968268,0.01013967560337822,0.000479961603085565,-0.0002399808015361217,0.0,-0.0007199424046017042,-0.0004799616030722434,-0.00047996160307057817,2.7643576850684712,0.11518157021173134,-0.5759078510490382,0.23036314042983813,-0.11518157021172214,-0.11518157021132097,-0.23036314041705191,-0.28795392552930454,-0.28795392552850535,-0.02311099999999988,0.149593,-0.9223330000000001,0.0028680000000000927,-0.172787,-0.924645,0.025978999999999974,0.32238,0.0023119999999999807,0.9759856443574308,0.9983508896785864,double,-0.9223330000000001
149,0.620833,stand,0.004080652904502104,-0.0014402304368696728,-0.0024003840614655555,-0.03755450508389318,-0.016905831462978593,0.014518646219812215,-0.0012001920307327777,0.0009601536245808924,-0.0002400384061452231,0.00024003840612523588,0.0007201152184290069,0.0,2.304419428673279,-0.7489428822901723,0.4030939905493349,-0.4033014003404564,0.28807835480485194,-0.05761843642468145,0.23043226373666334,0.2880645274846974,0.11520921821185258,-0.02313300000000007,0.14960299999999999,-0.9223239999999999,0.0028519999999998547,-0.17277800000000001,-0.924635,0.025984999999999925,0.32238100000000003,0.002311000000000063,0.9742972888868476,0.9987348865177953,double,-0.9223239999999999
150,0.625,stand,0.008639308855273508,-0.006959443244540683,0.0004799616030855522,0.04068850613473938,0.01600121794627039,0.016260777740439894,0.0007199424046016851,0.0004799616030722306,-0.0014398848092150266,0.0004799616030855522,-0.0002399808015294545,-0.0007199424046083459,1.0939899089924092,-1.3245051134319576,0.6912276612793582,0.46079540084819975,-0.11523686621278093,-0.28794010152862837,0.057576961113586386,-0.2304046124210353,-0.1727723553175763,-0.02316600000000002,0.149634,-0.922332,0.002817999999999987,-0.17275,-0.92464,0.025984000000000007,0.322384,0.0023079999999999767,0.9741202239820859,0.9985034567687385,double,-0.922332
151,0.629167,stand,0.008879289656842928,-0.007199424046076798,-0.0011999040076872372,0.00564083904001411,-0.00027705299190766247,0.017806943185961786,0.0,-0.0002399808015361153,0.0009599232061444612,-0.0016798656107195032,-0.0007199424046083459,0.0002399808015361153,0.057590785113851066,-0.05759078510585872,-0.40313549574580676,-0.17277235531597782,-0.1727723553175763,0.575907851058188,-0.5183170659479335,-0.11518157021331597,0.23036314042343506,-0.023203000000000085,0.149663,-0.922323,0.002774000000000054,-0.172723,-0.924634,0.02597700000000014,0.322386,0.002310999999999952,0.9752408896785769,0.9969277874779019,double,-0.922323
152,0.633333,stand,0.013442150744079194,-0.014402304368698394,0.005280844935208233,0.1258373796547961,0.0445533914345513,0.048886988399772686,0.0016802688430365487,-0.010801728276525046,-0.0021603456553053423,0.0009601536245542427,0.0007201152184356692,0.0009601536245792267,1.0952619028411577,-1.7289679122951491,1.5556286468784122,0.4033290549775678,-2.5352250300021417,-0.7489843642462317,0.6337060094272069,0.34566913659241816,0.17286913659220135,-0.02325199999999983,0.149678,-0.922354,0.0027220000000001132,-0.17265999999999998,-0.924652,0.02597399999999994,0.322338,0.0022980000000000222,0.9584482374964962,0.9974383404395242,double,-0.922354
153,0.6375,stand,-0.007439404847586468,0.006719462443004746,-0.008639308855300381,-0.12195863748619923,-0.04308252695174065,-0.04263129133260781,0.0,0.000719942404608365,-0.0011999040076789433,0.0,-0.0004799616030722434,-0.00047996160307057817,-5.0111724482039985,5.068818529326505,-3.3405696641489993,-0.40323226374767956,2.764979765090864,0.23048755642582605,-0.23041843641810916,-0.28799539753010206,-0.3456000066354289,-0.023220999999999936,0.149653,-0.922323,0.0027530000000000054,-0.17268999999999998,-0.924618,0.02597399999999994,0.322343,0.002295000000000047,0.9747178058175965,0.9988687196525301,double,-0.922323
154,0.641667,stand,-0.0016798656107727896,-0.001679865610751142,-0.0011999040076872372,-0.0003279970414976458,-0.012571720044528166,-0.004556863317046016,0.00023998080151613289,0.003599712023038399,0.0007199424046066807,0.0007199424046016851,-0.0007199424046083459,0.000959923206142796,1.3821788425278703,-2.0156774787031013,1.7853143382800785,0.05759078510106337,0.6910894212695013,0.4607262808460786,0.17277235531597782,-0.057590785105855684,0.3455447106343564,-0.023212999999999928,0.149675,-0.922315,0.002763000000000071,-0.172686,-0.924609,0.025976,0.322361,0.0022940000000000182,0.9709286066247698,0.9976678058176018,double,-0.922315
155,0.645833,stand,-0.0026404224675907915,-0.0002400384061452231,0.000480076812303771,0.0035676031613149336,0.022802945388514153,-0.007646125353628239,-0.0009601536245542427,0.0040806529044654614,0.0007201152184356692,0.0007201152184290069,0.0012001920307261153,-0.0002400384061452231,-0.23057053692222787,0.3456138273177911,0.40325991838478326,-0.28807835479365695,0.11544428262771533,4.148195607020251e-05,4.1481955670145956e-05,0.460906009441781,-0.2880368728487802,-0.023205999999999838,0.14969300000000002,-0.9223140000000001,0.0027770000000000294,-0.17268,-0.924612,0.025982999999999867,0.322373,0.0022979999999999112,0.9699308476769688,0.9976331893970669,double,-0.9223140000000001
156,0.65,stand,-0.0011999040076872372,-0.0014398848092150266,0.00023998080151613289,-0.006704556576167907,0.0028032671808764743,0.010475364130863331,0.000959923206117818,0.003359731221502284,0.0019198464122872573,-0.0007199424046016851,-0.0009599232061444612,-0.0002399808015361153,0.3456967746348796,-0.28794010152862837,-0.05761843311438355,0.46078157683514426,-0.17300736332209554,0.2879124535280967,-0.3455861826327528,-0.5183861859540582,1.3824000265848482e-05,-0.023196999999999912,0.149713,-0.922307,0.002779000000000087,-0.172678,-0.9246139999999999,0.025976,0.322391,0.002306999999999948,0.9702852324910763,0.9979605553501394,double,-0.922307
157,0.654167,stand,-0.001919846412235636,-0.0011999040076789112,0.0,0.003671316759985682,0.009839800133419434,-0.006912325894430529,-0.0007199424046016851,0.0035997120230350688,0.000959923206142796,0.0,0.0007199424046083459,0.0,-0.17277235530319013,0.05759078510585878,-0.05759078510106337,-0.40313549573301904,0.057590785105059536,-0.2303631404234351,0.17277235531597782,0.4031354957410113,0.057590785105858765,-0.0231920000000001,0.149733,-0.922303,0.002786999999999873,-0.17267,-0.9246139999999999,0.025978999999999974,0.322403,0.002310999999999952,0.9705659506036219,0.9988000959923194,double,-0.922303
158,0.658333,stand,-0.0036005760921984293,-0.000480076812290459,-0.00024003840612524228,-0.007564776226941121,0.0045618237918485195,0.001303841912150526,-0.0024003840614656197,-0.00024003840614189828,-0.0002400384061452295,-0.00048007681230378377,-0.0014402304368713768,-0.0004800768122887934,-0.4034396735388471,0.17278617268086197,-0.05761843641988682,-0.40337053693326413,-0.9216875730141783,-0.28803687284878937,-0.1152368728525675,-0.5185244458664856,-0.11523687284896923,-0.02318700000000007,0.149734,-0.9223030000000001,0.0027999999999999137,-0.172674,-0.9246150000000001,0.025986999999999982,0.32240800000000003,0.0023119999999999807,0.9728395515528782,0.9973462755717986,double,-0.9223030000000001
159,0.6625,stand,-0.00311975041997616,-0.0014398848092150266,0.0014398848092033701,0.0009691112202103278,0.013533307002164907,-0.018040723228868807,0.0007199424046016851,-0.0004799616030722306,0.0014398848092150266,0.0014398848092566567,0.0011999040076805766,0.0007199424046066807,0.11538893021892627,-0.23033549242250068,0.4031493197332852,0.7488184463804369,-0.05757696110639081,0.40314931974087914,0.4607539288601934,0.6335815801660506,0.28798157352902926,-0.023171000000000053,0.149738,-0.922303,0.002819000000000127,-0.17266299999999998,-0.9246179999999999,0.02599000000000018,0.322401,0.002314999999999956,0.9740502239820858,0.9966536276036053,double,-0.922303
160,0.666667,stand,-0.0016798656107195032,-0.0007199424046083459,-0.0014398848092033701,-0.005250454514556917,-0.013529441098180505,0.012257993419961434,0.0026397888168906074,-0.004079673626110629,-0.001919846412285592,-0.0007199424046549715,-0.0009599232061444612,-0.0004799616030722306,0.3455447106447434,0.1727723553171767,-0.6910894212639113,0.4607262808468701,-0.8638617765870821,-0.8062709914808238,-0.518317065973509,-0.518317065952729,-0.2879539255288942,-0.0231530000000002,0.149724,-0.922305,0.002822999999999798,-0.17266399999999998,-0.924614,0.025976,0.322388,0.0023090000000000055,0.9682020802107556,0.9978461063885897,double,-0.922305
161,0.670833,stand,-0.0002400384061785351,-0.001680268843014896,0.00048007681227712134,0.016073551936471954,0.007706815853631866,-0.000533662054663709,0.000720115218482306,-0.0024003840614488996,-0.0004800768122904462,-0.00024003840612523588,-0.0002400384061452231,-0.0004800768122887806,0.3456138273022004,-0.23051522765399649,0.46086452747971435,-0.4607953908805329,0.403093990557304,0.34559999999883456,0.11519539090968202,0.172799999999817,-2.7654636713868566e-05,-0.023148999999999864,0.149721,-0.9223089999999999,0.00282300000000002,-0.17265799999999998,-0.9246179999999999,0.025971999999999884,0.32237899999999997,0.0023090000000000055,0.9726572612366831,0.9990200473104713,double,-0.9223089999999999
162,0.675,stand,-0.0026397888168906074,-0.0019198464122872573,-0.0002399808015427761,0.0021243664398376606,0.00869716326973071,0.005592667798868177,-0.00023998080156941934,-0.0004799616030722306,-0.0004799616030722306,0.00023998080151613289,0.0004799616030722306,0.0002399808015361153,-0.575894027048729,-0.05749401710399797,-0.17280000331650874,-0.23040461244341687,0.4608645208487291,2.7648000531696964e-05,0.11519539420239143,0.17278617931784213,0.17280000331770828,-0.02313900000000002,0.149727,-0.92231,0.002834999999999921,-0.172648,-0.924616,0.02597399999999994,0.32237499999999997,0.0023060000000000302,0.9757400959923009,0.999020282480301,double,-0.92231
163,0.679167,stand,-0.0023998080153745387,0.0004799616030722434,-0.0007199424046017042,-0.015658613187568567,0.00560870629450836,-0.005494732686888351,0.00023998080156942573,-0.000719942404608365,0.0,-0.0007199424046017042,-0.0009599232061444868,0.00047996160307057817,0.057590785101049494,0.5759078510582065,-0.11518157020852826,0.1151815702277068,-0.05759078510586489,0.1151815702117206,-0.23036314041705191,-0.3455447106351679,0.05759078510546375,-0.023127999999999815,0.149722,-0.922307,0.002842000000000011,-0.172654,-0.924611,0.025969999999999827,0.322376,0.0023039999999999727,0.9756951901207042,0.9978461063886401,double,-0.922307
164,0.683333,stand,0.0002400384061785351,-0.0007201152184340036,-0.00048007681227712134,0.00784302477155882,0.007131312355033429,0.007111269628687669,-0.000480076812303771,0.0016802688430132304,0.0009601536245808924,0.0,0.0009601536245808924,0.0002400384061452231,0.6336645274971368,-0.28806452748589684,0.05757695447061515,-0.17284148196668175,0.5761428822903489,0.2304737456987258,0.17281382731677958,0.4608921821232304,-0.05759078178717113,-0.023131000000000013,0.14973199999999998,-0.922301,0.0028409999999998714,-0.172647,-0.924608,0.025971999999999884,0.32237899999999997,0.002306999999999948,0.9736068187458281,0.998350493828764,double,-0.922301
165,0.6875,stand,-0.0007199424046016851,-0.0014398848092166917,0.001199904007660594,0.004607426307977567,0.007268572728314827,-0.014052999411489525,0.0004799616030855522,-0.0011999040076772461,-0.0002399808015361153,0.0007199424046016851,-0.0004799616030722306,-0.0014398848092150266,-0.23037696443009667,-0.17273088331717845,0.40316314373354994,0.23039078843036137,-0.6911861892705675,-0.2880092215303572,0.17277235531597782,-0.345600006636216,-0.4031493197408776,-0.02312599999999998,0.149733,-0.922307,0.002846999999999822,-0.172643,-0.924619,0.025972999999999802,0.322376,0.0023119999999999807,0.9746892850271719,0.9972002239820859,double,-0.922307
166,0.691667,stand,-0.0011999040076872372,-0.0021598272138217073,-0.0009599232061444612,-0.01079418209396538,-0.008338786365985066,0.00011042190781545675,0.00023998080151613289,0.0016798656107494766,0.000959923206142796,-0.000959923206117818,-0.0009599232061444612,0.000959923206142796,-0.11518157021491446,-0.1727723553167771,-0.5183170659479335,-0.05759078511385109,0.6910894212687068,0.2879539255288942,-0.40313549573301904,-0.11518157021171753,0.5759078510577884,-0.02312000000000003,0.149749,-0.922299,0.0028479999999999617,-0.172638,-0.924611,0.02596799999999999,0.322387,0.0023119999999999807,0.9736306445865857,0.9972289403926828,double,-0.922299
167,0.695833,stand,-0.0028804608737693265,-0.0007201152184356692,0.0007201152184556565,0.01653002814927442,0.006163105966444614,-0.004833778855192701,-0.000480076812303771,-0.0002400384061452231,-0.0009601536245792267,-0.00024003840612523588,0.0007201152184356692,0.0,-0.4033981915703524,0.34558617268027775,0.40327374570334046,-0.1728414819538894,-0.4608507001667543,-0.46089218212242467,0.1727999999982193,0.4032737456985428,-0.23041843642409873,-0.023109999999999964,0.149751,-0.9223060000000001,0.002859000000000167,-0.172632,-0.924614,0.02596900000000013,0.322383,0.0023079999999999767,0.9750866763902309,0.9987348865177847,double,-0.9223060000000001
168,0.7,stand,-0.0016798656107195479,-0.0009599232061428216,0.0,-0.0018839804704040256,0.01775637858046873,-0.003252799610510971,-0.0009599232061178436,0.0009599232061444868,0.00047996160307057817,0.0016798656107195479,0.0009599232061444868,-0.0002399808015344565,0.2881198135468686,-0.05754931310466929,-0.172813827323175,-0.11515392220160349,0.2879677495295735,0.3456000066354289,0.4607401048343701,0.05754931310506891,-0.05759078510546222,-0.02310699999999999,0.149759,-0.922304,0.0028729999999999034,-0.172624,-0.9246150000000001,0.025979999999999892,0.322383,0.002311000000000063,0.9744901919846694,0.9967506445866235,double,-0.922304
169,0.704167,stand,-0.0021598272138583416,-0.001679865610751142,-0.0004799616030855522,0.005703816337787571,-0.005230312164430514,-0.01329813029073333,0.0,0.0007199424046083459,-0.0002399808015344501,-0.0014398848092033701,-0.0014398848092166917,0.0,-0.11518157022769142,-0.17277235531757015,-0.11518157021491446,0.23036314041704734,-0.05759078510586492,-0.17277235531678012,-0.7486802063649853,-0.5759078510585937,0.05759078510546068,-0.02309799999999984,0.14976899999999999,-0.922303,0.0028760000000001007,-0.172623,-0.924613,0.02597399999999994,0.322392,0.0023100000000000342,0.9756351901207225,0.9966061589576003,double,-0.922303
170,0.708333,stand,-0.0028804608737160275,-0.0026404224675957884,0.0,0.0035073648076718337,0.008885451335727842,0.016651189753288758,0.0016802688429832496,-0.0007201152184356692,0.0007201152184340036,-0.00024003840612523588,-0.0002400384061452231,0.0,-0.17297975512666475,-0.23057053692862356,0.11520921821544691,0.40332905496477395,-0.34566913659241816,0.23045991837936944,0.2880092182136662,0.2880092182120662,0.0,-0.02307900000000007,0.149777,-0.9223,0.002887000000000084,-0.172613,-0.924613,0.025966000000000156,0.32239,0.0023130000000000095,0.9735953349448874,0.999434224050922,double,-0.9223
171,0.7125,stand,-0.0007199424046016851,0.0011999040076805766,-0.0002399808015427761,-0.002060458023999326,-0.005242087188473012,-0.0008640740504675581,-0.00023998080151613289,-0.0007199424046083459,0.0002399808015361153,0.000959923206117818,0.0014398848092166917,0.0004799616030705654,0.5184829539511222,0.9216046256962649,-0.05759078510745723,-0.4608230488359414,4.147200079753894e-05,-0.11522304221211535,0.28796774951836923,0.40314931974127716,0.1151815702113179,-0.023077000000000014,0.14976899999999999,-0.922298,0.002893999999999952,-0.172612,-0.9246099999999999,0.025970999999999966,0.322381,0.0023119999999999807,0.97555345620737,0.9970069135375194,double,-0.922298
172,0.716667,stand,-0.002879769618460027,-0.0002399808015361153,0.0,-0.006459234061497872,-0.007470970632923712,0.0015564910720471774,0.0,-0.0007199424046050155,-0.0007199424046083459,0.0,-0.0007199424046083459,-0.0002399808015361153,-0.5183170659607212,-0.34554471063515263,0.05759078510745723,0.05759078510106337,7.992185776874726e-13,-0.23036314042343506,-0.2303631404170412,-0.5183170659527289,-0.1727723553171767,-0.02306499999999989,0.149767,-0.9223009999999999,0.002906000000000075,-0.172614,-0.924611,0.025970999999999966,0.32238100000000003,0.0023100000000000342,0.9752030794787963,0.9987351901207218,double,-0.9223009999999999
173,0.720833,stand,-0.0028804608737161043,-0.0007201152184356884,-0.00024003840612524228,0.01219169142493393,0.007399278480755797,0.0027964641194803256,0.00024003840612524228,0.001200192030722816,0.0012001920307261474,-0.0012001920307328098,0.0,0.0007201152184356884,-0.00016592780990813493,-0.11525070016792739,-0.05761843641988682,0.05761843641988682,0.46090600944020194,0.46090600944180105,-0.28809218212502186,0.1728138273183784,0.23045991838017968,-0.023052000000000072,0.149775,-0.9222950000000001,0.0029129999999999434,-0.172611,-0.9246070000000001,0.025965000000000016,0.322386,0.0023119999999999807,0.9740229715040292,0.9976672460014102,double,-0.9222950000000001
174,0.725,stand,-0.000959923206117818,0.0002399808015361153,0.0009599232061444612,-0.01629911347480413,0.013489128310122733,-0.020534237603546848,-0.0014398848092033701,0.0002399808015361153,-0.0007199424046083459,0.0011999040076872372,0.0009599232061444612,-0.0007199424046083459,0.46089216885007717,0.23040461242423718,0.28796774952476467,-0.4031493197332852,-0.2304322604239725,-0.460795400848207,0.5759769710631218,0.23036314042343506,-0.3455861826359547,-0.02305400000000013,0.149775,-0.9223020000000001,0.002921999999999869,-0.17260799999999998,-0.924614,0.025976,0.322383,0.0023119999999999807,0.9741672850239649,0.9971717991313127,double,-0.9223020000000001
175,0.729167,stand,-0.002639788816943894,-0.000959923206142796,0.0007199424046016851,0.009259718913945563,0.004502357747278939,-0.0019605644883121482,0.0004799616030855522,-0.0011999040076805766,-0.000959923206142796,-0.0007199424046016851,-0.0002399808015361153,0.0009599232061444612,-0.40313549575859453,-0.2879539255288942,-0.05759078510745724,0.4607262808468701,-0.34554471063515263,-0.057590785105459154,-0.4607262808468701,-0.28795392552929383,0.4031354957410113,-0.023040999999999867,0.149774,-0.922309,0.002930000000000099,-0.172605,-0.924613,0.025970999999999966,0.32237899999999997,0.0023039999999999727,0.9742769330723469,0.9979605553501394,double,-0.922309
176,0.733333,stand,-0.0009601536245542427,-0.0014402304368713384,-0.000480076812303771,-0.0013305053570779185,0.002789606520046519,-0.006317730738453164,0.00024003840612523588,-0.0012001920307227842,0.0012001920307244498,0.0,-0.0012001920307261153,0.0,0.40317695448623386,-0.11529218212398994,-0.2880507001693363,-0.057590781795563165,-6.913659198455656e-05,0.5185106185471061,0.17281382731677497,-0.2304875730172826,-0.23041843642449844,-0.023036000000000056,0.149775,-0.922302,0.002933999999999992,-0.17260399999999998,-0.924611,0.02597000000000005,0.32237899999999997,0.0023090000000000055,0.9740529715040311,0.9979996799487898,double,-0.922302
177,0.7375,stand,-0.0011999040076872372,0.0,0.0007199424046283283,-0.010504250338142463,0.0006587545471836083,-0.005829778198520394,0.0,-0.0002399808015361153,-0.0004799616030722306,-0.0007199424046016851,0.0004799616030722306,-0.0007199424046083459,-0.05753548911278923,0.34562765463674766,0.2879815735378186,-0.057604609101328065,0.23043226042396486,-0.40320461574194083,-0.17277235531597782,0.40320461574234057,-0.1727723553175763,-0.023031000000000024,0.14977400000000002,-0.922307,0.0029360000000000497,-0.17260199999999998,-0.924617,0.025967000000000073,0.322376,0.0023100000000000342,0.9760056443574505,0.9981239837773737,double,-0.922307
178,0.741667,stand,-0.0007199424046017042,-0.0007199424046066999,0.00023998080151613928,0.010970462670730536,-0.0011518733896391726,0.0058424300703232325,0.0,0.0004799616030722434,-0.0009599232061428216,0.0009599232061178436,0.0002399808015361217,0.0002399808015361217,0.11518157021491292,-0.1727723553171859,-0.11518157022130987,0.0,0.17277235531758395,-0.11518157021132712,0.4031354957330359,-0.057590785105858765,0.2303631404234427,-0.02302800000000005,0.149779,-0.9223119999999999,0.002942999999999918,-0.172598,-0.9246169999999999,0.025970999999999966,0.322377,0.0023050000000000015,0.9751612887149036,0.9983030794788341,double,-0.9223119999999999
179,0.745833,stand,-0.0014402304368580138,-0.0014402304368696728,0.0009601536245808924,0.006221222059270907,0.0015233301223330606,0.012509871379356833,-0.0007201152184290069,-0.0002400384061452231,0.0004800768122904462,-0.0016802688429832496,-0.0007201152184356692,-0.0002400384061452231,-0.17289679122811066,-0.17289679122971013,0.1728691365973962,-0.1728553092724451,-0.17282765463693373,0.34565530927346777,-0.6337474913828832,-0.23045991838017046,-0.1152230455308076,-0.023025000000000073,0.149784,-0.922314,0.002942,-0.172595,-0.9246219999999999,0.025967000000000073,0.32237899999999997,0.0023079999999999767,0.9754230975409044,0.9969270500289047,double,-0.922314
180,0.75,stand,-0.0019198464122889224,-0.0011999040076789112,0.0,-0.006444509418152015,0.023361937592882305,-0.017321835701538585,-0.0011999040076872372,0.0007199424046083459,-0.0009599232061444612,0.0014398848092033701,0.0007199424046083459,0.0004799616030722306,-0.11509862621332013,0.057673729107453754,-0.23041843642449844,-0.11514009821411728,0.2303769644237009,-0.34557235863568425,0.7487769743668337,0.3455861826359501,0.17278617931784213,-0.023022000000000098,0.149792,-0.922318,0.0029559999999999587,-0.172587,-0.92462,0.025978000000000057,0.32237899999999997,0.0023020000000000262,0.9741517991313127,0.9972002239820976,double,-0.922318
181,0.754167,stand,0.00743940484758627,-0.009599232061436286,0.005999520038409543,0.12548318989902374,0.03304255267352892,0.05050321448318251,0.0009599232061711044,0.0,0.0007199424046083459,-0.000959923206117818,-0.0002399808015361153,-0.0014398848092150266,2.2460406191204996,-2.0156774787034584,1.4397696276480676,0.5183170659607211,-0.1727723553175763,0.4031354957410113,-0.5759078510489969,-0.23036314042343506,-0.4607262808464705,-0.023048999999999875,0.14983200000000002,-0.92234,0.0029210000000001735,-0.17254799999999998,-0.924651,0.02597000000000005,0.32238,0.002310999999999952,0.9748901599871636,0.9970881889891925,double,-0.92234
182,0.758333,stand,-0.006240998559735826,0.0079212674027857,-0.0064810369659143606,-0.1091029142228952,-0.029111347370317484,-0.046666585507294814,0.0,0.0,0.0,0.0,-0.0004800768122904462,0.0007201152184340036,-3.283822229313991,4.205592766255874,-2.995813011119514,-0.23041843643089382,0.0,-0.17281382731837383,0.23041843641810306,-0.057632263743238286,0.5184829639099925,-0.023023000000000016,0.14979900000000002,-0.922313,0.002947000000000033,-0.172583,-0.924621,0.02597000000000005,0.322382,0.0023079999999999767,0.97692,0.9985575486976068,double,-0.922313
183,0.7625,stand,0.00047996160303227857,-0.0026397888168956736,-0.0007199424046017042,0.0058271630526583774,0.0038342595396609657,0.00764499374735458,0.0009599232061178436,0.0007199424046050347,0.0009599232061428216,0.00047996160303227857,0.0,0.0002399808015361217,1.6129014069518195,-2.5344507366646445,1.3825520905478201,0.23036314041705347,0.17277235531678628,0.2303631404230477,0.11518157020213288,0.1152092182122523,-0.11522304221211689,-0.023020999999999958,0.149813,-0.9223060000000001,0.002947000000000033,-0.172572,-0.924617,0.02596799999999999,0.322385,0.002310999999999952,0.9743289551886412,0.9991056443575101,double,-0.9223060000000001
184,0.766667,stand,0.004319654427663397,-0.01007919366450685,0.007919366450671823,0.11140167059620143,0.05810155301955712,0.03503895682560779,0.0004799616030855522,-0.0007199424046050155,0.0002399808015361153,0.0,-0.0007199424046083459,-0.0002399808015361153,0.9214525617065248,-1.7853143382796066,2.0732682638045263,-0.11518157020213289,-0.34554471063355874,-0.17277235531718282,-0.11518157020212981,-0.1727723553175763,-0.11518157021171907,-0.023036999999999974,0.149852,-0.922338,0.0029289999999999594,-0.172533,-0.924651,0.025965999999999934,0.32238500000000003,0.0023130000000000095,0.97537345676874,0.9987351901207218,double,-0.922338
