frame_id,timestamp,gait_type,root_linear_velocity_x,root_linear_velocity_y,root_linear_velocity_z,root_angular_velocity_x,root_angular_velocity_y,root_angular_velocity_z,left_linear_velocity_x,left_linear_velocity_y,left_linear_velocity_z,right_linear_velocity_x,right_linear_velocity_y,right_linear_velocity_z,root_acceleration_x,root_acceleration_y,root_acceleration_z,left_acceleration_x,left_acceleration_y,left_acceleration_z,right_acceleration_x,right_acceleration_y,right_acceleration_z,left_pos_rel_x,left_pos_rel_y,left_pos_rel_z,right_pos_rel_x,right_pos_rel_y,right_pos_rel_z,step_length,step_width,step_height,left_contact_prob,right_contact_prob,support_type,max_foot_height
1,0.004167,stand,-0.01967842572597493,0.021118310535151667,-0.015598752099827633,-0.10548674165976998,0.036909491022990466,0.24377140804317712,0.008639308855273574,0.005519558435324034,0.007439404847612139,0.00047996160308555594,-0.00023998080154277797,-0.002159827213823389,0.0,0.0,0.0,0.0,0.0,0.0,0.0,0.0,0.0,-0.1016109999999999,-0.05363899999999999,-0.920827,0.18275700000000006,0.10042399999999996,-0.915102,0.28436799999999995,0.15406299999999995,0.00572499999999998,0.9788886597546063,0.939040849333848,double,-0.915102
2,0.008333,stand,-0.019443110897743095,0.011041766682666944,-0.013682189150257738,0.06316951256145048,-0.0590581752510341,0.21287525160296877,-0.008161305808950914,0.0014402304368580146,-0.003120499279884571,-0.004080652904448808,0.0009601536245808929,0.0014402304368705066,0.05648459631104996,-2.4187575258004617,0.46004871569128536,-4.0327927662564775,-0.9791953908943876,-2.5347825558081394,-1.094722637430236,0.28807835480645,0.8641521005026153,-0.10156399999999999,-0.05367900000000003,-0.920783,0.18282100000000012,0.10038199999999997,-0.915039,0.2843850000000001,0.154061,0.005743999999999971,0.9852409451546378,0.9351723438499919,double,-0.915039
3,0.0125,jog,0.0429565634749583,-0.04175665946724441,-0.03335733141348697,-0.5535648392675411,0.31644627586375046,-0.16890325720568966,0.0,0.004079673626120652,-0.00527957763378958,-0.002159827213858358,0.00047996160308555583,-0.0002399808015361171,14.97472387153861,-12.67060862728854,-4.721656410662162,1.9585567096114502,0.6334156921676594,-0.5181373539488863,0.4609612888386008,-0.11523686620958412,-0.40321843974241023,-0.10174300000000014,-0.05348799999999998,-0.920666,0.18263299999999982,0.10055800000000004,-0.914901,0.28437599999999996,0.15404600000000002,0.00576500000000002,0.9888797386013344,0.9386408493337927,double,-0.914901
4,0.016667,stand,-0.015358771298311494,0.01151907847373362,-0.038396928245752096,-0.10086136927496993,-0.2494308275559691,0.16016724312972033,-0.006719462442984636,0.010559155267589153,0.0050395968322534635,-0.001439884809203381,0.001439884809203381,0.0002399808015361171,-13.99456078072229,12.785154293491248,-1.209406487224652,-1.6125419829576757,1.5549511978566115,2.4764037595495663,0.1727723553287682,0.23036314041704464,0.11518157021171925,-0.10170699999999999,-0.053491999999999984,-0.920485,0.18269099999999994,0.10051599999999994,-0.91474,0.28439799999999993,0.15400799999999992,0.005745,0.9775126905097691,0.9391326718881496,double,-0.91474
5,0.020833,stand,-0.03480556889103739,0.03024483917425816,0.11689870379261048,0.12620415017093956,0.793673019798615,0.9310686844203899,0.003600576092145037,0.004320691310600694,0.0004800768122900302,-0.0024003840614655577,-0.00024003840612523607,0.00024003840614439048,-4.667978298782021,4.494901752406275,37.276915995766345,2.4772056013273343,-1.4974709450284347,-1.0944599183781647,-0.23055670961646108,-0.4032460910534367,1.3827318356550426e-05,-0.10154700000000005,-0.05359999999999998,-0.92097,0.18282599999999993,0.10038900000000006,-0.915226,0.284373,0.15398900000000004,0.005743999999999971,0.9905921139252272,0.938519551552881,double,-0.915226
6,0.025,stand,-0.009599232061444684,0.01391888648908147,0.007919366450698524,-0.07767222862297071,0.0415023929683469,0.3707610319356314,0.011279097672217487,-0.0004799616030589126,0.002879769618430491,-0.0009599232061178252,-0.0011999040076872464,-0.0007199424046075187,6.049036916148958,-3.917915211225507,-26.152948726160773,1.8426977633963157,-1.1520645341155762,0.5758802030574659,0.34568295064740395,-0.23034931642956807,-0.23037696442330433,-0.10145999999999988,-0.05365999999999993,-0.920991,0.18286200000000008,0.10032600000000003,-0.915262,0.28432199999999996,0.15398599999999996,0.005728999999999984,0.9805819756915938,0.9398817991313384,double,-0.915262
7,0.029167,stand,-0.013198944084453148,0.014398848092167038,0.0023998080153478513,-0.056891438153803604,0.0474396889813391,0.306486547430156,-0.0009599232061711124,-0.003599712023061742,-0.0031197504199661943,-0.0014398848092033823,0.0002399808015427781,-0.0014398848092150385,-0.8638617765799057,0.11518157021491934,-1.3245880574395672,-2.9371300404100333,-0.7486802063841689,-1.4397696276449938,-0.11518157021491658,0.345544710638355,-0.17277235531737947,-0.10140900000000008,-0.05373500000000009,-0.921014,0.18291100000000005,0.100267,-0.915278,0.28432000000000013,0.15400200000000008,0.005735999999999963,0.9919012652062189,0.9392226718881348,double,-0.915278
8,0.033333,jog,-0.06649063850218016,0.060009601536239146,0.014882381180990506,0.14206630142007226,-0.08850035364821632,0.6327103996246269,0.0043206913106273405,0.0031204992798945625,0.00792126740278445,-0.0002400384061785351,0.0007201152184290069,0.0009601536245800595,-12.792053388796681,10.948332559786865,2.996296967268998,1.2675502920783601,1.6131088101191309,2.6502683203914157,0.2880092182008752,0.11525070016472118,0.5761014003348767,-0.10111399999999993,-0.05397200000000002,-0.921043,0.183187,0.10002,-0.915336,0.2843009999999999,0.15399200000000002,0.005706999999999907,0.984087708592275,0.9408900658050864,double,-0.915336
9,0.0375,stand,-0.033837293016545915,0.033357331413487,0.0028797696184334077,0.07703782770246091,-0.021169370171771583,0.44728241668586344,0.00599952003838295,0.0019198464122889385,0.0009599232061432203,-0.0026397888168906295,0.0028797696184334077,-0.0009599232061436366,7.836176022470427,-6.396033146808775,-2.880396343306241,0.40288666372824833,-0.28813363753434723,-1.6705889600770902,-0.5758940270487392,0.5182755939535403,-0.4607815768475396,-0.10094800000000004,-0.05410300000000001,-0.921051,0.18331699999999995,0.09989300000000001,-0.9153519999999999,0.284265,0.15399600000000002,0.00569900000000001,0.9893801151529273,0.9363053145291425,double,-0.9153519999999999
10,0.041667,stand,0.018478521718287663,-0.02663786897047567,-0.02711783057356123,-0.19795268409460073,0.19844275578154721,0.04295713584523222,0.006239500839952361,0.0011999040076872453,-0.0026397888168943717,-0.0016798656107195142,0.0009599232061444676,-0.0014398848092150361,12.554791153067802,-14.39769627644891,-7.198848138227647,0.057590785113849574,-0.17277235531598092,-0.8638617765868942,0.23036314042983305,-0.46072628084687745,-0.11518157021151885,-0.10099900000000006,-0.05398700000000001,-0.920949,0.18323299999999998,0.10000799999999999,-0.915245,0.28423200000000004,0.153995,0.005704000000000042,0.9885327004344684,0.9389403713218822,double,-0.915245
11,0.045833,stand,-0.030004800768159597,0.021123379740753016,-0.004080652904448812,0.10428552311813749,-0.012183136629740505,0.37092711747098905,-0.0014402304368580162,0.0019203072491617878,0.0043206913106094424,-0.0016802688430365515,-0.0014402304368846656,-0.0007201152184348376,-11.637859454260035,11.464534016137478,5.529807409772549,-1.8434304553073415,0.1729244458652288,1.6707825558098466,-9.679124268778233e-05,-0.5761290549757887,0.1727723453625058,-0.10087999999999986,-0.054066999999999976,-0.920914,0.18335100000000004,0.09991399999999995,-0.915231,0.2842309999999999,0.15398099999999992,0.005682999999999994,0.991762177835669,0.9392912355117076,double,-0.915231
12,0.05,stand,-0.03119750419965523,0.015838732901370393,-0.007919366450698519,0.04824201406786737,0.004777984930450845,0.30460269997882466,0.0007199424046016899,0.0016798656107461574,0.0002399808015361169,-0.0011999040076872453,0.0011999040076872453,-0.002159827213823387,-0.28622592548491316,-1.2682137843490804,-0.9212175536956333,0.518400009949533,-0.05770137710958246,-0.9792921788032929,0.11527833821677605,0.6335815801708444,-0.34550323863416077,-0.10074699999999992,-0.05412600000000001,-0.9208799999999999,0.18347599999999997,0.09985299999999997,-0.915207,0.2842229999999999,0.15397899999999998,0.005672999999999928,0.9969277874778657,0.9386921569705264,double,-0.915207
13,0.054167,stand,-0.021838252939780013,0.027597792176620187,-0.0014398848092033823,0.038961609644319356,-0.01027514719089787,0.40801700614053876,-0.0011999040076872472,-0.0011999040076872472,0.0007199424046075193,-0.0019198464122889385,-0.0004799616030855562,-0.000479961603071402,2.246040619120524,2.821948470182338,1.5549511978630048,-0.4607262808468775,-0.6910894212703159,0.11518157021151973,-0.1727723553159812,-0.403135495745813,0.4031354957408174,-0.10066099999999989,-0.054246000000000016,-0.920871,0.18355900000000003,0.09973599999999994,-0.915203,0.2842199999999999,0.15398199999999995,0.005668000000000006,0.9969277874778373,0.9399261589575796,double,-0.915203
14,0.058333,stand,-0.02712433989433692,0.022083533365333873,0.0019203072491617847,0.10518056526901928,0.03058731980195214,0.36081486457297823,0.00024003840612523588,0.006240998559762475,0.0,-0.0009601536245542427,0.0007201152184556565,0.0,-1.2688638873156275,-1.3236338961320955,0.8065751460310044,0.34564148195210803,1.7861023925707435,-0.1728138273181754,0.2303631271566719,0.2880645274942899,0.11520921821205032,-0.10054700000000016,-0.05431200000000003,-0.920879,0.18366799999999994,0.09964700000000004,-0.915211,0.2842150000000001,0.15395900000000007,0.005668000000000006,0.989590645038213,0.9413196799488053,double,-0.915211
15,0.0625,stand,-0.023278137748983397,0.01943844492440552,-0.0004799616030855562,0.14862716600805856,0.031368015519724596,0.4108280413613772,0.0019198464122889385,0.0009599232061444692,-0.0016798656107511558,-0.0009599232061711124,0.0002399808015161349,-0.0002399808015361173,0.9230146737109496,-0.6347704441872702,-0.5760184430639171,0.40312167174554925,-1.2673566963326157,-0.4031354957406184,5.5295988272202475e-05,-0.11522304222210748,-0.05759078510585972,-0.10044200000000014,-0.05438900000000002,-0.9208839999999999,0.18376099999999984,0.09956699999999996,-0.91521,0.284203,0.15395599999999998,0.005673999999999957,0.9954572367444174,0.9415630794787583,double,-0.91521
16,0.066667,stand,-0.027597792176646783,0.024478041756670604,0.006479481641468495,0.142276445038444,-0.051692722583182506,0.429158709749589,-0.0028797696184067597,0.0038396928245778704,0.006239500839932795,-0.0009599232061178244,0.0007199424046283331,-0.0007199424046075181,-1.0366341319086592,1.2094064872246408,1.670132768071525,-1.1518157021107975,0.691089421270314,1.900495908491467,1.2788095674724321e-11,0.11518157022130975,-0.11518157021151915,-0.10033899999999996,-0.05447500000000005,-0.920885,0.18387200000000004,0.099468,-0.9152399999999999,0.284211,0.15394300000000005,0.005645000000000011,0.9868800740206043,0.9412178058176082,double,-0.9152399999999999
17,0.070833,stand,-0.019443110897743147,0.01536245799326768,-0.002160345655287028,0.04496638671608571,0.020366514684194963,0.30857546716848283,0.0007201152184290093,-0.0016802688430099047,-0.00048007681229003137,-0.0007201152184290093,0.00048007681227712297,-0.0007201152184348388,1.9574366968083672,-2.1880901976483313,-2.07389037368112,0.8641106185395531,-1.3250028006691765,-1.6129567096070196,0.057563127145659095,-0.057576954477006906,-4.148195566988585e-05,-0.10025499999999998,-0.05454599999999998,-0.9208780000000001,0.18395000000000006,0.099406,-0.9152340000000001,0.28420500000000004,0.15395199999999998,0.005643999999999982,0.9968498928332596,0.9416835334614401,double,-0.9152340000000001
18,0.075,stand,-0.027837772978162915,0.020398368130549953,-0.003359731221518958,0.0823264901717032,-0.040913813322182885,0.3646673819898072,-0.013198944084453126,0.006479481641468495,-0.0009599232061432187,-0.0004799616030855554,0.0009599232061444676,-0.001679865610751153,-2.014557734681968,1.2085217512076478,-0.28782950953490016,-3.3403070081310586,1.9581834615978864,-0.11515392221098797,0.05763225710186073,0.11515392221438545,-0.2303216684224414,-0.1001939999999999,-0.054603999999999986,-0.920868,0.184064,0.099325,-0.915227,0.2842579999999999,0.15392899999999998,0.005641000000000007,0.9754418343604674,0.9402676162455268,double,-0.915227
19,0.079167,stand,-0.012239020878335302,0.020398368130549953,-0.006239500839925718,0.0037162255070441103,0.01568722561192826,0.3981683673728053,0.0028797696184067597,0.0009599232061444676,0.0026397888168943717,0.00023998080151613449,-0.0002399808015427777,0.0002399808015352843,3.7434010318760738,0.0,-0.6910894212639206,3.8585826020782026,-1.3245880574331708,0.863861776586894,0.17277235531598015,-0.2879539255308961,0.46072628084627676,-0.10013099999999997,-0.054684999999999984,-0.920831,0.18411599999999995,0.09923899999999997,-0.9152,0.2842469999999999,0.15392399999999995,0.005630999999999942,0.9932953145291699,0.9429972350981776,double,-0.9152
20,0.083333,stand,-0.03480556889103736,0.0316850696111428,-0.017042726836304176,0.037629488590586145,-0.1057468798395499,0.30192318678136587,0.008881421027379916,-0.0031204992798945625,-0.00048007681229002974,0.000480076812303771,-0.0016802688430098993,-0.0019203072491592863,-5.416838217163235,2.7092418340357267,-2.5931891493947314,1.4406268384477081,-0.9794581099469581,-0.7488875730159383,0.05763226375123291,-0.345724445863447,-0.518552100502777,-0.09994899999999984,-0.054830000000000045,-0.920762,0.18426300000000007,0.09909999999999997,-0.915137,0.2842119999999999,0.15393,0.005624999999999991,0.9842901632932397,0.9394226460928199,double,-0.915137
21,0.0875,stand,-0.022078233741296183,0.020158387329007245,-0.0040796736260940185,0.05032967315469531,-0.00302518024189541,0.3411006852973475,0.0007199424046016923,0.0007199424046283355,0.004799616030717774,-0.0016798656107195199,0.0002399808015427785,-0.0009599232061436382,3.054316090650637,-2.7661824531162904,3.110883899738466,-1.9585981816122495,0.9216322737036015,1.2670249203282498,-0.5183447139484751,0.4608230488487358,0.2304737324251621,-0.09985399999999989,-0.05491099999999993,-0.920725,0.18434800000000018,0.09901700000000002,-0.915124,0.28420200000000007,0.15392799999999995,0.005600999999999967,0.9918226348691022,0.9407406445866227,double,-0.915124
22,0.091667,stand,-0.01343892488596926,0.015598752099827615,-0.009359251259901898,-0.08661868841845148,0.07081880600903488,0.27338933071363714,0.002639788816890625,0.0014398848092033799,-0.0002399808015361169,0.0009599232061178244,0.0002399808015427777,-0.001199904007679752,2.0732682638173543,-1.0942249170097493,-1.2669972723321032,0.46072628084687567,0.1727723553095857,-1.209406487221955,0.6334986361500701,-1.951407797850078e-16,-0.05759078510585877,-0.09978700000000007,-0.05496999999999996,-0.920687,0.1844079999999999,0.09895300000000007,-0.9150900000000001,0.284195,0.15392300000000003,0.005596999999999963,0.9949724801656115,0.941437911087774,double,-0.9150900000000001
23,0.095833,jog,-0.03792606817093192,0.0499279884781531,0.009361497839657038,0.21693708158886338,-0.11809335297443449,0.5102131720222366,0.0019203072491617847,-0.0012001920307327777,-0.0014402304368696728,-0.0024003840614655555,-0.0014402304368846632,-0.0012001920307244498,-5.877854845166261,8.240335184427618,4.493698775698253,-0.1727032087683245,-0.6337198367585588,-0.2881060094415639,-0.8066028006681175,-0.403315227659011,-6.913659258229912e-05,-0.09962099999999996,-0.05518299999999998,-0.920732,0.18455599999999994,0.09873900000000002,-0.915134,0.2841769999999999,0.153922,0.005597999999999992,0.9955271483887347,0.9389437567848737,double,-0.915134
24,0.1,jog,-0.08927285817135555,0.08591312694986324,-0.009599232061444677,0.07805806890178052,-0.23536013935566427,0.7371643733073153,0.0009599232061178244,-0.0004799616030589122,-0.0002399808015361169,0.0004799616030855554,-0.0002399808015427777,-0.0007199424046075181,-12.322243820596011,8.635742373820518,-4.550211159371658,-0.2304737324319557,0.17284147532370167,0.28803686953049074,0.6912276612793636,0.28803686953248964,0.11525069021284647,-0.09924500000000003,-0.05554300000000001,-0.920693,0.18493000000000004,0.09837999999999991,-0.9150969999999999,0.28417500000000007,0.15392299999999992,0.005596000000000045,0.9981671163527561,0.9425434567687336,double,-0.9150969999999999
25,0.104167,jog,-0.07103431725458427,0.013678905687538727,0.0431965442764479,0.5696220696460002,0.2219221354708089,0.6590846059786927,-0.012479001679851477,0.005759539236866825,-0.00191984641228686,-0.0016798656107728062,0.0002399808015427785,-0.0019198464122872764,4.376899668051673,-17.334826316852574,12.669972723276386,-3.2250839659153665,1.4973604127491604,-0.40313549574052004,-0.5183170659607311,0.11518157021491657,-0.2879539255291003,-0.09900100000000012,-0.05557599999999996,-0.920881,0.1852189999999998,0.09832399999999997,-0.9152849999999999,0.2842199999999999,0.15389999999999993,0.005596000000000045,0.9768709186548433,0.9397695103383353,double,-0.9152849999999999
26,0.108333,stand,-0.03816610657705716,0.016562650024000404,0.0036005760921983335,0.15352391782916913,0.20667588371165482,0.3727450229113028,-0.0038406144983235695,0.0026404224675907915,-0.00048007681229002974,-0.0016802688429832496,0.0,0.00048007681228961336,7.889632903871121,0.6922093942538825,-9.504553092714724,2.073544690717211,-0.7487078178771078,0.3455999999992389,-9.67912171011314e-05,-0.05760460910772404,0.5760737456977647,-0.09885800000000011,-0.05563399999999996,-0.920898,0.18537099999999995,0.09825499999999998,-0.9152980000000001,0.28422900000000006,0.15388899999999994,0.005599999999999938,0.9921910620515495,0.9410874900427455,double,-0.9152980000000001
27,0.1125,jog,-0.04031677465806764,0.035757139428834794,-0.020398368130549953,0.10910364835742738,0.00861283197636991,0.33489431043381357,-0.0021598272138050696,0.0023998080153478474,0.0028797696184304886,0.0004799616030855554,-0.0016798656107461574,-0.0014398848092150361,-0.5161190499185223,4.606308952444054,-5.759285870589936,0.40335667975005957,-0.05774284911037771,0.8062986394817651,0.5184138339497968,-0.40313549573941826,-0.46075392884680766,-0.09869899999999987,-0.05577299999999996,-0.9208010000000001,0.18554100000000018,0.09809900000000005,-0.915219,0.28424000000000005,0.153872,0.005582000000000087,0.9927894742911537,0.940406709410426,double,-0.915219
28,0.116667,jog,-0.03935685145184324,0.03743700503960759,-0.024238060955127823,0.08370021976634676,-0.00042369207330788486,0.31979196166658136,0.0035997120230084494,-0.0002399808015427777,0.0004799616030718175,0.00023998080151613449,0.0004799616030855554,0.0002399808015361169,0.23036314044262038,0.403135495745811,-0.9214525616937524,1.3821788425278412,-0.6334986361628564,-0.5759078510579959,-0.05759078511385186,0.5183170659543342,0.4031354957406171,-0.09852000000000016,-0.055930000000000035,-0.920698,0.18570599999999993,0.09794500000000006,-0.9151170000000001,0.2842260000000001,0.1538750000000001,0.005580999999999947,0.9939341849100142,0.9432102824802828,double,-0.9151170000000001
29,0.120833,stand,-0.03312530004800092,0.03504560729716271,-0.022323571771485834,0.04873077805008213,0.024763677640189694,0.2982257516986214,0.003120499279894573,0.0,0.0,-0.0012001920307327819,0.0,0.0,1.4958116667888475,-0.5740273025551815,0.45955093222323423,-0.11502946306142049,0.05760460910772403,-0.11520921821215045,-0.34569679122633706,-0.11520921821544806,-0.057604609106125186,-0.09836900000000015,-0.056076000000000015,-0.920605,0.18583899999999987,0.09779900000000008,-0.9150240000000001,0.284208,0.1538750000000001,0.005580999999999947,0.9947991678668424,0.9421896799487787,double,-0.9150240000000001
30,0.125,stand,-0.026157907367443403,0.026877849772018448,-0.02087832973363551,0.047675561068912166,0.040134395297851753,0.2791180282373796,-0.00911927045835912,-0.004799616030695695,-0.008639308855291466,0.002879769618460046,0.00023998080151613449,-0.00191984641228727,1.6720404800953945,-1.9601049976348104,0.3468303426566646,-2.9373097524006915,-1.1518157021107966,-2.073268263808845,0.979112466808933,0.057590785101064135,-0.46072628084647665,-0.098298,-0.056207999999999925,-0.920554,0.18596000000000013,0.097688,-0.914945,0.2842580000000001,0.15389599999999992,0.005608999999999975,0.9775875118372759,0.9381277296636678,double,-0.914945
31,0.129167,stand,-0.018478521718234376,0.028317734581248474,-0.01295896328293699,-0.004698163911382605,0.038588838646370326,0.309503945923763,0.00455963522917956,0.004799616030695695,0.006959443244540313,0.00023998080151613449,0.0007199424046016899,-0.000959923206143635,1.8429051234002927,0.34554471063835474,1.9004959084949635,3.2826747510291976,2.3036314042215933,3.743401031877073,-0.6334986361756441,0.115181570214916,0.23036314042323833,-0.09820200000000012,-0.05630600000000008,-0.9204709999999999,0.18603799999999993,0.09757299999999991,-0.914895,0.28424000000000005,0.153879,0.005575999999999914,0.9839912838203628,0.942200555350147,double,-0.914895
32,0.133333,stand,-0.021603456553083402,0.023763802208343773,-0.0158425348055714,-0.13324577281705105,0.0302613604996673,0.22665030532754138,0.0040806529044488055,0.0021603456553136702,0.0026404224675949557,0.0016802688430365487,0.0014402304368846632,-0.0012001920307244498,-0.7501043770640959,-1.0931186684840848,-0.6921679122982255,-0.11497415379998903,-0.6335262542923722,-1.0367308634050298,0.3457244458762394,0.172896791234511,-0.057673745698707285,-0.09809500000000004,-0.056396,-0.9203939999999999,0.18613500000000016,0.09748000000000001,-0.9148339999999999,0.2842300000000002,0.153876,0.005560000000000009,0.991135173705343,0.9402040932622036,double,-0.9148339999999999
33,0.1375,stand,-0.015358771298258194,0.018958483321346573,-0.013438924885995903,-0.1742268999386727,0.11273232606909196,0.18058250039253765,0.002159827213858356,0.0009599232061444676,0.002399808015358671,0.0021598272138050696,-0.0009599232061444676,-0.002159827213823387,1.498604572792225,-1.153184278137076,0.5768202350793122,-0.4609612888386004,-0.2880783415332857,-0.05774284910877953,0.11508480220026887,-0.5759907950633858,-0.23029402042211095,-0.09802200000000005,-0.05647100000000005,-0.920328,0.18620799999999993,0.09739699999999996,-0.914787,0.28423,0.153868,0.005541000000000018,0.9943861815663892,0.9392537612734666,double,-0.914787
34,0.141667,stand,-0.009599232061444739,0.017998560115175585,0.000959923206144474,-0.02757741371431395,0.0582663091105697,0.2039335625690391,-0.0011999040076872533,-0.0011999040076872533,0.0,0.0004799616030855586,0.0,-0.0004799616030714044,1.382178842527835,-0.23036314042980405,3.455447106345203,-0.8062709914916315,-0.5183170659543397,-0.5759078510579997,-0.4031354957330263,0.23036314042343967,0.40313549574081886,-0.09798700000000005,-0.05655100000000002,-0.920332,0.18625000000000003,0.09732200000000002,-0.914793,0.2842370000000001,0.15387300000000004,0.005539000000000072,0.9971717991313047,0.9434787196525134,double,-0.914793
35,0.145833,stand,-0.010801728276541701,0.02232357177148576,-0.004080652904475455,-0.19392947437570762,-0.04691285263737435,0.24651477092355623,0.0026404224675907915,-0.0040806529044488055,-0.0014402304368696728,0.0026404224675907915,0.0007201152184290069,-0.001920307249160119,-0.2886452748672494,1.0381689045391678,-1.2099318556456855,0.9218258462021225,-0.6914903736825612,-0.34571061854768886,0.5185935824544482,0.1728553092724451,-0.3457382731850009,-0.09793099999999999,-0.05666099999999996,-0.920321,0.18630600000000008,0.09723199999999999,-0.9147839999999999,0.2842370000000001,0.15389299999999995,0.005537000000000014,0.9915511633533843,0.9390577531296342,double,-0.9147839999999999
36,0.15,stand,-0.008639308855273566,0.01247900167987808,0.0004799616030855554,-0.13416109766899226,-0.037966365007103084,0.22957785324812097,-0.010079193664530231,-0.0009599232061444676,-0.0057595392368613935,0.005759539236866806,0.0002399808015427777,-0.002639788816894788,0.5189391459726742,-2.3625078213601327,1.09445992502064,-3.052463674615073,0.7489152143758904,-1.0365511879029796,0.7485281423748528,-0.11522304220931816,-0.17266176331525518,-0.09793700000000016,-0.05671700000000002,-0.920347,0.18636600000000003,0.09718099999999996,-0.914797,0.2843030000000002,0.15389799999999998,0.005550000000000055,0.980586095353119,0.9339329695115315,double,-0.914797
37,0.154167,stand,-0.006479481641468495,0.013198944084453126,0.0021598272138050696,-0.14848797770843347,-0.05526665389957392,0.3114568820526478,0.005999520038436227,0.0004799616030589122,0.004559635229181642,0.005039596832211829,-0.0009599232061444676,0.0007199424046083507,0.5183170659479406,0.17277235530958623,0.4031354957330244,3.8585826021037777,0.3455447106319603,2.476403759549562,-0.1727723553287679,-0.2879539255308961,0.806270991481434,-0.097885,-0.05676999999999999,-0.920337,0.18641399999999986,0.09712200000000004,-0.9148029999999999,0.28429899999999986,0.15389200000000003,0.005534000000000039,0.9874153005978596,0.9360258774719001,double,-0.9148029999999999
38,0.158333,stand,-0.009121459433505152,0.007441190590495253,0.0021603456553136702,-0.08819689563109803,-0.07081689373032904,0.2536215194059468,-0.0067210753720928955,-0.0036005760921716838,-0.00048007681228961336,0.0038406144983235695,0.0031204992798945625,-0.003120499279885402,-0.6341761382709206,-1.382081971665355,0.0001244458734038995,-3.0534314475585966,-0.9794857645776747,-1.2097244458644387,-0.2878018084225298,0.9794581099469581,-0.9218535008386342,-0.09787500000000016,-0.05681599999999998,-0.9203479999999999,0.18646799999999986,0.09710400000000008,-0.914825,0.284343,0.15392000000000006,0.005522999999999945,0.9872668983334152,0.9350195938494393,double,-0.914825
39,0.1625,stand,-0.008879289656842987,0.00911927045835912,0.013438924886022547,-0.11908875331800521,0.015151201838379534,0.2751031626280505,0.008879289656842987,-0.002639788816890625,0.004559635229181642,0.00527957763378125,0.0014398848092033799,-0.001679865610751153,0.05811609711115078,0.4027069517311893,2.70664248397141,3.743788103896297,0.23057050042741967,1.2094341352222824,0.3453235266277128,-0.4033152077492635,0.3457244226384083,-0.09780100000000003,-0.05686499999999994,-0.920385,0.1865269999999999,0.09707200000000005,-0.914888,0.2843279999999999,0.153937,0.005496999999999974,0.9827920768223946,0.9354892749045238,double,-0.914888
40,0.166667,stand,-0.011039116870648055,0.004799616030722338,0.00671946244298463,-0.008392113591202137,-0.06617438734447541,0.27467270424738455,-0.006239500839952361,-0.00527957763378125,-0.0028797696184304886,0.002879769618460046,-0.0004799616030589122,-0.0011999040076789193,-0.5183170659479401,-1.0366341319022745,-1.6125419829704608,-3.6282194616739463,-0.6334986361628564,-1.785314338279847,-0.5759078510490045,-0.4607262808404824,0.11518157021171906,-0.09778100000000012,-0.05690699999999993,-0.9204249999999999,0.186585,0.09705000000000008,-0.914921,0.2843660000000001,0.153957,0.005503999999999953,0.9855567793894193,0.9396992422853895,double,-0.914921
41,0.170833,jog,-0.042486797887684495,0.054248679788780445,0.027844455112819227,0.26312276607239277,-0.19430103232013163,0.7910661613881838,-0.003600576092145034,-0.0009601536245808924,-0.006961113778204807,0.007441190590468603,0.0014402304368580138,-0.0007201152184348364,-7.548651228285266,11.869674449845911,5.070809570291546,0.6334432904002222,1.0368276546328263,-0.9796793470413622,1.0949162198772333,0.4609198367539425,0.11516773625638081,-0.0976189999999999,-0.05713699999999999,-0.92057,0.186793,0.09682999999999997,-0.91504,0.2844119999999999,0.15396699999999996,0.005530000000000035,0.986840387099239,0.9320109685332882,double,-0.91504
42,0.175,stand,-0.025437964962788596,0.01751859851211667,0.005759539236866844,0.06694971172780231,-0.08043472193173251,0.34360811742291086,0.0016798656107195255,-0.002879769618433422,-0.00311975041996621,0.0064794816414685385,0.0014398848092033894,-0.0014398848092158783,4.091392590567794,-8.814514345251736,-5.299955813763501,1.2672046323169162,-0.4606709848458221,0.9218534577006524,-0.23079168442526282,-8.294400158971912e-05,-0.1727308833167857,-0.09750600000000009,-0.057221999999999995,-0.920607,0.18692599999999993,0.09676299999999993,-0.9150699999999999,0.284432,0.15398499999999993,0.005537000000000014,0.9923900897566599,0.9333101282312778,double,-0.9150699999999999
43,0.179167,stand,-0.02663786897047567,0.017038636909030996,-0.004319654427636783,0.06862891732547458,-0.10111304443385458,0.3381273814840022,-0.001199904007633959,-0.002879769618433403,0.0019198464122868538,0.0033597312215456012,0.003599712023061736,-0.0021598272138225543,-0.2879539255308552,-0.11518157021494413,-2.4188129744429125,-0.6910894212511356,4.5793036322881836e-15,1.2094064872217565,-0.748680206364995,0.5183170659607258,-0.1727723553171767,-0.09739999999999993,-0.05730499999999994,-0.920581,0.18705100000000008,0.0967070000000001,-0.915061,0.284451,0.15401200000000004,0.005519999999999969,0.9938947534107588,0.9358385743130204,double,-0.915061
44,0.183333,stand,-0.02064330292847586,0.010561689870389815,-0.012481997119551601,-0.10840671814292484,0.04729570504535129,0.21567082768055293,0.0026404224675907915,-0.0050408065290563474,-0.0031204992798845687,0.0028804608737160275,0.0021603456552870205,0.00048007681228961336,1.4389260782524738,-1.554716043840897,-1.9592757301763832,0.9218258461893297,-0.5187318556464098,-1.2098765463685595,-0.11504329040556249,-0.3455032087793361,0.6336783548036884,-0.09730299999999992,-0.05737000000000003,-0.920542,0.187149,0.09667199999999998,-0.915007,0.2844519999999999,0.154042,0.005534999999999957,0.9891834646866611,0.9385959329691556,double,-0.915007
45,0.1875,stand,-0.026157907367390116,0.023038156947440578,-0.010079193664503588,-0.1010354801134199,-0.03876078252698793,0.25767534165120004,-0.0007199424046016899,-0.0035997120230350926,0.0021598272138225543,0.006239500839952361,0.0019198464122889352,0.0002399808015361169,-1.3233991934039475,2.9941125694866213,0.5766266990755966,-0.8064230554817563,0.3458350146439293,1.267176984330962,0.8061051034884402,-0.05771520110345215,-0.057618433106190595,-0.09719699999999998,-0.057481000000000004,-0.920491,0.187284,0.096584,-0.914964,0.284481,0.154065,0.005526999999999949,0.992901272158514,0.9338423449413197,double,-0.914964
46,0.191667,stand,-0.02639788816895954,0.006479481641468495,-0.015118790496768704,-0.07519483294081782,0.011979811557643927,0.1974544547991362,-0.0004799616030855554,-0.002879769618433403,-0.0002399808015357006,0.005759539236866806,0.0007199424046016899,-0.0007199424046075181,-0.05759078511385228,-3.973764172299512,-1.2094064872246488,0.05759078510106415,0.1727723553159801,-0.575907851057896,-0.11518157021491603,-0.2879539255308961,-0.2303631404232383,-0.09708899999999998,-0.057520000000000016,-0.9204289999999999,0.18741800000000008,0.09655999999999998,-0.9149039999999999,0.28450700000000007,0.15408,0.005525000000000002,0.9951177683322314,0.9350019337597278,double,-0.9149039999999999
47,0.195833,stand,-0.024723955832924666,0.007681228996647139,-0.017762842054706535,-0.12958411180382368,0.04167109496106203,0.15232948927482695,0.00024003840612523588,-0.004800768122877812,-0.00048007681229002974,0.00600096015361059,0.000480076812303771,-0.0012001920307252827,0.40180804993635905,0.28846551972603046,-0.6346739217325562,0.17282765463533142,-0.46111341921373195,-0.05763226374323787,0.0579502920652386,-0.057576954464214784,-0.11527835480503222,-0.0969850000000001,-0.05757199999999996,-0.9203570000000001,0.187546,0.09653,-0.9148350000000001,0.2845310000000001,0.15410199999999996,0.005522000000000027,0.9919488670997745,0.9345489935569544,double,-0.9148350000000001
48,0.2,stand,-0.023758099352068913,0.00527957763378125,-0.01751859851211655,-0.14596625103645708,0.028551335530809536,0.16790805207478085,0.0014398848092033799,-0.0011999040076872453,0.0002399808015361169,0.005519558435297385,0.0021598272138317128,0.002639788816894788,0.23178701244438474,-0.576350219070287,0.05861376112070668,0.2879401015306318,0.8641382565852083,0.1728000033180096,-0.1155271702215514,0.4031078477388865,0.9215216816942805,-0.09688000000000008,-0.057598999999999956,-0.9202830000000001,0.18766799999999995,0.09651700000000007,-0.9147510000000001,0.284548,0.15411600000000003,0.005531999999999981,0.996850648798498,0.933866060447522,double,-0.9147510000000001
49,0.204167,stand,-0.03143748500117158,0.012958963282937077,-0.00815934725224135,-0.07179692428100647,-0.06362963370132436,0.24597597189322692,0.00023998080156942253,-0.005519558435324065,-0.0009599232061436414,0.005999520038436267,0.00023998080151613608,-0.0021598272138225686,-1.84290512337478,1.842905123387538,2.246040619120531,-0.28795392551810994,-1.0366341319022903,-0.2879539255291013,0.11518157022771408,-0.4607262808532728,-1.151815702116003,-0.09674800000000006,-0.05767599999999995,-0.920253,0.187824,0.096464,-0.9147259999999999,0.28457200000000005,0.15413999999999994,0.00552700000000006,0.9906540905163197,0.9340950621547208,double,-0.9147259999999999
50,0.208333,stand,-0.026884301488264987,0.007681228996647139,-0.006721075372039597,-0.07693660401301934,-0.026256042726211033,0.22319478972514453,0.000480076812303771,-0.006240998559762475,0.0024003840614497322,0.006961113778164833,-0.0007201152184290069,-0.0007201152184348364,1.0929389133237128,-1.2668589261377663,0.3452404897267768,0.057632263738441734,-0.17317333759923423,0.8066028006705164,0.2308194286434386,-0.23045991837377394,0.34558617268068437,-0.09663399999999989,-0.05773399999999995,-0.920215,0.18796499999999994,0.09642899999999999,-0.9147010000000001,0.2845989999999998,0.15416299999999994,0.005513999999999908,0.9888268202562353,0.9331346432311811,double,-0.9147010000000001
51,0.2125,stand,-0.03215742740582634,-0.0004799616030855554,-0.0011999040076872453,-0.05570714402053847,-0.0031401626130417195,0.2098874123150676,0.01415886729057095,-0.013678905687565324,-0.01247900167986559,0.0043196544276634255,0.0004799616030855554,-0.0014398848092158688,-1.26544898429598,-1.958529061610916,1.3249751294342085,3.2826471030158784,-1.7849549142795396,-3.5707669165623486,-0.6338995321577645,0.2879953975316921,-0.17273088331678227,-0.096441,-0.05778899999999998,-0.920262,0.1881170000000001,0.0964330000000001,-0.914702,0.2845580000000001,0.15422200000000008,0.005560000000000009,0.9611515956752906,0.936769096860885,double,-0.914702
52,0.216667,stand,-0.02879769618428074,0.009359251259901898,0.004799616030722338,-0.08165301215601,-0.05541953331684703,0.23863769949031508,0.005519558435350671,-0.010079193664503588,-0.008879289656827582,0.003599712023061736,-0.0026397888169172683,0.0004799616030722338,0.8062709914916236,2.361222189341839,1.439769627648087,-2.0732682637917614,0.8638617765926885,0.8638617765869939,-0.1727723553159801,-0.7486802063841663,0.46072628084667644,-0.096298,-0.05786999999999998,-0.920319,0.18825200000000009,0.096383,-0.91472,0.2845500000000001,0.15425299999999997,0.005599000000000021,0.9757961518751859,0.9365272838436909,double,-0.91472
53,0.220833,stand,-0.034565530484858824,0.002640422467617441,0.004800768122904461,0.027814659512470953,-0.040041871382834715,0.2287974954071786,0.003600576092145034,-0.002880460873742677,-0.004560729716754659,0.004800768122877812,0.0007201152184556565,0.0007201152184348364,-1.3845017524191259,-1.612776954460982,0.0002765463711288932,-0.46062946308344593,1.7279723453578746,1.036620244856678,0.2882995918905605,0.8065060094510135,0.05764609106159444,-0.0961390000000002,-0.05789300000000008,-0.920358,0.18841599999999992,0.09637499999999999,-0.914737,0.2845550000000001,0.15426800000000007,0.005620999999999987,0.9891908656696475,0.9356106719874442,double,-0.914737
54,0.225,stand,-0.031197504199708518,0.0007199424046016899,0.002639788816890625,0.0022581258830965774,-0.04542530343045328,0.23983892953122174,-0.002399808015321204,-0.004799616030722338,0.0021598272138229706,0.003359731221492315,0.0014398848092033799,0.003359731221502306,0.8082616475042723,-0.4608783448561914,-0.5185935459596434,-1.4399769876328852,-0.4605603928436908,1.6128046389675121,-0.3458211906372679,0.17273088330878875,0.633457164163059,-0.09601899999999985,-0.05791600000000008,-0.9203600000000001,0.18856000000000006,0.09637799999999996,-0.914734,0.2845789999999999,0.15429400000000004,0.00562600000000002,0.9903591946298937,0.9354653976219763,double,-0.914734
55,0.229167,stand,-0.028557715382764606,0.0,-0.0002399808015427777,-0.06506834394459195,-0.009365113814891928,0.1958547547838441,-0.0014398848092033799,-0.0007199424046016899,0.0021598272138229706,0.003599712023061736,0.0004799616030855554,-0.003119750419966189,0.6334986361756443,-0.17277235531598015,-0.6910894212703144,0.23036314041704425,0.9790433468012105,0.0,0.057590785113851864,-0.2303631404170443,-1.5549511978566088,-0.09590599999999982,-0.057919000000000054,-0.92035,0.18869400000000014,0.09638000000000002,-0.9147460000000001,0.28459999999999996,0.15429900000000007,0.005603999999999942,0.9955103703062599,0.9359806634095915,double,-0.9147460000000001
56,0.233333,stand,-0.034565530484858824,0.007441190590495253,-0.0016802688430098993,0.03325210063219079,-0.11840081894430526,0.26043686198896754,-0.0024003840614655555,-0.004800768122904461,0.003120499279884985,0.0038406144983235695,0.0007201152184290069,0.00048007681228961336,-1.4421063615204546,1.7861715291635256,-0.345724445863447,-0.23055670961646063,-0.9795549011768526,0.2305981915655338,0.05782584619823176,0.05764609105699744,0.8640967912279884,-0.09577199999999997,-0.05797000000000008,-0.92033,0.18885400000000008,0.096352,-0.914737,0.28462600000000005,0.15432200000000007,0.005592999999999959,0.9896523306477851,0.9375084623672317,double,-0.914737
57,0.2375,stand,-0.026877849771991986,-0.0007199424046283379,-0.0023998080153745066,-0.07050581436089923,-0.00558519290308823,0.16455846853156147,-0.0007199424046016947,-0.0026397888168906425,0.0,0.0033597312214923374,-0.0011999040076872533,0.0007199424046075229,1.8448957794256975,-1.958515237610664,-0.1726755873205211,0.40327373574846903,0.5185935459596427,-0.7488599183789304,-0.11540275421915883,-0.46076775284767724,0.0575631371053302,-0.09566300000000005,-0.057977999999999974,-0.9203199999999999,0.18897999999999993,0.09635000000000005,-0.914724,0.284643,0.15432800000000002,0.005595999999999934,0.9954396631265623,0.937974184909977,double,-0.914724
58,0.241667,stand,-0.03215742740582634,0.004079673626120648,-0.0021598272138050696,-0.06287930363959839,-0.018069555828054404,0.20610099322172026,0.00023998080151613449,-0.002879769618433403,0.001679865610751153,0.0031197504199761807,0.0,-0.0002399808015361169,-1.2669972723384566,1.1518157021235857,0.057590785113855715,0.23036314041704542,-0.05759078510745385,0.4031354957406171,-0.05759078510106947,0.28795392553089805,-0.23036314042323947,-0.09552800000000006,-0.05800700000000003,-0.920304,0.18912700000000005,0.096333,-0.9147160000000001,0.2846550000000001,0.15434000000000003,0.005587999999999926,0.9944290903618956,0.9389050552713999,double,-0.9147160000000001
59,0.245833,stand,-0.03264522323575034,0.006961113778218132,-0.00600096015363724,-0.18689306054273944,-0.08155185653145873,0.20054597418657416,0.0012001920307327777,-0.0036005760921716838,-0.0009601536245800595,0.003600576092145034,-0.00048007681227712134,-0.0019203072491592863,-0.1170897335391254,0.6916563015116375,-0.9220194286683071,0.230487573023678,-0.1730212370951225,-0.6337060094410011,0.11541662798100169,-0.11523687284616442,-0.4033428822907269,-0.09538699999999989,-0.058051000000000075,-0.920283,0.18927800000000006,0.096302,-0.9146989999999999,0.28466499999999995,0.15435300000000007,0.005584000000000033,0.993475153452433,0.9373120072137511,double,-0.9146989999999999
60,0.25,stand,-0.030717542596569676,0.0009599232061444676,-0.005039596832238472,-0.06493689277928849,-0.030204445818931717,0.18705492836259294,-0.00023998080151613449,-0.0014398848092033799,-0.0004799616030718175,0.0038396928245778704,0.001199904007660602,0.0035997120230375906,0.4626063448957665,-1.4401705236557856,0.2307087404364691,-0.34561383063328793,0.5185244259583158,0.11523686621268095,0.05738342510987187,0.40316314373355455,1.3246986494352944,-0.0952599999999999,-0.05806100000000003,-0.9202640000000001,0.18942199999999998,0.09630299999999992,-0.914663,0.2846819999999999,0.15436399999999995,0.005601000000000078,0.9974389551886355,0.9349929422612606,double,-0.914663
61,0.254167,jog,-0.09359251259896632,0.043916486681049735,-0.022798176145924595,-0.15899903401967225,-0.013110145482974735,-0.39047407506062354,-0.0033597312215456238,-0.0026397888168906425,-0.0007199424046075229,0.003839692824577896,0.0007199424046283379,0.000479961603072237,-15.088785697719462,10.308750533934607,-4.261718097836867,-0.7486802063905704,-0.2879539255309022,-0.05759078510576117,6.140429870568286e-15,-0.1151815702021279,-0.7486802063751791,-0.09488400000000019,-0.058254999999999946,-0.920172,0.18982799999999989,0.09612300000000007,-0.914566,0.2847120000000001,0.15437800000000002,0.005606,0.9927783896946654,0.9373800370102838,double,-0.914566
62,0.258333,stand,-0.03264522323575034,0.005760921747485354,-0.011281805088818823,-0.1336444056893172,-0.03939557446750002,0.19644049159978444,0.0024003840614655555,-0.002880460873742677,0.00048007681229002974,0.0024003840614655555,-0.000480076812303771,-0.0004800768122904462,14.629690197603443,-9.1588009922142,2.764371353121883,1.3826488917453612,-0.057770536930397055,0.2880507001674392,-0.3454893814479931,-0.28805070017573403,-0.23044609106161365,-0.09473799999999999,-0.05829099999999998,-0.9201229999999999,0.1899740000000001,0.09609699999999999,-0.9145209999999999,0.2847120000000001,0.15438799999999997,0.005601999999999996,0.9936997856664769,0.9398224128478606,double,-0.9145209999999999
63,0.2625,stand,-0.02903767698584997,0.006479481641468453,-0.01367890568753859,-0.08283119581457117,-0.08882143503163033,0.2690344460137545,-0.0004799616030855522,-0.003359731221518936,0.0009599232061432123,0.0014398848092033701,-0.0021598272138316985,-0.00215982721382254,0.8657418406288313,0.1724405793095977,-0.5752581230428964,-0.6912276612793582,-0.11501568221172438,0.11515392221098605,-0.23050138043248813,-0.4031078477388804,-0.40310784773988023,-0.09461900000000001,-0.05833200000000005,-0.9200619999999999,0.19010100000000008,0.09606099999999995,-0.914473,0.2847200000000001,0.154393,0.005588999999999955,0.9941216948817004,0.9384819513321048,double,-0.914473
64,0.266667,stand,-0.02903767698579707,-0.0050395968322651495,-0.004079673626094032,-0.10101948928660709,0.06415273854119975,0.2138723325367423,0.0,-0.003839692824551253,0.0009599232061436414,0.0009599232061178308,-0.0023998080153478634,-0.0002399808015361185,1.2694662269363345e-11,-2.764357685081274,2.303631404234368,0.11518157021491598,-0.11518157020214054,1.0298229418520881e-13,-0.11518157021491289,-0.05759078510107183,0.46072628084627604,-0.09449800000000019,-0.05832699999999991,-0.9200410000000001,0.19022599999999978,0.09607200000000005,-0.9144570000000001,0.284724,0.15439899999999995,0.005584000000000033,0.9934035587143514,0.9398336845747098,double,-0.9144570000000001
65,0.270833,stand,0.0028804608737160275,-0.04872779644742033,-0.014882381180990506,-0.4995753364379182,0.31885079970947766,-0.19776594973173775,0.0007201152184290069,-0.0024003840614655555,-0.0012001920307248661,0.000960153624607542,-0.000480076812303771,0.0004800768122904462,7.661578938913364,-10.486845802965709,-2.5930647035277166,0.1728553092724451,0.34548938144159774,-0.5185106185474091,5.530928701659521e-05,0.46080921820549475,0.1728414819554883,-0.09450700000000012,-0.05813400000000002,-0.919984,0.190218,0.09627299999999994,-0.914393,0.2847250000000001,0.15440699999999996,0.005591000000000013,0.9953689242667465,0.9421300946208655,double,-0.914393
66,0.275,stand,-0.047516198704084224,0.014398848092140275,0.008879289656816284,0.10051086337798397,-0.10694822022687026,0.5214901715942577,-0.002399808015321188,-0.0028797696184333834,-0.0011999040076793276,0.0016798656107727896,-0.0016798656107461464,0.000479961603071398,-12.09423076021115,15.149182754874039,5.702344813488507,-0.7487216783657719,-0.11504333020586135,6.912000132914483e-05,0.1727170593149129,-0.287926277523966,-2.7648000731508113e-05,-0.09431900000000004,-0.05820599999999998,-0.920026,0.190423,0.09620600000000001,-0.914428,0.28474200000000005,0.154412,0.005597999999999992,0.9934400370103312,0.9399805211829415,double,-0.914428
67,0.279167,stand,-0.027597792176646967,-0.008879289656816402,-0.0002399808015427793,-0.15500059391877255,-0.0008153422390859466,0.23108808827238403,0.0011999040076872533,-0.003839692824577896,-0.0007199424046079392,0.002879769618406779,-0.0016798656107461687,0.0014398848092150459,4.780035163771867,-5.586306155257214,-2.1884498340194662,0.8638617765799044,-0.23036314042345046,0.11518157021151695,0.2879539255181176,-5.35986675142825e-15,0.23036314042324293,-0.09419899999999992,-0.05818500000000004,-0.920028,0.19055,0.09623599999999999,-0.9144209999999999,0.2847489999999999,0.15442100000000003,0.005607000000000029,0.9931887903503914,0.9378773858290004,double,-0.9144209999999999
68,0.283333,stand,-0.031204992798839027,-0.007921267402772374,-0.0016802688430098993,-0.20155976683600044,-0.014556551080545505,0.19925916179494943,-0.0002400384061785351,-0.0040806529044488055,-0.0012001920307248661,0.0021603456552870205,-0.0002400384061518855,0.0,-0.8658666879961731,0.22996213491215256,-0.3457244458634467,-0.34564148196490335,-0.057839673516780925,-0.11527835480483116,-0.17268938144977383,0.3456138273149981,-0.3456276546363526,-0.0940700000000001,-0.058169000000000026,-0.920026,0.1906889999999999,0.09626799999999991,-0.914414,0.284759,0.15443699999999994,0.005612000000000061,0.9928995681912134,0.9402572663073825,double,-0.914414
69,0.2875,jog,0.13630909527235543,-0.06287497000242308,-0.13438924886009315,-1.375757942244168,-0.3484976555390529,-0.4946629217898351,-0.001919846412288948,-0.0002399808015427793,-0.0009599232061432251,0.0011999040076872533,0.0011999040076872533,0.0016798656107511643,40.20016512387699,-13.187833597228465,-31.847607395508522,-0.40312167173276275,0.9216875696918763,0.05765990510718559,-0.2304875564194319,0.3455585346386242,0.40313549574062246,-0.09464600000000001,-0.05790799999999996,-0.91947,0.19012600000000002,0.09653500000000004,-0.913847,0.284772,0.154443,0.005623000000000045,0.9964002879769579,0.9397903686220705,double,-0.913847
70,0.291667,stand,-0.017998560115201987,-0.03071754259656947,0.02639788816895936,-0.16387202438620502,0.00633171030051945,0.2341821229205648,0.0,-0.004799616030722306,0.0009599232061432123,0.0021598272138583416,-0.0021598272138316985,0.0009599232061436286,-37.03087482302766,7.717165204188471,38.585826020890636,0.4607262808468763,-1.0942249170097174,0.46072628084627376,0.23036314042982506,-0.8062709914852235,-0.17277235531738183,-0.09457099999999996,-0.057800000000000074,-0.9195760000000001,0.1902100000000002,0.0966539999999999,-0.913953,0.2847810000000002,0.15445399999999998,0.005623000000000045,0.9918422214005318,0.9384337612733977,double,-0.913953
71,0.295833,stand,-0.036245799327842075,-0.03216514642344657,0.02232357177148576,-0.08969142543510254,-0.2440388352582246,0.131792335397834,0.0016802688430365487,-0.002880460873742677,0.0,0.0009601536245542427,-0.0014402304368580138,-0.0014402304368696728,-4.380038217148361,-0.34748051533295626,-0.9779924141799322,0.4033290549775678,0.46067094502631495,-0.23041843642419865,-0.28796773627078687,0.17273086341183008,-0.5761290549719874,-0.09441300000000008,-0.05767800000000001,-0.9196690000000001,0.1903649999999999,0.09678200000000003,-0.9140520000000001,0.284778,0.15446000000000004,0.005616999999999983,0.994442133145501,0.9400770669228801,double,-0.9140520000000001
72,0.3,stand,-0.03503719702428662,-0.026637868970475848,0.009839212862960876,0.0901563357942214,-0.3328936284026175,0.17581480471438113,0.0009599232061178308,-0.0035997120230351165,0.0004799616030718207,0.0014398848092033894,-0.003119750419976201,0.0,0.29004134954534716,1.3264404734751025,-2.996006457529387,-0.17286912333062684,-0.1726064673128015,0.1151815702116207,0.11512627421385876,-0.4030525517442277,0.34562765463635253,-0.09426299999999999,-0.05758200000000002,-0.919708,0.19051700000000005,0.09687999999999997,-0.914093,0.28478000000000003,0.154462,0.005614999999999926,0.9937395105021762,0.9381233297083063,double,-0.914093
73,0.304167,stand,-0.03071754259656947,-0.027597792176619954,0.013918886489081366,-0.029091483820455497,-0.1978917494926463,0.1396429896767098,0.0007199424046016851,-0.0026397888168906074,-0.000239980801535699,0.0014398848092033701,-0.0009599232061444612,0.0007199424046075133,1.0366341319215542,-0.23036314042335,0.9790433468011659,-0.05759078510106646,0.23036314042344655,-0.17277235531737803,-4.631341173564155e-15,0.5183170659543374,0.17277235531737647,-0.0941320000000001,-0.05747800000000003,-0.919767,0.1906509999999999,0.09699099999999994,-0.914148,0.284783,0.15446899999999997,0.005619000000000041,0.9954221569705476,0.9406861500376489,double,-0.914148
74,0.308333,jog,-0.07297167546809452,0.003120499279867913,0.06697071531445728,0.7123739145524661,-0.26603484557319407,0.5192167581238257,-0.0014402304368580138,-0.002400384061438906,0.00024003840614480668,0.000720115218482306,0.0002400384061518855,-0.0002400384061452231,-10.142614707519208,7.373569720712396,12.734476434319701,-0.5185244458616652,0.05746633592215587,0.11522304553060617,-0.17277234534831099,0.2880368728507791,-0.23043226374285541,-0.09383399999999997,-0.05750099999999991,-0.920045,0.19095800000000018,0.09697900000000004,-0.914428,0.28479200000000016,0.15447999999999995,0.005616999999999983,0.9953173708150682,0.9425031377858286,double,-0.914428
75,0.3125,stand,-0.045836333093312046,-0.00599952003838298,-0.0035997120230351165,-0.09227276265130688,-0.17730292521031013,0.1814884551315663,0.0004799616030855586,-0.0004799616030855586,0.0,0.001199904007633967,0.0004799616030855586,0.0009599232061436414,6.511961213050787,-2.1886295460165455,-16.9355477171809,0.4608092248484721,0.4608645208431385,-0.057604609106025446,0.11514009818854419,0.0575769611071933,0.2879677495293668,-0.09364100000000009,-0.05747800000000003,-0.92003,0.19115399999999982,0.09700600000000004,-0.914409,0.2847949999999999,0.15448400000000007,0.005620999999999987,0.9988687196524968,0.9411069330724039,double,-0.914409
76,0.316667,stand,-0.04655627549796702,-0.013198944084479856,0.014398848092140466,-0.038121417290063575,0.05350782859372289,0.16707802723898416,-0.00023998080151613608,-0.004079673626094032,-0.0026397888168943895,0.0016798656107728119,0.0011999040076606101,0.0,-0.17277235532876925,-1.7277235531790056,4.319308882931529,-0.17277235531598242,-0.8638617765799123,-0.633498636163764,0.11518157022770523,0.1727723553095886,-0.2303631404232414,-0.09344799999999998,-0.057439999999999936,-0.9201010000000001,0.19135499999999994,0.09706599999999999,-0.914469,0.2848029999999999,0.15450599999999992,0.005632000000000081,0.9918913947153616,0.9402393451455602,double,-0.914469
77,0.320833,jog,-0.05544887181951322,0.0,-0.006721075372066247,-0.04869857285152776,-0.03516327741140975,0.1307985845201286,-0.0002400384061785351,-0.0012001920307327777,0.0009601536245796432,0.0007201152184290069,-0.0009601536245808924,0.0012001920307252827,-2.1345646475146878,3.1682535008352968,-5.069592766252208,-1.3827331348778491e-05,0.6911861726743286,0.8641244458651056,-0.23037695447522907,-0.5184967912245562,0.28809218212320736,-0.09321800000000002,-0.05744499999999997,-0.920069,0.191589,0.09706199999999998,-0.914436,0.28480700000000003,0.15450699999999995,0.005632999999999999,0.9974072888868404,0.9408411202544974,double,-0.914436
78,0.325,stand,-0.049436045116373145,-0.0033597312214922927,-0.009839212862960744,-0.08792033288237802,0.02702754904311782,0.09734026249406684,0.00023998080156941934,-0.0023998080153744745,-0.0004799616030718143,0.002879769618460027,-0.0021598272138050553,0.0,1.4429629717158692,-0.8062709914788257,-0.7482931343639246,0.11519539422796994,-0.28788480552956264,-0.3456000066358163,0.5182755939599241,-0.28789862952343503,-0.2880230455304232,-0.09301099999999995,-0.057441000000000075,-0.92003,0.19180700000000006,0.09706700000000001,-0.9143950000000001,0.284818,0.1545080000000001,0.005634999999999946,0.9959015475697796,0.9376504799615816,double,-0.9143950000000001
79,0.329167,jog,-0.05447564194863895,-0.002159827213831727,-0.011279097672190909,-0.08390829639180088,0.053131737220776604,0.11461046197920453,-0.0011999040076872533,-0.0023998080153478634,-0.0009599232061432251,0.0035997120230084733,0.0014398848092033894,0.005999520038397134,-1.2094064872248222,0.28795392552449545,-0.3455447106383904,-0.34554471064475184,6.38615114047357e-12,-0.11518157021152232,0.17277235530320384,0.8638617765799053,1.4397696276451086,-0.09278900000000001,-0.05744199999999999,-0.919987,0.19204899999999991,0.097082,-0.914323,0.2848379999999999,0.154524,0.005664000000000002,0.9952506431137457,0.9314546515749929,double,-0.914323
80,0.333333,jog,-0.06481036965914361,-0.0072011521843433676,-0.023523763802218538,-0.02855772473185941,0.0035383612923598003,0.022850810702777495,-0.0016802688430365487,0.000480076812303771,0.0007201152184348364,0.0024003840614655555,-0.0009601536245808924,0.0012001920307244498,-2.4807315675719273,-1.2101116107805177,-2.9391901416292896,-0.11530600944534207,0.6912829639106175,0.40327374569804614,-0.2878847723338735,-0.5761014003322803,-1.152023045528728,-0.09252600000000011,-0.05740999999999996,-0.919886,0.19232899999999997,0.09710799999999997,-0.9142199999999999,0.2848550000000001,0.15451799999999993,0.00566600000000006,0.9968498928332108,0.9385895030856563,double,-0.9142199999999999
81,0.3375,jog,-0.0681545476362301,-0.005279577633781215,-0.01463882889368305,-0.0036134188021313663,-0.023398681044506167,0.06771205765791109,0.0021598272138583416,-0.0026397888169172505,-0.0004799616030718143,0.0033597312214922927,-0.0016798656107461464,0.0009599232061436286,-0.80253851141984,0.4611410008548448,2.132213800944425,0.92154932970839,-0.7487078543846887,-0.2879953975297916,0.23022490041438204,-0.17271705931491446,-0.05765990510698807,-0.09223299999999979,-0.05739900000000009,-0.919827,0.1926270000000001,0.09712299999999996,-0.9141549999999999,0.2848599999999999,0.15452200000000005,0.00567200000000001,0.9942593792118342,0.9368183191659233,double,-0.9141549999999999
82,0.341667,jog,-0.06047516198702193,-0.001919846412288948,-0.007679385649155792,-0.021680319061527557,0.054432331441674836,0.159678277119566,0.0023998080153212202,-0.0023998080153478634,-0.0007199424046075229,0.00023998080151613608,0.0004799616030589154,0.0007199424046075229,1.842905123400101,0.8062709914788303,1.6701327680651064,0.05759078508828413,0.057590785113844134,-0.05759078510576193,-0.7486802063777717,0.5183170659479419,-0.05759078510585723,-0.09197100000000002,-0.057401000000000035,-0.9197979999999999,0.19287999999999994,0.09713299999999991,-0.9141199999999999,0.28485099999999997,0.15453399999999995,0.005677999999999961,0.9942177296637624,0.9417234567687693,double,-0.9141199999999999
83,0.345833,jog,-0.05592894863176369,-0.005280844935208233,-0.00024003840612523588,-0.053863045779654145,0.11627150660841389,0.12478111176079432,-0.0024003840614122566,-0.0002400384061518855,0.0,0.0016802688430365487,-0.00048007681227712134,-0.00048007681228961336,1.0912658077912234,-0.8067687284971873,1.7857290549761284,-1.15223045528888,0.5184276546317754,0.1728138273181763,0.34572444587623896,-0.23044609105521746,-0.28805070016733925,-0.09174799999999994,-0.05737999999999999,-0.919797,0.19311999999999996,0.09715300000000004,-0.9141210000000001,0.2848679999999999,0.15453300000000003,0.005675999999999903,0.9959794064566458,0.9402195829591375,double,-0.9141210000000001
84,0.35,jog,-0.0703143748500361,0.009599232061444739,0.010319174466046434,-0.15250640569625024,0.011632538356318384,0.14061521059589652,-0.008399328053757487,-0.003839692824577896,0.0002399808015357022,-0.00023998080151613608,-0.003119750419976201,0.0011999040076789273,-3.452226114296254,3.5709328045723674,2.534008368651723,-1.4396313876518514,-0.8638479525860406,0.05759078510576039,-0.4608230488487391,-0.6334709881687293,0.4031631437409528,-0.09148999999999985,-0.05743600000000004,-0.9198390000000001,0.19341200000000014,0.09709999999999996,-0.914159,0.284902,0.154536,0.005680000000000018,0.9846025305536141,0.9376147508024157,double,-0.914159
85,0.354167,jog,-0.07799376049913756,0.00863930885530015,-0.005519558435323991,0.02795225886325892,0.0031620023271355636,0.23993755280704354,0.00911927045835906,0.0016798656107727896,-0.0014398848092150266,0.00455963522917953,-0.0009599232061444612,-0.0019198464122864246,-1.8429051233744673,-0.2303631404234657,-3.800991816983514,4.204127312722921,1.3245880574395592,-0.4031354957405126,1.1518157021107822,0.5183170659543374,-0.7486802063751686,-0.09112699999999996,-0.05746499999999999,-0.919822,0.19375600000000004,0.09705999999999992,-0.9141440000000001,0.284883,0.1545249999999999,0.005677999999999961,0.9843602793408395,0.9348206719462475,double,-0.9141440000000001
86,0.358333,jog,-0.06529044647144738,0.003120499279867913,-0.002880460873742677,-0.081988349117123,-0.0065632099572154445,0.1443336339146956,-0.009601536245808923,-0.0050408065290563474,0.00024003840614480668,-0.0002400384061785351,-0.0012001920307061283,0.0019203072491592863,3.0492832519659547,-1.324726254304425,0.6334847723430899,-4.493712603016795,-1.6132194286675785,0.40324609106092946,-1.1521060094474462,-0.057673745694111114,0.9217843642452492,-0.09089499999999995,-0.05749899999999997,-0.919809,0.19402699999999995,0.09704200000000007,-0.914124,0.2849219999999999,0.15454100000000004,0.00568499999999994,0.9819217098292374,0.939354659553338,double,-0.914124
87,0.3625,jog,-0.0671946244300599,-0.0004799616030589154,-0.007199424046096877,-0.08394087616157456,0.028450551649853995,0.09078307812131127,-0.0026397888168906425,0.000959923206144474,-0.0014398848092150459,-0.0009599232061178308,0.00023998080151613608,-0.0004799616030714044,-0.45696615277478436,-0.864041488583357,-1.0364682439055015,1.67068572808215,1.440059931653673,-0.40314931974078766,-0.17275853130292773,0.34561383062689527,-0.5760184430599242,-0.09062599999999987,-0.057493000000000016,-0.919785,0.19430300000000011,0.09704499999999994,-0.9140959999999999,0.284929,0.15453799999999995,0.005689000000000055,0.9947392422854361,0.9412771163527542,double,-0.9140959999999999
88,0.366667,jog,-0.06215502759779391,-0.0028797696184333834,-0.011519078473706892,-0.10197424593891105,0.004031612914374171,0.12164143635417782,0.010319174466046297,0.0028797696184333834,0.000479961603071398,0.004079673626093978,-0.000479961603058909,0.001679865610751142,1.2094064872248493,-0.575907851061783,-1.036634131895844,3.109902395713185,0.460726280846867,0.4607262808462753,1.209406487211848,-0.17277235530958474,0.518317065952131,-0.09032399999999985,-0.05746899999999999,-0.919735,0.19457900000000006,0.097055,-0.914041,0.2849029999999999,0.154524,0.005693999999999977,0.9821263075181881,0.9356632949328694,double,-0.914041
89,0.370833,jog,-0.06529044647139408,-0.0014402304368846632,-0.00864138262122803,-0.1008558189034324,-0.010587687803694639,0.11619933100250303,-0.011281805088845472,-0.002880460873742677,0.0012001920307252827,0.0021603456552870205,-0.0012001920307327777,0.00048007681228961336,-0.7526209490158817,0.3455446907222081,0.690757525799054,-5.185064703526585,-1.3826765463696726,0.17288296391115796,-0.4607124269819865,-0.17288296391595492,-0.28799539089330956,-0.09009900000000015,-0.05747499999999994,-0.919694,0.1948599999999998,0.09705600000000003,-0.914003,0.28495899999999996,0.15453099999999997,0.005691000000000002,0.980490982012692,0.9388940932622607,double,-0.914003
90,0.375,jog,-0.06431485481165311,-0.0009599232061178308,-0.012239020878335383,-0.09370576868671109,-0.003181593227484884,0.08097217619709247,0.011519078473733688,-0.0007199424046016947,-0.0019198464122872829,0.00023998080156942253,-0.000959923206144474,-0.0004799616030714044,0.23412326847635556,0.11526451422290261,-0.8633641125767635,5.4717743130739835,0.5184829539575221,-0.7487493263769098,-0.4608506968364792,0.05765990510878453,-0.2303907884235717,-0.08978299999999995,-0.057474000000000025,-0.919651,0.1951290000000001,0.09705599999999992,-0.9139539999999999,0.28491200000000005,0.15452999999999995,0.005697000000000063,0.9804997652295648,0.9411971163526961,double,-0.9139539999999999
91,0.379167,jog,-0.07199424046075562,-0.004559635229206234,-0.0023998080153478634,-0.13372769828761008,0.0028182330801561095,0.024295723551779932,0.0004799616030855586,-0.0014398848092300326,0.0,-0.0007199424046016947,0.000959923206144474,-0.0014398848092150459,-1.8429051233747415,-0.8638617765990938,2.361222189341871,-2.649176114866377,-0.17277235532237628,0.4607262808464828,-0.23036314042983505,0.4607262808468824,-0.23036314042324144,-0.08948099999999992,-0.057460999999999984,-0.919641,0.1954260000000001,0.09707900000000003,-0.91395,0.284907,0.15454,0.005691000000000002,0.9974703802414153,0.9399661500376375,double,-0.91395
92,0.383333,jog,-0.06793086893903817,-0.0026404224675907915,-0.006240998559762475,-0.08402677682732941,0.006322926368472734,0.12287489985137945,0.0009601536245542427,-0.00048007681227712134,-0.0009601536245800595,0.0,0.0014402304368846632,0.00048007681228961336,0.9753652236479693,0.4606847723512821,-0.922033255980463,0.1152645274768804,0.23039078179378555,-0.23047374569852588,0.17281382731677727,0.11529218212678562,0.4608645274855156,-0.089194,-0.05745199999999995,-0.9196190000000001,0.19570900000000013,0.09709600000000007,-0.913922,0.28490300000000013,0.15454800000000002,0.005697000000000063,0.9975996159385857,0.9404997730355278,double,-0.913922
93,0.3875,jog,-0.06479481641468453,0.003359731221518936,-0.00623950083995232,-0.13818490120828208,-0.037147084664818364,0.10552347375273839,0.00311975041997616,-0.0009599232061444612,-0.000479961603071398,0.0021598272138050553,-0.0009599232061444612,0.0007199424046075133,0.7525923984529926,1.4399216916509914,0.00035942400051728414,0.5182617699596594,-0.11515392221438354,0.11523686621278086,0.5183170659479335,-0.5759907950633804,0.05756313710532712,-0.08891099999999996,-0.05747000000000002,-0.9195949999999999,0.19598800000000005,0.097078,-0.913893,0.284899,0.15454800000000002,0.005701999999999985,0.9945013490581126,0.9388620773774405,double,-0.913893
94,0.391667,jog,-0.07391408687304457,0.0035997120230351165,-0.0057595392368402,-0.19416050604778082,-0.009009470790589943,0.060699408767776075,-0.010799136069131993,-0.0045596352291795905,-0.0016798656107511643,-0.0014398848092033894,0.0004799616030589154,0.0009599232061436414,-2.188449834019701,0.05759078510107558,0.11518157022129161,-3.3402655361430837,-0.863861776586309,-0.2879539255291032,-0.8638617765799053,0.3455447106319618,0.057590785105862616,-0.08864800000000006,-0.057504,-0.919578,0.19629000000000008,0.09706499999999996,-0.913865,0.28493800000000014,0.15456899999999996,0.005712999999999968,0.9802632912703125,0.9398769135375193,double,-0.913865
95,0.395833,jog,-0.06865098415746718,-0.0016802688430098993,-0.00864138262122803,-0.16968312208194763,0.005566581935962219,0.052679980655894534,-0.0028804608737160275,0.0,-0.00048007681229002974,-0.000480076812303771,0.0012001920307327777,0.00048007681228961336,1.2633467872245296,-1.2673981915614525,-0.6917530927479184,1.9007861726874602,1.0944875730147834,0.28799539089321496,0.2303907817809932,0.1728829639159534,-0.11518156357513867,-0.08837399999999995,-0.05749700000000002,-0.919544,0.19657400000000003,0.09707699999999997,-0.913827,0.284948,0.154574,0.005717000000000083,0.9951330112576017,0.9405318072305224,double,-0.913827
96,0.4,jog,-0.06743460523157513,-0.0023998080153744745,-0.006239500839925676,-0.1379454249086168,0.0009685391945251167,0.06678496543608488,-0.0007199424046016851,-0.0014398848092300135,0.001679865610751142,0.0033597312214922927,0.000479961603058909,-0.0011999040076789112,0.29190758960692065,-0.1726755873205111,0.576405515071355,0.5184829539511222,-0.3455447106383495,0.518344713952761,0.9214802096942727,-0.17284147532370128,-0.4031631437409436,-0.08809599999999995,-0.057493000000000016,-0.9195110000000001,0.19686899999999996,0.09708899999999998,-0.913806,0.2849649999999999,0.154582,0.005705000000000071,0.9961221663407476,0.9369504799616217,double,-0.913806
97,0.404167,jog,-0.08063354931602924,-0.007679385649155792,-0.017998560115202226,-0.004942840870546626,-0.0821439127583319,0.028379335125824218,0.00023998080151613608,-0.000959923206144474,0.0002399808015357022,-0.0023998080153212202,0.0011999040076872533,-0.0002399808015361185,-3.1674931808145406,-1.2669972723257374,-2.821948470188773,0.23036314041704503,0.11518157021491295,-0.3455447106348567,-1.3821788425278487,0.17277235532237784,0.2303631404230377,-0.08775900000000014,-0.05746499999999999,-0.919435,0.197195,0.09712600000000005,-0.913732,0.28495400000000015,0.15459100000000003,0.005703000000000014,0.9983030794788004,0.9384803703062966,double,-0.913732
98,0.408333,jog,-0.06553048487762592,0.0002400384061518855,-0.0072011521843433676,-0.13461814026998223,-0.031053281378850644,0.0700126560638435,-0.00024003840612523588,-0.002400384061438906,-0.0012001920307248661,0.0014402304368580138,-0.0014402304368580138,-0.0014402304368696728,3.6253155156993078,1.900965927822293,2.5917925902205594,-0.11522304552121258,-0.3457659278191144,-0.3456967912291328,0.9217567095965509,-0.633733664077116,-0.2881060094415635,-0.08748699999999987,-0.05747599999999997,-0.9194100000000001,0.19747400000000015,0.09711900000000007,-0.913708,0.284961,0.15459500000000004,0.005702000000000096,0.99550929262271,0.9388224128479135,double,-0.913708
99,0.4125,jog,-0.08999280057590456,-0.0014398848092033894,0.0004799616030589154,-0.026717522674479636,-0.03294684060968382,0.07236952463497644,-0.0004799616030855586,-0.0011999040076872533,-0.002639788816894806,-0.0007199424046016947,0.0004799616030589154,0.0009599232061436414,-5.870486128696611,-0.4031493197396891,1.8433198433890874,-0.05757696111358869,0.28809216552715605,-0.34547559063353683,-0.518400009949537,0.46080922484207826,0.5759907950595939,-0.08711400000000014,-0.057475000000000054,-0.919423,0.19784599999999997,0.09712699999999996,-0.9137059999999999,0.2849600000000001,0.15460200000000002,0.005717000000000083,0.9951014124014321,0.9406761063886484,double,-0.9137059999999999
100,0.416667,jog,-0.07655387568998748,0.004319654427636754,-0.007439404847612913,-0.05160654294652303,-0.06112010217172059,0.09623374618931371,0.0007199424046016851,-0.000479961603058909,-0.000479961603071398,0.0016798656107195032,0.0007199424046016851,0.000479961603071398,3.2250839659028023,1.3821788425342212,-1.9004959084885453,0.2879539255308938,0.17277235532237553,0.5183170659523377,0.5759078510489992,0.05759078510745568,-0.11518157021172061,-0.08679199999999998,-0.05749499999999996,-0.9193939999999999,0.19817200000000001,0.09711199999999998,-0.913673,0.284964,0.15460699999999994,0.005720999999999976,0.9983508896785965,0.9396406487985423,double,-0.913673
101,0.420833,jog,-0.08281325012002867,0.00864138262122803,0.0009601536245808924,-0.21681369808320394,-0.028016349362744695,0.091272836662819,-0.000480076812303771,0.0,0.002160345655304509,-0.0007201152184290069,0.0016802688430098993,0.0002400384061452231,-1.50249026165175,1.0373807473814867,2.01621662798699,-0.2880507001693363,0.11520921820905153,0.6337751460335826,-0.5760875730073232,0.23051522765439594,-0.057590781787367915,-0.086449,-0.057531,-0.9193889999999999,0.19851400000000008,0.09708299999999992,-0.9136759999999999,0.2849630000000001,0.15461399999999992,0.005712999999999968,0.99631159207181,0.9397970500288686,double,-0.9136759999999999
102,0.425,jog,-0.08327333813291989,0.0064794816414685385,0.0,-0.13169491020342752,-0.019423175783108804,0.0704341695291296,0.001919846412288948,-0.0033597312215189806,-0.005999520038396718,0.00023998080156942253,-0.00023998080151613608,0.0002399808015361185,-0.11041229011068296,-0.5188147299638839,-0.23041843642450152,0.5759354990623309,-0.8062709914852411,-1.9582111095995378,0.23040461243062993,-0.4608230488423437,-1.382400026508111e-05,-0.08609400000000011,-0.05757200000000007,-0.919414,0.1988620000000001,0.097055,-0.9136749999999999,0.2849560000000002,0.15462700000000007,0.00573900000000005,0.9881013720657063,0.9419172350981511,double,-0.9136749999999999
103,0.429167,jog,-0.07607391408690192,0.0026397888168906074,-0.0035997120230350688,-0.09752303341540004,0.04025150416369963,0.08442953443192586,-0.0014398848092033701,-0.0016798656107461464,0.0014398848092150266,0.000959923206117818,0.0007199424046016851,-0.001199904007679744,1.7277235531600452,-0.9214525616937609,-0.863861776586283,-0.8062709914788319,0.4031354957458175,1.7853143382797425,0.17277235530318935,0.23036314041704195,-0.34554471063495357,-0.08578299999999994,-0.05759000000000003,-0.919393,0.1991830000000001,0.097047,-0.913665,0.28496600000000005,0.15463700000000002,0.005728000000000066,0.9956003519718586,0.9398917991313513,double,-0.913665
104,0.433333,jog,-0.08017282765238459,0.011521843494944058,-0.015602496399419514,-0.09776550123168258,-0.11542647521726203,0.08433565159926554,-0.00024003840612523588,-0.00048007681227712134,0.0002400384061452231,0.00024003840612523588,-0.0012001920307327777,0.0014402304368696728,-0.9838966791845096,2.1320342482125407,-2.881129231009226,0.2880092182136662,0.287995390895109,-0.28800921821166653,-0.1727999999982193,-0.46090600944178145,0.6337336640781122,-0.08545000000000003,-0.057639999999999914,-0.919327,0.19951799999999986,0.09699400000000002,-0.913594,0.2849679999999999,0.15463399999999994,0.005732999999999988,0.9990200473104871,0.9395198928332448,double,-0.913594
105,0.4375,jog,-0.08231341492680205,0.0035997120230617597,-0.012718982481394298,-0.12419397731927362,-0.040042221155040865,0.0580534996263659,-0.0009599232061711172,-0.0014398848092300326,0.0011999040076793436,0.0014398848092566758,0.0011999040076872533,-0.0002399808015352859,-0.5136998498722036,-1.9011594604949231,0.6919879812875527,-0.17275853132850622,-0.23033549242930568,0.2303493164228764,0.28794010154342375,0.5759769710631257,-0.40321843974201305,-0.08511100000000016,-0.05766100000000007,-0.919269,0.19986700000000002,0.09698399999999996,-0.913542,0.2849780000000002,0.15464500000000003,0.005727000000000038,0.9964902950214036,0.9395806487984306,double,-0.913542
106,0.441667,jog,-0.09623230141591024,0.009839212862960876,-0.02039836813055009,-0.09900523240729239,-0.193412598046607,0.03368748485953259,-0.001199904007633967,0.000959923206144474,0.0007199424046075229,0.0016798656107195255,0.0,-0.0016798656107511643,-3.340265536143093,1.497360412742777,-1.84290512338753,-0.057590785088277203,0.5759078510617999,-0.11518157021162069,0.057590785088277203,-0.28795392553089993,-0.34554471063496195,-0.08471499999999987,-0.05769800000000003,-0.919181,0.20027499999999998,0.096943,-0.913464,0.28498999999999985,0.15464100000000003,0.005716999999999972,0.997171799131376,0.9388705187838898,double,-0.913464
107,0.445833,jog,-0.07993278924625935,0.007441190590495253,-0.005520883341333468,-0.1384336402267956,-0.03724460469246557,0.07377919730046147,-0.000480076812303771,0.0,-0.0043206913106094355,-0.0016802688429832496,0.0009601536245808924,0.0,3.9125089221437546,-0.5756174441828185,3.571167736249787,0.1727861726668736,-0.23041843642450152,-1.209945682961343,-0.8065613186996573,0.2304737456987258,0.40323226374247795,-0.08438400000000001,-0.05772900000000003,-0.919176,0.20060100000000003,0.096916,-0.9134410000000001,0.28498500000000004,0.15464500000000003,0.005734999999999935,0.9927545326147063,0.939424580833659,double,-0.9134410000000001
108,0.45,jog,-0.10343172546197911,0.019438444924405357,0.00455963522917953,-0.26397616696471643,0.06822889026066209,-0.0962799249601457,-0.0016798656107727896,-0.0007199424046016851,0.000239980801535699,0.0,0.0011999040076872372,0.0,-5.639293548288836,2.8791107112815,2.419130926448985,-0.2879262775303598,-0.17277235531597782,1.0944737490149028,0.403232263734878,0.05753548910639382,0.0,-0.08396000000000003,-0.057813,-0.919194,0.2010320000000001,0.09684000000000004,-0.91346,0.28499200000000013,0.15465300000000004,0.005733999999999906,0.9969277874778253,0.940660159987188,double,-0.91346
109,0.454167,jog,-0.1051115910727,0.012718982481394298,0.013198944084479856,-0.2836180543000826,0.2747994380196784,-0.2588760348742357,0.0,-0.0004799616030589154,0.0007199424046075229,-0.00023998080156942253,-0.0007199424046283379,-0.0019198464122872829,-0.403135495733358,-1.6125419829640262,2.073268263810985,0.40313549574581214,0.057590785107456445,0.11518157021162147,-0.05759078511385263,-0.4607262808532724,-0.4607262808464828,-0.0835220000000001,-0.05786799999999992,-0.919246,0.2014689999999999,0.09678399999999998,-0.9135230000000001,0.284991,0.1546519999999999,0.005722999999999923,0.9985578948582378,0.9393293451455523,double,-0.9135230000000001
110,0.458333,jog,-0.09865578492562672,0.0158425348055714,-0.019923187710046853,0.008016438194232504,-0.150228593459499,-0.033869504131094894,0.0014402304368580138,-0.0012001920307327777,0.0009601536245800595,0.0002400384061785351,0.0012001920307327777,-0.0012001920307252827,1.5496414179244538,0.7497725214059289,-7.950583724082257,0.3457106185448902,-0.1728829639159534,0.05765991838034958,0.11522304554679724,0.4609060094481791,0.172744690725396,-0.08310499999999998,-0.05793899999999996,-0.919159,0.2018810000000002,0.096723,-0.913445,0.2849860000000002,0.15466199999999997,0.005713999999999997,0.9964894525574584,0.9400029715040061,double,-0.913445
111,0.4625,jog,-0.0921526277897617,-0.0019198464122889224,0.01223902087833522,-0.06510569152777784,0.06164184833992843,0.09461482298992135,0.009359251259928479,-0.0004799616030855522,0.003359731221502284,0.0021598272138050553,0.0019198464122889224,0.001199904007679744,1.5606328619786354,-4.262630481847896,7.718312596203943,1.9004129644997372,0.17284147531730742,0.5758525550569249,0.4607124568338146,0.17270323531464823,0.5759769710595172,-0.08268199999999992,-0.05793300000000001,-0.919196,0.20227400000000006,0.09673900000000002,-0.913491,0.284956,0.15467200000000003,0.00570499999999996,0.9834073526015916,0.9377350552714345,double,-0.913491
112,0.466667,jog,-0.09167266618667737,0.009599232061444739,-0.008159347252214707,-0.15636341299417417,0.012720807723888092,0.1126079030010279,0.005279577633781285,-0.0026397888168906425,0.0016798656107511643,0.00023998080151613608,-0.0002399808015427793,0.0002399808015361185,0.11518157021462351,2.764357685081288,-4.895216733993291,-0.9790433468075875,-0.5183170659479488,-0.40313549574061175,-0.46072628084687545,-0.518317065954335,-0.23036314042323755,-0.08227800000000007,-0.057984000000000036,-0.919155,0.20265699999999987,0.09669799999999995,-0.913456,0.28493499999999994,0.154682,0.00569900000000001,0.9897714488020746,0.9423172350981768,double,-0.913456
113,0.470833,jog,-0.09361497839657038,0.011041766682666937,0.002400384061438906,-0.12980462422402791,-0.10708672799508719,0.15061218360678455,-0.010561689870363166,0.002880460873742677,-0.008161305808929674,0.001440230436911313,0.0016802688430365487,-0.0007201152184356692,-0.4662295270986572,0.34626371128713307,2.534741073848681,-3.8025126030111474,1.3250719372619575,-2.362259102179748,0.2881060094563552,0.460933664085292,-0.23045991838016971,-0.0819319999999999,-0.058018000000000014,-0.919199,0.20305300000000015,0.09665900000000005,-0.913469,0.28498500000000004,0.15467700000000006,0.005730000000000013,0.9772420184776514,0.9388212355116796,double,-0.913469
114,0.475,jog,-0.09599232061434082,0.0,-0.006239500839925759,-0.05688612225911341,-0.08117821553098888,0.08730273704339642,-0.0016798656107728119,0.0002399808015427793,0.002159827213822985,0.00023998080151613608,0.0004799616030589154,0.0002399808015361185,-0.5705164909456344,-2.6498120188785697,-2.073406503807227,2.1314673049173036,-0.6336645241660458,2.4768737755586074,-0.28803686954528046,-0.2880506935391505,0.23040461242423643,-0.08153900000000003,-0.058016999999999985,-0.919164,0.20345400000000002,0.096661,-0.913442,0.28499300000000005,0.15467799999999998,0.005722000000000005,0.9954221569705153,0.9418002824803191,double,-0.913442
115,0.479167,jog,-0.09695224382051065,0.021118310535151504,-0.004799616030722306,-0.18164198941587884,-0.0656619162504889,0.09348373067392464,-0.00455963522917953,0.0028797696184333834,0.0009599232061436286,-0.0026397888168906074,0.0019198464122889224,0.0014398848092150266,-0.23036314042952372,5.067989089309178,0.34554471063197556,-0.6910894212639059,0.6334986361628472,-0.28795392552900095,-0.691089421263912,0.34554471063834796,0.2879539255288935,-0.08115399999999995,-0.05809299999999995,-0.91914,0.2038470000000001,0.09658100000000003,-0.913416,0.28500100000000006,0.15467399999999998,0.005723999999999951,0.9908705605867428,0.9368140481772219,double,-0.913416
116,0.483333,jog,-0.10897743638981136,0.012962073931828721,-0.010081613058086044,-0.12395372936406054,-0.17193781500684954,0.12394245907834914,-0.0050408065290563474,0.0021603456552870205,-0.00048007681229002974,0.0026404224675907915,-0.0016802688430098993,-0.0012001920307244498,-2.8865080579214353,-1.957810034402971,-1.2678821477109299,-0.11549959190514097,-0.17268938145615995,-0.34565530927356153,1.2674535008356684,-0.8641659278201678,-0.6337198367593554,-0.08072100000000004,-0.05813800000000002,-0.9191,0.20431200000000005,0.09652000000000005,-0.913379,0.2850330000000001,0.15465800000000007,0.005720999999999976,0.9908246559920088,0.9372034101281226,double,-0.913379
117,0.4875,jog,-0.10175185985120767,-0.010319174466046434,0.018238540916718362,-0.05792324473000549,0.1404057818311014,0.17071444840721436,0.0021598272138583707,-0.0007199424046016947,-0.0014398848092150459,-0.0011999040076872533,0.0004799616030589154,0.0007199424046075229,1.7339996492929513,-5.587052651277967,6.796293250493056,1.728013857190967,-0.6912138372663144,-0.23033549242261137,-0.9216046256966803,0.5184138339498024,0.4607954008476083,-0.08028799999999991,-0.05809799999999998,-0.9191819999999999,0.204731,0.09656500000000001,-0.9134519999999999,0.2850189999999999,0.154663,0.005730000000000013,0.9955103703062023,0.9402344316442772,double,-0.9134519999999999
118,0.491667,jog,-0.09119270458364388,0.010799136069131849,-0.005279577633781215,-0.14841147175937291,-0.05827456056001127,0.10505831359488095,0.007679385649102403,-0.0011999040076872372,0.0031197504199661683,0.00023998080151613289,0.0007199424046016851,0.0007199424046075133,2.5339945446517183,5.0679890893156045,-5.643896940364626,1.3245880574139646,-0.11518157021491214,1.0942249170101221,0.34554471063195946,0.05759078510745568,-2.3156705867820773e-15,-0.07987600000000006,-0.05814800000000009,-0.919147,0.20511199999999996,0.09652299999999991,-0.913427,0.284988,0.154671,0.005720000000000058,0.986041174012855,0.9410565798962065,double,-0.913427
119,0.495833,jog,-0.10489678348536255,0.002400384061438906,-0.009601536245808923,-0.15702492967324433,-0.08415436442745751,-0.037930874729103725,0.0024003840614655555,0.0002400384061518855,0.0038406144983198216,-0.00024003840612523588,-0.0012001920307061283,0.0014402304368696728,-3.289505257253638,-2.01602304553359,-1.0374360566557141,-1.2671631271331838,0.3456414819585026,0.1730350644151831,-0.11522304552121182,-0.4609060094353845,0.1728967912295149,-0.07942899999999997,-0.058157000000000014,-0.919091,0.20554800000000006,0.09650800000000004,-0.913381,0.28497700000000004,0.15466500000000005,0.005709999999999993,0.9924410131110066,0.939749892833273,double,-0.913381
120,0.5,jog,-0.09815214782814591,0.008879289656816402,-0.009119270458359181,-0.19084042135412888,-0.025450262818509692,0.027799272410393174,-0.0004799616030855586,-0.0011999040076872533,0.0007199424046075229,0.0007199424046016947,0.0014398848092033894,-0.0014398848092150459,1.618583071086316,1.5548129578539795,0.11573453022552062,-0.691227661279369,-0.3455585346386242,-0.7489013903797256,0.2303769644173113,0.6335677561577953,-0.6911723652711147,-0.07902200000000015,-0.058199,-0.91905,0.20595999999999992,0.09647700000000003,-0.913349,0.28498200000000007,0.15467600000000004,0.005701000000000067,0.9975344316442629,0.9393902879769785,double,-0.913349
121,0.504167,jog,-0.10103191744660463,0.003839692824577845,-0.009839212862960744,-0.11383977743997427,-0.1432435314623961,0.009330330650463611,-0.00455963522917953,0.0009599232061444612,-0.001679865610751142,0.00023998080156941934,0.0007199424046016851,0.0009599232061436286,-0.6910894212763852,-1.209406487218267,-0.17277235531594864,-0.9790433467948019,0.5183170659543311,-0.5759078510579905,-0.11518157020212903,-0.17277235531598245,0.5759078510579929,-0.07862000000000013,-0.05821100000000001,-0.919016,0.20638200000000007,0.096464,-0.913304,0.2850020000000002,0.154675,0.00571200000000005,0.9917447534435073,0.9408405553501296,double,-0.913304
122,0.508333,jog,-0.09361497839657038,0.008881421027379916,-0.004800768122904461,-0.08928413617622227,-0.0503049106519952,0.06116735105604276,-0.011281805088792172,0.0043206913106273405,-0.006721075372059584,0.00048007681225047176,0.0021603456553136702,0.001680268843014896,1.7803502280447063,1.2102084020168191,1.2094202448526834,-1.613578938937263,0.806713419222966,-1.2100839561470085,0.05763226372564864,0.3457521005069573,0.17291061854807172,-0.07827699999999993,-0.058230000000000004,-0.919024,0.206774,0.09643599999999997,-0.913277,0.28505099999999994,0.15466599999999997,0.005746999999999947,0.9769589524724452,0.9378989242667666,double,-0.913277
123,0.5125,jog,-0.09551235901125654,0.01295896328293725,-0.008399328053757598,-0.1633216043032441,-0.20370205287002646,0.08929946660118404,0.000479961603085565,-0.0014398848092300517,0.0019198464122873083,0.0007199424046017042,-0.0011999040076872693,-0.0016798656107511866,-0.45533492073103027,0.978531858785076,-0.8635852965810429,2.822598198194855,-1.3824276745518362,2.0736553358164285,0.05756313711332783,-0.8063954074876418,-0.8063677594831166,-0.07787699999999997,-0.058290000000000064,-0.918981,0.2071749999999999,0.09637699999999993,-0.913249,0.28505199999999986,0.154667,0.00573200000000007,0.9959211107002504,0.939036118078892,double,-0.913249
124,0.516667,jog,-0.09623230141590897,0.03047756179505334,-0.032637389008885034,-0.2101890403911383,-0.3854632181593287,-0.019516058149101182,0.0026397888168906074,0.0014398848092300135,0.005999520038396638,-0.000959923206117818,0.0004799616030855522,0.0014398848092150266,-0.17277235532815416,4.204127312722812,-5.816669295686885,0.5183170659479304,0.6910894212767082,0.9790433467984878,-0.40313549573302365,0.4031354957458145,0.7486802063753754,-0.0774649999999999,-0.05841099999999999,-0.91882,0.2075720000000001,0.096252,-0.913107,0.285037,0.154663,0.005712999999999968,0.9888151896215405,0.9398769135375149,double,-0.913107
125,0.520833,jog,-0.10225636101777176,0.006961113778191482,-0.007681228996620489,-0.15335118131341735,-0.15035827124340786,0.06565091170558403,0.00024003840612523588,-0.0031204992798945625,-0.0012001920307248661,0.000480076812303771,0.002400384061438906,0.001680268843014896,-1.446005665353526,-5.644850700158867,5.990436872843142,-0.576032263745888,-1.0946673281624035,-1.7282074097747238,0.3456553092706644,0.4609751460281691,0.05770140033602236,-0.07703799999999994,-0.05845299999999998,-0.9187930000000001,0.20800000000000018,0.09623300000000001,-0.9130680000000001,0.2850380000000001,0.154686,0.00572499999999998,0.9944134101281001,0.9378014814863076,double,-0.9130680000000001
126,0.525,jog,-0.10343172546192582,0.0,0.009839212862960744,-0.10841442031766645,-0.0767976464769433,0.07640596422764176,-0.0021598272138050553,0.0007199424046016851,0.0011999040076793276,-0.0011999040076872372,0.004079673626120621,-0.0007199424046075133,-0.2820649014048596,-1.6705336640728172,4.204569680725006,-0.5759216750492616,0.9216322736971966,0.5759769710593174,-0.4031631437463392,0.4029972557431492,-0.576004619059849,-0.07661600000000002,-0.05845,-0.918829,0.208426,0.09625000000000006,-0.913112,0.285042,0.15470000000000006,0.005716999999999972,0.995710821016441,0.935641694762154,double,-0.913112
127,0.529167,jog,-0.09527237820973786,0.0026397888169172505,-0.004319654427636754,-0.20172924957069965,-0.05007568545395417,0.10418372699681293,-0.007439404847639557,0.004799616030722306,0.0026397888168947707,0.0014398848092033701,0.0016798656107461464,-0.0009599232061436286,1.9580866935896089,0.6334986361692417,-3.397856321237675,-1.2669972723384835,0.9790433468011975,0.3455447106348529,0.6334986361628479,-0.5759078510617847,-0.05759078510585878,-0.07625000000000015,-0.058441000000000076,-0.9188000000000001,0.20882899999999993,0.09624599999999994,-0.9130980000000001,0.2850790000000001,0.15468700000000002,0.005701999999999985,0.9846025305535786,0.9389603713218635,double,-0.9130980000000001
128,0.533333,jog,-0.10537686029766913,-0.006481036965914533,-0.0045607297167526975,-0.2086711966926792,-0.07644396344425035,0.025036057077013122,-0.006961113778165018,0.002160345655313728,0.0014402304368697112,-0.001920307249161836,0.00240038406143897,0.001440230436870544,-2.4254637753076174,-2.189348483637067,-0.05786732816033355,0.11480822599005064,-0.633526254298763,-0.2879400816190808,-0.8065751460310353,0.17295210050236254,0.5761290549722119,-0.07583999999999991,-0.05840500000000004,-0.918775,0.20926,0.0962829999999999,-0.913073,0.2850999999999999,0.15468799999999994,0.005701999999999985,0.9876173887498236,0.9373222405089996,double,-0.913073
129,0.5375,jog,-0.0731941444684419,-0.029757619390451653,-0.01847852171828754,-0.4518113788362519,-0.09431608964190068,-0.17842130206275672,-0.004799616030748949,0.0016798656107461464,-0.002399808015358655,0.0007199424046016851,0.003359731221518936,0.00215982721382254,7.723233940299252,-5.585932907256285,-3.340002880137925,0.5187179619428972,-0.1153059862173213,-0.9215355056943454,0.633609228164987,0.2302249004271559,0.17268941131557244,-0.07555500000000004,-0.05827400000000005,-0.918708,0.20956799999999998,0.09642099999999998,-0.912987,0.285123,0.15469500000000003,0.005720999999999976,0.9906284501128608,0.9360259273156788,double,-0.912987
130,0.541667,jog,-0.102471802255808,0.0035997120230350688,-0.007439404847612913,-0.2681565655842733,-0.13861160201779793,0.014952050185885312,-0.0071994240460701376,0.0035997120230350688,0.005039596832253425,0.00023998080156941934,0.0023998080153478313,0.001679865610751142,-7.0260757829051785,8.005119129706376,2.6491761148727,-0.5759078510489969,0.4607262808468701,1.7853143382798233,-0.11518157020212673,-0.23036314042982897,-0.11518157021151773,-0.07515800000000006,-0.05827400000000005,-0.9186559999999999,0.20999600000000007,0.09641599999999995,-0.9129489999999999,0.28515400000000013,0.15469,0.005707000000000018,0.9841721790757562,0.9380314124014518,double,-0.9129489999999999
131,0.545833,jog,-0.10729716754682811,-0.0024003840614655555,-0.010081613058086044,-0.07975454544647136,-0.19691750404654035,-0.02181051801281811,-0.0040806529044488055,0.0012001920307327777,0.0014402304368700894,-0.0043206913106273405,0.0016802688430098993,0.0007201152184348364,-1.1582729935237892,-1.4402535008402833,-0.6342314475451583,0.7486248539657536,-0.5759769544652639,-0.8639861726796287,-1.0947364647615834,-0.17271703608687747,-0.23037695446862813,-0.0747279999999999,-0.05825899999999995,-0.918608,0.21042500000000008,0.09643299999999999,-0.9129039999999999,0.285153,0.15469199999999994,0.005704000000000042,0.9925154877045053,0.9351408208170299,double,-0.9129039999999999
132,0.55,jog,-0.10391168706501137,0.011999040076792443,-0.006239500839925676,-0.1199894790972795,-0.16575656526060437,0.01517795316303227,-0.010559155267615717,0.005759539236866767,0.001919846412286841,-0.0026397888168906074,0.00311975041997616,0.002399808015358655,0.8124503196104415,3.455585346354185,0.9220331697049049,-1.5547161898648576,1.0941557970083884,0.1150986262099227,0.4033843277505928,0.345447942636489,0.4030940237398142,-0.07433900000000015,-0.05828499999999992,-0.918574,0.210847,0.09639600000000004,-0.912868,0.28518600000000016,0.15468099999999996,0.005705999999999989,0.9796998999432271,0.9350412648355537,double,-0.912868
133,0.554167,jog,-0.1065514758819581,-0.001679865610746191,-0.014878809695226224,0.018865394652819893,-0.14113094808116186,-0.05055922482099992,-0.00503959683221193,0.005519558435324138,0.0007199424046075325,0.0,0.0035997120230351646,0.0011999040076797758,-0.6334986361763314,-3.282674751029252,-2.073268263811066,1.3245880574523379,-0.057590785107423464,-0.2879539255289972,0.6334986361628648,0.11518157020854665,-0.2879539255288942,-0.07391599999999987,-0.058254999999999946,-0.918509,0.21129100000000012,0.096418,-0.912801,0.285207,0.15467299999999995,0.005708000000000046,0.9874854108894469,0.9365959506036194,double,-0.912801
134,0.558333,jog,-0.14186269803168694,0.02664426308208645,-0.016562650024000404,0.2747638962991171,-0.3663046703335354,0.2404692884710094,-0.0038406144983235695,0.0072011521843433676,0.003360537686029792,-0.0019203072491617847,0.0036005760921716838,0.005760921747479524,-8.476049483852332,6.798878706872929,-0.4041863487215985,0.28780180842255393,0.4036470832979425,0.6338442826265621,-0.4609474913974516,0.00020740977832912905,1.0948194286605244,-0.07334099999999988,-0.05833599999999994,-0.918426,0.21187400000000012,0.09632200000000002,-0.912708,0.285215,0.15465799999999996,0.005718000000000001,0.985289825323377,0.9310537644664343,double,-0.912708
135,0.5625,jog,-0.11855051595872107,-0.012239020878308577,-0.02687784977201827,0.0705791780440961,-0.14060088753285674,-0.06285543178582868,0.0021598272138050553,0.013438924885995813,-0.012958963282937322,0.0016798656107195032,-0.004799616030722306,-0.0031197504199661683,5.594476139420612,-9.331241651162642,-2.475449903531987,1.4399908116459272,1.4969456927411562,-3.916366923198221,0.863972368582016,-2.015884838707446,-2.131190824920956,-0.07283799999999996,-0.058229000000000086,-0.918368,0.21237499999999998,0.09635299999999991,-0.912609,0.28521299999999994,0.154582,0.005758999999999959,0.9686771167668531,0.9324669531280336,double,-0.912609
136,0.566667,jog,-0.11831053515715165,-0.01535877129831138,-0.00455963522917953,-0.05891065707259136,-0.005892165682564804,-0.05639702920013359,-0.008399328053757375,0.011999040076792443,-0.0009599232061432123,-0.003839692824577845,0.0007199424046283283,0.00479961603071731,0.0575907851138519,-0.7486802063841562,5.35594301484007,-2.5339945446513914,-0.3455447106319556,2.8795392552901413,-1.3245880574267592,1.324588057439547,1.900495908491341,-0.07238000000000011,-0.05811500000000003,-0.918353,0.21285199999999982,0.09642000000000006,-0.91257,0.28523199999999993,0.1545350000000001,0.005782999999999983,0.9755364711889084,0.9318557875704045,double,-0.91257
137,0.570833,jog,-0.11257801248200969,-0.008881421027353268,-0.009121459433505152,0.019497455350064283,-0.044120220667059534,0.09898840384066952,-0.0016802688429832496,0.009601536245808923,-0.0002400384061452231,-0.0009601536245542427,0.003120499279867913,0.0024003840614497322,1.3760256061310503,1.554812835083559,-1.0950130111199277,1.6128322637479886,-0.5754929983157749,0.17279999999951723,0.691200000005665,0.5762258461928907,-0.5759078178750783,-0.07191799999999993,-0.058038000000000034,-0.918316,0.21331699999999998,0.09646999999999994,-0.912522,0.2852349999999999,0.15450799999999998,0.005793999999999966,0.9837493230824146,0.9353061421763265,double,-0.912522
138,0.575,jog,-0.1156707463403174,-0.014878809695226224,-0.0023998080153745387,0.04562656774615306,0.03431052984501292,0.07061398561771509,-0.0033597312215456684,0.009119270458359302,0.003359731221502373,-0.002159827213805113,0.002639788816890678,0.0045596352291813165,-0.7421967502538459,-1.4392581396383657,1.6130672949677807,-0.40303872775676763,-0.11573453022549302,0.8638756005873925,-0.28789862952985196,-0.11536128221196158,0.5181788259495141,-0.07145000000000001,-0.057938000000000045,-0.918292,0.21379000000000015,0.09654299999999993,-0.912493,0.28524000000000016,0.15448099999999998,0.005798999999999999,0.9828619428160541,0.9325197108089863,double,-0.912493
139,0.579167,jog,-0.10967122630187814,0.0026397888168906074,-0.01727861771057366,-0.23933508745055848,-0.2228750046205295,0.09966253224295485,-0.005519558435297348,0.008879289656842928,0.0074394048476120805,-0.00455963522917953,0.003599712023061712,0.0026397888168947707,1.439769627655199,4.2041273127229895,-3.5706286765536372,-0.5183170659351243,-0.057590785101121436,0.9790433467985784,-0.5759078510617707,0.23036314042981199,-0.4607262808462998,-0.07101599999999997,-0.057911999999999964,-0.918189,0.21422800000000009,0.09654700000000005,-0.9124099999999999,0.28524400000000005,0.154459,0.00577900000000009,0.9786138638744205,0.9315750621547613,double,-0.9124099999999999
140,0.583333,jog,-0.12025924147865683,-0.011521843494970707,0.00816130580892426,-0.19605593937276936,-0.0709566911158639,-0.012012824179784734,-0.0024003840614655555,0.009121459433505152,0.001920307249160119,-0.0031204992798945625,0.0021603456552870205,0.0050408065290446875,-2.5415302872728454,-3.399335648550481,6.106558694070547,0.7487216451828588,0.05813004720648688,-1.3247953908910124,0.34544789949231064,-0.3455032087793304,0.5763364647503396,-0.07052499999999995,-0.05782599999999993,-0.918215,0.21471600000000013,0.09660400000000002,-0.912423,0.2852410000000001,0.15442999999999996,0.005792000000000019,0.9839574830726809,0.9315635658280587,double,-0.912423
141,0.5875,jog,-0.11615070794334659,-0.022078233741295965,0.010319174466046297,-0.08023331820014634,0.03849030178029965,0.023033991352311788,-0.004799616030695663,0.015118790496768604,0.006479481641468453,-0.002879769618460027,0.0016798656107461464,0.003359731221502284,0.9859691709407744,-2.5333309926386316,0.5178470499452894,-0.5757696110463376,1.4392443156379664,1.094114325007991,0.05777049710451971,-0.11530598621091205,-0.4034257997461941,-0.07006099999999993,-0.05767099999999992,-0.918231,0.21518799999999993,0.09670299999999998,-0.912452,0.28524899999999986,0.1543739999999999,0.005778999999999979,0.9714421725815934,0.9343213979188132,double,-0.912452
142,0.591667,jog,-0.10343172546197911,-0.00911927045835906,0.01775857931365921,-0.10073157701778201,-0.021575377117549126,0.14129475642832695,-0.0011999040076872372,0.012479001679851352,0.002399808015358655,-0.006239500839899033,0.004319654427663397,0.005999520038397054,3.0523116105993235,3.1099023957131764,1.785314338280023,0.8638617765798892,-0.633498636169242,-0.9790433467986001,-0.8062709914660381,0.6334986361692417,0.6334986361638469,-0.06963499999999989,-0.05758099999999999,-0.918295,0.21559300000000015,0.09675900000000004,-0.912501,0.28522800000000004,0.15434000000000003,0.005793999999999966,0.978726364055742,0.925936774361477,double,-0.912501
143,0.595833,jog,-0.10081613058086314,-0.011761881901096257,-0.0028804608737427535,-0.2206705950836676,-0.16712653589151202,0.05155821789647006,-0.0024003840614656197,0.016082573211723714,0.004800768122900009,-0.004080652904502213,0.004320691310600806,0.006240998559770137,0.6278432263840706,-0.6343282387751478,-4.954162310946351,-0.2881613187178141,0.8649955669400997,0.576322637431929,0.5182064175220538,0.0002488917276546429,0.0579641193886435,-0.06922500000000009,-0.05746499999999999,-0.9182629999999999,0.21599599999999985,0.09682599999999997,-0.912463,0.28522099999999995,0.15429099999999996,0.005799999999999916,0.971742337355701,0.9276366434061092,double,-0.912463
144,0.6,jog,-0.10151187904969018,-0.019918406527490908,0.020158387329007044,-0.1510777482534447,0.009656713849418018,0.035483458974183466,-0.0033597312214922927,0.020158387329007044,0.006239500839932753,-0.0071994240460701376,0.005519558435323991,0.006719462443003735,-0.16696627521647164,-1.9574093175892944,5.528881258159256,-0.23022490041436663,0.9781171387768894,0.34526823062940554,-0.7484451983604273,0.28770509352608015,0.11482214620436638,-0.06881599999999999,-0.05729799999999996,-0.9183209999999999,0.21638899999999994,0.09693200000000002,-0.912519,0.28520499999999993,0.15422999999999998,0.005801999999999974,0.9643871221669564,0.9231644916625328,double,-0.912519
145,0.604167,jog,-0.11783057355411938,-0.017998560115175345,0.03407727381811505,-0.10451987306974354,0.039964841627391605,0.08664579881492007,-0.0028797696184067402,0.014158867290624141,-0.0009599232061436286,-0.008639308855273508,0.005039596832265082,0.005279577633789541,-3.916173387192003,0.46072628085326334,3.340265536143005,0.11518157021491453,-1.4397696276416743,-1.7277235531740645,-0.3455447106319558,-0.11518157020852068,-0.3455447106345531,-0.06833699999999987,-0.05716399999999999,-0.918467,0.21684400000000004,0.097028,-0.9126390000000001,0.2851809999999999,0.154192,0.005827999999999944,0.9758656510014427,0.9228705132902338,double,-0.9126390000000001
146,0.608333,jog,-0.10681709073452433,-0.0033605376860464478,0.03720595295244961,-0.23789862731468736,-0.024828791514896108,0.14383337089881165,-0.0012001920307327777,0.011281805088818823,0.001680268843014896,-0.009361497839630388,0.005520883341333468,0.008641382621219704,2.6436588621207493,3.5136875730026134,0.751003152744733,0.40316312714209346,-0.6906054253013242,0.6337474913966689,-0.1733530927404894,0.1155272465358584,0.8069623109529909,-0.06789699999999987,-0.057102999999999904,-0.918615,0.21725000000000017,0.09706500000000007,-0.912758,0.28514700000000004,0.15416799999999997,0.005857000000000001,0.9808846418380447,0.9182884495695911,double,-0.912758
147,0.6125,jog,-0.1084713222941909,-0.020398368130549818,0.025197984161272124,-0.1295539523994025,0.07183554708327036,-0.02544181222418324,-0.00311975041997616,0.012479001679851352,0.006719462443004568,-0.009839212863014032,0.005039596832238439,0.005279577633788709,-0.3969838156147244,-4.088752206504257,-2.8816819753245495,-0.46065716084554054,0.2873041975120039,1.2093097192199744,-0.11464243421733632,-0.11549952222102844,-0.8067686554909933,-0.06745800000000002,-0.05696599999999996,-0.918692,0.21766099999999988,0.09717100000000001,-0.912841,0.2851189999999999,0.15413699999999997,0.00585099999999994,0.9758126811731378,0.921072035008192,double,-0.912841
148,0.616667,jog,-0.11903047756180979,-0.008639308855273737,-0.00575953923686692,-0.1976795318994863,-0.22503872458497806,0.07400776428722165,-0.00575953923686692,0.013438924886022816,0.006959443244540452,-0.008879289656789876,0.003839692824577947,0.007679385649148401,-2.5339945446650076,2.8219484701886977,-7.42921127865122,-0.6334986361629015,0.23036314042992118,0.05759078510580489,0.23036314044256628,-0.28795392552448157,0.5759078510582525,-0.06698599999999999,-0.05687399999999998,-0.918639,0.2181200000000001,0.09722299999999995,-0.912785,0.2851060000000001,0.15409699999999993,0.005854000000000026,0.9730117904042055,0.9208742720863433,double,-0.912785
149,0.620833,jog,-0.10537686029766632,-0.015122419587142392,0.011761881901122593,-0.0870646264166965,-0.05572284272969629,0.04078581870913432,0.0024003840614655555,0.01032165146421128,0.006240998559769554,-0.008881421027379916,0.005280844935181583,0.005760921747479524,3.2773925261986205,-1.5561955669391863,4.205814003358018,1.9586949827970404,-0.7482653436897584,-0.17245431703574118,-0.0005116107993375561,0.34593185564177503,-0.4605050172032827,-0.06653699999999985,-0.05676800000000004,-0.9186620000000001,0.2185220000000001,0.09730799999999995,-0.91281,0.28505899999999995,0.154076,0.005852000000000079,0.9795028189191349,0.9217628908139542,double,-0.91281
150,0.625,jog,-0.07367410607147416,-0.07007439404846574,-0.004079673626120621,-0.3234593284455043,-0.030535882582734826,-0.39258804194178143,0.00047996160303226577,0.011039116870647982,0.006479481641468869,-0.008639308855273508,0.004559635229206173,0.006959443244540683,7.608052370096453,-13.187418877207328,-3.801669193002902,-0.46086452086231705,0.1721779233109424,0.057231361098947275,0.058102273123687626,-0.17307648331543177,0.2876221495227141,-0.06622800000000018,-0.05643000000000009,-0.9186179999999999,0.21879300000000002,0.09761900000000001,-0.912764,0.2850210000000002,0.1540490000000001,0.005853999999999915,0.9786512980640285,0.9214696008325797,double,-0.912764
151,0.629167,jog,-0.08807295416366773,0.005279577633781215,-0.03911687065035349,-0.41290784569532923,-0.4441511506409992,0.04212913870907828,-0.0021598272138050553,0.010799136069131849,0.00479961603071731,-0.009599232061444612,0.005519558435323991,0.005039596832253425,-3.45544710635792,18.083506523217274,-8.408254625445789,-0.6334986361500602,-0.05759078510106357,-0.4031354957407118,-0.23036314042982886,0.23036314041704115,-0.46072628084647055,-0.0658700000000001,-0.056406999999999985,-0.918435,0.21911999999999998,0.09762000000000004,-0.91258,0.2849900000000001,0.15402700000000003,0.005855000000000055,0.9799776161734315,0.9211735551465581,double,-0.91258
152,0.633333,jog,-0.09313490158426661,-0.0448871819491234,0.0009601536245808924,-0.2506127849274708,-0.10998321577368401,-0.19109889304879615,0.0,0.01248199711952495,0.0014402304368700894,-0.007681228996647139,0.0016802688430098993,0.007681228996639643,-1.2150617908302646,-12.041949011738978,9.620025029989044,0.5184414819503249,0.4039512842998321,-0.8063815635735042,0.4603943986551781,-0.9215769544680963,0.6340931743605895,-0.06548200000000004,-0.056167999999999996,-0.9184329999999999,0.219476,0.09781400000000007,-0.9125519999999999,0.28495800000000004,0.15398200000000006,0.005881000000000025,0.9790586456580449,0.9228698637512238,double,-0.9125519999999999
153,0.6375,jog,-0.08423326133909212,-0.04535637149028037,0.0023998080153745387,-0.2306402086027271,-0.05333842651156258,-0.13067674521779052,0.0023998080153745387,0.00407967362612073,-0.0014398848092154813,-0.00815934725224146,0.003359731221492382,0.00503959683225356,2.1362227610210374,-0.1125964821591018,0.3454894146373107,0.5759078510618153,-2.016396326710914,-0.6911723652713284,-0.11473920220646258,0.40303872773758453,-0.6339410041723382,-0.06512099999999998,-0.055961999999999956,-0.9184490000000001,0.2197929999999999,0.09801700000000002,-0.912541,0.2849139999999999,0.15397899999999998,0.005908000000000024,0.9917544483928655,0.9239838226063757,double,-0.912541
154,0.641667,jog,-0.08207343412528482,-0.025677945764331033,-0.036477081833462884,-0.8898885689354611,-0.09494813113817151,-0.15980359587950577,0.004799616030695663,0.005759539236866767,-0.0028797696184304695,-0.007919366450671823,0.0023998080153744745,0.008639308855290993,0.5183170659484708,4.722444378677511,-9.329707187145939,0.5759078510489815,0.4031354957393867,-0.34554471063474373,0.05759078511390311,-0.23036314041706268,0.8638617765868504,-0.06475900000000001,-0.055830999999999964,-0.918309,0.22010200000000002,0.09813400000000005,-0.912353,0.28486100000000003,0.15396500000000002,0.005956000000000072,0.9866145104146367,0.9205016853361987,double,-0.912353
155,0.645833,jog,-0.06913106096977095,-0.03288526164184893,-0.024243879020647546,-0.7366031858228281,-0.017150813252299103,-0.11760235259859622,-0.0038406144983235695,0.008641382621201382,0.007681228996639643,-0.011521843494970707,0.002400384061438906,0.0009601536245800595,3.1066666239831644,-1.730032615822825,2.936438505236517,-2.0739871649109998,0.6917530927351446,2.535045274860803,-0.8647328478873935,0.00013827317917218212,-1.8432921821197616,-0.06448699999999996,-0.055658000000000096,-0.918176,0.22034200000000004,0.09828099999999995,-0.912248,0.284829,0.15393900000000005,0.005928000000000044,0.9796950271396422,0.9210394529104524,double,-0.912248
156,0.65,jog,-0.09047276217898892,-0.03167746580274058,0.04439644828413471,0.14764470932326693,-0.26105544213577586,0.11119351512069521,0.0023998080153744745,0.00455963522917953,-0.0021598272138229563,-0.008399328053757375,0.0019198464122889224,0.0074394048476120805,-5.121598562327287,0.2898478135609169,16.472360764286474,1.4975815967597783,-0.9795410108043726,-2.361664557346418,0.7493437583905228,-0.11531981021117824,1.5548959018555246,-0.06410000000000005,-0.055507000000000084,-0.91837,0.22068399999999988,0.09842099999999998,-0.9124019999999999,0.2847839999999999,0.15392800000000006,0.005968000000000084,0.9906883875475296,0.9213478518108424,double,-0.9124019999999999
157,0.654167,jog,-0.11183105351573648,-0.0035997120230350688,0.023758099352068754,-0.07652618893008915,-0.25489424103361114,0.17178422466236876,-0.0021598272138050553,0.005279577633807858,0.001919846412286841,-0.00767938564915569,0.003839692824577845,0.007199424046075965,-5.125579874429421,6.738121857380681,-4.9528075190942635,-1.094224917009718,0.17277235532237176,0.9790433467986001,0.1727723553159778,0.4607262808468701,-0.05759078510585872,-0.0636429999999999,-0.05547000000000002,-0.9184610000000001,0.22111799999999993,0.09845199999999998,-0.912471,0.2847609999999998,0.153922,0.005990000000000051,0.9899688535285138,0.9214253059276293,double,-0.912471
158,0.658333,jog,-0.12626020163227078,-0.020883341334628304,-0.010321651464238205,-0.3989294923646002,-0.09144076051576587,-0.015995569168481855,-0.0016802688430365936,0.005040806529029832,0.004800768122900009,-0.007921267402772585,0.0052808449351817235,0.006240998559770137,-3.463549715922869,-4.148734832355661,-8.180449067764725,0.11511242697274943,-0.05731423542439566,0.6915318556440813,-0.058060910613754665,0.34593185564184253,-0.2300589261415875,-0.06312399999999996,-0.05536200000000002,-0.918398,0.221611,0.09856100000000001,-0.912402,0.28473499999999996,0.15392300000000003,0.005996000000000001,0.988064943278792,0.9210675152802572,double,-0.912402
159,0.6625,jog,-0.10199184065272245,-0.008879289656816284,-0.0016798656107461464,-0.3698146862937658,-0.06535984117064501,-0.03965143083323222,0.00023998080151613289,0.0035997120230350688,0.000239980801535699,-0.009839212862960744,0.0026397888168906074,0.005039596832253425,5.823940719833969,2.8807419433193973,2.0738626958224122,0.4608230488487429,-0.34583501463756955,-1.094501397015665,-0.46027008883804765,-0.6338027641687296,-0.28831334953604565,-0.06269800000000014,-0.05531000000000008,-0.91839,0.22199499999999994,0.09860899999999995,-0.912374,0.2846930000000001,0.15391900000000003,0.006016000000000021,0.9939738744207259,0.9208973870311105,double,-0.912374
160,0.666667,jog,-0.10487161027118247,0.006479481641468453,-0.007919366450698465,-0.36265994556228254,-0.08500975841987483,0.019731141206585232,-0.0026397888168906074,0.003599712023061712,0.0031197504199665846,-0.007919366450671823,0.003359731221518936,0.01007919366450685,-0.6910894212766983,3.6858102467685674,-1.4973604127555247,-0.6910894212639113,6.393852696582333e-12,0.6910894212697057,0.4607262808468698,0.17277235532237176,1.209406487221835,-0.062272000000000105,-0.05532199999999998,-0.9183439999999999,0.222399,0.09859600000000002,-0.912299,0.2846710000000001,0.153918,0.006044999999999967,0.9909232815631239,0.9174646665190378,double,-0.912299
161,0.670833,jog,-0.11401824291886771,-0.004560729716752576,0.014882381180990506,0.3184167260309946,-0.20524444532480243,0.11113565847236609,0.0,0.007921267402772374,0.002160345655304509,-0.008401344215076146,0.0028804608737160275,0.009121459433509317,-2.195543122344031,-2.650074737931114,5.473295158830761,0.6336507001657719,1.0373392654130242,-0.23029399055738714,-0.11569317436493573,-0.1150432903991618,-0.22989299831913895,-0.0617970000000001,-0.05527000000000004,-0.918397,0.222839,0.09862699999999991,-0.912323,0.2846360000000001,0.15389699999999995,0.006074000000000024,0.9863157054116958,0.9180415160726969,double,-0.912323
162,0.675,jog,-0.11255099592033817,-0.00719942404609678,0.010559155267589073,0.2555059939918513,-0.12767057416175323,0.025168241115517614,-0.00047996160303226577,-0.0007199424046016851,0.0,-0.0059995200383829005,0.0026397888169172505,0.009839212862970736,0.35211111075822676,-0.633235980164191,-1.0374912199187425,-0.11518157020212674,-2.0737244558132932,-0.5184414819545219,0.5763916910710888,-0.05775667309785821,0.17224704330727475,-0.061329999999999885,-0.05524299999999993,-0.9184410000000001,0.22328300000000012,0.09866800000000009,-0.9123260000000001,0.284613,0.15391100000000002,0.0061149999999999816,0.9985578948582705,0.9191457396420266,double,-0.9123260000000001
163,0.679167,jog,-0.10607151427887254,-0.02279817614589826,0.02735781137507791,0.30098432634466904,0.057459665364538365,-0.08069425824333984,0.0014398848092034085,0.0019198464122889736,0.0002399808015361217,-0.007679385649155894,0.0019198464122889736,0.00503959683225356,1.5549511978559514,-3.7434010318698765,4.031354957400805,0.46072628083410383,0.633498636162877,0.05759078510586183,-0.4031354957458665,-0.17277235532236396,-1.151815702115975,-0.06088199999999988,-0.05513999999999997,-0.918554,0.22369300000000014,0.09877100000000005,-0.912419,0.284575,0.15391100000000002,0.0061350000000000016,0.9959803713218551,0.9230102793408275,double,-0.912419
164,0.683333,jog,-0.11809889582331651,-0.0141622659625615,0.013442150744132493,0.11623294041131176,0.0019864435243292155,-0.03817809425431733,-0.0074411905905219025,-0.008881421027379916,0.014162265962554004,-0.0043206913106273405,0.0028804608737160275,0.010801728276524212,-2.887033496025914,2.072950116019384,-3.3402929983066265,-2.1317991838034813,-2.592719020563822,3.341883139946681,0.8062156357485721,0.2305843642407713,1.3831328478806164,-0.06042100000000006,-0.055118,-0.918551,0.224167,0.09884199999999999,-0.9124300000000001,0.28458800000000006,0.15395999999999999,0.006120999999999932,0.9695031543496265,0.918814823599263,double,-0.9124300000000001
165,0.6875,jog,-0.11159107271416706,0.0016798656107727896,0.004079673626093978,-0.040435838376784015,-0.06511114542571192,0.021655996610172326,0.00311975041997616,-0.00023998080151613289,-0.0011999040076793276,-0.005039596832265082,0.0021598272138316985,0.007199424046075965,1.561752605987377,3.80180743300556,-2.246814763148175,2.5344230886724217,2.073779751827146,-3.6866258627869484,-0.17252352331119172,-0.17293824331277263,-0.8644838565990446,-0.05994300000000008,-0.05512600000000001,-0.918573,0.2246109999999999,0.09884399999999993,-0.9124169999999999,0.284554,0.15396999999999994,0.00615600000000005,0.9944147508024155,0.9233574404967746,double,-0.9124169999999999
166,0.691667,jog,-0.10319174466046298,-0.007919366450698465,0.004799616030722306,-0.004542996536357925,0.017880338613389418,-0.016930083847745858,0.0026397888168906074,0.001199904007660594,-0.010799136069114364,-0.013918886489054722,0.005039596832265082,0.0074394048476120805,2.0156774786906686,-2.303631404240744,0.17277235532237176,-0.11518157021491453,0.3455447106255618,-2.3036314042320525,-2.130859048905585,0.6910894212703051,0.05759078510585872,-0.059501999999999944,-0.055088000000000026,-0.918638,0.22498300000000016,0.09889800000000004,-0.9124059999999999,0.2844850000000001,0.15398600000000007,0.006232000000000015,0.9813638944768922,0.9100677200318792,double,-0.9124059999999999
167,0.695833,jog,-0.10633701392222056,-0.004080652904475455,-0.010561689870389815,-0.13124527716997458,-0.07196882837643143,-0.10167749471228385,-0.006240998559735826,0.0031204992798945625,0.002640422467594539,-0.0026404224675907915,0.0026404224675907915,0.010321651464234598,-0.7549854204890969,0.9214386812825269,-3.6873033848084757,-2.1317300471978937,0.46101662799663157,3.2260102104438055,2.707264527475737,-0.5758939905603189,0.691849883970839,-0.05908499999999983,-0.05505799999999994,-0.9185829999999999,0.22541500000000014,0.09892600000000007,-0.912319,0.2845,0.153984,0.006263999999999936,0.9875657943127945,0.9190660915903792,double,-0.912319
168,0.7,jog,-0.11351091912645901,-0.01319894408445339,-0.016558675305972416,-0.16545953767472757,-0.06744919382278158,-0.1534855574157313,0.0016798656107195479,-0.0002399808015427825,-0.0028797696184305463,-0.005279577633781356,0.002159827213831756,0.006719462443004746,-1.7215995210555772,-2.188214826008665,-1.4391613716301213,1.900855332482727,-0.8064507034886991,-1.3247401214363306,-0.6333465721599747,-0.11533363421143376,-0.8644562085984929,-0.05860500000000002,-0.05500400000000005,-0.918526,0.22586600000000012,0.09899000000000002,-0.912222,0.28447100000000014,0.15399400000000008,0.006303999999999976,0.9944290903619231,0.9222696810877515,double,-0.912222
169,0.704167,jog,-0.12886969042476737,-0.0021598272138316985,-0.027597792176619954,-0.14938772236268058,-0.2086419746522912,-0.03317607397250986,-0.0026397888168906074,-0.0023998080153478313,-0.0011999040076793276,-0.005759539236866767,0.0019198464122622792,0.005279577633789541,-3.6858102467742357,2.649176114859997,-2.6491761148662,-1.0366341318958776,-0.5183170659479319,0.4031354957406302,-0.1151815702148805,-0.05759078511386491,-0.3455447106347958,-0.05807899999999999,-0.05500499999999997,-0.918416,0.2263790000000001,0.09900699999999996,-0.912085,0.2844580000000001,0.15401199999999993,0.0063309999999999755,0.9937267470037128,0.923280629058286,double,-0.912085
170,0.708333,jog,-0.1065770523283458,0.007681228996647139,-0.032165146423419916,-0.17907400291079445,-0.26562735917460595,-0.011530478929429192,0.0028804608737693265,-0.0014402304368846632,-0.00048007681229002974,-0.0043206913106273405,-0.0007201152184290069,0.006000960153623914,5.351089317431962,2.3622314475465265,-1.0963404337013822,1.325071937268346,0.23033547250676126,0.1727861726810603,0.345378762899526,-0.6336921821150466,0.1731595102818945,-0.05762299999999998,-0.055043000000000064,-0.918284,0.22680499999999992,0.09897199999999995,-0.911926,0.2844279999999999,0.154015,0.006357999999999975,0.9945732677362832,0.924037388749751,double,-0.911926
171,0.7125,jog,-0.10847132229424418,-0.0004799616030855522,-0.015118790496768604,-0.14307353527940625,-0.11456549872836339,-0.041228573926881465,-0.0019198464122889224,-0.004319654427636754,0.0040796736261097975,-0.00767938564915569,0.0021598272138316985,0.005759539236860939,-0.4545884247416282,-1.9585290616109021,4.0907981585436,-1.1519815901267607,-0.6910064772623156,1.0942525650107493,-0.8060221594740398,0.6911308932711023,-0.05793638511230468,-0.05717899999999987,-0.05505899999999997,-0.918204,0.227225,0.09898300000000004,-0.911839,0.2844039999999999,0.154042,0.006365000000000065,0.9895931430835567,0.9199513118950353,double,-0.911839
172,0.716667,jog,-0.10895128389727646,0.0,-0.0033597312214922927,-0.08569513030308648,-0.05775825485338639,-0.03973204639601427,-0.0007199424046549715,-0.0023998080153478313,-0.0031197504199661683,-0.03791696664263961,0.016558675305971972,0.020638348932085934,-0.11518157020212964,0.11518157021491446,2.821948470188678,0.28795392551810456,0.46072628084687023,-1.7277235531739645,-7.25643892332222,3.4554471063451317,3.570628676559847,-0.05672800000000011,-0.055068999999999924,-0.918203,0.22752100000000008,0.09905200000000003,-0.9117390000000001,0.2842490000000002,0.15412099999999995,0.006463999999999914,0.9933312007037275,0.858298921520542,double,-0.9117390000000001
173,0.720833,jog,-0.11305808929431647,-0.008881421027353504,-0.007681228996647344,4.985598289871122e-06,-0.04922111391932874,-0.10050112774942029,-0.0014402304368580521,-0.00048007681230378377,0.0019203072491597538,-0.015602496399419928,0.001680268843009944,-0.0007201152184348556,-0.9857910218531262,-2.1318821477085295,-1.0373254381073362,-0.17289679121533827,0.46080921820549625,1.2098074097758167,5.356329871152247,-3.571388973346715,-5.126851692395906,-0.05626299999999995,-0.05503400000000003,-0.918163,0.2279270000000002,0.09909599999999996,-0.91171,0.28419000000000016,0.15413,0.006452999999999931,0.9959201316101907,0.9092879576380997,double,-0.91171
174,0.725,jog,-0.11159107271416706,-0.003359731221518936,-0.00455963522917953,-0.0833292641817791,-0.08498838995427797,-0.11259618951370552,-0.000959923206117818,-0.0002399808015427761,0.0011999040076793276,-0.009599232061444612,0.0014398848092300135,0.002879769618430053,0.35205581477067555,1.3250995454366512,0.7491225743863187,0.11526451421651798,0.057618433107992764,-0.17288294731951542,1.4406681876590521,-0.05768755310293462,0.8639032485876845,-0.05580199999999991,-0.05502099999999999,-0.918139,0.2283520000000001,0.09911600000000009,-0.911679,0.284154,0.15413700000000008,0.006460000000000021,0.9974079110877745,0.9185253314856796,double,-0.911679
175,0.729167,jog,-0.10703143748498753,0.0009599232061444612,-0.0014398848092033701,-0.07046597314740548,-0.08343571894908773,0.010445979507661275,-0.0016798656107727896,-0.0026397888168906074,0.001199904007679744,-0.00623950083995232,0.0009599232061444612,0.001199904007679744,1.0942249170097178,1.0366341319086547,0.7486802063777624,-0.17277235532876556,-0.5759078510553907,9.991207924992334e-14,0.8062709914788257,-0.11518157021491449,-0.4031354957404119,-0.05536300000000005,-0.055035999999999974,-0.918128,0.22877199999999998,0.09911600000000009,-0.911668,0.284135,0.15415200000000007,0.006460000000000021,0.9944147508024153,0.9246901145196098,double,-0.911668
176,0.733333,jog,-0.08161305808929589,-0.036725876140172496,-0.0014402304368846632,-0.24814731961418043,0.06439330435658189,-0.3112553546383202,-0.000480076812303771,0.0002400384061518855,-0.002160345655304926,-0.0050408065290563474,0.005040806529029698,0.0064810369659143606,6.101387276930297,-9.046039209389566,-8.296391773718884e-05,0.28799539089510745,0.6912691365920526,-0.8065889733520565,0.28773267184252793,0.9795687284890142,1.2676747379343767,-0.0550250000000001,-0.054881999999999986,-0.918131,0.22909099999999993,0.09928999999999999,-0.911635,0.28411600000000004,0.15417199999999998,0.006496000000000057,0.9962899589952346,0.9189825250116933,double,-0.911635
177,0.7375,jog,-0.11135109191265093,-0.016078713702913066,0.0033597312214922927,-0.050685642518519404,-0.058256343540785314,-0.16229025773657532,-0.0014398848092033701,-0.004319654427636754,0.000239980801535699,-0.005279577633781215,0.0009599232061444612,0.0031197504199661683,-7.136557193029711,4.954922591134935,1.151898646118771,-0.23033549241650872,-1.0942387410099843,0.5760322670603807,-0.05730048109548007,-0.9793336508003853,-0.8066442394884009,-0.05456700000000003,-0.05483299999999991,-0.918144,0.229533,0.09936100000000003,-0.9116359999999999,0.2841,0.15419399999999994,0.006508000000000069,0.9924006079513844,0.9245748138897981,double,-0.9116359999999999
178,0.741667,jog,-0.10175185985120902,-0.007919366450672033,-0.013918886489055093,-0.07417279004147666,-0.2020375706520415,-0.06918345853378109,-0.000479961603085565,-0.002159827213831756,-0.001439884809215065,-0.006719462442984764,-0.008159347252214816,0.001439884809215065,2.3036314042337627,1.9580866936023968,-4.146536527609244,0.23036314041704425,0.5183170659479336,-0.40313549574053176,-0.34554471063200787,-2.188449834019546,-0.4031354957406132,-0.05414500000000011,-0.054809,-0.918092,0.22992900000000005,0.09936,-0.911572,0.28407400000000016,0.154169,0.00651999999999997,0.9956003519718262,0.9170205337406137,double,-0.911572
179,0.745833,jog,-0.10369659145462977,-0.012962073931828721,-0.0038406144983235695,-0.16822036916612207,-0.13131529467898279,-0.1946830735670631,0.000480076812303771,-0.000480076812303771,0.0024003840614497322,-0.006240998559789125,0.005280844935181583,0.004560729716755075,-0.4668102744648938,-1.2104434664322334,2.41917234535082,0.23044609106801134,0.40320460910417283,0.9218120188825719,0.11484970792022055,3.2261623109448845,0.7491226374315909,-0.053711000000000064,-0.054757000000000056,-0.918066,0.23033499999999996,0.09943599999999997,-0.911537,0.284046,0.15419300000000002,0.006529000000000007,0.9958424128478817,0.9191075036005616,double,-0.911537
180,0.75,jog,-0.09839212862971403,0.0007199424046016851,-0.008399328053757375,-0.18759096230168687,-0.19730561327088367,-0.022135258174116386,-0.0004799616030855522,-0.0026397888168906074,-0.001679865610751142,-0.007919366450671823,0.0011999040076872372,0.005759539236860939,1.2729692404405333,3.283421247043509,-1.0940037330054646,-0.23039078843036137,-0.518289417947401,-0.9791815868012582,-0.40277607172610647,-0.9793474748006515,0.2876912695238433,-0.0533030000000001,-0.054771000000000014,-0.918038,0.23071200000000003,0.09943800000000003,-0.911478,0.28401500000000013,0.15420900000000004,0.00656000000000001,0.9947240596919176,0.9179574715694137,double,-0.911478
