frame_id,timestamp,gait_type,root_linear_velocity_x,root_linear_velocity_y,root_linear_velocity_z,root_angular_velocity_x,root_angular_velocity_y,root_angular_velocity_z,left_linear_velocity_x,left_linear_velocity_y,left_linear_velocity_z,right_linear_velocity_x,right_linear_velocity_y,right_linear_velocity_z,root_acceleration_x,root_acceleration_y,root_acceleration_z,left_acceleration_x,left_acceleration_y,left_acceleration_z,right_acceleration_x,right_acceleration_y,right_acceleration_z,left_pos_rel_x,left_pos_rel_y,left_pos_rel_z,right_pos_rel_x,right_pos_rel_y,right_pos_rel_z,step_length,step_width,step_height,left_contact_prob,right_contact_prob,support_type,max_foot_height
1,0.004167,jog,-0.12670986321096328,0.09743220542354367,0.007199424046070193,0.12930077131527803,0.015983728646700963,-1.0034027932103335,-0.010079193664530242,-0.0331173506119442,-0.009599232061435111,-0.0026397888168906277,0.0038396928245778743,-0.00335973122150231,0.0,0.0,0.0,0.0,0.0,0.0,0.0,0.0,0.0,-0.14750200000000002,-0.06634000000000007,-0.923326,0.028658000000000072,0.08887999999999996,-0.919802,0.1761600000000001,0.15522000000000002,0.0035239999999999716,0.9401275821097053,0.9551857985732443,double,-0.919802
2,0.008333,jog,-0.13082093134902006,0.06553048487757265,0.009121459433531808,0.21261696024807156,-0.026777392076008287,-1.0587264590925938,-0.01248199711952496,-0.03504560729716262,-0.011521843494959057,-0.0031204992798945642,0.0019203072491617858,-0.0036005760921750175,-0.986814243412574,-7.657638153137544,0.4613623109605412,-0.5767651116165908,-0.462855661358238,-0.4615005841392091,-0.11538897335668181,-0.46072625430054925,-0.05781201888447133,-0.14700899999999995,-0.06675900000000001,-0.923412,0.02919000000000005,0.088615,-0.9198550000000001,0.176199,0.155374,0.0035569999999999213,0.9350909242683554,0.955868256297383,double,-0.9198550000000001
3,0.0125,jog,-0.1310295176385734,0.09167266618673012,-0.028317734581248494,-0.06732931838898196,-0.11428392510389564,-0.8803086620290788,-0.01583873290139705,-0.03863690904724158,-0.0184785217182627,-0.005279577633781255,0.0021598272138317145,-0.0023998080153586733,-0.050056704956404206,6.273621624467833,-8.98468778852419,-0.8055521434778231,-0.8618434725411476,-1.6694692160555897,-0.51813735394449,0.05748019310533445,0.2881612855330799,-0.14652900000000013,-0.06730199999999997,-0.9233709999999999,0.029714000000000018,0.08824199999999993,-0.919747,0.17624300000000015,0.1555439999999999,0.0036239999999999606,0.9238945912723142,0.9534457875704186,double,-0.919747
4,0.016667,jog,-0.12263018958486925,0.08255339572831771,-0.011279097672190843,-0.04924374326656874,0.023402968788728266,-0.8824301695997154,-0.01847852171823439,-0.03623710103192038,-0.015118790496759973,-0.006719462443037922,0.001679865610746159,-0.003359731221502309,2.0156774786907006,-2.1884498340322542,4.088945742514435,-0.6334986361500698,0.5759078510490054,0.8062709914813359,-0.34554471064474857,-0.11518157021491612,-0.2303631404232387,-0.14609499999999986,-0.06779699999999989,-0.923387,0.03019700000000003,0.08790500000000001,-0.9197139999999999,0.1762919999999999,0.1557019999999999,0.0036730000000000373,0.9276743267847558,0.9504398144689195,double,-0.9197139999999999
5,0.020833,jog,-0.12914066250598355,0.06385021603458942,-0.03072491598656193,-0.01660449839280033,-0.019286708264579965,-0.932530979202511,-0.017762842054759847,-0.03456553048491215,-0.017042726836293782,-0.0038406144983235725,0.00048007681230377136,0.0,-1.5627635432343494,-4.489481443525756,-4.667743234366561,0.17179060573080726,0.40124112986275273,-0.46181861246610867,0.6910340721829933,-0.28799539088871523,0.8064645274849519,-0.14563100000000007,-0.06820700000000013,-0.92333,0.03071899999999994,0.08764099999999997,-0.9195859999999999,0.17635,0.1558480000000001,0.0037440000000000806,0.9292746117880679,0.9561091616672187,double,-0.9195859999999999
6,0.025,jog,-0.13558915286775297,0.08231341492680158,-0.038876889848811005,-0.24837612410121046,-0.1464637625594193,-0.8716567551689782,-0.01559875209982763,-0.030237580993484146,-0.016798656107511543,-0.003359731221492318,0.00023998080151613468,-0.0016798656107511545,-1.5475138857138038,4.430813269069393,-1.9563172215620526,0.5193400419803738,1.038624787959684,0.05857228912460725,0.11540275421916356,-0.057618433114383645,-0.4031354957406178,-0.14513100000000012,-0.06867599999999996,-0.923238,0.03126999999999991,0.0872989999999999,-0.919431,0.17640100000000003,0.15597499999999986,0.003807000000000005,0.9367582412389692,0.9556567470037134,double,-0.919431
7,0.029167,jog,-0.12910967122628456,0.08567314614829397,-0.014878809695225951,-0.20681272174168833,-0.05047639555656161,-0.6906218023177418,-0.013918886489054838,-0.032157427405826396,-0.019198464122870233,-0.0040796736260940115,0.0023998080153744944,-0.00455963522918165,1.5549511978565922,0.8062709914788546,5.75907851057957,0.4031354957458104,-0.46072628085967154,-0.5759078510580014,-0.1727723553159813,0.5183170659607299,-0.6910894212696177,-0.14465100000000009,-0.06916699999999998,-0.923256,0.0317909999999999,0.08695200000000003,-0.919388,0.176442,0.156119,0.0038679999999999826,0.9334080301151249,0.9503664251358928,double,-0.919388
8,0.033333,jog,-0.13058089294289477,0.06553048487757261,-0.014402304368686735,-0.038715308762338495,0.08935431495453877,-0.7813729282910075,-0.01248199711952495,-0.03528564570334113,-0.017762842054728605,-0.00600096015361059,0.0019203072491617847,-0.00048007681229002974,-0.3531497159410008,-4.835012306942232,0.11437957910206813,0.3449086340686238,-0.7508925342090098,0.34460443306328076,-0.46118255581290857,-0.11509859966699697,0.9792507001660146,-0.14415899999999993,-0.06958700000000007,-0.92327,0.03231000000000006,0.08668700000000007,-0.91933,0.176469,0.15627400000000014,0.003940000000000055,0.9309509915861933,0.9500683576723782,double,-0.91933
9,0.0375,jog,-0.12814974802016674,0.07631389488841869,-0.018958483321346607,-0.1066017157420544,-0.0017568847966409648,-0.7168934602031791,-0.010079193664530249,-0.03167746580268756,-0.014638828893688585,-0.003599712023061742,0.0009599232061444692,-0.0009599232061432203,0.5834281072061509,2.5878113776928457,-1.0933954770002101,0.5766266990628038,0.8658939046444872,0.7497031823950138,0.5762534510556395,-0.23047373242556185,-0.11515392221098894,-0.143667,-0.0700369999999999,-0.923252,0.032829,0.08637300000000003,-0.9192549999999999,0.176496,0.15640999999999994,0.003997000000000028,0.9394619656747778,0.9536180251411991,double,-0.9192549999999999
10,0.041667,jog,-0.12479001679867421,0.046076313894881156,-0.01823854091671824,-0.31690396610087757,0.025597278490576046,-0.8504368118375761,-0.005519558435297385,-0.028317734581248474,-0.01751859851211905,-0.002639788816890625,0.001199904007660602,0.0,0.8062709914788866,-7.256438923335135,0.17277235532238205,1.0942249170225244,0.806270991466062,-0.691089421269609,0.2303631404298334,0.057590785101063746,0.2303631404231388,-0.1431699999999998,-0.07034699999999994,-0.923249,0.03333800000000009,0.08618599999999998,-0.919179,0.1765079999999999,0.15653299999999992,0.004070000000000018,0.9437451011771835,0.9544671682371222,double,-0.919179
11,0.045833,jog,-0.1361017762842018,0.05976956313008736,-0.016322611617848547,-0.0386872396718143,-0.007084662039796144,-0.7509196606232513,0.002160345655287024,-0.02280364858376292,-0.012722035525684353,-0.00480076812287782,0.0009601536245808939,-0.005040806529044696,-2.7152567176014415,3.286905721364911,0.45989661518715674,1.84347193725022,1.3235924141828035,1.151359334237806,-0.5187180283214587,-0.05754929982710236,-1.209987164917115,-0.1425939999999999,-0.07069099999999984,-0.923234,0.033885000000000165,0.08594100000000005,-0.9191320000000001,0.17647900000000005,0.15663199999999988,0.004101999999999939,0.9563306721549182,0.9472683011935721,double,-0.9191320000000001
12,0.05,jog,-0.13318934485237835,0.06623470122394162,-0.011039116870648055,-0.14683584026352756,0.00951959563779725,-0.6055248054203192,0.00527957763378125,-0.02183825293977998,-0.010799136069114437,-0.0043196544276634255,0.002639788816890625,-0.000959923206143635,0.6989276294272753,1.5515090218032765,1.2679373043437694,0.7485557903753836,0.23167642044227016,0.46145895286055055,0.11545805020743803,0.403080199738356,0.9793336508041894,-0.14201700000000006,-0.07105800000000007,-0.9232330000000001,0.03442199999999995,0.08567599999999986,-0.9190900000000001,0.176439,0.15673399999999993,0.004143000000000008,0.9584533538159222,0.9499823227927218,double,-0.9190900000000001
13,0.054167,jog,-0.1343892488601191,0.051355891528662496,-0.009599232061444692,-0.09617421679580937,0.0045210931528404386,-0.6191336414253771,0.006959443244554063,-0.017038636909031023,-0.008399328053755362,-0.005039596832265124,0.0019198464122889385,-0.002399808015358675,-0.28795392554373767,-3.5706286765728668,0.3455447106319568,0.40313549574581564,1.1518157021235802,0.5759078510580937,-0.17277235531598256,-0.17277235531597965,-0.34554471063475906,-0.1414279999999999,-0.07134299999999993,-0.923228,0.03496100000000002,0.08546999999999993,-0.91906,0.1763889999999999,0.15681299999999987,0.0041680000000000605,0.966281487538307,0.9484820879319487,double,-0.91906
14,0.058333,jog,-0.1509841574651921,0.02664426308208645,0.006961113778218132,-0.019238619439559748,0.10423746807657004,-0.6009654620151614,0.006721075372039597,-0.014882381180990506,-0.007201152184349613,-0.0026404224675907915,0.002880460873742677,-0.001680268843014896,-3.9834154116833824,-5.931739905563137,3.9751190205623645,-0.05721744419454288,0.5175841881998359,0.2876082259735353,0.5758939905603291,0.23058436424717657,0.172717036088281,-0.14077099999999998,-0.07151599999999991,-0.9232870000000001,0.03557900000000003,0.08537099999999997,-0.919096,0.17635,0.1568869999999999,0.004191000000000056,0.9702550323324777,0.9510008476769615,double,-0.919096
15,0.0625,jog,-0.16270698344131435,0.02351811855049953,0.013918886489081482,-0.03812666329089056,0.07127441895502468,-0.5097184197291719,0.006959443244554063,-0.006719462443037927,-0.009839212862970818,-0.0040796736260940115,0.0035997120230350987,0.002399808015358675,-2.813253174015423,-0.750214670407229,1.6697318720574406,0.05720371310642332,1.958943781606092,-0.6330839161557971,-0.34539264662904273,0.17260646731279636,0.9791401148004737,-0.14006399999999997,-0.07164199999999998,-0.923386,0.03624000000000005,0.08528800000000003,-0.9191440000000001,0.17630400000000002,0.15693000000000001,0.004241999999999968,0.9770027093648683,0.9476691835106494,double,-0.9191440000000001
16,0.066667,jog,-0.14710823134148646,0.03719702423809146,-0.003599712023061736,-0.2819386644795753,0.17820804849724603,-0.42336511451058206,0.00815934725218801,-0.0088792896567897,-0.007919366450683947,-0.003599712023061736,0.0016798656107728006,-0.001679865610751153,3.74340103187614,3.2826747510419767,-4.20412731272935,0.2879539255181054,-0.5183170659351499,0.4607262808463808,0.11518157020212988,-0.46072628084048384,-0.9790433467986138,-0.13941700000000012,-0.07183399999999995,-0.923404,0.036837999999999926,0.08514,-0.919136,0.17625500000000005,0.15697399999999995,0.0042680000000000495,0.9759553021915908,0.9501316947621277,double,-0.919136
17,0.070833,jog,-0.14210273643781263,0.0494479116658495,0.003120499279894573,-0.17241321370454005,-0.023048485395386616,-0.47038649226031887,0.009601536245808956,-0.0052808449352349,-0.007921267402784477,-0.006961113778164856,0.00024003840612523667,-0.0012001920307248702,1.2015110186447053,2.9406834920206606,1.6131088101191373,0.3461807473886102,0.8637649355628442,-0.0004563015123690566,-0.8068655197079042,-0.34561382732778867,0.11514008161936726,-0.13878500000000016,-0.07206200000000007,-0.92345,0.03740100000000002,0.08493499999999998,-0.919154,0.17618600000000018,0.15699700000000005,0.0042959999999999665,0.9774646389733825,0.9452601697357556,double,-0.919154
18,0.075,jog,-0.1377489800816112,0.023278137748983355,0.0023998080153478474,-0.1344224863707581,0.09216752893997257,-0.5934934412259314,0.010559155267615786,-0.00455963522917956,-0.008399328053755765,-0.004799616030748981,-0.0021598272138050696,0.0002399808015357006,1.0448179400531346,-6.280243320582222,-0.1729520673258279,0.22981018041920556,0.17307648333461456,-0.11472537820285277,0.518717961942854,-0.5759216750492689,0.34561383063608575,-0.13816699999999993,-0.07217800000000008,-0.923495,0.03795499999999996,0.08482900000000004,-0.919163,0.1761219999999999,0.15700700000000012,0.0043320000000000025,0.9762633227342039,0.9478989031276742,double,-0.919163
19,0.079167,jog,-0.1310295176385733,0.02879769618428074,0.015598752099854259,-0.13019987526396173,0.17463137123876704,-0.4075344828189879,0.010319174466046365,-0.0009599232061178244,-0.0064794816414689115,-0.0035997120230084494,-0.001439884809230023,-0.001679865610751153,1.612541982970462,1.3245880574267772,3.1674931808270697,-0.057590785113851864,0.8638617765926884,0.4607262808463766,0.2879539255436838,0.17277235530958623,-0.4607262808463767,-0.13757799999999998,-0.07230199999999987,-0.923587,0.03848600000000002,0.08470300000000008,-0.919235,0.176064,0.15700499999999995,0.0043520000000000225,0.9796290991468714,0.94943783662844,double,-0.919235
20,0.083333,jog,-0.1404224675948289,0.027364378300568756,0.008881421027353268,-0.11333991454272414,0.09117507946809417,-0.3914933860677245,0.008161305808897611,0.0,-0.007681228996639227,-0.0036005760921983335,-0.0002400384061518855,-0.0019203072491597026,-2.2546687364991858,-0.34405134030532514,-1.6124174441913073,-0.5179713531322018,0.23041843641810458,-0.28846551972403134,-0.00020740979113874607,0.288009218213667,-0.057715227654476585,-0.13695900000000005,-0.07241600000000004,-0.923656,0.03905599999999998,0.08458799999999989,-0.91928,0.17601500000000003,0.15700399999999992,0.0043760000000000465,0.9813208232838784,0.949427155398458,double,-0.91928
21,0.0875,jog,-0.1466282697384014,0.031677465802740896,0.004799616030722354,-0.20663532611209215,-0.09290274957118923,-0.4303991986997387,0.009839212862960843,-0.0019198464122889415,-0.005519558435325295,-0.003599712023061748,0.0011999040076872494,0.0,-1.489273372587596,1.035058195865647,-0.9795548348046372,0.4026654797367978,-0.4607262808468793,0.5187594339606281,0.00020736000398020337,0.3455585346386221,0.46083687284850183,-0.13630700000000018,-0.07255600000000006,-0.923699,0.0396519999999998,0.0844609999999999,-0.9193,0.17595899999999998,0.15701699999999996,0.004399000000000042,0.9809269354170743,0.9496859506035735,double,-0.9193
22,0.091667,jog,-0.1418286537077052,0.029997600191967986,0.002879769618433403,-0.17080758209435057,0.00430002485280548,-0.4334313030511433,0.006239500839952361,0.00023998080151613449,-0.005999520038397094,-0.0035997120230084494,-0.0014398848092033799,-0.002639788816894788,1.1518157021109185,-0.40313549574583846,-0.46072628084688005,-0.8638617765799085,0.5183170659479419,-0.11518157021161476,1.2790619495476208e-11,-0.6334986361628574,-0.6334986361638554,-0.1356900000000001,-0.07268000000000008,-0.923736,0.04022799999999993,0.08433000000000002,-0.919323,0.17591800000000002,0.1570100000000001,0.004413,0.9855678597290639,0.9480526972699855,double,-0.919323
23,0.095833,jog,-0.14402304368702726,0.017522803648581296,-0.0002400384061518855,-0.1477925391254667,-0.009687932206004083,-0.46277939346041763,0.008641382621201382,0.0002400384061785351,-0.004560729716754659,-0.005280844935181583,0.0,-0.0019203072491597026,-0.5267378730969893,-2.9944302792574846,-0.7488737456997807,0.5765438745196876,1.382733134916236e-05,0.34536493558387765,-0.4035364647559127,0.3456276546335523,0.17270320876982354,-0.135054,-0.07275199999999993,-0.923754,0.04080600000000012,0.08425700000000003,-0.91933,0.17586000000000013,0.15700899999999995,0.0044239999999999835,0.9837099751388455,0.9463947416300977,double,-0.91933
24,0.1,jog,-0.14302855771539247,0.023278137748983355,-0.0019198464122889352,-0.1523862225185993,0.01192575949141431,-0.42351051818240504,0.006239500839952361,0.004799616030695695,-0.004559635229181642,-0.0038396928245778704,0.0016798656107461574,-0.000959923206143635,0.23865754058910219,1.3811696905212512,-0.4031216717391524,-0.5764055150585596,1.0942110929966775,0.00026265600504362296,0.3458488386377997,0.40313549573941826,0.23047373242526198,-0.13443199999999988,-0.07282900000000003,-0.923765,0.041386000000000145,0.08416699999999999,-0.919326,0.17581800000000003,0.15699600000000002,0.004438999999999971,0.9848380998151918,0.9484439841343992,double,-0.919326
25,0.104167,jog,-0.10487161027113023,0.18358531317492355,0.0535157187424943,0.19470414232859407,-0.7191117161605574,0.46918438464345913,0.005279577633781268,0.003839692824577883,-0.00191984641228686,-0.00431965442766344,-0.0002399808015427785,-0.0009599232061432219,9.156934831836411,38.47064445066968,13.303471359439252,-0.23036314042982867,-0.230363140417042,0.6334986361638559,-0.11518157021491984,-0.46072628084687794,9.91575349014223e-14,-0.13397300000000012,-0.07357799999999992,-0.9239959999999999,0.04180499999999987,0.08340100000000006,-0.919553,0.175778,0.15697899999999998,0.004442999999999975,0.9886589497810181,0.9481841167455833,double,-0.919553
26,0.108333,jog,-0.12914066250603676,0.05520883341338798,0.016562650024000404,-0.20124510637366827,0.026132966823251197,-0.10051218400391271,0.0031204992798945625,0.0014402304368580138,-0.003120499279884985,-0.0028804608737160275,-0.0016802688430098993,-0.001920307249160119,-5.8255046171163,-30.815285588462668,-8.870155717353304,-0.5182617268090983,-0.5759631271531126,-0.28820280067165727,0.3454617268236706,-0.3457244458634469,-0.23052905497285078,-0.13342199999999993,-0.07380200000000015,-0.924078,0.04233100000000012,0.0831639999999999,-0.91963,0.17575300000000005,0.15696600000000005,0.0044480000000000075,0.9922631302585108,0.9491064860210439,double,-0.91963
27,0.1125,jog,-0.1293496520278005,0.05879529637624873,0.013438924886022547,-0.07031751000054809,-0.11346892430940296,-0.031513158893006,0.0038396928245778704,0.0009599232061711108,-0.00335973122150189,-0.002159827213858356,-0.0002399808015427777,-0.0004799616030718175,-0.05015347294546098,0.8606822565060582,-0.7496340623896939,0.17259264331252874,-0.1152645142037203,-0.05741107310220897,0.1729382433063765,0.3456414786338181,0.345655302636981,-0.13286700000000007,-0.07404299999999986,-0.924148,0.042860999999999816,0.08291800000000005,-0.9196880000000001,0.17572799999999988,0.1569609999999999,0.0044599999999999085,0.9913473691493417,0.9516908493337964,double,-0.9196880000000001
28,0.116667,jog,-0.13270938324934609,0.03767698584112373,0.023758099352042268,-0.1449456793136848,-0.08053512226984338,-0.14889200984843157,0.004079673626094005,0.002399808015321204,-0.0031197504199666055,-0.00455963522917956,-0.0009599232061444676,-0.0019198464122868538,-0.806270991491622,-5.067989089302851,2.476403759543967,0.05759078510106406,0.3455447106191726,0.057590785105659806,-0.5759078510490045,-0.17277235531598015,-0.3455447106347576,-0.1322970000000001,-0.07418999999999998,-0.92426,0.04339499999999985,0.08275700000000008,-0.9197949999999999,0.17569199999999996,0.15694700000000006,0.004465000000000052,0.9905519463955196,0.9469506719462473,double,-0.9197949999999999
29,0.120833,jog,-0.06961113778207495,-0.022323571771459185,0.036725876140199266,0.10494875957011854,-0.059311564701757205,0.40122502226654233,0.003120499279894573,0.001920307249161791,-0.0012001920307248702,-0.002880460873716037,-0.00024003840612523667,-0.00024003840614522388,15.146002272508714,-14.402438217134678,3.1127644714731235,-0.2302386812768685,-0.11509859965420413,0.46076773625581857,0.4030663359249946,0.17280000000461662,0.40321843642382,-0.13199399999999994,-0.07408900000000007,-0.9244180000000001,0.04367300000000007,0.08284900000000006,-0.919949,0.17566700000000002,0.15693800000000013,0.004469000000000056,0.9935740204815786,0.9504760081719117,double,-0.919949
30,0.125,jog,-0.11111111111108225,0.019918406527491044,0.004319654427636783,-0.07490742858362223,-0.09876854687605795,-0.1609726395943585,0.0019198464122889352,-0.0014398848092033799,-0.003359731221502306,-0.0014398848092033799,-0.0009599232061444676,-0.0004799616030714012,-9.959196863212686,10.137263810643192,-7.776871061330081,-0.28813363753435,-0.8063815834809618,-0.5182479459509081,0.3457105986351466,-0.1727585313221095,-0.057576961105394064,-0.13152300000000006,-0.07417800000000008,-0.92445,0.04413,0.082762,-0.919969,0.17565300000000006,0.15694000000000008,0.004480999999999957,0.993118690291148,0.952196913537513,double,-0.919969
31,0.129167,jog,-0.11351091912651003,0.01511879049674206,-0.011279097672190834,-0.24417416912655435,-0.1399529439121495,-0.2737204655203556,0.0011999040076872453,-0.004799616030695695,-0.0019198464122868538,-0.003599712023061736,-0.0002399808015427777,-0.00191984641228727,-0.5759078510745791,-1.1518157021235849,-3.743401031876074,-0.17277235531598015,-0.8062709914788365,0.3455447106348574,-0.518317065960728,0.17277235531598015,-0.34554471063495745,-0.13104499999999986,-0.07426099999999991,-0.924411,0.04458800000000007,0.08269800000000005,-0.91993,0.17563299999999993,0.15695899999999996,0.004480999999999957,0.9911553698154465,0.9483787903503659,double,-0.91993
32,0.133333,jog,-0.11305808929426016,0.030724915986588556,0.013442150744132493,-0.18828546905981688,-0.04853856872470546,-0.09209445215049251,0.0007201152184290069,-0.0038406144983235695,-0.004560729716754659,-0.0009601536245542427,-0.0014402304368846632,0.0002400384061452231,0.10869655118815837,3.746069488681345,5.934049067768437,-0.11516773625977869,0.23019719932120128,-0.6339134192193477,0.6335953909043426,-0.2881060094435633,0.5184553092732817,-0.130571,-0.07440500000000005,-0.924486,0.04505500000000007,0.08256399999999986,-0.919985,0.17562600000000006,0.15696899999999991,0.004500999999999977,0.9899904016617056,0.9520774900426978,double,-0.919985
33,0.1375,jog,-0.12287017038638529,0.03767698584112373,0.02903767698582352,-0.10196381316550236,-0.10458918337639429,0.0008442369211571599,0.0004799616030855554,-0.004079673626094005,0.0,-0.003599712023061736,-0.0009599232061444676,0.0021598272138225543,-2.3547110852232103,1.668363296024758,3.742626887854814,-0.05763225710186015,-0.05736960109681662,1.0944875730152759,-0.6334433401745838,0.11526451421650952,0.46071245684601136,-0.13005699999999987,-0.07457899999999995,-0.924607,0.04555200000000004,0.08240299999999989,-0.9200969999999999,0.1756089999999999,0.15698199999999984,0.004510000000000014,0.9931536506005261,0.947722830795533,double,-0.9200969999999999
34,0.141667,jog,-0.12095032397409715,0.010319174466046434,0.024478041756670767,-0.13444557202415738,-0.08152100469775468,-0.2310243569892661,-0.0014398848092566758,-0.007439404847639656,-0.004079673626110268,-0.001919846412288948,-0.0023998080153478634,0.0002399808015361185,0.46072628084668776,-6.565349502058424,-1.0942249170033065,-0.4607262808596693,-0.8062709914916415,-0.979043346798726,0.4031354957458117,-0.34554471063196646,-0.4607262808462795,-0.12955899999999998,-0.07465300000000008,-0.924726,0.04604800000000009,0.08234999999999992,-0.920198,0.17560700000000007,0.157003,0.0045280000000000875,0.9856568105934682,0.9495823179831074,double,-0.920198
35,0.145833,jog,-0.0964954392702331,-0.028084493518997763,0.017282765242429412,-0.007308363298070957,0.13517600739188598,-0.4243374580441741,-0.0028804608737160275,-0.005520883341360118,-0.00048007681228961336,-0.0026404224675907915,-0.0019203072491617847,-0.0007201152184348364,5.870111546774851,-9.218355253251122,-1.7271427062509241,-0.3457935824434351,0.46051884452221226,0.864041481954069,-0.17296592782089365,0.1150985996606045,-0.23045991837996982,-0.1291690000000001,-0.07455900000000004,-0.9248,0.0464389999999999,0.08245900000000006,-0.920273,0.175608,0.1570180000000001,0.004526999999999948,0.9895906450381807,0.9491577531296307,double,-0.920273
36,0.15,jog,-0.11591072714183123,0.02639788816895954,0.012718982481420857,-0.21069688960786542,0.02591258485672921,-0.16429655357555242,-0.004799616030695695,-0.00815934725218801,-0.0035997120230384233,-0.0031197504199761807,-0.0038396928245778704,0.0007199424046075181,-4.659296345475909,13.074725627059575,-1.0952202450224504,-0.4605603928436922,-0.6331806841439618,-0.7486525583750436,-0.11502950621199633,-0.4606156888447525,0.3455861826355539,-0.128706,-0.07470299999999996,-0.924868,0.04690899999999987,0.08233299999999999,-0.920323,0.17561499999999985,0.15703599999999995,0.004545000000000021,0.9831205920758864,0.9462175999295908,double,-0.920323
37,0.154167,jog,-0.11831053515720572,0.023278137748983355,0.010799136069105278,-0.2001373097852413,0.07476574791737373,-0.23081143324054995,-0.0038396928245778704,-0.008159347252241296,-0.0019198464122868538,-0.0004799616030855554,-0.0021598272138050696,0.0004799616030718175,-0.5759078510617903,-0.748680206377773,-0.46072628085327016,0.23036314041704425,-1.2787913543329856e-11,0.40313549574071705,0.6334986361628564,0.40313549574581214,-0.057590785105759615,-0.12822899999999993,-0.07483400000000007,-0.924921,0.04739999999999989,0.08222700000000005,-0.920366,0.1756289999999998,0.15706100000000012,0.004554999999999976,0.9846337311316363,0.950676709410448,double,-0.920366
38,0.158333,jog,-0.12650024003839266,0.017042726836277527,-0.0014402304368846632,-0.21152473227485868,-0.041741844682101396,-0.29675846579554116,-0.0036005760921983335,-0.007921267402772374,-0.003360537686029792,-0.00024003840612523588,0.0,0.0009601536245796432,-1.9658437064779029,-1.4967380971449409,-2.937918028322115,0.0573971993229805,0.05714830760175769,-0.3458212370962403,0.057590781795563935,0.5184414819503284,0.11526452748627587,-0.12771700000000008,-0.07493799999999995,-0.924929,0.04792599999999991,0.08215600000000012,-0.920356,0.175643,0.15709400000000007,0.004573000000000049,0.9844540252618634,0.952620493828774,double,-0.920356
39,0.1625,jog,-0.13054955603554103,0.007679385649155741,-0.0004799616030589122,-0.12821723296204077,-0.1504506514129143,-0.3731716389754225,-0.00743940484758632,-0.01127909767216419,-0.004319654427645941,-0.0011999040076872453,-0.0002399808015427777,-0.0021598272138225543,-0.9717580986677125,-2.247022123139376,0.23044608443142553,-0.9212452016769817,-0.8058147994700777,-0.23016960441952208,-0.23034931642956766,-0.05759078510745799,-0.7487355023763366,-0.12720399999999987,-0.07501699999999989,-0.924945,0.04846499999999998,0.08212300000000006,-0.920363,0.17566899999999985,0.15713999999999995,0.004581999999999975,0.9763578646410698,0.9500426988109727,double,-0.920363
40,0.166667,jog,-0.10607151427887042,-0.024718022558186736,0.011279097672190834,-0.07385927539647101,0.07902513274326392,-0.20985676213012075,-0.006239500839952361,-0.008879289656842987,-0.003119750419966189,-0.0004799616030855554,0.0002399808015427777,0.0002399808015357006,5.8742600807944765,-7.774755989283045,2.821948470182322,0.2879539255181083,0.5759078510490045,0.28795392552909793,0.17277235531598015,0.11518157021491598,0.575907851057896,-0.1267879999999999,-0.07495099999999999,-0.9250050000000001,0.048904999999999976,0.08222700000000005,-0.920409,0.17569299999999988,0.15717800000000004,0.0045960000000000445,0.9811802410110511,0.953060282480265,double,-0.920409
41,0.170833,jog,-0.12001920307247829,-0.0026404224675907915,0.04872779644742033,0.38533764892903466,0.037763620207316,-0.032262220097585434,-0.005520883341360118,-0.008401344215076146,-0.004320691310609852,-0.0014402304368580138,-0.0024003840614655555,0.0009601536245800595,-3.347980987423875,5.299471937252983,8.989125966209665,0.1724957989899767,0.11472526206597221,-0.28827193726444117,-0.23050140032944255,-0.6337889733577368,0.1728691365925008,-0.12631100000000006,-0.07497500000000001,-0.925226,0.04939899999999997,0.08222799999999997,-0.920608,0.17571000000000003,0.15720299999999998,0.004618000000000011,0.9817630479755859,0.9488876796263533,double,-0.920608
42,0.175,jog,-0.11039116870648129,-0.0004799616030855586,0.011279097672190909,0.0022976957968353206,0.024968197565460495,-0.24712216391547026,-0.005759539236813558,-0.007679385649155792,-0.003599712023038031,-0.0014398848092033894,-0.0023998080153478634,0.0014398848092150459,2.310543404366945,0.5184691299508628,-8.986968748555228,-0.057272833082179266,0.1732561953252599,0.17302118732225225,8.294400158971912e-05,0.00013824000904537933,0.11512627421046055,-0.12587499999999996,-0.07500499999999999,-0.925288,0.049852999999999925,0.08222000000000007,-0.920649,0.17572799999999988,0.15722500000000006,0.004638999999999949,0.9829133594406446,0.9483644688230757,double,-0.920649
43,0.179167,jog,-0.10967122630193216,0.005759539236866806,0.004799616030722338,-0.09843770989269669,-0.022996561706820993,-0.2286179881276627,-0.004079673626147291,-0.007919366450671875,-0.0031197504199666055,-0.00023998080151613449,-0.0021598272138317128,-0.0004799616030718175,0.17277235530336713,1.4973604127555458,-1.5549511978566268,0.403135495720246,-0.05759078510105188,0.11518157021152506,0.2879539255308984,0.057590785101068014,-0.460726280846379,-0.12543499999999996,-0.07506199999999996,-0.9253210000000001,0.05030900000000016,0.08218700000000001,-0.920671,0.17574400000000012,0.15724899999999997,0.004650000000000043,0.9842684901693386,0.9497908493338443,double,-0.920671
44,0.183333,jog,-0.11041766682666937,0.011041766682666937,0.006721075372066247,-0.04806349086287775,-0.08344256990033079,-0.21830577964946615,-0.005760921747485354,-0.011521843494970707,-0.002640422467594539,-0.0012001920307327777,-0.0026404224675907915,0.00048007681229002974,-0.17917439383994538,1.267937456985148,0.4612240377685806,-0.40356411938023556,-0.8647328478873809,0.11505711770812918,-0.230487573023678,-0.11536131871317293,0.23044609106141298,-0.12499900000000008,-0.075156,-0.9253600000000001,0.05076400000000003,0.08213000000000004,-0.9206970000000001,0.1757630000000001,0.15728600000000004,0.004662999999999973,0.9780839399506874,0.9484702365522827,double,-0.9206970000000001
45,0.1875,jog,-0.11207103431725336,0.005519558435350671,0.010079193664503588,-0.03148674177723005,-0.18551477561194007,-0.29011324045668263,-0.0035997120230084494,-0.010799136069131922,-0.001199904007679752,0.0007199424046016899,-0.0007199424046016899,0.000959923206143635,-0.396776455623708,-1.3252239614389874,0.8058839194714034,0.5186488419670992,0.17343590732872208,0.34569677463757753,0.4607954008482039,0.46087834484979595,0.11515392221108828,-0.12454699999999996,-0.07522400000000018,-0.925407,0.051234,0.08210399999999995,-0.9207350000000001,0.17578099999999997,0.15732800000000013,0.0046719999999998985,0.980922742152277,0.9509478058176065,double,-0.9207350000000001
46,0.191667,jog,-0.10559155267578486,0.005759539236866806,0.001199904007660602,0.009259375840498183,-0.05675273536307428,-0.2598125355158335,-0.005519558435350671,-0.009359251259875256,-0.003599712023038007,0.0007199424046016899,-0.0035997120230350926,0.0002399808015357006,1.5549511978566097,0.05759078510106416,-2.130859048918401,-0.460726280859664,0.3455447106447479,-0.5759078510578961,0.0,-0.6910894212703143,-0.17277235531747873,-0.12413000000000007,-0.0752870000000001,-0.925427,0.05167699999999997,0.08206499999999994,-0.920739,0.17580700000000005,0.15735200000000005,0.0046880000000000255,0.9809227421523011,0.9469886066247746,double,-0.920739
47,0.195833,jog,-0.10513682189148779,0.004320691310574041,-0.0007201152184290069,-0.01921493093828754,-0.08516755756065389,-0.23735399933624807,-0.0014402304368580138,-0.006961113778218132,-0.006240998559769554,-0.0007201152184290069,-0.0016802688430365487,-0.0014402304368696728,0.10915285268772727,-0.3453787629123293,-0.46087835479827355,0.9791953909007811,0.5756450988135194,-0.6340102104492427,-0.3456691365892212,0.46074008161270824,-0.4033152276537139,-0.12369800000000009,-0.07533400000000001,-0.92545,0.052111999999999936,0.08204,-0.920742,0.17581000000000002,0.157374,0.0047080000000000455,0.9842342290804488,0.949041235511726,double,-0.920742
48,0.2,jog,-0.1027117830573781,0.0014398848092033799,0.0019198464122889352,0.014387522843655857,-0.054689485571193894,-0.2613846469873169,-0.0023998080153744905,-0.00671946244298463,-0.004799616030717342,0.0011999040076872453,0.0002399808015427777,-0.0002399808015361169,0.5819627631652714,-0.6913382532686966,0.6335401081636524,-0.23028019642823994,0.057991681121550766,0.34590413464175906,0.4607677528476723,0.4608230488551295,0.28803686953049074,-0.12328000000000006,-0.07536799999999988,-0.925478,0.052545000000000064,0.08203500000000008,-0.920751,0.17582500000000012,0.15740299999999996,0.004727000000000037,0.9856679682688222,0.950651705294479,double,-0.920751
49,0.204167,jog,-0.09767218622511364,0.0011999040076872533,0.0033597312214923374,0.02305458065908636,-0.05120143109163779,-0.24135493451612255,-0.002159827213805084,-0.0050395968322651495,-0.005999520038397134,0.0004799616030855586,-0.0004799616030589154,-0.003839692824573733,1.2094064872244992,-0.05759078510106262,0.34554471063196796,0.05759078511384882,0.4031354957330189,-0.2879539255291093,-0.1727723553159805,-0.17277235531598203,-0.8638617765869059,-0.12288199999999994,-0.07539399999999996,-0.9255169999999999,0.05295400000000017,0.0820280000000001,-0.920781,0.1758360000000001,0.15742200000000006,0.0047359999999999625,0.9864541282922312,0.9461412891731577,double,-0.920781
50,0.208333,jog,-0.1072971675467748,-0.0028804608737160275,0.007921267402799024,-0.017546528534357637,-0.11049026116646636,-0.26562971280370185,-0.000960153624607542,-0.006721075372039597,-0.003360537686029792,0.00048007681225047176,0.0009601536245808924,0.0019203072491597026,-2.310365175626777,-0.9794442826220061,1.0949438745335294,0.2879677362452091,-0.40361942865445183,0.6334571177069948,2.765462431905124e-05,0.3456829639077788,1.3826212370939586,-0.12243900000000019,-0.07540999999999998,-0.925564,0.05340299999999987,0.082044,-0.920806,0.17584200000000005,0.15745399999999998,0.00475800000000004,0.987374192800424,0.9487533527804941,double,-0.920806
51,0.2125,jog,-0.10223182145429255,-0.0009599232061711108,-0.015118790496768704,-0.1689471635631516,-0.20623101360719526,-0.20649725014452394,-0.0007199424046016899,-0.0009599232061711108,-0.003839692824574124,0.002879769618460046,0.0,-0.0002399808015357006,1.215585815330514,0.46089216883727263,-5.529171562171276,0.05764608111491523,1.3825659145352724,-0.11498803420790295,0.5758802030740514,-0.2304184364245,-0.5184276579542599,-0.12201600000000012,-0.07540999999999998,-0.9255169999999999,0.05384100000000003,0.08204800000000012,-0.920744,0.17585700000000015,0.1574580000000001,0.004772999999999916,0.9932953145291322,0.9474537474686366,double,-0.920744
52,0.216667,jog,-0.10583153347735429,0.006479481641468495,0.0009599232061444676,-0.14463612878913573,-0.20665201408300568,-0.19268415233245434,0.0,-0.002639788816890625,-0.005759539236860977,0.00047996160303226897,-0.0011999040076872453,-0.0011999040076793356,-0.8638617765926888,1.785314338286441,3.8585826020909906,0.17277235531598015,-0.40313549573302443,-0.4607262808463766,-0.57590785107458,-0.2879539255308961,-0.23036314042323833,-0.12157499999999999,-0.07544799999999996,-0.925545,0.054284,0.08201600000000009,-0.9207529999999999,0.175859,0.15746400000000005,0.0047920000000000185,0.9894405417307092,0.949140847440874,double,-0.9207529999999999
53,0.220833,jog,-0.10609697551604202,0.011281805088845472,0.011281805088818823,-0.017525425868824784,-0.12673119424845308,-0.11936295396938951,0.000960153624607542,-0.0021603456552870205,-0.0043206913106094355,0.0019203072491617847,-0.0007201152184290069,0.00048007681228961336,-0.06371628389047959,1.1527420661010497,2.4776480755339287,0.23047374570512272,0.11508477234844076,0.34537876290243413,0.3457382731947947,0.11516773625977869,0.40325991837948816,-0.12112900000000004,-0.07550400000000002,-0.92561,0.05473399999999984,0.08196599999999998,-0.920798,0.17586299999999988,0.15747,0.0048120000000000385,0.9917913728081804,0.948369452557453,double,-0.920798
54,0.225,jog,-0.10319174466046366,0.0028797696184067597,-0.020878329733608866,-0.31176486012520865,-0.12928380274626566,-0.21226682819254275,0.0021598272138050696,-0.00023998080156942094,-0.004559635229182058,0.0011999040076872453,-0.0019198464122889352,-0.0007199424046075181,0.6971996293684579,-2.0163272067287505,-7.7178149321880625,0.287898629517045,0.46085069683647656,-0.05734195310118128,-0.17288294731810386,-0.28791245353010014,-0.2879815735294289,-0.12068999999999996,-0.07551700000000006,-0.9255420000000001,0.055169000000000024,0.08194600000000007,-0.920714,0.175859,0.15746300000000013,0.0048280000000000545,0.9915816473962781,0.9477605187838435,double,-0.920714
55,0.229167,jog,-0.09599232061434018,-0.011759059275249745,-0.009839212862987454,-0.23846672763347204,-0.01820589058827618,-0.2606750924757152,0.0014398848092033799,0.00023998080156942094,-0.0019198464122868538,-0.004319654427610139,-0.0031197504199761807,-0.0007199424046075181,1.7277235531853776,-3.5130378914462423,2.6491761148599475,-0.1727723553159801,0.11518157022770373,0.6334986361639553,-1.3245880574267768,-0.28795392553089616,0.0,-0.12028400000000006,-0.07546699999999995,-0.925509,0.05555100000000013,0.081982,-0.9206759999999999,0.17583500000000019,0.15744899999999995,0.004833000000000087,0.9959803713218524,0.94270857431313,double,-0.9206759999999999
56,0.233333,jog,-0.09937590014400244,-0.021603456553030104,-0.00816130580892426,-0.20665366088328677,-0.07449975236945056,-0.37380094501161004,0.001440230436911313,0.0007201152184290069,-0.003360537686029792,-0.000960153624607542,-0.002400384061438906,0.0031204992798845687,-0.8121890373649193,-2.3630334320164073,0.402762134916753,8.296392413179555e-05,0.11525070015832586,-0.3458212370962403,0.806409218195534,0.17267555413760785,0.9218535008382343,-0.11986399999999997,-0.07537400000000005,-0.925489,0.05596099999999993,0.08206199999999997,-0.920629,0.1758249999999999,0.15743600000000002,0.0048599999999999755,0.9937893364152977,0.9446461421762947,double,-0.920629
57,0.2375,jog,-0.09335253179745018,-0.0131989440845065,-0.002159827213831727,-0.18607756686759294,-0.05110911505646852,-0.329593936385487,0.0009599232061178308,-0.00023998080151613608,-0.0014398848092150459,-0.0009599232061178308,-0.002159827213831727,0.0009599232061436414,1.4454927637514505,2.0169216387145794,1.440239643650724,-0.11526451422929802,-0.23040461241784221,0.4609198168501936,5.529601384956495e-05,0.05772902510371493,-0.5184967779555891,-0.1194710000000001,-0.07531999999999983,-0.9254859999999999,0.05634600000000001,0.08210800000000007,-0.920616,0.1758170000000001,0.1574279999999999,0.00486999999999993,0.9970881889891969,0.9470482818123647,double,-0.920616
58,0.241667,jog,-0.08735301175906662,-0.018478521718234376,0.0019198464122889352,-0.18846831001070674,-0.06259736254799714,-0.3238935993278368,0.00023998080151613449,-0.00023998080156942094,-0.004559635229181642,-0.002639788816890625,-0.0016798656107461574,-0.002639788816894788,1.4397696276418404,-1.2669972723129042,0.9790433468012139,-0.17277235531598167,-1.278734113037582e-11,-0.7486802063754723,-0.4031354957458106,0.11518157021491941,-0.8638617765870953,-0.11910600000000016,-0.07524400000000009,-0.9255129999999999,0.056699000000000055,0.08217799999999997,-0.920635,0.1758050000000002,0.15742200000000006,0.004877999999999938,0.9923795860798094,0.9443970569917555,double,-0.920635
59,0.245833,jog,-0.09265482477196284,-0.013922227556436264,0.00600096015363724,-0.23996744929584415,-0.14465292404899927,-0.3082608292825723,0.000480076812303771,0.0,-0.003360537686029792,0.0,-0.0012001920307327777,-0.0009601536245796432,-1.2726387452943375,1.0936855885257102,0.9796240377696356,0.05763226375123291,0.05760460911411924,0.2878294630705351,0.6336507001657761,0.11514008161626964,0.4031769544683494,-0.1187180000000001,-0.07518599999999998,-0.925552,0.05708500000000005,0.08223100000000005,-0.920664,0.17580300000000015,0.15741700000000003,0.0048880000000000035,0.9943422405089858,0.9485583404394873,double,-0.920664
60,0.25,jog,-0.09191264698824618,-0.011039116870648055,0.006239500839925718,-0.192573150798691,-0.06829357945503653,-0.24298624929176454,0.0023998080153744905,-0.0007199424046016899,-0.001679865610751153,-0.0016798656107728006,-0.0016798656107461574,0.0026397888168943717,0.17810841941844419,0.691891213292106,0.05724518509442712,0.46069863284634455,-0.17277235531598015,0.4033290317443334,-0.4031354957458121,-0.11511245020719443,0.8639170725879557,-0.11832500000000001,-0.07514299999999996,-0.925585,0.057460999999999984,0.08227000000000007,-0.920679,0.175786,0.15741300000000003,0.004905999999999966,0.9949724801655777,0.9450210140840809,double,-0.920679
61,0.254167,jog,-0.095032397408223,-0.00599952003838298,0.0069594432445540975,-0.18547668639488496,-0.11198755247959599,-0.23544543762489364,-0.0004799616030855586,0.0004799616030855586,-0.0028797696184305077,-0.004079673626094032,-0.002879769618433422,-0.0009599232061432251,-0.7486802063779312,1.2094064872246468,0.17277235532238633,-0.6910894212767136,0.2879539255308988,-0.28795392552900445,-0.575907851049015,-0.28795392553090265,-0.8638617765869012,-0.11793100000000001,-0.07511599999999996,-0.9256260000000001,0.057840000000000114,0.082283,-0.9207120000000001,0.17577100000000012,0.15739899999999996,0.004913999999999974,0.9950688632885543,0.9423848299734539,double,-0.9207120000000001
62,0.258333,jog,-0.08713394143060271,-0.0064810369659143606,0.0026404224675907915,-0.19470645611232598,-0.07615959833131497,-0.23305415787523756,0.0014402304368580138,-0.0007201152184290069,-0.002160345655304926,-0.000960153624607542,-0.0002400384061518855,-0.001680268843014896,1.8959327838742879,-0.1155825558164618,-1.0367308634093382,0.4609198367603387,-0.2880645274878936,0.1726893814511717,0.7488046090942122,0.6336368728472238,-0.17291061854816858,-0.11756200000000017,-0.07509199999999994,-0.9256460000000001,0.05819899999999989,0.08230899999999997,-0.92073,0.17576100000000006,0.1574009999999999,0.0049160000000000315,0.995509292622704,0.9475898646164602,double,-0.92073
63,0.2625,jog,-0.08975281977444051,-0.008159347252241243,0.005519558435323991,-0.13673760583821362,-0.09665103284226532,-0.22832560200399413,0.0021598272138583416,0.00311975041997616,-0.0045596352291816114,-0.0016798656107195032,-0.001199904007660594,0.0009599232061432123,-0.62848052407914,-0.4027622477386295,0.6909373572673813,0.1726894113271712,0.9214940336945374,-0.5757834350555957,-0.17271705930212522,-0.23034931641677495,0.6335954041656079,-0.11717899999999992,-0.0750449999999998,-0.9256880000000001,0.05856600000000012,0.08233800000000013,-0.920749,0.17574500000000004,0.15738299999999994,0.004939000000000027,0.9901134252505033,0.9468155703622245,double,-0.920749
64,0.266667,jog,-0.0866330693544655,-0.004799616030695727,0.005039596832238506,-0.13600854428753661,-0.062280506156344194,-0.21480527128623178,-0.00023998080156942253,-0.0026397888169439293,-0.0011999040076793436,-0.0009599232061711172,-0.0011999040076872533,-0.0019198464122868665,0.748680206377495,0.8062709914916091,-0.11518157021489994,-0.5759078510745808,-1.382178842553425,0.8062709914812304,0.17277235530318938,-6.397703474636843e-12,-0.6910894212695212,-0.116819,-0.0750360000000001,-0.9257139999999999,0.05892300000000006,0.08235300000000001,-0.920778,0.17574200000000006,0.1573890000000001,0.0049359999999999404,0.9951506456870731,0.9465415475697865,double,-0.920778
65,0.270833,jog,-0.08473355736913717,-0.00600096015361059,0.008881421027379916,-0.10971858768836791,-0.06723495049580948,-0.2066738892941485,-0.00024003840612523588,-0.0014402304368580138,-0.002160345655304926,-0.0016802688429832496,-0.0012001920307327777,0.0007201152184348364,0.4559558294115069,-0.2883687284961263,0.9221853564909764,-1.3827305764125141e-05,0.2879400816336809,-0.2305428822913062,-0.17291061853387707,-6.913659278071385e-05,0.6336921821223478,-0.1164670000000001,-0.07501700000000011,-0.92576,0.059269000000000016,0.08237299999999992,-0.9208120000000001,0.17573600000000011,0.15739000000000003,0.0049479999999999524,0.9956541924743296,0.9468752434073209,double,-0.9208120000000001
66,0.275,jog,-0.0835133189344882,-0.010319174466046297,-0.0021598272138316985,-0.1718804418736002,-0.14733504199043226,-0.2640906195013813,-0.0026397888168906074,-0.000959923206117818,-0.0031197504199665846,-0.002879769618460027,-0.0014398848092033701,0.0004799616030718143,0.29283379761194117,-1.0362885319020096,-2.649687602882537,-0.5758940270615198,0.11526451421650878,-0.23023872442084267,-0.28785715754182106,-0.05752166509973375,-0.05763225710655634,-0.11613000000000007,-0.07497799999999999,-0.925764,0.05960499999999991,0.08240999999999998,-0.920801,0.17573499999999997,0.15738799999999997,0.004963000000000051,0.9930034174528033,0.9449445700478611,double,-0.920801
67,0.279167,jog,-0.07943364530839528,-0.015838732901397142,-0.0045596352291795905,-0.11042958818118387,-0.07049284281676005,-0.25597478108312915,0.003839692824577896,-0.0009599232061711172,-0.002399808015358687,-0.0035997120230084733,-0.0023998080153745066,-0.0007199424046075229,0.9790433467945627,-1.3245880574396152,-0.575907851055413,1.5549511978566213,-1.2790775608100121e-11,0.17277235531747095,-0.17277235530320384,-0.23036314042983969,-0.2879539255290003,-0.11578299999999997,-0.07491599999999998,-0.925755,0.05992100000000011,0.08246600000000004,-0.920785,0.17570400000000008,0.15738200000000002,0.00497000000000003,0.992285696535468,0.9429903180215857,double,-0.920785
68,0.283333,jog,-0.0842534805568867,-0.011761881901095944,0.008881421027353268,-0.08056928711662047,-0.13914990482276746,-0.1914362050082431,-0.005520883341360118,-0.0016802688429832496,0.0,-0.0031204992798945625,-0.002880460873742677,-0.0007201152184348364,-1.1569455709292877,0.9786008162028792,3.226369720723199,-2.246897783470477,-0.17291061853387707,0.5760460910606542,0.11502946306142833,-0.11537514603172584,-4.148195566814203e-05,-0.11545500000000009,-0.07487399999999989,-0.925792,0.06025900000000006,0.08250299999999999,-0.920825,0.17571400000000015,0.15737699999999988,0.004966999999999944,0.9903818088652561,0.9431511079992944,double,-0.920825
69,0.2875,jog,-0.07943364530839528,-0.013678905687538772,0.001919846412288948,-0.08085428026581681,-0.03128261717845626,-0.20322509713966633,-0.002159827213805084,-0.0014398848092566758,-0.002399808015358687,-0.0016798656107728119,0.0,0.0011999040076793436,1.1566679262038502,-0.4600489048338946,-1.6706442560749601,0.8065889434977329,0.05768755309013083,-0.5759078510580036,0.34572442263541125,0.6912553092735045,0.4607677528471781,-0.11513299999999993,-0.07482300000000008,-0.9258099999999999,0.060583000000000053,0.08255999999999997,-0.920828,0.17571599999999998,0.15738300000000005,0.004981999999999931,0.994108103406655,0.9467393451455419,double,-0.920828
70,0.291667,jog,-0.07943364530834093,-0.01679865610751475,0.0009599232061444612,-0.0760112004844204,-0.03337671936656389,-0.21730119451056332,-0.0023998080153744745,0.0021598272138583416,-0.0009599232061436286,-0.0004799616030855522,-0.00023998080151613289,0.0007199424046075133,1.3041856744756659e-11,-0.7486802063777185,-0.2303631404234412,-0.057590785113844196,0.8638617766054691,0.3455447106347606,0.28795392553089766,-0.05759078510106337,-0.11518157021162147,-0.11481200000000014,-0.07474399999999992,-0.9258179999999999,0.060911999999999855,0.08262900000000006,-0.920829,0.175724,0.15737299999999999,0.00498899999999991,0.9943861815663708,0.9486134567687456,double,-0.920829
71,0.295833,jog,-0.0789726356217051,-0.0033605376860197985,-0.0016802688430098993,-0.09566671638088281,-0.0409712884177887,-0.16672465700748018,-0.0012001920307327777,-0.0024003840614655555,-0.0019203072491597026,-0.0024003840614122566,-0.0014402304368846632,-0.0009601536245800595,0.11066003039746268,3.225664527483183,-0.6337474913956694,0.28795390893943734,-1.0946258462131286,-0.23052905497265322,-0.4609751460217722,-0.28810600944995907,-0.4032875730166998,-0.11448800000000015,-0.07474000000000003,-0.925819,0.061231000000000035,0.08263699999999996,-0.920826,0.17571900000000018,0.157377,0.004992999999999914,0.9945000291706967,0.9451376796264038,double,-0.920826
72,0.3,jog,-0.08063354931608253,-0.002159827213805084,-0.0035997120230351165,-0.088468182881293,-0.05314494718802885,-0.1939795216713012,-0.002159827213805084,-0.0026397888168906425,-0.0009599232061436414,-0.00023998080156942253,-0.001919846412288948,0.0002399808015361185,-0.3985873996586129,0.2881474615346104,-0.4606295128450272,-0.23029402041572153,-0.057452545098413334,0.23047373242526198,0.5184553059378081,-0.11509862620693244,0.28800922153016195,-0.11416099999999996,-0.07474200000000009,-0.925808,0.06156600000000001,0.08263799999999988,-0.92081,0.17572699999999997,0.15737999999999996,0.004997999999999947,0.9940945432124726,0.9467706445865686,double,-0.92081
73,0.304167,jog,-0.07823374130065369,-0.009359251259928479,0.0002399808015427761,-0.08148985151953246,-0.031104759350127024,-0.22845264852262073,-0.0026397888168906074,-0.0023998080153744745,-0.0011999040076793276,0.0026397888168906074,-0.000479961603058909,0.005759539236860939,0.5759078510748317,-1.7277235531853468,0.9214525616937517,-0.11518157021490756,0.057590785101071795,-0.05759078510575577,0.6910894212766998,0.3455447106383557,1.3245880574333522,-0.11384600000000011,-0.07471300000000003,-0.925814,0.06190299999999982,0.08267500000000005,-0.920787,0.17574899999999993,0.15738800000000008,0.005027000000000004,0.9937267470036846,0.9391402853412782,double,-0.920787
74,0.308333,jog,-0.0775324051848471,-0.005280844935181583,0.0033605376860197985,-0.04627316628182718,-0.023118220920604574,-0.17745413366249288,-0.0038406144983235695,-0.0009601536245542427,-0.0014402304368700894,0.005280844935234882,-0.0009601536245808924,0.0009601536245800595,0.16834760341012883,0.9789741538038629,0.7490535008346184,-0.2882442826291314,0.34557234537211495,-0.05768757301746559,0.6339549011868154,-0.11526452748967426,-1.1520368728470658,-0.11353900000000006,-0.07469499999999996,-0.925834,0.06224800000000008,0.08269300000000002,-0.920797,0.17578700000000014,0.15738799999999997,0.005037000000000069,0.9929789051149085,0.9405422926134643,double,-0.920797
75,0.3125,jog,-0.07703383729302077,-0.011759059275249823,0.004319654427636811,-0.054356346600492184,-0.10088115000854062,-0.17504634584112677,-0.004079673626094032,-0.0007199424046016947,-0.0016798656107511643,0.0033597312214923374,0.0004799616030589154,-0.002159827213822985,0.11964672230053498,-1.5546470698507986,0.23016960441973083,-0.057369601096823666,0.05764608110212367,-0.05750784110416997,-0.46103040886550417,0.34560000663302515,-0.7487355023765448,-0.11323499999999997,-0.07464899999999997,-0.925859,0.06258300000000006,0.08274399999999993,-0.920824,0.17581800000000003,0.1573929999999999,0.005035000000000012,0.9925494216422155,0.9429453145291579,double,-0.920824
76,0.316667,jog,-0.07463402927764626,-0.02975761939045205,0.007679385649155792,-0.011568024341930806,-0.06464610302383898,-0.2256205586548844,-0.001919846412288948,-0.0023998080153745066,0.001439884809215462,-0.0007199424046016947,0.0011999040076872533,-0.001439884809215462,0.5759078510618009,-4.319308882937924,0.8062709914852411,0.5183170659479474,-0.4031354957458175,0.7486802063754845,-0.9790433467948297,0.17277235532237628,0.1727723553173811,-0.11293200000000003,-0.07453500000000002,-0.925885,0.06289100000000003,0.08287299999999997,-0.920862,0.17582300000000006,0.157408,0.005023,0.9943435982626261,0.9464236276036508,double,-0.920862
77,0.320833,jog,-0.07945271243400888,-0.010801728276541701,0.0021603456553136702,-0.04589509137347634,-0.07450186376125738,-0.1484241645783505,-0.0033605376860197985,-0.0031204992798945625,0.00024003840614480668,-0.0026404224675907915,-0.0016802688430098993,-0.0012001920307248661,-1.1566690245709597,4.550141890040887,-1.3247815635722797,-0.3458212370933388,-0.17299358245800658,-0.288009218211871,-0.4609889733531194,-0.6913521005033967,0.05753547251334511,-0.11261499999999991,-0.07450299999999999,-0.9258930000000001,0.06321100000000013,0.08291100000000007,-0.920876,0.17582600000000004,0.15741400000000005,0.005017000000000049,0.9923463248240894,0.9442434101281224,double,-0.920876
78,0.325,jog,-0.07343412526995803,-0.0067194624429845855,-0.0016798656107461464,-0.04759967286819364,-0.055379477538266185,-0.20365139291660433,-0.0004799616030855522,-0.0016798656107195032,-0.001679865610751142,-0.0021598272138583416,0.0,-0.0011999040076793276,1.444345371742453,0.9796654268195547,-0.9215769776961332,0.6912829572676324,0.34572442264819975,-0.4607401048466364,0.11533363420505069,0.40323226374127347,6.912000132914483e-05,-0.11231100000000005,-0.07448199999999994,-0.9258930000000001,0.0635079999999999,0.08293899999999998,-0.9208740000000001,0.17581899999999995,0.15742099999999992,0.005018999999999996,0.9959605211829925,0.9456920773773634,double,-0.9208740000000001
79,0.329167,jog,-0.07079433645312165,-0.013198944084453214,0.00023998080151613608,-0.03996013500072883,-0.02641654440524873,-0.2028194656658417,-0.0014398848092033894,-0.0009599232061711172,-0.0004799616030714044,-0.010799136069131993,-0.009839212862960876,0.005999520038397134,0.6334986361498429,-1.5549511978566513,0.46072628084048317,-0.2303631404170489,0.17277235530318938,0.2879539255290963,-2.0732682638045836,-2.361222189335477,1.7277235531741066,-0.11202199999999984,-0.07443100000000014,-0.9258959999999999,0.06375799999999998,0.08295299999999994,-0.92085,0.17577999999999983,0.15738400000000008,0.005045999999999995,0.9970069135374893,0.9232179723481659,double,-0.92085
80,0.333333,jog,-0.22251560249637528,-0.18434949591937144,0.06985117618819996,-0.08244013011083542,0.9737684285940175,-1.519242394703707,-0.0024003840614655555,-0.0016802688429832496,0.0,-0.006721075372039597,-0.005520883341360118,0.004080652904464629,-36.418930879321536,-41.08270567328807,16.709360390466582,-0.23055670961645833,-0.17291061853387707,0.11520921821205089,0.9788911898925571,1.036564935573873,-0.4606018084331502,-0.11110500000000001,-0.0736699999999999,-0.926187,0.06465699999999996,0.08369799999999994,-0.921124,0.17576199999999997,0.15736799999999984,0.005062999999999929,0.9951165964091407,0.9333574411136254,double,-0.921124
81,0.3375,jog,-0.07367410607152745,-0.05351571874252041,-0.008879289656816284,0.06549727088907445,0.13124598766000764,-0.45752501435108084,-0.0016798656107727896,-0.0009599232061711044,-0.001679865610751142,-0.004319654427663397,-0.0007199424046016851,-0.0023998080153590715,35.719101613834106,31.397594714866816,-18.89380029877985,0.172910595318637,0.1728691233050491,-0.40313549574061175,0.5762949230564391,1.1521336541296847,-1.5551862058612074,-0.11080500000000004,-0.07345099999999993,-0.926157,0.06494599999999995,0.08391800000000005,-0.921097,0.175751,0.15736899999999998,0.005059999999999953,0.9957295103383195,0.9410772050049014,double,-0.921097
82,0.341667,jog,-0.07367410607152843,-0.02639788816890643,-0.012239020878335383,-0.05354287438451748,0.0342414151163686,-0.2990259765100342,-0.00023998080151613608,0.0026397888168906425,-0.0007199424046079392,0.0011999040076872533,0.0014398848092300326,-0.0026397888168943895,-2.331281849164909e-13,6.507758716970035,-0.8062709914852696,0.34554471064474723,0.8638617765926967,0.23036314042313613,1.3245880574395685,0.5183170659543388,-0.0575907851056682,-0.1104989999999999,-0.07333000000000012,-0.9261090000000001,0.06525800000000004,0.08403399999999994,-0.921057,0.17575699999999994,0.15736400000000006,0.0050520000000000564,0.9954221569705477,0.9440841366437602,double,-0.921057
83,0.345833,jog,-0.07201152184348697,0.013682189150257729,-0.0141622659625615,-0.09834970851208709,-0.17060782746199213,-0.048420152180631434,-0.0024003840614655555,-0.0031204992798945625,-0.002640422467594539,0.0007201152184290069,0.003120499279867913,-0.001920307249160119,0.39908406818085795,9.620757877859848,-0.46165268464381054,-0.5185797551486842,-1.3826903736882383,-0.46098897335252004,-0.11516773625978062,0.4034120188761111,0.17270320876962794,-0.110209,-0.07340000000000013,-0.926061,0.06556099999999998,0.0839899999999999,-0.921006,0.17576999999999998,0.15739000000000003,0.005055000000000032,0.9920993688357373,0.9432264645599131,double,-0.921006
84,0.35,jog,-0.07175425965918619,0.0,-0.021118310535151785,-0.13700134510353953,-0.10435430396000861,-0.12763385053924564,-0.0016798656107195255,-0.003839692824577896,0.0014398848092150459,0.0014398848092566758,0.0026397888168906425,-0.0026397888168943895,0.061737985193371404,-3.28346271904435,-1.669317152049514,0.17291059533142167,-0.17259264331253601,0.9791954108014418,0.1727308833279753,-0.11536128221196858,-0.1726617633151607,-0.10991700000000004,-0.07341600000000015,-0.925967,0.06586599999999998,0.08400099999999988,-0.920929,0.17578300000000002,0.15741700000000003,0.005037999999999987,0.992614116745627,0.9429512007037104,double,-0.920929
85,0.354167,jog,-0.07487401007921468,-0.003599712023061712,-0.007919366450698465,-0.0997072294990603,-0.18732562446755197,-0.11963412594417035,0.0,0.00023998080156941934,-0.0011999040076793276,-0.0011999040076872372,0.0011999040076872372,-0.0009599232061436286,-0.7486802063903203,-0.8638617765926768,3.1674931808143074,0.40313549573302443,0.9790433468076036,-0.6334986361637517,-0.6334986361756403,-0.34554471063196407,0.40313549574052027,-0.10960499999999995,-0.07339999999999991,-0.925939,0.06617300000000004,0.08402100000000001,-0.9208999999999999,0.175778,0.15742099999999992,0.005039000000000016,0.9979605553501241,0.9463606445865624,double,-0.9208999999999999
86,0.358333,jog,-0.06433029284683983,0.0031204992798945625,-0.007681228996620489,-0.08250080565737956,-0.0848083905714147,-0.009667602499544669,0.0007201152184290069,0.0012001920307327777,-0.002160345655304926,-0.0002400384061785351,0.0,-0.0024003840614497322,2.5308970793026506,1.6131088101191238,0.05716213492030144,0.1728553092724451,0.2304875730108876,-0.23054288229131004,0.23040460909954427,-0.2880230455322219,-0.34576592782191606,-0.10933400000000004,-0.07340799999999992,-0.9259160000000001,0.06643999999999983,0.08400799999999997,-0.9208780000000001,0.17577399999999987,0.1574159999999999,0.005037999999999987,0.995709791448723,0.9455994064565794,double,-0.9208780000000001
87,0.3625,jog,-0.06455483561316926,0.0004799616030855586,-0.003119750419976201,-0.08989958684880255,-0.09994322574117923,-0.009635697169835065,-0.0004799616030855586,-0.0035997120230617597,0.0004799616030718207,0.0016798656107728119,0.0002399808015427793,-0.0004799616030718207,-0.05388595304281881,-0.6336783481663112,1.0946672850118346,-0.28799539753169484,-1.1518848221249256,0.6336230521662496,0.4607401048599371,0.05759078510745876,0.46086452084903345,-0.10906700000000003,-0.07342500000000007,-0.925901,0.066716,0.08400699999999994,-0.920867,0.17578300000000002,0.15743200000000002,0.005033999999999983,0.9938947534106959,0.9467208474408288,double,-0.920867
88,0.366667,jog,-0.06143508519319223,-0.01367890568753859,-0.0021598272138316985,-0.045908230884082156,-0.0709853946534065,-0.09273973942370262,-0.0014398848092033701,0.003599712023061712,-0.0004799616030718143,0.0,0.0016798656107461464,-0.0011999040076793276,0.7486802063779695,-3.39785632124407,0.230363140423445,-0.23036314041703965,1.7277235531853652,-0.2303631404232368,-0.4031354957458121,0.3455447106319549,-0.17277235531737495,-0.10881699999999994,-0.073353,-0.925894,0.06697200000000003,0.0840709999999999,-0.920863,0.17578899999999997,0.1574239999999999,0.005031000000000008,0.9934889926421199,0.9462493451455781,double,-0.920863
89,0.370833,jog,-0.060249639942391034,-0.0043206913106273405,-0.0007201152184290069,-0.11190208656515906,-0.10548674936247551,-0.03577857636897174,0.0009601536245542427,-0.00216034565534032,0.0,0.0,0.0,-0.001680268843014896,0.2845523885744596,2.2463308633968415,0.34558617268427516,0.5761014003258789,-1.3826350644267948,0.1152092182121493,0.0,-0.4032322637412734,-0.11530600944204705,-0.10856200000000005,-0.07334400000000008,-0.925891,0.06722300000000003,0.08408899999999997,-0.920867,0.17578500000000008,0.15743300000000005,0.0050240000000000284,0.9960598264514772,0.9469595519283085,double,-0.920867
90,0.375,jog,-0.05927525797933468,0.0033597312214923374,0.002159827213831727,-0.10699390601828801,-0.11836206008058792,0.04544865177545415,-0.00023998080151613608,-0.0045596352291795905,0.0004799616030718207,0.0004799616030855586,0.0004799616030855586,-0.0004799616030718207,0.2338329644963664,1.8431539553923018,0.6911308932711184,-0.28800922151917097,-0.5757834350466244,0.1151815702116207,0.11518157021491753,0.11518157021491753,0.2880506935308572,-0.10831600000000008,-0.07337700000000003,-0.925898,0.06747199999999998,0.08407700000000007,-0.920878,0.17578800000000006,0.1574540000000001,0.0050200000000000244,0.9923481615591968,0.9484144701963025,double,-0.920878
91,0.379167,jog,-0.057595392368615154,-0.002159827213805084,0.000959923206144474,-0.08218567121291309,-0.1050683648516375,0.030277101835619876,-0.00023998080151613608,0.0007199424046016947,0.0007199424046075229,0.0014398848092033894,0.0004799616030589154,-0.002639788816894806,0.4031354957330299,-1.3245880574267945,-0.2879539255308999,0.0,1.2669972723257295,0.0575907851057604,0.23036314041704734,-6.393852696582419e-12,-0.5183170659522431,-0.10807699999999998,-0.07336500000000012,-0.925899,0.06771799999999994,0.08408799999999994,-0.9208930000000001,0.17579499999999992,0.15745300000000007,0.005005999999999955,0.9982565798962065,0.9448649749858338,double,-0.9208930000000001
92,0.383333,jog,-0.06505040806532214,0.01032165146423793,0.010801728276515052,-0.11314169389598523,-0.17412497979788663,0.0920730667222578,-0.0002400384061785351,-0.0016802688429832496,0.002400384061450149,0.000480076812303771,0.0012001920307327777,-0.001680268843014896,-1.789490085623375,2.996034248210035,2.362411202681366,-1.3827331348778491e-05,-0.5761428822815512,0.40337053692813846,-0.2303907817809932,0.1728829639159534,0.2303216451944093,-0.10780699999999999,-0.07341500000000001,-0.925934,0.06799100000000013,0.08404999999999996,-0.920945,0.17579800000000012,0.15746499999999997,0.004989000000000021,0.9951002365523072,0.9465767303303091,double,-0.920945
93,0.3875,jog,-0.06119510439162281,-0.0071994240460701376,0.004079673626120621,-0.06914863898132256,-0.0768935392029007,-0.02824026902948544,0.00023998080156941934,0.0011999040076872372,0.0007199424046075133,0.0007199424046016851,-0.0004799616030855522,0.0019198464122872573,0.9251988657785698,-4.204721744734325,-1.6131640629696136,0.11519539422796994,0.6911861892657702,-0.40327373574337005,0.057563137100530896,-0.40320461574713634,0.8639585445889431,-0.10755099999999995,-0.07338,-0.925948,0.068249,0.08407799999999988,-0.920954,0.17579999999999996,0.15745799999999988,0.004993999999999943,0.9976337573861489,0.9465502950214393,double,-0.920954
94,0.391667,jog,-0.06527477801777094,-0.012479001679904804,0.004079673626094032,-0.13026644255397804,-0.16462027215341946,-0.06995411036993678,-0.0011999040076872533,-0.004079673626147319,0.002399808015358687,0.0004799616030855586,-0.00023998080151613608,-0.001439884809215462,-0.9790433468078127,-1.26699727233854,-6.3808433112634175e-12,-0.34554471064475184,-1.2669972723385134,0.4031354957406248,-0.057590785101062594,0.05759078511385109,-0.8062709914813387,-0.10728399999999993,-0.073345,-0.925955,0.06852300000000011,0.08412900000000012,-0.9209769999999999,0.17580700000000005,0.15747400000000011,0.004978000000000038,0.9918618550717887,0.9476589551886094,double,-0.9209769999999999
95,0.395833,jog,-0.05832933269322925,-0.004800768122877812,-0.00048007681227712134,-0.07168734127531183,-0.08795822876429539,0.0376654885403962,0.0014402304368580138,-0.0007201152184290069,0.0038406144983198216,0.00048007681225047176,-0.000480076812303771,-0.0012001920307248661,1.6671736256701124,1.843070945037683,-1.0945152276454995,0.633733664077116,0.8064230455396806,0.3458488917333493,2.765462431905124e-05,-0.05763226375123253,0.05753547251334511,-0.10703499999999999,-0.07332800000000006,-0.925937,0.06876799999999994,0.08414699999999997,-0.92098,0.17580299999999993,0.15747500000000003,0.004956999999999989,0.993059148834663,0.9481318072305567,double,-0.92098
96,0.4,jog,-0.061675065994708365,-0.0067194624429845855,-0.0026397888168906074,-0.11724158623778873,-0.04933871456586422,0.03384813487513795,0.0,-0.00023998080151613289,0.0031197504199661683,0.0019198464122889224,0.0009599232061444612,-0.0007199424046075133,-0.8029117594142285,-0.4604498008415549,-0.5182894179537963,-0.34562765463355,0.11522304221571163,-0.17299353932172973,0.34551706264421395,0.34557235863888197,0.11525069021294676,-0.10677800000000004,-0.07330100000000006,-0.925913,0.0690329999999999,0.08417899999999989,-0.920972,0.17581099999999994,0.15747999999999995,0.004940999999999973,0.994785055271419,0.9468167094104212,double,-0.920972
97,0.404167,jog,-0.06239500839936417,-0.0016798656107728119,0.0011999040076606101,-0.07444391249855613,-0.06079070821010645,0.10824777465540149,0.0009599232061178308,-0.0035997120230617597,0.002639788816894806,0.0011999040076872533,0.000959923206144474,-0.005519558435325314,-0.17277235532896743,1.2094064872118557,0.9214525616873624,0.23036314041704734,-0.8062709914916357,-0.11518157021151074,-0.1727723553159763,3.070214935284143e-15,-1.1518157021161093,-0.106514,-0.07330900000000007,-0.9259069999999999,0.06929800000000008,0.08418999999999999,-0.9209999999999999,0.17581200000000008,0.15749900000000006,0.004906999999999995,0.9923900897566211,0.9413808948193605,double,-0.9209999999999999
98,0.408333,jog,-0.06553048487757261,-0.0064810369659143606,0.004080652904475455,-0.07562066241883322,-0.05622912866947093,0.06601009022334792,0.0036005760921983335,0.00216034565534032,0.0050408065290446875,0.0014402304368580138,0.0009601536245808924,-0.002160345655304926,-0.7526347763342393,-1.1524655197171256,0.6914903736953536,0.6338581099569133,1.3826350644268064,0.5763364647503313,0.0576875730126645,5.53092742242848e-05,0.8063400816179515,-0.10622599999999993,-0.07327299999999992,-0.925903,0.069577,0.08422099999999999,-0.921026,0.17580299999999993,0.1574939999999999,0.00487700000000002,0.9890657302218213,0.9466162367600229,double,-0.921026
99,0.4125,jog,-0.06575473962080322,-0.005759539236866844,0.003119750419976201,-0.06818903551908181,-0.034046491635947335,0.08696930623967783,-0.00023998080151613608,0.00023998080151613608,0.004559635229181672,0.0021598272138583707,0.002879769618433422,-0.004559635229181672,-0.0538168330287042,0.1731456033231391,-0.23059814842794807,-0.921659921697742,-0.46085069686205776,-0.11547187421718696,0.17268941132718046,0.4606709848458221,-0.5757834350556179,-0.10595299999999996,-0.07324799999999998,-0.9258970000000001,0.06986000000000003,0.08425700000000003,-0.921058,0.175813,0.157505,0.004839000000000038,0.992379586079814,0.9419277998264614,double,-0.921058
100,0.416667,jog,-0.06575473962085562,-0.010319174466046297,-0.0023998080153744745,-0.12153052017299192,-0.03157184362134224,0.0718985135274442,0.0033597312214922927,0.004319654427663397,0.005039596832253425,0.0021598272138050553,0.0011999040076872372,-0.000239980801535699,-1.2575600374923684e-11,-1.0942249170096996,-1.3245880574395568,0.8638617765798899,0.9790433468075904,0.11518157021160297,-1.2794678423695651e-11,-0.4031354957394221,1.0366341319044734,-0.1056649999999999,-0.07318699999999989,-0.925866,0.07014300000000007,0.08430500000000007,-0.921049,0.17580799999999996,0.15749199999999997,0.00481699999999996,0.9876009919206368,0.9476926988109993,double,-0.921049
101,0.420833,jog,-0.07033125300045043,-0.0040806529044488055,0.0012001920307327777,-0.14599776103853657,-0.11273744866377436,0.12374433004031805,0.0031204992798945625,0.010801728276488402,0.004320691310609852,0.0026404224675907915,0.0012001920307061283,-0.005760921747479524,-1.0985389773391265,1.4974847723469724,0.8641382731894502,-0.05742485396008883,1.5559466751860298,-0.17256493558415098,0.11536131871957174,6.913658638766863e-05,-1.3252378650849306,-0.10535899999999998,-0.0731250000000001,-0.925853,0.07044699999999993,0.08432699999999993,-0.921078,0.1758059999999999,0.15745200000000004,0.004775000000000085,0.9799249171223179,0.9415002569670878,double,-0.921078
102,0.425,jog,-0.06767458603314545,-0.008639308855326908,-0.0007199424046016947,-0.1250612683559647,-0.0399112824095317,0.10412622983845071,-0.00023998080156942253,0.010799136069131993,0.006719462443004241,0.003839692824577896,0.0004799616030855586,-0.001439884809215462,0.6375490682277393,-1.0939899090180294,-0.46079540084820814,-0.8064507034950814,-0.0006220799991382322,0.5756590190531323,0.2878018615279845,-0.17284147531091285,1.036965907910748,-0.105078,-0.07304399999999989,-0.925822,0.07074500000000006,0.08436500000000013,-0.921081,0.17582300000000006,0.15740900000000002,0.004740999999999995,0.9787979229170234,0.9457086902911338,double,-0.921081
103,0.429167,jog,-0.07175425965918523,-0.017518598512116436,0.0026397888168906074,-0.1360992902444054,-0.13648230715907997,0.06954790933611346,-0.002399808015321188,0.0071994240460701376,0.007919366450683895,0.0016798656107727896,0.0009599232061444612,0.0011999040076793276,-0.9790433467817975,-2.130859048905558,0.8062709914788281,-0.5183170659351449,-0.8638617765927112,0.28795392552907256,-0.5183170659479458,0.11518157020851907,0.6334986361638515,-0.10478900000000002,-0.07294099999999992,-0.9258000000000001,0.07105099999999998,0.08444200000000013,-0.921087,0.17584,0.15738300000000005,0.004713000000000078,0.9817192306503262,0.9490755703621417,double,-0.921087
104,0.433333,jog,-0.0640902544407146,-0.012722035525650186,-0.004320691310600691,-0.1760443242347191,-0.029962050407934326,0.08556190020303427,-0.000960153624607542,0.00600096015361059,0.0074411905904948365,0.0016802688429832496,0.0007201152184290069,-0.002880460873739762,1.839655597328523,1.1513593342453783,-1.6707825558068394,0.34557234534653025,-0.2876773625683021,-0.11478057133678791,9.679121710513925e-05,-0.05756312715205333,-0.979444282625801,-0.10452600000000012,-0.07286300000000012,-0.9257510000000001,0.07132499999999986,0.08449799999999996,-0.921081,0.17585099999999998,0.15736100000000008,0.004670000000000063,0.983987441113636,0.9476140220821405,double,-0.921081
105,0.4375,jog,-0.0626349892008803,-0.011999040076819246,-0.0069594432445540975,-0.17152263655154962,-0.04091757646377133,0.12889966310793524,-0.0033597312214923374,0.005519558435350708,0.01007919366450657,0.0026397888168906425,0.0023998080153478634,0.0031197504199666263,0.34923571870273834,0.1735050273172412,-0.6332498041644881,-0.5758525550479503,-0.11552717020875572,0.6330700921554472,0.23026637242798137,0.40309402373862874,1.4399355156482896,-0.10427900000000001,-0.07278999999999991,-0.92568,0.07159699999999991,0.08455800000000002,-0.9210389999999999,0.17587599999999992,0.15734799999999993,0.004641000000000006,0.9800456448551707,0.9456912648355733,double,-0.9210389999999999
106,0.441667,jog,-0.06503479721625481,-0.010079193664477012,0.0014398848092033894,-0.17732859154861347,-0.040613838070051804,0.16443703656204792,0.0045596352291795905,0.009359251259875318,0.00863930885529194,0.0026397888168906425,0.0016798656107728119,0.005999520038396718,-0.5759078510618009,0.4607262808596701,2.015677478703512,1.9004959084885944,0.9214525616809773,-0.3455447106346624,0.0,-0.1727723553095886,0.6910894212695243,-0.10398899999999989,-0.07270900000000013,-0.92565,0.07187900000000003,0.08460699999999999,-0.92102,0.1758679999999999,0.15731600000000012,0.004630000000000023,0.9774523027126827,0.9424226044477408,double,-0.92102
107,0.445833,jog,-0.06505040806526885,-0.019923187710046853,-0.005040806529029698,-0.16749923771195946,-0.008968559995063238,0.10119047705898655,-0.0007201152184290069,0.0038406144983235695,0.010321651464234182,0.0026404224675907915,-0.0007201152184556565,0.003600576092175015,-0.0037472033158998685,-2.3629366407992882,-1.5556148195470674,-1.2673428822872284,-1.3246847723359927,0.4038268384402882,0.00015210050411642537,-0.5760875730265163,-0.5758386812822134,-0.10372099999999995,-0.07261000000000006,-0.925586,0.07216099999999992,0.08468699999999996,-0.920984,0.17588199999999987,0.15729700000000002,0.004601999999999995,0.981605754628623,0.9464422164820685,double,-0.920984
108,0.45,jog,-0.06911447084234792,-0.019198464122889225,-0.00911927045835906,-0.20385117626979857,-0.0063516197293791675,0.11209878527080223,0.00023998080151613289,-0.0021598272138050553,0.011759059275257994,0.007919366450725109,-0.000479961603058909,0.001919846412286841,-0.9752970427355517,0.17391974733804239,-0.9787530427956157,0.23040461241783836,-1.4399908116459272,0.3449502786234224,1.2668452083355597,0.057632257114649775,-0.4033428557446991,-0.10343199999999997,-0.07253899999999991,-0.9254990000000001,0.07248200000000016,0.08476500000000009,-0.920938,0.17591400000000013,0.157304,0.004561000000000037,0.980069710417891,0.9407852073019947,double,-0.920938
109,0.454167,jog,-0.06839452843769386,-0.006239500839899116,-0.008159347252214707,-0.23439292008095236,-0.1432037755230246,0.184594898895154,0.006719462443037961,0.0007199424046016947,0.01151907847372203,0.01343892488596935,0.0016798656107461687,0.005999520038397134,0.17277235532854945,3.1099023957259857,0.23036314042341216,1.5549511978694182,0.6910894212639229,-0.057590785105823064,1.3245880574140323,0.5183170659479458,0.979043346798732,-0.10311899999999996,-0.07251000000000007,-0.925417,0.07282299999999986,0.08479799999999993,-0.920879,0.17594199999999982,0.157308,0.004538000000000042,0.9777415021550377,0.9299318960691578,double,-0.920879
110,0.458333,jog,-0.07225156024966552,-0.013682189150257729,-0.004800768122904461,-0.18865634301805972,-0.06337128391465384,0.14960352875292934,0.008401344215076146,-0.0033605376860197985,0.010561689870378988,0.01200192030727448,0.009361497839657038,0.001680268843014896,-0.9258357685961716,-1.7865310394523783,0.8061879811114361,0.40371621988434553,-0.9794719372591191,-0.2298100344078352,-0.34493628869295945,1.8438867568196984,-1.036786172679365,-0.10278299999999985,-0.07246700000000006,-0.925353,0.07317400000000007,0.08489399999999991,-0.920852,0.17595699999999992,0.15736099999999997,0.004500999999999977,0.9768204417716926,0.9294672957149,double,-0.920852
111,0.4625,jog,-0.07535397168224696,-0.015598752099880799,0.0014398848092033701,-0.1470695267099233,-0.15970659498016168,0.1501261178608914,0.0014398848092033701,-0.00311975041997616,0.017758579313655046,0.01847852171823425,0.011279097672190758,0.000239980801535699,-0.7445191822849576,-0.45993831284450565,1.4976368927544477,-1.6706166080808071,0.057784321104784445,1.7271152971624677,1.554259997830507,0.4601871448365023,-0.3456414786367137,-0.10246299999999997,-0.0724149999999999,-0.925285,0.07356499999999988,0.08500600000000014,-0.9208569999999999,0.17602799999999985,0.15742100000000003,0.0044280000000000985,0.9698534482262025,0.9196363240980396,double,-0.9208569999999999
112,0.466667,jog,-0.06431485481159983,-0.017278617710547246,-0.003839692824577896,-0.11952345064599203,-0.06052199960522495,0.16693822392458957,0.006239500839899116,-0.0026397888168906425,0.011039116870650212,0.03527717782580276,0.019678425725948395,0.005519558435325314,2.649176114866136,-0.403135495720292,-1.266997272325725,1.1518157021108166,0.11518157021490763,-1.6125419829625325,4.031354957419872,2.015677478703548,1.2669972723277285,-0.10216900000000018,-0.07235400000000003,-0.9252229999999999,0.07397999999999993,0.08516000000000001,-0.9208179999999999,0.1761490000000001,0.15751400000000004,0.004404999999999992,0.9784128409431314,0.8880001565751549,double,-0.9208179999999999
113,0.470833,jog,-0.06913106096977095,-0.01944311089774308,-0.0014402304368580138,-0.15042586566763527,-0.013475813060165005,0.20812629860769366,0.0064810369659143606,-0.0036005760921983335,0.011041766682669435,0.03048487758041002,0.015362457993267627,0.004080652904464629,-1.1560744498730473,-0.5195614947661626,0.5759631271531158,0.05797794671513312,-0.23062584620923915,0.0006360566536781312,-1.1503361126722844,-1.0359980155258675,-0.34539259022099955,-0.10185400000000011,-0.07228800000000013,-0.925171,0.07439499999999999,0.08530499999999996,-0.920795,0.1762490000000001,0.1575930000000001,0.0043759999999999355,0.9778334210638473,0.8989399950355292,double,-0.920795
114,0.475,jog,-0.07151427885767006,-0.01775857931368609,0.0007199424046016947,-0.09661518695199946,-0.029992695922259182,0.23508787390575459,0.009599232061444739,-0.004319654427610168,0.012718982481401376,0.02519798416127246,-0.007679385649155792,0.00311975041996621,-0.5719265389726714,0.4042552397544995,0.518400009949537,0.7483069583706254,-0.1725649952992173,0.40249959172832983,-1.2687529203593926,-5.529600106173159,-0.23059814842774762,-0.10151600000000016,-0.07223199999999985,-0.925121,0.07479799999999992,0.08534700000000006,-0.920785,0.17631400000000008,0.1575789999999999,0.0043360000000000065,0.9724834804210656,0.9124295119148096,double,-0.920785
115,0.479167,jog,-0.07007439404851902,-0.01823854091671812,-0.0028797696184333834,-0.11748821395398049,-0.04180450897313867,0.2574667274707503,0.007439404847639557,-0.004319654427663397,0.01679865610751142,0.021598272138210414,0.0021598272138316985,-0.000239980801535699,0.34554471061939745,-0.11518157020206969,-0.8638617765862852,-0.518317065947964,-1.2773967482267803e-11,0.9790433467986589,-0.8638617765927572,2.361222189341832,-0.8062709914811335,-0.10119299999999987,-0.07217399999999996,-0.925039,0.07518000000000002,0.08543200000000006,-0.920774,0.1763729999999999,0.15760600000000002,0.004264999999999963,0.9685446080456808,0.9211711309473292,double,-0.920774
116,0.483333,jog,-0.07393182909264875,-0.013202112337953957,-0.012962073931828721,-0.14918801652942473,-0.09680749370435009,0.2616780788437195,0.009601536245808923,-0.0026404224675907915,0.016562650024003738,0.01728276524245606,0.0009601536245808924,0.003120499279884985,-0.9259325598007035,1.2089362887095916,-2.4201402576561044,0.5189945746925982,0.40308016324354395,-0.05665052412570336,-1.0358873969645583,-0.28796773625799454,0.8066442826261837,-0.10084499999999985,-0.07213000000000003,-0.924916,0.07556000000000007,0.08549099999999998,-0.9207069999999999,0.17640499999999992,0.157621,0.004209000000000018,0.9677904989472321,0.9285959255853093,double,-0.9207069999999999
117,0.4875,jog,-0.07679385649145135,-0.02327813774898351,-0.008639308855273623,-0.19565237230918062,-0.08693026786458066,0.3072725058089638,0.012239020878282096,-0.0035997120230617597,0.014398848092152956,0.01199904007676596,-0.0011999040076872533,0.004559635229181672,-0.6868316291822912,-2.418052654434752,1.0373806279229956,0.6329456761394741,-0.23021107642691951,-0.519270921970433,-1.2679926003576025,-0.5183723619554015,0.34536499863131637,-0.10047400000000017,-0.07204800000000011,-0.9248200000000001,0.07592999999999983,0.08558299999999996,-0.920652,0.176404,0.15763100000000008,0.0041680000000000605,0.9679376308714434,0.9368331173209551,double,-0.920652
118,0.491667,jog,-0.081113510919167,-0.016318694504429198,0.004079673626093978,-0.1519344838831796,-0.105769209687601,0.33975979386010396,0.01583873290139693,0.0004799616030855522,0.016798656107511002,0.012718982481420772,-0.0011999040076872372,0.004319654427645496,-1.036634131921197,1.6701327680715767,3.052311610599353,0.8638617766054252,0.9790433468076027,0.575907851057842,0.17277235532872698,3.8507780544241286e-15,-0.057590785105873295,-0.10006999999999988,-0.0719780000000001,-0.924767,0.07632100000000008,0.08564599999999989,-0.920651,0.17639099999999996,0.157624,0.0041160000000000085,0.9615115215623398,0.9363633640216835,double,-0.920651
119,0.495833,jog,-0.08641382621217371,-0.030244839174284784,0.009361497839657038,-0.16673970710385078,-0.17508286283737992,0.24641141382695272,0.0141622659625615,-0.0043206913106273405,0.018963034085453887,0.0141622659625615,-0.00024003840612523588,0.007681228996639643,-1.2722792349992074,-3.3428095702965854,1.2678406657616554,-0.4024164519528156,-1.1523410738629114,0.5195338401207114,0.346443466428403,0.23040460911233812,0.8069070016788633,-0.09965099999999993,-0.0718700000000001,-0.924727,0.07674000000000003,0.08577100000000004,-0.920658,0.17639099999999996,0.15764100000000014,0.004068999999999989,0.9599016898277168,0.9324550048858297,double,-0.920658
120,0.5,jog,-0.0856731461482944,-0.029037676985850355,-0.012479001679851519,-0.34371607416107114,-0.07331072964817806,0.3760960830117305,0.01703863690903111,-0.005519558435297421,0.017518598512119166,0.015118790496742161,0.003119750419949558,0.006719462443004657,0.177748995411403,0.28969574956429944,-5.241300580635633,0.6902738052482906,-0.28770509351333995,-0.3466368066558025,0.22954752440140802,0.8062848154727174,-0.23080550843172346,-0.09922300000000006,-0.07177199999999995,-0.924602,0.0771599999999999,0.08590500000000001,-0.920578,0.17638299999999996,0.15767699999999996,0.0040240000000000276,0.9582440301384845,0.9316994580965199,double,-0.920578
121,0.504167,jog,-0.0731941444684419,-0.014638828893656407,0.023518118550499335,0.021309156827120465,0.023796676311759968,0.3250295587108165,0.014158867290624141,-0.00455963522917953,0.01871850251979826,0.02735781137507718,0.014158867290624141,0.006479481641468453,2.9947208254985367,3.4554471063580126,8.63861776586287,-0.6910894212639661,0.23036314041705885,0.28795392552893834,2.9371300403971503,2.64917611487269,-0.057590785105880164,-0.09885900000000003,-0.07173000000000007,-0.9246219999999999,0.07757899999999984,0.08602499999999991,-0.9206489999999999,0.17643799999999987,0.15775499999999998,0.003973000000000004,0.9601514627007474,0.9078055398460079,double,-0.9206489999999999
122,0.508333,jog,-0.08713394143065602,-0.009361497839683687,0.015602496399419514,-0.1554577331047626,0.01701321760780959,0.45410824049363185,0.015602496399419514,-0.007681228996647139,0.020163226116178334,0.03432549207873359,0.012481997119551601,0.011521843494959048,-3.346086644794553,1.266762134895035,-1.9000533247911222,0.3465264303397434,-0.7493023925750376,0.3467891493951203,1.6725109706328378,-0.4025132431763176,1.210360502518145,-0.09843099999999994,-0.07172299999999998,-0.924603,0.07808499999999996,0.08611600000000008,-0.920666,0.1765159999999999,0.15783900000000006,0.003936999999999968,0.9556217376721888,0.896798787327175,double,-0.920666
123,0.5125,jog,-0.1007919366450379,0.03863690904729561,0.037197024238065556,-0.37154139380395074,0.08413866649014488,0.707794411640709,0.020638348932093143,0.005519558435350781,0.029277657787377707,0.03503719702428709,0.004319654427636869,0.013438924886009493,-3.2776566389206,11.518696157182676,5.1822720995071885,1.2085079272075174,3.167935548835654,2.187288617998451,0.17079552329098094,-1.958805541616244,0.4600627288338088,-0.09792500000000004,-0.07186099999999995,-0.924636,0.07865100000000003,0.08597299999999997,-0.920765,0.17657600000000007,0.15783399999999992,0.003871000000000069,0.9395942373637782,0.8983334609392073,double,-0.920765
124,0.516667,jog,-0.11159107271422035,-0.03167746580274058,-0.07295416366689912,-1.32092626572718,0.1852473002724742,-0.10639586286438417,0.01511879049674196,0.00047996160303226577,0.025437964962802827,0.03647708183343624,-0.0004799616030855522,0.014878809695224161,-2.5915853297773865,-16.87410003600568,-26.434170363562234,-1.3245880574396787,-1.2094064872374555,-0.9214525616930286,0.3455447106189429,-1.1518157021172029,0.34554471063466696,-0.09739699999999996,-0.0717270000000001,-0.924226,0.07926800000000012,0.08610299999999993,-0.920399,0.17666500000000007,0.15783000000000003,0.003827000000000025,0.9506740362859943,0.8960669958684171,double,-0.920399
125,0.520833,jog,-0.08329332693227914,-0.02760441670669399,0.0026404224675907915,-0.32435500995763467,-0.025842721368432884,0.22204480489020578,0.012722035525703486,-0.004320691310574041,0.019923187710033527,0.035765722515591604,-0.0007201152184290069,0.01368218915026439,6.792545794993083,0.9776882131652864,18.145603968912592,-0.5753132431681404,-1.1523410738373268,-1.323758341999351,-0.17075355685180837,-0.0576460910569982,-0.28723488837248434,-0.096997,-0.07162999999999986,-0.924154,0.07976399999999995,0.08621500000000004,-0.920353,0.17676099999999995,0.1578449999999999,0.0038010000000000543,0.9599496161119881,0.8981562799634489,double,-0.920353
126,0.525,jog,-0.07871370290379254,-0.02567794576430439,0.010319174466046297,-0.19009848913729763,0.11978343363988377,0.32925281946967766,0.014158867290624141,-0.0009599232061711044,0.0206383489320851,0.036237101031920106,-0.000479961603058909,0.017518598512118518,1.09902184508917,0.46231604089022926,1.8427530593845567,0.34481203861786536,0.8065198234708211,0.17162496329531282,0.11312179417530566,0.05763225710825439,0.9206645936774893,-0.09660999999999986,-0.07152700000000012,-0.924111,0.08024300000000006,0.08631999999999995,-0.920323,0.17685299999999993,0.15784700000000007,0.0037880000000000136,0.958255525243927,0.8950325953995917,double,-0.920323
127,0.529167,jog,-0.10295176385889356,-0.02591792656587381,-0.003839692824577845,-0.19184313372491815,-0.01984120720711739,0.31581457808683616,0.014158867290624141,0.004319654427663397,0.024958003359731012,0.0395968322534124,0.000479961603058909,0.01679865610751142,-5.816669295680545,-0.057590785113851066,-3.3978563212440687,0.0,1.2669972723384835,1.0366341319044583,0.8062709914788262,0.2303631404170412,-0.17277235531727705,-0.09612199999999982,-0.07140100000000005,-0.923991,0.08083700000000005,0.0864299999999999,-0.920237,0.17695899999999987,0.15783099999999994,0.003754000000000035,0.9516369381933703,0.8907674787980774,double,-0.920237
128,0.533333,jog,-0.11449831973112122,-0.09145463274128579,-0.042246759481507086,-0.2253882586407691,-0.36122240784380866,0.32667475489840214,0.017282765242403225,0.0009601536245542683,0.028324531925108764,0.044167066730668926,0.0031204992798946458,0.013202112337974296,-2.771616868033597,-15.731326494338376,-9.219171065033663,0.7498554853046481,-0.8064092182211272,0.8080961510748534,1.0970317996295353,0.6338304553134434,-0.8633086340703829,-0.09557300000000013,-0.07101599999999997,-0.923697,0.08149799999999985,0.08682400000000012,-0.920006,0.17707099999999998,0.1578400000000001,0.003691,0.9446753275306359,0.8860841728479866,double,-0.920006
129,0.5375,jog,-0.10415166786658078,-0.041756659467217454,-0.007919366450698465,-0.24696764781265398,-0.15860459427264686,0.37785710010731993,0.011519078473733534,0.006479481641468453,0.02615790736741034,0.050155987521028116,0.008399328053757375,0.016318694504439606,2.4829978076650727,11.926559461019428,8.237915294170472,-1.3831741705470715,1.324532761438479,-0.5199482979837793,1.4372260116052662,1.2668175603222194,0.7479198863607598,-0.09509100000000004,-0.07081500000000007,-0.923555,0.08214100000000002,0.08703300000000003,-0.919905,0.17723200000000006,0.1578480000000001,0.003650000000000042,0.9511547520488266,0.8744857753830979,double,-0.919905
130,0.541667,jog,-0.09239260859133112,-0.03671706263500566,-0.0071994240460701376,-0.2394069389985358,-0.20407542560904338,0.3122666307153064,0.013198944084453037,0.007919366450725109,0.0239980801535878,0.0585553155747322,0.012958963282936905,0.017998560115190746,2.821948470182282,1.2094064872118442,0.17277235532237153,0.40313549573301916,0.3455447106447433,-0.5183170659521292,2.0156774786906704,1.0942249170097182,0.4031354957406112,-0.09465100000000004,-0.07062899999999983,-0.923425,0.08277000000000001,0.0872400000000001,-0.9198,0.17742100000000005,0.15786899999999993,0.0036250000000001004,0.9524828586197157,0.8593920705556923,double,-0.9198
131,0.545833,jog,-0.10105616898703898,-0.04152664426307696,0.016802688430152292,-0.28734901288408093,-0.09197961515612364,0.23966361605051067,0.01464234277486527,0.005520883341306819,0.02328372539606332,0.06048967834856957,0.015122419587115743,0.02016322611617875,-2.079587228926512,-1.1544843082264267,5.761428822905043,0.3464711210783082,-0.5757280627504293,-0.17147257741826225,0.4643213571381092,0.5193126030194037,0.5196029767133947,-0.09416899999999995,-0.07043299999999997,-0.923398,0.08344300000000016,0.087476,-0.919786,0.1776120000000001,0.15790899999999997,0.0036120000000000596,0.9532438291914481,0.8546625252039876,double,-0.919786
132,0.55,jog,-0.1051115910726986,-0.03215742740577284,-0.017998560115201987,-0.2593883878562517,-0.2929259522433954,0.2853089673185389,0.008879289656842928,0.005039596832265082,0.02183825293976443,0.06311495080391173,0.0172786177106003,0.02159827213822873,-0.9732234426828871,2.2484321711792763,-8.351631520363336,-1.3830221065568271,-0.11549952220823928,-0.34688563866063826,0.6300149880830681,0.5174461539439743,0.3443834946124233,-0.09369399999999994,-0.07027800000000006,-0.9232319999999999,0.084144,0.08768199999999993,-0.919621,0.17783799999999994,0.15796,0.00361099999999992,0.9598216264465909,0.8490406662776757,double,-0.919621
133,0.554167,jog,-0.1065514758819581,-0.023758099352069385,-0.015118790496742363,-0.33929258131582013,-0.17690239439360514,0.3449543490988028,0.010319174466046572,0.004559635229179651,0.021118310535157895,0.06911447084234976,0.01895848332132031,0.026157907367411037,-0.3455447106454338,2.0156774786905727,0.6910894212766209,0.34554471063203057,-0.11518157021488835,-0.17277235531714596,1.439769627654941,0.40313549573315105,1.094224917010414,-0.09320699999999982,-0.07016,-0.923081,0.08487600000000017,0.08785999999999994,-0.9194490000000001,0.178083,0.15801999999999994,0.0036319999999999686,0.960095298420165,0.8365266554869797,double,-0.9194490000000001
134,0.558333,jog,-0.10873739798363283,-0.030004800768106247,0.0014402304368580138,-0.41176043813403884,0.0017795770914821626,0.3064742762749881,0.004800768122877812,0.0033605376860197985,0.02376380220835335,0.06289006240998182,0.015362457993294278,0.024723955832932992,-0.5247052572430939,-1.4994482515690968,3.9748009922228427,-1.3246294630745934,-0.28782946307245605,0.6350196047036611,-1.4940970793009911,-0.8631841881963582,-0.34420344082526244,-0.0927340000000001,-0.07002100000000011,-0.922988,0.08559099999999997,0.08804899999999993,-0.919352,0.17832500000000007,0.15807000000000004,0.0036360000000000836,0.9592072009518244,0.8481406125851267,double,-0.919352
135,0.5625,jog,-0.01367890568753859,-0.06647468202545731,-0.030717542596596117,1.5591195217895448,-1.3516477856006326,0.5001284897109539,0.01223902087833522,0.01583873290139693,0.014878809695224161,0.06119510439162281,0.011519078473706892,0.027597792176625783,22.812213174008523,-8.752071336057305,-7.717248148177078,1.785037858281102,2.994527289507328,-2.1322276249409935,-0.40675738381545457,-0.9223372977171482,0.6896655492423251,-0.0926260000000001,-0.0696779999999999,-0.922798,0.08590299999999984,0.08837399999999995,-0.919109,0.17852899999999994,0.15805199999999986,0.0036890000000000533,0.9584321815874342,0.8495909352354165,double,-0.919109
136,0.566667,jog,-0.10391168706506465,-0.0395968322534124,0.010799136069105207,-0.1545232509043849,-0.36979807719781915,0.22306598358802207,0.010319174466046297,0.01367890568753859,0.020878329733621217,0.06191504679627778,0.012479001679877996,0.030477561795056254,-21.654135199790108,6.45016793185618,9.963205823302378,-0.46072628084687023,-0.5183170659607209,1.4397696276450709,0.17277235532876528,0.23036314042982886,0.6910894212696062,-0.09214999999999995,-0.06945599999999996,-0.9227559999999999,0.08659400000000006,0.08859099999999998,-0.9190269999999999,0.17874400000000001,0.15804699999999994,0.0037289999999999823,0.9549844941857966,0.8458282901428977,double,-0.9190269999999999
137,0.570833,jog,-0.09961593855018097,-0.03720595295250292,-0.00048007681227712134,-0.28453466402880045,-0.20616978027538138,0.25303911929315376,0.00984157465193416,0.01152184349491741,0.023043686989918096,0.059049447911658254,0.011281805088818823,0.029284685549688067,1.0311446267123563,0.5739028566753437,-2.707444282616976,-0.11464229815461766,-0.5177777706723906,0.5197689045359764,-0.6878537889149124,-0.28737316156005094,-0.2863361126663912,-0.09169399999999994,-0.06925300000000001,-0.922658,0.08725500000000008,0.08879300000000012,-0.918903,0.17894900000000002,0.15804600000000013,0.003754999999999953,0.9540344035887139,0.8509986001224717,double,-0.918903
138,0.575,jog,-0.10727141828650652,-0.045836333093312656,-0.008639308855300381,-0.3285332387391311,-0.1998333381112737,0.11883602854616587,0.011279097672164416,0.010799136069132137,0.026637868970482866,0.05759539236861592,0.01295896328293725,0.027597792176626102,-1.8371681632651056,-2.0711255437508767,-1.9580590456019713,0.34497792662113835,-0.17343590731588351,0.8625346725617563,-0.34894541469699153,0.40248576772701217,-0.4048220237729775,-0.09120000000000017,-0.0690170000000001,-0.922511,0.08794199999999996,0.08903799999999995,-0.918752,0.17914200000000013,0.15805500000000006,0.003758999999999957,0.9485376230353542,0.8537975124264712,double,-0.918752
139,0.579167,jog,-0.10559155267578416,-0.03071754259662276,-0.009359251259901835,-0.33919501699089655,-0.24109369097231328,0.20978408941840673,0.009599232061444612,0.012718982481420772,0.022558195344372357,0.05231581473483317,0.009359251259901835,0.02231821454283666,0.4031354957337056,3.628219461648616,-0.17277235531592242,-0.40313549573309115,0.4607262808468011,-0.9790433467987709,-1.266997272326064,-0.8638617765863662,-1.2669972723276701,-0.09072000000000013,-0.0688359999999999,-0.9223779999999999,0.08860000000000001,0.08920500000000009,-0.91862,0.17932000000000015,0.158041,0.003757999999999928,0.9539689130186332,0.8663493842487688,double,-0.91862
140,0.583333,jog,-0.12337974075855139,-0.012241958713399715,0.015362457993294278,-0.23808769262916454,-0.4403685549161296,0.2236925335928077,0.010801728276541701,0.01464234277481197,0.02664426308209311,0.056168987037888925,0.010081613058086044,0.02376380220835335,-4.269848315594628,4.434849707926795,5.934159686316873,0.2886452748672798,0.46168033926817037,0.9808131871629265,0.9249093382274972,0.17339457469616146,0.3469965591734728,-0.09016099999999994,-0.06872400000000001,-0.922331,0.08934799999999998,0.0892980000000001,-0.918585,0.17950899999999992,0.1580220000000001,0.003746000000000027,0.9462259797629644,0.8595120598560053,double,-0.918585
141,0.5875,jog,-0.09503239740816845,-0.041756659467217454,-0.029277657787392747,-0.38402616145250273,-0.39563112980551524,0.2401948331736458,0.01055915526756243,0.014878809695225826,0.023758099352051684,0.05615550755941102,0.010319174466046297,0.02135829133669303,6.802818178637563,-7.082961543992684,-10.712770765703548,-0.058212865125814674,0.056747521097637116,-0.6926238852991133,-0.003234816049413671,0.05701017709629261,-0.5772764270843056,-0.08972100000000016,-0.0684880000000001,-0.92211,0.08997799999999989,0.08951500000000001,-0.9183739999999999,0.17969900000000005,0.15800300000000012,0.0037360000000000726,0.9500744436760202,0.8610402542689803,double,-0.9183739999999999
142,0.591667,jog,-0.13822894168469585,0.0014398848092033701,0.020398368130549818,-0.10508793676944547,0.026346028636920666,0.18888581986925182,0.01391888648910801,0.011759059275249667,0.022078233741300544,0.061675065994708365,0.012718982481394128,0.0242380609551235,-10.366341319060972,10.366341319035397,11.921292516904773,0.8062709914916137,-0.7486802063777622,-0.4031354957406112,1.3245880574267592,0.5759078510553904,0.6910894212696062,-0.08908699999999992,-0.06844500000000009,-0.9221029999999999,0.09081099999999998,0.08956200000000003,-0.9183579999999999,0.1798979999999999,0.15800700000000012,0.0037449999999999983,0.9522896679815749,0.8500892675978025,double,-0.9183579999999999
143,0.595833,jog,-0.14042246759483265,0.012001920307274799,0.004560729716779347,-0.20710277662016346,-0.08605040334037298,0.2377134460562857,0.018722995679314576,0.012001920307274799,0.0204032645223241,0.05760921747480178,0.011761881901096257,0.021603456553049,-0.526530463306975,2.5352941666038653,-3.8016414819421223,1.1531707129636801,0.05829597504203975,-0.40205694166502315,-0.9759597983453414,-0.22974089781514545,-0.632406241496536,-0.08842399999999984,-0.06844500000000009,-0.9220370000000001,0.09163600000000005,0.08956099999999989,-0.9182870000000001,0.1800599999999999,0.15800599999999998,0.003750000000000031,0.9496984133937624,0.8580986225751543,double,-0.9182870000000001
144,0.6,jog,-0.14374850011999318,0.003839692824577845,0.004799616030695663,-0.2564586188778186,-0.17530234411762102,0.3033351441353922,0.012479001679851352,0.010079193664530164,0.01991840652747759,0.0508759299256298,0.011999040076792443,0.02543796496280241,-0.7981839513224159,-1.9587778936157645,0.057328129089588106,-1.4984386847763802,-0.46141748086024004,-0.11635661023434335,-1.6158597430218202,0.056913409094356715,0.9202084016686783,-0.08777299999999988,-0.06841900000000001,-0.921974,0.09244700000000017,0.08959499999999987,-0.9182009999999999,0.18022000000000005,0.15801399999999988,0.0037730000000000263,0.9573757194115222,0.8653819307022155,double,-0.9182009999999999
145,0.604167,jog,-0.11615070794334659,-0.06431485481165226,-0.06143508519316559,-0.501664428443943,-0.7379366844064938,0.1507948227667229,0.012479001679851352,0.006479481641468453,0.021118310535156917,0.046556275497966405,0.01223902087833522,0.026157907367410756,6.622940287172159,-16.355782970057497,-15.895056689191446,0.0,-0.8638617765926767,0.2879539255289941,-1.0366341319086547,0.05759078510745753,0.17277235531757595,-0.08723700000000001,-0.06812399999999985,-0.9216300000000001,0.09312500000000012,0.08991400000000005,-0.917836,0.18036200000000013,0.1580379999999999,0.003794000000000075,0.9577148500874,0.8707498366046176,double,-0.917836
146,0.608333,jog,-0.1361017762842016,-0.02880460873737347,-0.013682189150284378,-0.31173903207152104,-0.18697299774915296,0.14901566235094996,0.014882381180990506,0.003120499279841263,0.02112337974075881,0.05064810369658211,0.009121459433505152,0.028324531925108008,-4.789022645428465,8.523822869486022,11.462529054940273,0.5769033848149668,-0.8062847723541016,0.0012168040330996287,0.9821959190148111,-0.74833448027606,0.5200731055442271,-0.08660800000000002,-0.06799100000000013,-0.921485,0.09390300000000007,0.09007199999999993,-0.917661,0.1805110000000001,0.15806300000000006,0.0038240000000000496,0.9566211790973953,0.8638554186318628,double,-0.917661
147,0.6125,jog,-0.15622750179984454,0.01679865610751475,0.04799616030719642,0.13138538252600873,0.2127735375087658,0.10891283469811176,0.014398848092140275,0.002879769618460027,0.023998080153587384,0.04439644828410806,0.010079193664503522,0.023758099352051268,-4.829787740735013,10.943908050129078,14.801619740216061,-0.11603865823139593,-0.057770497091728885,0.6898729092461129,-1.5002772768116155,0.22983782841333392,-1.0958561490416858,-0.08589700000000011,-0.06804900000000003,-0.9215850000000001,0.0947389999999999,0.0900439999999999,-0.9177620000000001,0.18063600000000002,0.15809299999999993,0.003823000000000021,0.9531098283665276,0.876182454663985,double,-0.9177620000000001
148,0.616667,jog,-0.18334533237341047,0.03263738900885926,0.07823374130068242,0.1560983940849135,0.23120475194961848,0.25524354015881096,0.015838732901397354,0.0031197504199762427,0.022798176145908663,0.04655627549796765,0.010559155267589354,0.022078233741301547,-6.507758716958589,3.8009918169773975,7.2564389233229125,0.34554471064485387,0.05759078510108478,-0.28795392552885607,0.5183170659610336,0.11518157021498474,-0.4031354957402814,-0.085067,-0.0681719999999999,-0.921816,0.09569699999999992,0.08995200000000003,-0.917996,0.18076399999999992,0.15812399999999993,0.0038199999999999346,0.9534419377376596,0.8741385465215553,double,-0.917996
149,0.620833,jog,-0.15602496399424842,-0.0316850696111428,-0.03384541526642982,-0.2341245833578046,-0.3590890945963738,-0.10950418525726613,0.01728276524245606,-0.0002400384061785351,0.02328372539606332,0.035765722515591604,0.0014402304368580138,0.026884301488237502,6.557937681027851,-15.439860446471918,-26.903302104443625,0.34662322156954056,-0.8064783548139163,0.11655046811201521,-2.5901471393125384,-2.18889218212466,1.1536408417993163,-0.08434499999999989,-0.06804100000000002,-0.921578,0.09649599999999992,0.09009,-0.9177430000000001,0.1808409999999998,0.15813100000000002,0.003834999999999922,0.951670015599309,0.8870394027990811,double,-0.9177430000000001
150,0.625,jog,-0.08687305015598049,-0.009359251259875193,-0.1615070794336524,-1.34242291012254,-1.0426051876184814,-0.11153233301262241,0.015598752099827513,0.0019198464122889224,0.022798176145908473,0.03575713942888784,0.0009599232061444612,0.019198464122870074,16.595131710647326,5.357767782881554,-30.636348492253806,-0.4041308237649472,0.518330889960989,-0.11652249823730329,-0.0020597760268206548,-0.11526451421011492,-1.8444534114152555,-0.08391799999999994,-0.06799400000000011,-0.92081,0.09700700000000007,0.09013299999999991,-0.91699,0.180925,0.15812700000000002,0.0038200000000000456,0.9538491689945252,0.8941391731301603,double,-0.91699
151,0.629167,jog,-0.102471802255808,0.060475161987021124,-0.020398368130549818,-0.09775406347884508,-0.41975063821166564,0.4074107440867783,0.014878809695225826,-0.00023998080151613289,0.019198464122870074,0.03671706263495237,0.0026397888168906074,0.022558195344372357,-3.743401031876025,16.758918465777725,33.86338164221298,-0.1727723553159782,-0.5183170659479335,-0.8638617765870822,0.23036314040425263,0.4031354957394129,0.8062709914812233,-0.08342899999999998,-0.06824699999999995,-0.920645,0.09758699999999987,0.08989199999999997,-0.916811,0.18101599999999984,0.15813899999999992,0.003834000000000004,0.9595162037418752,0.889703544210334,double,-0.916811
152,0.633333,jog,-0.10297647623620076,0.08401344215076145,-0.0014402304368580138,0.36437600805279996,-0.4567001565795728,0.5032324995814462,0.018242918867010304,0.0028804608737160275,0.01848295727316344,0.038646183389360926,0.0036005760921983335,0.023043686989918096,-0.12114113787632351,5.650091253898299,4.5506811554709055,0.8075154036928649,0.7490258461911086,-0.171749123789398,0.463063071149437,0.2306258462092476,0.11653664079350436,-0.082924,-0.06858500000000012,-0.9205620000000001,0.09817699999999996,0.089557,-0.916709,0.18110099999999996,0.15814200000000012,0.0038530000000001063,0.9564517874714665,0.8862388165118651,double,-0.916709
153,0.6375,jog,-0.1562275017998487,0.06167506599471001,0.03047756179505415,0.4941358275387332,-0.18294868290254804,0.3455995416519501,0.016078713702913493,0.001439884809256695,0.017758579313655105,0.039836813054929594,0.001679865610746191,0.018718502519799174,-12.779223797371959,-5.360781414939253,7.6596573630700195,-0.5193676899680472,-0.3457105986223566,-0.17383680333773685,0.28572826147556774,-0.46093364085725436,-1.0379612359296868,-0.082206,-0.0688359999999999,-0.9206150000000001,0.0989939999999998,0.08930700000000003,-0.9167580000000001,0.1811999999999998,0.15814299999999992,0.0038569999999999993,0.9600011999539859,0.8880176191294966,double,-0.9167580000000001
154,0.641667,jog,-0.10655147588195527,0.09959203263740125,-0.03911687065035349,-0.38095916526892676,-1.5268781220108572,0.7664889275265476,0.014878809695225826,-0.0016798656107727896,0.017038636909047535,0.03383729301659892,0.0023998080153478313,0.018238540916726446,11.921292516892983,9.099344046722091,-16.701327680683253,-0.28795392553099525,-0.7486802063905593,-0.1727723553173903,-1.4397696276291403,0.17277235531596707,-0.11518157021183693,-0.08169999999999988,-0.06925800000000004,-0.920381,0.09957900000000008,0.08890199999999993,-0.916519,0.18127899999999997,0.15815999999999997,0.003862000000000032,0.9621950887179633,0.8971891852371037,double,-0.916519
155,0.645833,jog,-0.1565050408065522,0.051368218915011116,-0.006961113778218132,-0.08268297514441489,-0.4078264250457886,0.1895042370277822,0.013202112337953957,-0.0016802688430365487,0.01800288046087341,0.03552568410946637,0.0009601536245808924,0.017042726836294184,-11.990774105760178,-11.57556738415509,7.718616627972956,-0.40247176122704476,-9.679122989898515e-05,0.23145548531586077,0.40527870688128803,-0.34557234535932263,-0.28704130591268856,-0.08099299999999987,-0.06947900000000007,-0.9202769999999999,0.10037900000000022,0.088692,-0.916419,0.1813720000000001,0.15817100000000006,0.003857999999999917,0.9626866579396214,0.8957302691848319,double,-0.916419
156,0.65,jog,-0.19486441084708583,-0.044636429085677484,-0.025677945764331033,-0.11397715878939203,0.27124947868953836,-0.6792082206516519,0.023278137748983203,-0.00047996160303226577,0.01583873290136779,0.03047756179505334,0.0014398848092300135,0.014158867290616649,-9.205512368738503,-23.039272378374818,-4.491680342239683,2.418052654434646,0.2880506935455421,-0.5193538659720672,-1.2114524392639765,0.11512627421385109,-0.69207092528858,-0.08008400000000004,-0.06929499999999988,-0.920104,0.10131800000000002,0.08888400000000007,-0.916253,0.18140200000000006,0.15817899999999996,0.003851000000000049,0.9530672017039881,0.9054288091212319,double,-0.916253
157,0.654167,jog,-0.2102231821454505,-0.03815694744420903,0.014398848092166919,-0.2631424927355497,0.559384727454883,-0.6548810809455133,0.01367890568753859,0.0,0.01871850251979826,0.029037676985796682,0.0028797696184333834,0.014638828893688047,-3.685810246787747,1.5549511978565893,9.617661112670422,-2.3036314042343506,0.11518157020212674,0.6910894212696062,-0.3455447106447435,0.3455447106319556,0.11518157021151762,-0.07915099999999997,-0.06913599999999986,-0.9200860000000001,0.10231499999999993,0.0890550000000001,-0.9162520000000001,0.1814659999999999,0.15819099999999997,0.003834000000000004,0.9613601099397602,0.9072496489329722,double,-0.9162520000000001
158,0.658333,jog,-0.13802208353336703,0.03216514642344743,-0.012481997119551932,-0.4048722477443321,-0.5908735162423527,0.09246554000165866,0.013682189150258093,-0.0014402304369113513,0.01584253480556932,0.030724915986589375,0.00240038406143897,0.012962073931829066,17.33103663276172,16.880003328770588,-6.452435240451163,0.0007881571578260159,-0.3457106185577025,-0.6903427062479631,0.4050021605359424,-0.11507094502986698,-0.4024855885403322,-0.078519,-0.06927600000000012,-0.919968,0.10301800000000005,0.08893099999999998,-0.916146,0.18153700000000006,0.1582070000000001,0.003821999999999992,0.9650292792022732,0.906057531296224,double,-0.916146
159,0.6625,jog,-0.1886249100071868,0.0033597312214922927,-0.003839692824577845,-0.25773707506008514,0.008632116690700384,-0.3561237372133579,0.01535877129831138,-0.0028797696184067402,0.015118790496760277,0.024958003359702705,0.0019198464122889224,0.007919366450684312,-12.14370685716808,-6.91274662873888,2.073987111824819,0.40234752773056714,-0.3454617666175613,-0.17368473933502254,-1.3839483145876232,-0.11531981021119364,-1.210152983236073,-0.07766899999999999,-0.06930199999999997,-0.919889,0.10390799999999989,0.08892500000000003,-0.9160969999999999,0.18157699999999988,0.158227,0.0037920000000000176,0.9637614863050886,0.9183223306109554,double,-0.9160969999999999
160,0.666667,jog,-0.21046316294696663,-0.036237101031920106,0.0,-0.21805387563100745,0.23525820488710664,-0.6900235806322242,0.013918886489054722,-0.0014398848092033701,0.016558675305975303,0.022798176145950935,0.0011999040076872372,0.008879289656827107,-5.240761444631544,-9.502479542455507,0.9214525616937402,-0.3455447106447435,0.34554471063195563,0.3455447106347527,-0.5183170659351459,-0.17277235531597784,0.23036314042303524,-0.07673400000000008,-0.06915699999999991,-0.91982,0.10488000000000008,0.08908100000000008,-0.91606,0.18161400000000016,0.158238,0.0037599999999999856,0.9638675892934643,0.9215738649195251,double,-0.91606
161,0.670833,jog,-0.23739798367736578,0.0040806529044488055,0.0016802688430098993,-0.16420895373949618,0.2836414997189334,-0.4474002626081344,0.014402304368740034,0.0007201152184290069,0.013202112337973944,0.019203072491564548,0.0007201152184290069,0.0064810369659143606,-6.465391437925861,9.677809394231609,0.40332905497117094,0.11603885734164954,0.518482963905995,-0.8057040249643197,-0.8629629511249124,-0.11516773625977676,-0.5756727534596122,-0.075685,-0.06917099999999987,-0.9197719999999999,0.10594899999999985,0.08906700000000012,-0.91604,0.18163399999999985,0.158238,0.0037319999999999576,0.9674150380951698,0.9288799178502952,double,-0.91604
162,0.675,jog,-0.18838492920567068,0.043676505879559666,-0.05495560355169714,-0.7626469914787443,-0.8600347517199091,0.04439912829535739,0.01655867530594533,-0.0019198464122889224,0.012718982481401622,0.014878809695225826,0.0007199424046016851,0.001199904007679744,11.762192097838907,9.502244534463777,-13.591522052965347,0.5174876259191934,-0.6335401081636451,-0.11594189022613838,-1.0377400519171318,-4.1472000797174676e-05,-1.2673705203346715,-0.07483100000000009,-0.069361,-0.91949,0.10679599999999989,0.08888799999999997,-0.915806,0.18162699999999998,0.15824899999999997,0.0036840000000000206,0.9650536898507668,0.9382525566323631,double,-0.915806
163,0.679167,jog,-0.20686345092396372,0.006479481641468625,-0.0009599232061444868,-0.08258940040087646,0.08421641379093171,-0.38505922609556015,0.009839212862961006,-0.000479961603085565,0.010319174466042825,0.010319174466046572,0.0007199424046017042,0.0002399808015361217,-4.43449045315416,-8.926571691406707,12.95792664880098,-1.6125419829576317,0.3455447106319618,-0.5759078510580377,-1.0942249170096812,4.605322402926276e-15,-0.23036314042323985,-0.073928,-0.06939000000000006,-0.919443,0.10770100000000005,0.08886399999999994,-0.915801,0.18162900000000004,0.158254,0.003642000000000034,0.9762229198500996,0.9463349306956905,double,-0.915801
164,0.683333,jog,-0.2205952952472135,0.0040806529044488055,0.02136341814690487,0.044704917480625016,0.24412943033023254,-0.4803770497734062,0.011521843494970707,-0.0028804608737160275,0.012241958713394301,0.009121459433505152,0.0007201152184290069,0.0009601536245800595,-3.2961700247839105,-0.5758110266490202,5.3584592782163565,0.403895975038334,-0.5762120188743305,0.4615420660949292,-0.2874976074271288,4.1481955665539534e-05,0.17286913659239972,-0.07296100000000005,-0.0694189999999999,-0.919481,0.10865799999999992,0.08884999999999998,-0.915886,0.18161899999999997,0.15826899999999988,0.003595000000000015,0.9715729253904712,0.9487165323277906,double,-0.915886
165,0.6875,jog,-0.18166546676268608,0.06743460523157513,-0.03791696664266625,-0.5656761851831092,-0.7961927138651714,0.25319981807670106,0.012718982481420772,-0.00311975041997616,0.009599232061435037,0.006479481641468453,0.0,-0.0009599232061436286,9.34241144337104,15.203732259929406,-14.226154257156388,0.2872903735181318,-0.057424897110662475,-0.6342036601774044,-0.6340239481729492,-0.172813827316775,-0.46078157684753385,-0.07215099999999985,-0.06971299999999991,-0.9192830000000001,0.10944200000000004,0.08856900000000001,-0.915732,0.1815929999999999,0.15828199999999992,0.003551000000000082,0.9729377972577316,0.9535729981089867,double,-0.915732
166,0.691667,jog,-0.18694504439641402,0.05807535397169994,0.004319654427636754,-0.049157615306246696,-0.42942293608418475,0.0315701707626389,0.009839212862960744,-0.0023998080153744745,0.01055915526757825,0.004079673626093978,0.0007199424046283283,0.0,-1.2669972723129106,-2.2460406191204987,10.135978178618354,-0.691089421276699,0.1727723553159779,0.23036314042313558,-0.5759078510617847,0.1727723553223717,0.23036314042323525,-0.07133100000000003,-0.06996500000000005,-0.919257,0.11023799999999984,0.08833000000000002,-0.91575,0.18156899999999987,0.15829500000000007,0.003507000000000038,0.9756150690749996,0.9580254817608265,double,-0.91575
167,0.695833,jog,-0.20355256841093597,0.03528564570328783,-0.02016322611617209,0.15629271899568564,0.11007340259536968,-0.17038239569560729,0.007921267402772374,-0.0019203072491617847,0.0050408065290446875,0.000480076812303771,-0.0009601536245808924,-0.0052808449351899114,-3.986443594460379,-5.470405249258784,-5.87683162357389,-0.4603805713366225,0.11509859966699218,-1.324615635749774,-0.8640414819467604,-0.4032875730218962,-1.2676056013417925,-0.07045000000000012,-0.07011999999999996,-0.9191520000000001,0.11108799999999985,0.08817900000000012,-0.9156880000000001,0.18153799999999998,0.15829900000000008,0.0034640000000000226,0.984027472573486,0.956378585245379,double,-0.9156880000000001
168,0.7,jog,-0.20758339332856543,0.05543556515481081,-0.01823854091674525,0.007733991391313841,-0.027900051690567303,-0.17059264023277793,0.007679385649155894,-0.0016798656107195479,0.003359731221502373,-0.0031197504199762427,-0.00287976961843346,-0.0055195584353249704,-0.9673205945835223,4.8355938208599385,0.46188749686270103,-0.05804697710978736,0.05770137711596867,-0.4034257997461834,-0.8638894245932522,-0.4606709848458374,-0.05728665709984726,-0.06955299999999998,-0.07035799999999992,-0.9190619999999999,0.11193999999999993,0.08793600000000001,-0.915635,0.1814929999999999,0.15829399999999993,0.003426999999999958,0.9857519293412058,0.9541240339744355,double,-0.915635
169,0.704167,jog,-0.200863930885522,0.07943364530839422,-0.04391648668104915,-0.1292124180665456,-0.2768088557168601,0.09528638815668428,0.00311975041997616,-0.0026397888168906074,0.0007199424046075133,-0.008639308855273508,-0.0026397888168906074,-0.00839932805375571,1.61254198297177,5.759078510579129,-6.162214006312385,-1.094224917009767,-0.23036314042981815,-0.6334986361638685,-1.3245880574267397,0.05759078510747564,-0.6910894212696704,-0.06870299999999996,-0.07069999999999999,-0.918876,0.11274099999999998,0.08759399999999995,-0.915487,0.18144399999999994,0.15829399999999993,0.0033889999999999754,0.9930839067011398,0.9455514890394652,double,-0.915487
170,0.708333,jog,-0.20955352856454657,0.037926068170878624,-0.011761881901122593,-0.07524575513294379,-0.38901766506394936,0.2801206135241316,0.0014402304368580138,-0.0036005760921983335,-0.0007201152184348364,-0.007921267402772374,-0.0026404224675907915,-0.009601536245799763,-2.0858371769141972,-9.963412659029181,7.718340081595423,-0.4031492998363286,-0.2306258462092476,-0.3456691365920184,0.1723575258044009,-0.00015210050412485746,-0.2885761382726964,-0.0678240000000001,-0.07087299999999996,-0.9188299999999999,0.11358099999999993,0.08742500000000009,-0.9154779999999999,0.18140500000000004,0.15829800000000005,0.0033520000000000216,0.9934262775143117,0.9452728336042724,double,-0.9154779999999999
171,0.7125,jog,-0.20926325893933267,0.03455723542114732,-0.016558675305971972,-0.2927986448478668,-0.4865352597333705,0.18060548640403185,-0.0014398848092033701,-0.00455963522917953,-0.0004799616030718143,-0.008879289656842928,-0.0016798656107727896,-0.011519078473721878,0.06965913732034752,-0.8084551835208258,-1.1511383260977543,-0.6911723652655056,-0.23015578041305232,0.05763225710655634,-0.2299069484210575,0.23051520441996512,-0.46017332083563717,-0.06695799999999985,-0.07103599999999988,-0.918763,0.11441600000000007,0.08727400000000007,-0.915457,0.18137399999999992,0.15830999999999995,0.003306000000000031,0.9919906469904498,0.9425386736378181,double,-0.915457
172,0.716667,jog,-0.20374370050392876,0.06767458603314455,-0.011759059275249667,-0.4279890874807636,-0.4787976994257841,0.20757196907065398,0.0,-0.002879769618460027,-0.0028797696184304695,-0.010319174466046297,-0.0019198464122889224,-0.01535877129829556,1.3245880574523334,7.947528344611706,1.1518157021171749,0.34554471063195563,0.40313549573301893,-0.5759078510579883,-0.3455447106319556,-0.057590785101063365,-0.9214525616927414,-0.06610899999999997,-0.07133000000000012,-0.918726,0.11522199999999994,0.08698399999999995,-0.915472,0.1813309999999999,0.15831400000000007,0.00325400000000009,0.9932123179151413,0.936455384407191,double,-0.915472
173,0.720833,jog,-0.2383581373019797,0.06024963994239264,0.00024003840615189188,-0.261438991118357,-0.1816853161974243,0.17850385978371652,-0.00048007681230378377,-0.0045607297167526975,-0.004800768122899593,-0.009361497839630637,-0.00240038406143897,-0.015122419587134468,-8.308794238610616,-1.7822722253365595,2.880244282621668,-0.1152368728525675,-0.40349498278749735,-0.4611134192196767,0.2298791710071255,-0.11534749139463756,0.056733488036749616,-0.06511800000000001,-0.07160000000000011,-0.918747,0.11617600000000006,0.086723,-0.915536,0.18129400000000007,0.1583230000000001,0.003210999999999964,0.9889347762154437,0.9379786931628984,double,-0.915536
174,0.725,jog,-0.22510199184067634,0.04919606431485701,-0.028797696184307192,-0.24552957126560498,-0.34983927338702087,-0.02488399668592485,-0.0021598272138050553,-0.0038396928245245585,-0.0045596352291816114,-0.009359251259928479,-0.0028797696184333834,-0.018718502519798678,3.181220413079734,-2.6526459389334147,-6.968498821804382,-0.4031078477324835,0.17303501133384533,0.0578672651111062,0.0005391359976382707,-0.11504333021224136,-0.8629908645702382,-0.06418899999999983,-0.07182099999999991,-0.918646,0.11707500000000004,0.08650599999999997,-0.915494,0.18126399999999987,0.15832699999999988,0.0031519999999999326,0.9894329695116009,0.933271454880896,double,-0.915494
175,0.729167,jog,-0.23230141588669317,0.05039596832254425,-0.011999040076792443,-0.1566182611932713,-0.056530772277994794,0.04990053638938597,-0.0019198464122889224,-0.005279577633834501,-0.006239500839932753,-0.008399328053757375,-0.0002399808015427761,-0.014878809695224161,-1.7277235531597754,0.2879539255308916,4.031354957406917,0.057590785101063365,-0.345544710657531,-0.40313549574061164,0.23036314042982886,0.6334986361628479,0.9214525616929415,-0.06322899999999998,-0.07205300000000014,-0.918622,0.11800799999999989,0.0862949999999999,-0.915506,0.18123699999999987,0.15834800000000004,0.0031160000000000077,0.9860068349055309,0.9403607053533019,double,-0.915506
176,0.733333,jog,-0.25468074891982184,0.048007681228991315,0.01032165146423793,-0.0632985394883646,0.002930403721308987,0.08494335648335692,-0.0019203072491617847,-0.0026404224675907915,-0.0038406144983198216,-0.008401344215076146,-0.0021603456552870205,-0.016562650024003738,-5.3718994318599735,-0.5732806273530798,5.357823221562736,-0.00011061854845471151,0.6334985996744378,0.5758248539637373,-0.00048395614948904404,-0.4609613187096119,-0.4041863487228939,-0.06217600000000001,-0.0722640000000001,-0.9186810000000001,0.11903399999999986,0.086086,-0.915618,0.18120999999999987,0.1583500000000001,0.003063000000000038,0.9915986557849278,0.9382086344174865,double,-0.915618
177,0.7375,jog,-0.2395008399328166,0.04895608351328759,-0.058795296376301626,-0.38727617876584397,-0.39466794604003713,-0.11225424811352577,-0.0004799616030855522,-0.0019198464122889224,-0.0045596352291816114,-0.0011999040076872372,0.006479481641468453,-0.01991840652747759,3.642886725943156,0.22759834036387516,-16.586740542485966,0.3456553026340824,0.17292441931890176,-0.1725511713131232,1.7282073931818704,2.073392679806913,-0.805317135462881,-0.06118000000000001,-0.07247599999999998,-0.918455,0.12002699999999988,0.08590900000000012,-0.9154559999999999,0.1812069999999999,0.1583850000000001,0.002999000000000085,0.9917157366701799,0.9350430961811484,double,-0.9154559999999999
178,0.741667,jog,-0.2618190544756357,0.060955123590161586,-0.029517638588909663,-0.18663922762302826,-0.06210322096839028,0.058353050572551676,-0.0023998080153745387,-0.0023998080153212523,-0.004319654427646027,-0.010079193664477147,-0.0014398848092300517,-0.01799856011519081,-5.355943014835499,2.879539255309389,7.026075782911572,-0.4607262808468978,-0.1151815702021452,0.05759078510573287,-2.130859048905706,-1.9004959084949973,0.46072628084636835,-0.060099000000000125,-0.07274000000000003,-0.91835,0.12107599999999996,0.08564899999999986,-0.915408,0.18117500000000009,0.1583889999999999,0.002942,0.9908443139410925,0.9361153812902909,double,-0.915408
179,0.745833,jog,-0.25468074891982184,0.060249639942391034,-0.053048487758047665,0.019651214042923634,-0.26411680751154964,0.06549609881495709,0.0016802688430365487,-0.0016802688430365487,-0.004560729716754659,-0.012722035525703486,-0.0033605376860197985,-0.015362457993279286,1.713467488193434,-0.169343170372192,-5.648307529797884,0.9793751460420269,0.1727170360741006,-0.057867328158576876,-0.6343835480620107,-0.4610304553023873,0.6327657517790495,-0.059031000000000056,-0.07299800000000012,-0.918148,0.12208399999999986,0.0853839999999999,-0.9152509999999999,0.18111499999999991,0.15838200000000002,0.0028970000000000384,0.991428914512047,0.9373176334488823,double,-0.9152509999999999
