frame_id,timestamp,gait_type,root_linear_velocity_x,root_linear_velocity_y,root_linear_velocity_z,root_angular_velocity_x,root_angular_velocity_y,root_angular_velocity_z,left_linear_velocity_x,left_linear_velocity_y,left_linear_velocity_z,right_linear_velocity_x,right_linear_velocity_y,right_linear_velocity_z,root_acceleration_x,root_acceleration_y,root_acceleration_z,left_acceleration_x,left_acceleration_y,left_acceleration_z,right_acceleration_x,right_acceleration_y,right_acceleration_z,left_pos_rel_x,left_pos_rel_y,left_pos_rel_z,right_pos_rel_x,right_pos_rel_y,right_pos_rel_z,step_length,step_width,step_height,left_contact_prob,right_contact_prob,support_type,max_foot_height
1,0.004167,stand,-0.035997120230377606,0.030477561795053575,-0.0035997120230350965,-0.0484165597104888,-0.02494771768941189,0.05113834372631852,-0.00023998080153611714,-0.0033597312214923183,-0.001679865610751155,0.005279577633794577,0.0,0.005279577633789165,0.0,0.0,0.0,0.0,0.0,0.0,0.0,0.0,0.0,-0.121054,0.013527000000000067,-0.919655,0.164871,-0.022102999999999984,-0.917308,0.285925,0.03563000000000005,0.002346999999999988,0.9937267470037112,0.9640859161778165,double,-0.917308
2,0.008333,stand,-0.03504560729717594,0.03096495439271381,0.00024003840612523602,-0.05057885773372966,0.007952942926615877,0.07094043700235958,-0.00024003840614522323,0.0024003840614655572,0.00024003840614501503,0.0016802688430099001,-0.00048007681225047203,0.0009601536245800601,0.2283996479120651,0.1169929423092255,0.9216875730101614,-1.3827318556429053e-05,1.3826488917325672,0.4608507001671075,-0.8639723453635806,-0.11523687283976763,-1.0368276546349267,-0.12090899999999996,0.013408000000000087,-0.919655,0.165024,-0.022233999999999865,-0.9173049999999999,0.285933,0.03564199999999995,0.0023500000000000743,0.9959595515528776,0.9731768187458548,double,-0.9173049999999999
3,0.0125,stand,-0.03431725461961812,0.034797216222716996,-0.0031197504199495397,-0.0751831857455097,0.006129060158263319,0.05661403073950366,0.006479481641468501,-0.0016798656107728021,-0.023278137748980045,-0.0004799616030722342,0.0,-0.0004799616030718179,0.17479065936112884,0.9196692656595121,-0.8062848154727082,1.6125558069627366,-0.9791815868102614,-5.643910764368864,-0.5184138339529959,0.11520921820265706,-0.34560000663591983,-0.12073900000000001,0.013255999999999935,-0.9197390000000001,0.16516499999999995,-0.022378999999999927,-0.917294,0.28590399999999994,0.03563499999999986,0.0024450000000000305,0.9596309618136458,0.9744187196525287,double,-0.917294
4,0.016667,stand,-0.03335733141348697,0.03383729301654589,-0.0016798656107728021,-0.08175151180425189,-0.003509936571440647,0.0802016048932339,0.001679865610746159,0.0028797696184600483,0.01295896328293721,0.0004799616030722342,0.0007199424046016905,-0.0007199424046075187,0.23036314042024195,-0.23036314042983183,0.3455447106255669,-1.1518157021171926,1.0942249170225222,8.696208550976062,0.2303631404234385,0.17277235531598042,-0.057590785105759726,-0.12059300000000003,0.01312700000000011,-0.919678,0.16530599999999995,-0.022516999999999898,-0.9172899999999999,0.285899,0.03564400000000001,0.0023880000000000567,0.9776984211511776,0.9742439837773745,double,-0.9172899999999999
5,0.020833,stand,-0.03240518482957183,0.033365338454179376,-0.0007201152184290074,-0.075684360182162,0.01570527850550978,0.04613933248423765,-0.003600576092171687,-0.0019203072491617863,0.0072011521843496195,0.00024003840615188568,0.00048007681225047214,0.0002400384061448069,0.22855174841938058,-0.11328722092331041,0.2303769544752268,-1.2675088101099008,-1.1522028006773486,-1.3820957989888603,-0.0575907817859694,-0.05757695447700873,0.230432263742757,-0.12047300000000002,0.012979999999999992,-0.9196449999999999,0.16544199999999998,-0.022654000000000174,-0.9172859999999999,0.28591500000000003,0.035634000000000166,0.002359,0.9862050410869219,0.9754300473105055,double,-0.9172859999999999
6,0.025,stand,-0.03335733141348697,0.032157427405773084,0.0009599232061444684,-0.06504546460154234,0.0065296298493826704,0.0605163647767958,-0.00407967362610733,0.0011999040076872464,0.0023998080153586733,0.0004799616030722342,0.0,0.0002399808015361171,-0.22849690038760243,-0.2898754615805836,0.40317696774021494,-0.1149742102077377,0.7487907983798974,-1.152230422124057,0.057576961103995315,-0.11520921820265709,-1.382400016553972e-05,-0.12035100000000001,0.012851000000000168,-0.919639,0.16558299999999998,-0.02278800000000003,-0.917289,0.285934,0.0356390000000002,0.0023499999999999632,0.9918618550718443,0.9756056443574506,double,-0.917289
7,0.029167,stand,-0.033357331413487,0.03431725461963147,0.005039596832265124,-0.061716842008467436,-0.00390970773281794,0.08057635569554998,-0.0019198464122889385,-0.0004799616030855562,0.0016798656107511558,0.002399808015361173,-0.0007199424046016911,0.0,-6.660805283328278e-15,0.518317065960736,0.9790433468012141,0.5183170659511382,-0.40313549574581325,-0.17277235531737895,0.4607262808468779,-0.1727723553159807,-0.057590785105859674,-0.12022000000000002,0.012706000000000106,-0.919653,0.165732,-0.02293400000000001,-0.9173100000000001,0.285952,0.035640000000000116,0.002342999999999984,0.9956736845746705,0.9723942114595181,double,-0.9173100000000001
8,0.033333,jog,-0.03672587614018582,0.03528564570334113,0.0033605376860197985,-0.065309437639585,0.019335812628194664,0.04419290290672052,-0.0009601536245808924,0.0,0.002400384061449941,-0.006000960153623914,-0.00048007681225047176,-0.006721075372059584,-0.8085801072248723,0.2324510522586804,-0.40303868128788395,0.23036312715027493,0.11520921821544788,0.17295210050378887,-2.016507001676688,0.057576954477008925,-1.6133162198894813,-0.12007100000000001,0.012558999999999987,-0.919657,0.16586,-0.023082999999999965,-0.917352,0.28593100000000005,0.03564199999999995,0.0023050000000000015,0.9956911787428905,0.9619116369585475,double,-0.917352
9,0.0375,jog,-0.037676985841137114,0.033597312215029776,-0.0040796736260940115,-0.039924474389864885,0.03173318400597409,-0.0002449079942668442,-0.0019198464122889385,-0.0004799616030855562,0.0014398848092152467,0.006959443244540741,-0.0004799616030855562,0.00383969282457413,-0.22824806838284048,-0.4051676237848231,-1.7855078742773736,-0.23030784442237742,-0.11518157021491637,-0.2305013804258927,3.110247995719862,2.7647987740713434e-05,2.53438161666276,-0.119922,0.0124169999999999,-0.9196340000000001,0.16604600000000003,-0.02322500000000005,-0.917319,0.285968,0.03564199999999995,0.002315000000000067,0.9959211107002628,0.9635785336988725,double,-0.917319
10,0.041667,jog,-0.03839692824573874,0.034797216222663685,-0.0031197504199761807,-0.009610417905704445,0.03315961084036797,0.018263184948817512,-0.0002399808015361169,0.0019198464122889352,-0.00023998080153590876,0.0023998080153478474,-0.0011999040076872453,0.0009599232061432187,-0.17277235531596438,0.28795392551809645,0.2303631404170458,0.40313549574101754,0.5759078510617924,-0.40313549574061763,-1.0942249170129323,-0.17277235531597993,-0.6910894212697165,-0.11976300000000001,0.012280000000000069,-0.919622,0.16621599999999997,-0.023374999999999924,-0.9173020000000001,0.285979,0.03565499999999999,0.0023199999999999887,0.9967506445865755,0.9720506431137457,double,-0.9173020000000001
11,0.045833,jog,-0.039606337013928565,0.039126260201664764,0.0002400384061518859,-0.09456266935704366,0.04473944308465575,0.0025042108365019846,-0.001440230436871341,-0.00120019203073278,-0.0007201152184350459,0.0021603456553136737,-0.00240038406146556,-0.00024003840614480708,-0.2903045530940536,1.039136816850956,0.8064783548075058,-0.2881060094419648,-0.7489290549740082,-0.11525070016781987,-0.057480163234319225,-0.2881613187177906,-0.28803687284878227,-0.11960399999999999,0.0121119999999999,-0.919626,0.16639000000000004,-0.023548000000000124,-0.917304,0.285994,0.035660000000000025,0.0023220000000000462,0.9966528243457494,0.9713828414293066,double,-0.917304
12,0.05,jog,-0.042236621070303286,0.03623710103192035,-0.0019198464122889352,-0.10637326121486808,0.07281670348420391,-0.017510505803707933,-0.0011999040076739237,-0.0009599232061178244,0.000959923206143635,0.0019198464122889352,-0.00047996160303226897,-0.0007199424046075181,-0.6312176761158431,-0.6933427333199934,-0.5183308899546002,0.05767372910905138,0.05765990511518005,0.40317696774146367,-0.057715201109848395,0.4608645208623204,-0.11516774621135362,-0.11943300000000001,0.011956999999999995,-0.919614,0.166574,-0.023700999999999972,-0.917299,0.286007,0.03565799999999997,0.002315000000000067,0.9969803078012962,0.9733402950214536,double,-0.917299
13,0.054167,stand,-0.0347972162227037,0.03335733141346036,0.0028797696184334077,-0.2303309606441168,0.04582075562426196,0.07590820929581994,0.0004799616030722346,0.0002399808015161349,0.00023998080153590914,-0.00455963522919289,-0.0026397888168906295,-0.006479481641468923,1.7853143382768393,-0.6910894212766957,1.1518157021171938,0.4031354957394191,0.287953925518109,-0.17277235531742893,-1.5549511978598103,-0.51831706596073,-1.3821788425393349,-0.119286,0.011819000000000024,-0.919625,0.16669999999999996,-0.023850999999999845,-0.917338,0.28598599999999996,0.03566999999999987,0.002287000000000039,0.9990202824803011,0.963211343379477,double,-0.917338
14,0.058333,jog,-0.04512722035526197,0.04032645223234418,-0.0002400384061518855,-0.07150341787633602,0.09464499922600701,-0.004678696739074918,-0.0004800768122904462,0.00024003840612523588,0.00024003840614501487,0.008161305808937584,-0.0002400384061785351,0.005520883341334717,-2.479597727450374,1.6728566535966904,-0.7488737456997817,-0.23044609106161307,1.3827318555205868e-05,1.3827318556344463e-05,3.0535144114571446,0.5760322637330996,2.8805484836302524,-0.11909999999999998,0.011651999999999996,-0.919623,0.16692200000000001,-0.02401999999999993,-0.917314,0.286022,0.035671999999999926,0.0023090000000000055,0.9990200473104691,0.9604829995457964,double,-0.917314
15,0.0625,jog,-0.04583633309335178,0.04151667866575495,-0.009359251259901913,0.007441322841357676,0.05767173102201922,-0.051530666244006915,-0.0028797696184334077,-0.0009599232061178259,0.0014398848092152467,-0.002399808015361173,-0.0009599232061178259,-0.005519558435325286,-0.17017344326609307,0.28563149349910627,-2.1884360100192066,-0.5758802030580665,-0.28796774951837356,0.2879401015287335,-2.5344645606668506,-0.1727585313029257,-2.6494940668730527,-0.118921,0.011474999999999902,-0.919578,0.167103,-0.024197000000000024,-0.917298,0.286024,0.035671999999999926,0.0022800000000000598,0.994400447964171,0.9670420725548403,double,-0.917298
16,0.066667,jog,-0.03983681305495544,0.039836813054928796,0.00455963522917956,-0.054902798068484616,0.1614733422199872,0.047687638092294024,-0.0009599232061444676,0.0,0.0009599232061434269,0.006959443244540729,-0.0009599232061711108,0.005039596832253459,1.4397696276449077,-0.4031354957586164,3.3402655361366596,0.46072628084687745,0.23036314041704464,-0.1151815702116197,2.2460406191269238,-1.278734113037582e-11,2.533994544655324,-0.118759,0.011309000000000013,-0.919593,0.167298,-0.024367000000000028,-0.917296,0.286057,0.03567600000000004,0.0022969999999999935,0.9977374393050575,0.9626200459685955,double,-0.917296
17,0.070833,jog,-0.023763802208357176,0.06289006240998203,0.07081132981278108,-0.24716482008079507,0.8796292609791854,0.24014773467257908,-0.0009601536245808955,0.0016802688430365544,0.0026404224675947562,0.00432069131061403,-0.0016802688429832552,-0.0002400384061448075,3.8581399055684846,5.533665231649855,15.902951172251969,-5.5309274226575186e-05,0.4033290549775705,0.40338436424659957,-0.6334018084317585,-0.17291061853388054,-1.2673152276520117,-0.11866399999999999,0.01105400000000012,-0.9198770000000001,0.16741500000000004,-0.02463599999999988,-0.9175920000000001,0.286079,0.03569,0.0022849999999999815,0.9945438543378808,0.9694131302585283,double,-0.9175920000000001
18,0.075,jog,-0.03791696664266651,0.05423566114712246,0.011999040076792523,-0.1293446685862714,0.2062484096009262,0.044891964720092235,-0.0014398848092100406,-0.0007199424046549763,0.0,0.0011999040076739237,-0.0009599232061711108,0.0004799616030718175,-3.396487745214619,-2.076890151874146,-14.113820431002761,-0.11512627420905798,-0.5760046190764407,-0.6336507001667275,-0.7489290383825541,0.17286912330505008,0.17278617931764442,-0.11851199999999998,0.010824999999999863,-0.919927,0.167578,-0.024866000000000055,-0.91764,0.28608999999999996,0.03569099999999992,0.002287000000000039,0.9973169330723269,0.9744469330723338,double,-0.91764
19,0.079167,jog,-0.03815694744419596,0.05591552675784197,0.018718502519803795,-0.09531265317435814,0.3177151706108121,0.04165484721187426,-0.0002399808015361169,0.00023998080156942094,0.0007199424046077262,0.002399808015361169,-0.0007199424046016899,-0.0004799616030718175,-0.057590785104260724,0.40313549573302393,1.6125419829640668,0.28795392552769916,0.2303631404426197,0.17277235531742874,0.28795392553089616,0.05759078511385184,-0.23036314042323833,-0.11835400000000001,0.010593000000000075,-0.9200020000000001,0.16774699999999998,-0.025101999999999958,-0.9177200000000001,0.286101,0.03569500000000003,0.0022820000000000062,0.9986734562073442,0.9729282818123601,double,-0.9177200000000001
20,0.083333,jog,-0.040806529044647946,0.03432549207873359,0.04152664426307696,-0.06078154299819695,0.611075226721776,0.13751735685220892,-0.0014402304368713384,-0.0007201152184290069,0.0009601536245798513,0.001200192030719453,-0.0019203072491617847,-0.00048007681229002974,-0.6360013443235677,-5.182437512988086,5.474829991184144,-0.2881060094419637,-0.23045991838656438,0.05765991838025082,-0.287953908939442,-0.2881336640806755,-2.7654637112871103e-05,-0.11819000000000002,0.010447000000000095,-0.9201710000000001,0.16792199999999996,-0.02525299999999997,-0.917895,0.286112,0.035700000000000065,0.0022760000000000558,0.9968754001936704,0.9733819224031894,double,-0.917895
21,0.0875,jog,-0.11567074634030215,0.0007199424046016923,-0.10031197504200395,0.24164221979104264,-1.0996820540690746,-0.2598953929978035,0.0,0.00023998080151613527,0.0007199424046077286,0.0002399808015427785,-0.000479961603085557,-0.00191984641228686,-17.965974872967216,-8.064686746851926,-34.03854554957553,0.3456276546367511,0.23040461241784121,-0.05764608110682104,-0.23043226042156867,0.3456553026340847,-0.3455170626342293,-0.11770799999999998,0.010445000000000038,-0.91975,0.16840500000000003,-0.025258000000000003,-0.917485,0.286113,0.03570300000000004,0.0022649999999999615,0.9987351901207333,0.9740276162455265,double,-0.917485
22,0.091667,jog,0.021598272138237198,0.10199184065277642,0.08687305015598107,-0.5968027763927953,1.137387305367873,0.28782273212423976,-0.0007199424046083507,0.0,0.00023998080153590876,0.0019198464122889352,-0.0019198464122889352,-0.001679865610751153,32.94192908052297,24.30331131465674,44.92081238252576,-0.1727723553175786,-0.05759078510106432,-0.11518157021161972,0.4031354957394181,-0.34554471063195985,0.057590785105761176,-0.11780100000000002,0.010019999999999918,-0.920111,0.168323,-0.02569100000000013,-0.917854,0.28612400000000004,0.03571100000000005,0.0022570000000000645,0.9987351901207218,0.9721087718199906,double,-0.917854
23,0.095833,stand,0.01440230436870006,-0.027124339894390222,-0.16634661545845972,-0.8771223995930209,-1.792494088454138,-0.0110519900641961,-0.0016802688430165617,-0.0009601536245542427,0.0,0.0016802688430098993,-0.0007201152184290069,-0.001920307249160119,-1.7273086340703632,-30.992842186069744,-60.78244493865592,-0.23051522765439517,-0.23047374569232884,-0.05760460910607503,-0.05750781787782904,0.28798156357655486,-0.057715227654576526,-0.11786800000000003,0.010129000000000055,-0.9194180000000001,0.16826999999999998,-0.025581000000000076,-0.917169,0.286138,0.03571000000000013,0.0022490000000000565,0.9967745808336328,0.973091148576905,double,-0.917169
24,0.1,jog,-0.047996160307183414,0.029997600191967986,-0.017758579313659328,-0.14489996318387016,-0.021525555699947786,0.02248939537768419,-0.0009599232061444676,0.0,0.0028797696184304886,0.0009599232061444676,-0.0016798656107195142,0.00191984641228727,-14.974433567526617,13.70816896720858,35.658276012671045,0.17286912331943685,0.23041843641810458,0.691089421269615,-0.172869123317838,-0.23032166841624824,0.9215631536950768,-0.117672,0.010004000000000124,-0.919332,0.168474,-0.025712999999999875,-0.917087,0.286146,0.035717,0.0022450000000000525,0.9949407604828915,0.9730072367444518,double,-0.917087
25,0.104167,jog,-0.014158867290610961,0.061435085193192844,-0.005759539236866825,-0.11666888971221256,-0.10441174677544685,0.3995362827008049,-0.001679865610746163,0.00023998080151613527,0.0011999040076793395,0.0014398848092167062,-0.0016798656107728062,-0.0004799616030718191,8.120300699921415,7.544392848866074,2.8795392552897843,-0.17277235531598203,0.057590785101064516,-0.40313549574061747,0.11518157021172061,-1.278905836923797e-11,-0.5759078510580982,-0.11762,0.009749000000000008,-0.919303,0.168539,-0.025976,-0.917065,0.286159,0.03572500000000001,0.0022379999999999622,0.9965361754908335,0.9738467094103962,double,-0.917065
26,0.108333,stand,-0.01032165146423793,0.04464714354297152,0.026404224675961215,-0.4065792016172687,0.283890306728171,0.3011876223281954,-0.0004800768122904462,0.0,0.0009601536245798513,0.0024003840614522307,-0.0012001920307327777,-0.0014402304368700894,0.9210791709968862,-4.029750756174102,7.720538625258765,0.28799539089191456,-0.057604609101328634,-0.05754929983185021,0.2305567096100633,0.11514008162266638,-0.2305014003356384,-0.11757899999999999,0.009562999999999988,-0.919409,0.16859200000000002,-0.02616700000000005,-0.917181,0.286171,0.03573000000000004,0.0022280000000000078,0.9982108593554968,0.9726437567848973,double,-0.917181
27,0.1125,stand,-0.012239020878335302,0.030717542596569676,0.014158867290597593,-0.36780881122862874,0.028836381175269658,0.366595362034444,-0.0019198464122889352,-0.0016798656107728006,0.0004799616030718175,0.002399808015361169,-0.0009599232061178244,-0.0011999040076793356,-0.4601318488354618,-3.3428368001924245,-2.938650680432832,-0.3455170626346263,-0.4031354957458121,-0.11523686621263099,-0.00013824000265454388,0.05765990511517953,0.05767372910745226,-0.11753599999999997,0.009427999999999992,-0.919466,0.16865300000000005,-0.02629899999999985,-0.917245,0.286189,0.03572699999999984,0.0022210000000000285,0.9956736845746514,0.9730406431137468,double,-0.917245
28,0.116667,stand,-0.02831773458122183,0.032877369810428034,-0.016558675305972083,-0.1021512172638921,-0.4397168981996233,0.37444074083537243,0.006959443244540729,-0.0021598272138050696,-0.023758099352051844,0.002639788816890625,-0.0007199424046016899,-0.001679865610751153,-3.858582602084596,0.5183170659607285,-7.3716204935372325,2.130859048915204,-0.11518157020212827,-5.816669295686019,0.057590785104261036,0.057590785101064135,-0.11518157021161914,-0.11738900000000002,0.009282000000000012,-0.919496,0.168782,-0.02643899999999988,-0.917183,0.286171,0.03572099999999989,0.0023130000000000095,0.9585825456584143,0.9715187928324773,double,-0.917183
29,0.120833,stand,-0.02448391742679951,0.03528564570334125,-0.0012001920307327819,-0.19340504329034605,-0.1895287881156955,0.350153728964767,0.00024003840614522388,0.0012001920307327819,0.01296207393182918,0.002400384061452239,-0.001920307249161791,-0.0002400384061448075,0.9202633591988306,0.5780787068922764,3.6866258461928325,-1.6129152276513496,0.8065336640753386,8.814251868430418,-0.05746633591895988,-0.2881336640806779,0.3456138273178947,-0.11728599999999997,0.009139999999999926,-0.919437,0.16889400000000004,-0.026594000000000007,-0.917179,0.28618,0.03573399999999993,0.0022579999999999822,0.9783004454755617,0.9722810847420875,double,-0.917179
30,0.125,stand,-0.029517638588909073,0.035997120230350926,-0.006959443244527408,-0.06356663127081486,-0.12648135570958605,0.27256731117976335,-0.0057595392368601445,-0.0016798656107728006,0.006719462443004612,0.0021598272138183914,-0.0016798656107728006,0.0,-1.2079964391911586,0.17074022726414084,-1.3821097225329062,-1.4397834516451553,-0.6911585412780369,-1.498106908765194,-0.05772902511011454,0.057701377103189386,0.05760460910602526,-0.11718699999999999,0.008982999999999963,-0.91938,0.169026,-0.02675099999999997,-0.91715,0.286213,0.03573399999999993,0.0022299999999999542,0.9849865415733695,0.9731396631265371,double,-0.91715
31,0.129167,jog,-0.08351331893448875,0.15022798176146265,-0.04655627549796671,-0.012184150876936053,-0.49850976922759954,-0.5392811837614258,0.0057595392368601445,-0.0019198464122889352,-0.019198464122870202,0.002879769618433403,-0.0028797696184067597,-0.0007199424046079344,-12.957926648807206,27.41321371036996,-9.502479542462027,2.7643576850780605,-0.05759078510106416,-6.219804791426635,0.17277235531917706,-0.28795392551810844,-0.1727723553174787,-0.11681499999999997,0.00834899999999994,-0.919266,0.16938600000000004,-0.027388999999999886,-0.916959,0.28620100000000004,0.035737999999999825,0.002307000000000059,0.9664408015944277,0.9700370762580779,double,-0.916959
32,0.133333,stand,-0.0036005760921716838,-0.04272683629380974,0.03264522323572369,-0.21494349535183016,0.42999997013627017,0.7851096825622975,0.0,0.0024003840614655555,0.012722035525684123,0.0004800768122904462,-0.001440230436911313,-0.0012001920307248661,19.18212742254369,-46.31656698398278,19.011401520328935,-1.382510618545401,1.0370212370990128,7.662145858990471,-0.5760184364241371,0.3455446907094205,-0.1152783548048323,-0.11679999999999999,0.008537000000000017,-0.919349,0.16940300000000003,-0.027217000000000047,-0.9171,0.286203,0.035754000000000064,0.0022489999999999455,0.9784224891019926,0.9742845808335625,double,-0.9171
33,0.1375,jog,-0.05471562275018137,0.05615550755941139,-0.005999520038409583,-0.07158611654843271,0.011616301676095762,0.07067916657169919,-0.0007199424046083507,-0.003359731221492315,-0.013918886489080835,0.0021598272138183914,-0.0038396928245778704,-0.0011999040076793356,-12.26662986753291,23.729864135642195,-9.27399646607469,-0.1727723553175786,-1.382317082543284,-6.393309818758083,0.40310784773888736,-0.5758249070474094,6.912000132721991e-05,-0.11657499999999998,0.00828899999999999,-0.9193819999999999,0.16964,-0.02746700000000013,-0.9170799999999999,0.286215,0.03575600000000012,0.0023020000000000262,0.9761054683125487,0.9693700897566415,double,-0.9170799999999999
34,0.141667,jog,-0.05903527717781854,0.05711543076552959,-0.007679385649129148,-0.13045367910534822,0.03801450048088831,0.04521972751927371,-0.001439884809216711,0.0016798656107195255,0.014398848092152748,0.001919846412288948,-0.0026397888168906425,-0.0004799616030718207,-1.0366341319023757,0.23036314041713601,-0.4031354957330393,-0.17277235531758203,1.2094064872118717,6.7957126424847,-0.0575907851042584,0.2879539255308939,0.17277235531737917,-0.11633500000000002,0.008057999999999899,-0.91929,0.169894,-0.027716000000000074,-0.91705,0.286229,0.03577399999999997,0.0022400000000000198,0.9757202620418004,0.9721013490581318,double,-0.91705
35,0.145833,jog,-0.05928948631781014,0.05928948631783679,-0.0064810369659143606,-0.16361692072232895,0.06842103812558094,0.011911210605682648,-0.0021603456553003454,-0.0016802688429832496,-0.014642342774844034,0.0026404224675907915,-0.0019203072491617847,0.0026404224675949557,-0.061019956791070515,0.5218568296464696,0.2876497079248168,-0.17293827318378152,-0.8065613186996573,-6.971001168266145,0.17296592782089365,0.17270320876832868,0.7490120188830471,-0.116097,0.007803999999999922,-0.919324,0.17015199999999997,-0.02797100000000019,-0.917012,0.286249,0.03577500000000011,0.0023119999999999807,0.9751734573786273,0.969881738004269,double,-0.917012
36,0.15,jog,-0.0631149508039388,0.05975521958241984,-0.006719462443011273,-0.1948256874219831,0.07984711404264952,-0.02644608212422997,-0.0021598272138250523,0.0019198464122889352,0.013678905687544925,0.0014398848092167015,-0.0028797696184067597,-0.0007199424046075181,-0.9180380336281853,0.11176704213656163,-0.05721753710029098,0.00012441600079027767,0.8639585445817569,6.796555906500824,-0.2881059895306189,-0.23025254841492057,-0.8064230554841542,-0.115843,0.007562999999999986,-0.919239,0.170421,-0.028232000000000035,-0.916987,0.28626399999999996,0.03579500000000002,0.0022520000000000318,0.9766986454465562,0.9719813490581619,double,-0.916987
37,0.154167,jog,-0.10559155267578486,0.1538276937844711,-0.03527717782577588,-0.14808532011570769,-0.25419696637915035,-0.6737481191606629,-0.007919366450685196,0.0004799616030855554,0.010799136069114437,0.0033597312215056367,-0.002639788816890625,0.0004799616030718175,-10.19356896372595,22.57558776147136,-6.8533034275892915,-1.38217884253903,-0.3455447106319603,-0.6910894212696149,0.4607262808468763,0.05759078510106416,0.28795392552899796,-0.11543600000000001,0.006924000000000152,-0.919047,0.170875,-0.02888399999999991,-0.916838,0.286311,0.03580800000000006,0.0022089999999999055,0.9776661649335013,0.9707439841344014,double,-0.916838
38,0.158333,jog,-0.07009121459433852,0.0708113298128075,-0.005520883341333468,-0.23811449745908592,0.031055336506318386,-0.04896957268921414,-0.007441190590495253,-0.000480076812303771,0.005520883341334717,0.0014402304368713384,-0.0028804608737693265,-0.002160345655304926,8.521444570678424,-19.927115691709922,7.142653500826305,0.11478057133700029,-0.23044609106800903,-1.266983372006653,-0.46075390893766127,-0.057770536936798164,-0.6337751460337834,-0.115175,0.0066269999999999385,-0.919001,0.17117300000000002,-0.02919100000000019,-0.916824,0.28634800000000005,0.03581800000000013,0.0021769999999999845,0.9845366073851092,0.9717667681142994,double,-0.916824
39,0.1625,jog,-0.07079433645308121,0.07079433645306789,-0.010079193664503588,-0.23670246661949934,0.058957165539111865,-0.0554547928968616,-0.002879769618426742,0.0,0.0031197504199663973,0.0004799616030722338,-0.0007199424046016899,-0.0014398848092154525,-0.16873574723846613,-0.0040780800910981555,-1.0939069650036273,1.09465346101956,0.11520921821544769,-0.5762258030641512,-0.2304460844250309,0.5184829539639151,0.17289677131976788,-0.114892,0.006332000000000004,-0.918946,0.17147,-0.0294890000000001,-0.916788,0.286362,0.0358210000000001,0.0021579999999999933,0.9929238436873277,0.9756202239820853,double,-0.916788
40,0.166667,jog,-0.06959443244540729,0.06479481641468496,-0.009359251259901898,-0.14145016486778003,0.09486391182570075,-0.031005658497593583,-0.0011999040076805846,0.0011999040076872453,0.001919846412287062,0.002399808015361169,-0.003119750419922894,-0.0002399808015357006,0.287953925527698,-1.4397696276416905,0.1727723553159802,0.40313549573941826,0.2879539255308961,-0.2879539255289979,0.4607262808468763,-0.5759078510490045,0.2879539255290979,-0.11460699999999999,0.006067000000000045,-0.918899,0.17177000000000003,-0.02977199999999991,-0.91675,0.286377,0.035838999999999954,0.0021490000000000675,0.9957295103383532,0.9719378550815865,double,-0.91675
41,0.170833,jog,-0.06361017762842415,0.05352856457035143,-0.004080652904475455,-0.14053603302381235,0.13345150700940875,0.04327713655400335,-0.0009601536245808924,-0.0002400384061785351,0.0012001920307248661,-0.0009601536245808924,-0.0019203072491617847,0.0009601536245800595,1.4364509882340706,-2.704333135941795,1.2670663359160919,0.057549299831899194,-0.34564148196490146,-0.17274469072544293,-0.8065198367599757,0.28791242697098135,0.28807835480455096,-0.11434599999999998,0.0058429999999998206,-0.9188769999999999,0.17203100000000004,-0.030003000000000002,-0.9167289999999999,0.286377,0.03584599999999982,0.0021480000000000388,0.9974072888868493,0.9746001892418222,double,-0.9167289999999999
42,0.175,jog,-0.07247420206382786,0.07151427885767006,-0.011759059275249823,-0.10506316255243082,0.02141963579210972,-0.035290620215324656,-0.000479961603072237,-0.00047996160303227217,0.0007199424046075229,0.0019198464122756264,-0.0026397888169439293,-0.0009599232061436414,-2.1271956888417956,4.316226130866026,-1.8426701153766287,0.11523686621278093,-0.057576961088010185,-0.11525069021294598,0.691144717268187,-0.17266176332664954,-0.46078157684754306,-0.11404600000000001,0.005543000000000076,-0.918825,0.17234099999999997,-0.030312000000000117,-0.9166839999999999,0.28638699999999995,0.03585500000000019,0.0021410000000000595,0.9983508896786103,0.9729194748904526,double,-0.9166839999999999
43,0.179167,jog,-0.06911447084233506,0.0635949124069977,-0.00863930885530021,-0.11149757428258594,0.026005140022743532,0.04936874703652261,-0.0011999040076805846,-0.00023998080156942094,-0.0007199424046075181,0.0007199424046150115,-0.003839692824524584,0.0004799616030718175,0.8062709914789531,-1.900495908488685,0.748680206371397,-0.17277235531757784,0.057590785088277176,-0.3455447106347588,-0.2879539255245053,-0.28795392550531645,0.34554471063485903,-0.113763,0.005276999999999976,-0.9187919999999999,0.172632,-0.03059299999999987,-0.916646,0.286395,0.035869999999999846,0.0021459999999999813,0.9976337573861582,0.9719800370103746,double,-0.916646
44,0.183333,jog,-0.06985117618818663,0.06601056168987639,-0.007681228996620489,-0.17799623213735055,0.06776187579505434,0.061200801895872514,0.0079212674027857,-0.0031204992798945625,-0.022563610177628483,0.0014402304368713384,-0.0012001920307327777,0.0,-0.17683757701670025,0.5798486036674707,0.22997596223709055,2.1894314475435137,-0.6914350644083388,-5.243319196596483,0.17289679122811483,0.6335815635602027,-0.11520921821215006,-0.11343900000000001,0.00498899999999991,-0.9188540000000001,0.172929,-0.03087299999999993,-0.916614,0.286368,0.03586199999999984,0.0022400000000000198,0.9598060086970481,0.9744754001936581,double,-0.916614
45,0.1875,jog,-0.06671466282697389,0.05999520038398926,-0.005519558435324028,-0.1903175868469762,0.04959656414868324,0.07325425398478862,-0.0002399808015361169,0.0031197504199761807,0.011759059275258072,0.0011999040076739237,-0.0031197504199761807,-0.0004799616030718175,0.7527029904518225,-1.4435712277146915,0.5187594339564338,-1.9585428856063858,1.4975401247589961,8.236781726154673,-0.057673729109050755,-0.46065716084554864,-0.11518157021161916,-0.11316200000000001,0.0047519999999998674,-0.918782,0.17321199999999998,-0.031136000000000053,-0.916593,0.286374,0.03588799999999992,0.0021889999999999965,0.9797196106966004,0.9724819513320935,double,-0.916593
46,0.191667,jog,-0.0681545476361906,0.057835373170130905,0.0009599232061444676,-0.19892107491040079,-0.002200717990510739,0.07996552207242864,-0.00767938564914908,-0.0038396928245778704,0.0047996160307175505,0.0002399808015427777,-0.0021598272138050696,-0.0002399808015361169,-0.34554471063515924,-0.5183170659607285,1.5549511978566088,-1.7853143382800472,-1.670132768071525,-1.670132768068278,-0.2303631404202412,0.23036314042983205,0.057590785105759636,-0.11291000000000001,0.004494999999999916,-0.9187660000000001,0.173497,-0.031385999999999914,-0.916598,0.286407,0.03588099999999983,0.0021680000000000588,0.9836061902792385,0.9746761180789241,double,-0.916598
47,0.195833,jog,-0.07177148343734842,0.0607297167546948,-0.0007201152184556565,-0.20489402967888878,0.02204727588336579,0.09452593780032476,-0.00408065290446213,0.0007201152184290069,0.0024003840614497322,0.0009601536245808924,-0.0024003840614655555,-0.001680268843014896,-0.8682035048386509,0.694753620874675,-0.40327374570334207,0.8638340721764157,1.094529054970445,-0.575907817875136,0.17286913659100198,-0.05774288229968453,-0.3457244458662453,-0.112628,0.004244999999999832,-0.9187529999999999,0.1738,-0.03164900000000004,-0.9166019999999999,0.286428,0.03589399999999987,0.002151000000000014,0.9920187480623912,0.9733510847420719,double,-0.9166019999999999
48,0.2,jog,-0.07151427885769623,0.0626349892008266,-0.003359731221492315,-0.2073541911709809,0.05705776962652636,0.06819199690762677,-0.0021598272138250523,0.002159827213858356,0.0031197504199663973,-0.0009599232061444676,-0.0009599232061711108,0.0014398848092154525,0.06172416118362949,0.457228808766928,-0.633457164155665,0.4609612888497902,0.3455032386439519,0.17263411531477427,-0.46078157684793813,0.3456829506346156,0.7487769743773327,-0.112339,0.003993000000000135,-0.918726,0.17409400000000003,-0.031914,-0.916582,0.28643300000000005,0.03590700000000013,0.0021440000000000348,0.9927232199829062,0.975261779357134,double,-0.916582
49,0.204167,jog,-0.07319414446844287,0.06311495080396586,-0.002159827213831727,-0.1809083954877754,0.026941662035733574,0.07533927526276242,0.007439404847613013,-0.0021598272138583707,-0.021838252939764928,0.001439884809216711,-0.0035997120230084733,-0.0004799616030718207,-0.4031354957395359,0.11518157022780524,0.2879539255245007,2.30363140423281,-1.0366341319214665,-5.989441651003472,0.5759078510586014,-0.6334986361500786,-0.46072628084648043,-0.11200299999999999,0.0037209999999998633,-0.918808,0.17440500000000003,-0.032192,-0.9165749999999999,0.286408,0.03591299999999986,0.0022330000000000405,0.9613808161681572,0.9711589926421934,double,-0.9165749999999999
50,0.208333,jog,-0.07705232837254332,0.06553048487757261,-0.0036005760921716838,-0.19595136177676717,0.027552844059554053,0.07847313173924027,-0.003840614498316907,0.0,0.013202112337974152,0.0004800768122904462,-0.0024003840614655555,-0.001680268843014896,-0.9261123149544996,0.579820949017464,-0.34583506441189527,-2.7076378650815918,0.5184414819631227,8.411033432006494,-0.2303907817873894,0.2878847723338735,-0.28811983676021946,-0.11169799999999996,0.0034479999999998956,-0.9187379999999999,0.17472800000000005,-0.03247500000000003,-0.916567,0.286426,0.03592299999999993,0.002170999999999923,0.9770843279058746,0.9733414814862753,double,-0.916567
51,0.2125,jog,-0.07967362610991088,0.07103431725463731,-0.0004799616030589122,-0.12685378874979403,0.0005200441030639496,0.08553474619641166,0.0038396928245712095,-0.0019198464122889352,-0.01487880969522447,0.007199424046070185,-0.0011999040076872453,-0.0019198464122868538,-0.6290611320776487,1.3208141053670972,0.7488875663817539,1.843126307388555,-0.4607262808468763,-6.738882177393472,1.612514334960339,0.2880921655335515,-0.057494017103901514,-0.11134999999999998,0.0031439999999998136,-0.918798,0.17509000000000002,-0.03277600000000014,-0.916573,0.28644000000000003,0.03591999999999995,0.0022250000000000325,0.9741904394769998,0.9651716581125456,double,-0.916573
52,0.216667,jog,-0.07967362610991088,0.06719462443000616,0.0023998080153478474,-0.10159093935751468,0.019792115560024647,0.054196476446754724,-0.002639788816897286,-0.00023998080151613449,0.011519078473722162,0.0035997120230350926,0.0014398848092033799,-0.0035997120230384233,0.0,-0.9214525617065378,0.6910894212639206,-1.5549511978566088,0.40313549574581214,6.334986361638254,-0.8638617765862945,0.6334986361628564,-0.40313549574071705,-0.11102899999999999,0.00286300000000006,-0.91876,0.175437,-0.033050000000000024,-0.916598,0.286466,0.035913000000000084,0.0021619999999999973,0.9802997994464042,0.9695625423226033,double,-0.916598
53,0.220833,jog,-0.08353336533844435,0.0681709073452167,-0.0016802688430098993,-0.1503144860077713,0.025176996778631014,0.04908001326340334,-0.008401344215069483,0.00024003840612523588,0.007201152184349405,0.0033605376860331234,-0.00048007681225047176,-0.0019203072491597026,-0.9264856525524408,0.23434539491371592,-0.979375146029223,-1.382994574693277,0.11522304552121221,-1.0364681443525574,-0.05741102664473574,-0.4608645274733198,0.40312164519412375,-0.11071600000000001,0.0025799999999998047,-0.918723,0.17579899999999998,-0.03333600000000003,-0.9165989999999999,0.28651499999999996,0.03591599999999984,0.0021240000000000148,0.98155362156602,0.972259729232972,double,-0.9165989999999999
54,0.225,jog,-0.08303335733141652,0.07319414446844238,-0.003359731221492315,-0.1895585357398368,0.048349039350950765,0.06166052106445592,-0.0035997120230417535,-0.0016798656107195142,0.0031197504199663973,0.002639788816890625,-0.0016798656107728006,-0.003359731221502306,0.11999232230089571,1.205480471136471,-0.40303872773756033,1.152299542123284,-0.4607401048343528,-0.9794580668065765,-0.17296589132289358,-0.2879262775431552,-0.3454341186327339,-0.11038500000000001,0.0022679999999999367,-0.9186960000000001,0.17615599999999998,-0.03364800000000012,-0.916599,0.286541,0.03591600000000006,0.0020970000000000155,0.991581647396282,0.9713781615591823,double,-0.916599
55,0.229167,jog,-0.08711303095752385,0.07295416366687296,-0.004799616030722338,-0.18861102752300637,0.0446428641001945,0.03975555797280436,-0.004079673626107326,0.0019198464122889352,0.003839692824574124,0.002399808015361169,-0.0007199424046016899,-0.0004799616030718175,-0.9790433467980131,-0.05759078511385228,-0.34554471063835424,-0.11518157021012056,0.8638617765799006,0.17277235531742882,-0.057590785104261036,0.23036314042983194,0.691089421269615,-0.110039,0.001972000000000085,-0.91866,0.176529,-0.03395499999999996,-0.916581,0.286568,0.03592700000000004,0.002079000000000053,0.9901296194870404,0.9749582818123602,double,-0.916581
56,0.233333,jog,-0.004560729716752576,0.06937109937589618,0.01248199711952495,-0.5459560261750633,-0.08725057198805145,0.4432295512695518,-0.0012001920307261153,-0.0002400384061785351,0.0024003840614497322,0.0019203072491617847,-0.0007201152184290069,-0.00048007681229002974,19.81572281343524,-0.8600730415210702,4.148250876199538,0.6911861726791189,-0.5184553092816776,-0.34548938145088587,-0.11509859966379839,-4.1481955668974835e-05,-2.7654637112871103e-05,-0.11002500000000001,0.0016819999999999613,-0.9187019999999999,0.176556,-0.034246999999999916,-0.916635,0.286581,0.03592899999999988,0.00206699999999993,0.9955092926226852,0.9758194525574528,double,-0.916635
57,0.2375,jog,-0.08375329973601876,0.07775377969762247,-0.008159347252214707,-0.13122864825839906,-0.023061882076510398,0.07938083728121427,-0.0021598272138250666,0.0009599232061711172,0.0023998080153588954,-0.0011999040076739317,-0.0026397888168906425,0.001439884809215462,-19.004696428909682,2.0116823426269104,-4.953526367108178,-0.23029402042211586,0.2879677495439547,-0.0001382400026006339,-0.748790798376706,-0.4606848088460875,0.4607539288470129,-0.10968500000000003,0.0013620000000000854,-0.918658,0.1769,-0.03458199999999989,-0.9165949999999999,0.28658500000000003,0.035943999999999976,0.002063000000000037,0.9943861815664119,0.9739741366437844,double,-0.9165949999999999
58,0.241667,jog,-0.08135349172067036,0.07295416366692625,-0.0004799616030589122,-0.14548746611896396,0.00036735553113415205,0.1212596780558739,-0.0009599232061444676,-0.0014398848092033799,0.0002399808015357006,0.0011999040076739237,-0.0011999040076872453,-0.0007199424046075181,0.5759078510555325,-1.1518157021109219,1.842905123387518,0.28795392552930116,-0.5759078510617938,-0.5183170659522901,0.5759078510554003,0.34554471063196446,-0.5183170659522386,-0.10935,0.001052000000000053,-0.918655,0.177244,-0.034891000000000005,-0.9165960000000001,0.286594,0.03594300000000006,0.002058999999999922,0.9970881889891842,0.9763377874778518,double,-0.9165960000000001
59,0.245833,jog,-0.08209313490158635,0.07657225156023956,-0.002880460873742677,-0.18826082689170695,-0.03812163672975148,0.10736325852133774,0.011281805088818823,-0.0019203072491617847,-0.024003840614498156,0.0007201152184290069,-0.005760921747485354,0.003360537686029792,-0.17754277026307924,0.8684800512033849,-0.576212018887125,2.938484948382929,-0.11531983676389931,-5.819448251568372,-0.115167736256581,-1.094819428660131,0.9794719372629158,-0.10896099999999997,0.0007250000000000867,-0.918743,0.177589,-0.03523399999999999,-0.91657,0.28654999999999997,0.035959000000000074,0.0021729999999999805,0.9556794796009446,0.967089660255648,double,-0.91657
60,0.25,jog,-0.0895128389728717,0.08519318454526155,-0.007679385649155741,-0.17873592859084295,-0.015863038192531913,0.08742223070617416,-0.004799616030722338,-0.0007199424046016899,0.01031917446604262,0.0002399808015427777,-0.005519558435297385,0.0026397888168943717,-1.7805865301860677,2.0688584077326575,-1.1516498141140052,-3.8592323301034663,0.2880645175330198,8.236864670156166,-0.11522304220931816,0.057922561120222815,-0.17296589132119497,-0.10860800000000004,0.0003670000000000062,-0.918668,0.17796299999999998,-0.03561199999999998,-0.916527,0.286571,0.03597899999999998,0.0021410000000000595,0.9809941534748927,0.9683849357474432,double,-0.916527
61,0.254167,jog,-0.09743220542357085,0.08927285817130287,-0.005519558435324065,-0.10675425635618492,-0.00883261709361696,0.06452851230427142,-0.005519558435324065,-0.0014398848092566758,0.0069594432445405675,0.0,-0.0050395968322651495,0.0033597312215023285,-1.9004959084951285,0.9790433467821803,0.5183170659543288,-0.17277235531599008,-0.17277235532877128,-0.8062709914811786,-0.05759078510745838,0.11518157020212097,0.17277235531748522,-0.10822500000000002,-1.0999999999983245e-05,-0.918616,0.178369,-0.03600499999999984,-0.91649,0.286594,0.03599399999999986,0.0021259999999999613,0.9850025331899326,0.9686452640075639,double,-0.91649
62,0.258333,jog,-0.09241478636582427,0.07993278924631265,-0.00816130580892426,-0.18902006805960678,-0.016854041447409956,0.06758349663082759,-0.004320691310607353,-0.0012001920306794786,0.0012001920307248661,0.001200192030719453,-0.0031204992798945625,0.00048007681229002974,1.2043732735829518,-2.2419752580389365,-0.6341208289966858,0.28777415379661814,0.05753547253413274,-1.3824414819528796,0.288092182121808,0.4606571177077738,-0.6912276546356929,-0.10785799999999998,-0.0003489999999999327,-0.918577,0.178759,-0.03635100000000002,-0.916454,0.286617,0.03600200000000009,0.002122999999999986,0.9922631302585392,0.9731406003842615,double,-0.916454
63,0.2625,jog,-0.08783297336212495,0.07799376049913756,-0.005519558435323991,-0.25153566289109847,0.010589300905524025,0.05602123982780807,-0.003359731221505614,0.00023998080151613289,0.0021598272138229563,0.0004799616030722306,-0.003839692824577845,0.0,1.0995471571152597,-0.4653296729481834,0.6339686521718859,0.23061197242662143,0.34561383062049444,0.23029402042190614,-0.17284147531730665,-0.17259264331252144,-0.11520921821214929,-0.10750600000000002,-0.0006729999999999237,-0.9185450000000001,0.17912699999999998,-0.03669199999999995,-0.916431,0.286633,0.03601900000000002,0.0021140000000000603,0.9933312007037277,0.9724107097445752,double,-0.916431
64,0.266667,jog,-0.08759299256059666,0.074154067674614,-0.0011999040076872533,-0.30000004879098335,0.05628902348337072,0.12233623625951022,-0.0023998080153545243,0.0004799616030855586,0.003119750419966418,0.0002399808015427793,-0.002159827213805084,0.0002399808015357022,0.05759078510398136,-0.9214525616807266,1.0366341319022707,0.23036314042502887,0.05759078511385339,0.23036314042319828,-0.0575907851042603,0.40313549574580526,0.05759078510576039,-0.107151,-0.0009799999999999809,-0.918527,0.179493,-0.03700999999999999,-0.916425,0.286644,0.036030000000000006,0.0021019999999999373,0.9933914440277359,0.9753361180789241,double,-0.916425
65,0.270833,jog,-0.06216994719155282,-0.015602496399419514,0.03432549207873359,-0.40236273231116726,0.6306133954786841,0.7482878071285237,-0.002880460873742677,-0.000480076812303771,0.0024003840614497322,0.0024003840614522307,-0.001440230436911313,0.0012001920307252827,6.1025072897368755,-21.545022581381048,8.527459454253677,-0.11537514603652235,-0.2304460910680098,-0.17267555413266572,0.5185797551390903,0.17273086339264773,0.2304875730171819,-0.106904,-0.0009170000000000567,-0.91866,0.17976200000000003,-0.03695100000000018,-0.916563,0.28666600000000003,0.03603400000000012,0.0020970000000000155,0.9936997856664906,0.9739537567848697,double,-0.916563
66,0.275,jog,-0.10679145668345807,0.0895128389728711,0.0028797696184333834,-0.1596878877282481,0.06435568738105467,0.10135510306634304,-0.0016798656107461464,-0.0019198464122889224,0.0011999040076793276,0.0023998080153478313,-0.0033597312214922927,-0.0004799616030718143,-10.708305613608092,25.225662436354646,-7.546369680897519,0.2881198135340824,-0.3455170626314232,-0.2880921655316524,-0.00013824000585537213,-0.46064333683248504,-0.40320461574204086,-0.106466,-0.0012980000000000214,-0.918667,0.18021699999999996,-0.03733800000000009,-0.916577,0.28668299999999997,0.03604000000000007,0.0020900000000000363,0.9953014398350277,0.9721723509816699,double,-0.916577
67,0.279167,jog,-0.10031197504200429,0.08831293496518504,0.008639308855300266,-0.25746864409789466,0.05044793847799149,0.07024648655462541,-0.001919846412288948,-0.002159827213805084,0.0009599232061436414,0.014638828893696568,0.004079673626147319,-0.009839212862971283,1.5549511978530897,-0.287953925530614,1.3821788425406565,-0.05759078510746412,-0.057590785101071,-0.057590785105756534,2.9371300404004814,1.785314338286454,-2.2460406191263553,-0.10605599999999998,-0.001674999999999871,-0.918699,0.18069600000000002,-0.03768899999999986,-0.9166540000000001,0.286752,0.03601399999999999,0.0020449999999999635,0.9949249749858402,0.9493769271057386,double,-0.9166540000000001
68,0.283333,jog,-0.07033125300047707,0.09865578492557342,0.005760921747458705,-0.4525221530966913,0.27051073150376337,0.1445300902916364,-0.0012001920307261153,-0.000480076812303771,0.0,0.007441190590495253,0.008641382621201382,-0.005280844935189494,7.196524733923954,2.482681219488328,-0.6909234536345559,0.1727446907255958,0.40320460909777045,-0.23041843642430165,-1.7277096263085236,1.0949853564700094,1.0941833720071497,-0.105768,-0.0020879999999998677,-0.918723,0.18102000000000001,-0.038063999999999876,-0.9167,0.28678800000000004,0.03597600000000001,0.002022999999999997,0.9978455893714353,0.9588248245916211,double,-0.9167
69,0.2875,jog,-0.03407727381808886,0.10799136069116007,0.007679385649155792,-0.4820743433533057,0.2750844571572334,0.20022582584502527,0.0007199424046083555,-0.0009599232061711172,0.0,0.005759539236853522,-0.002159827213805084,-0.0016798656107511643,8.700258983054576,2.2403589550244063,0.4603945048469158,0.46079540084820775,-0.1151539222143866,0.0,-0.4035640397508376,-2.5920829937620655,0.8641659045928367,-0.10562300000000002,-0.0025420000000000442,-0.918755,0.18118599999999996,-0.03852299999999986,-0.916739,0.286809,0.03598099999999982,0.0020160000000000178,0.9980001599871635,0.9692125859886731,double,-0.916739
70,0.291667,jog,-0.0883129349652105,-0.0028797696184067402,-0.019438444924405357,-0.15681554297903202,0.7260220282395768,-0.5618300752164501,-0.0019198464122889224,-0.004079673626093978,-0.0009599232061436286,0.002639788816903929,-0.0011999040076872372,-0.0014398848092150266,-13.015517433914383,-26.606942718878322,-6.5077587169572695,-0.6334986361644487,-0.7486802063649716,-0.23036314042323525,-0.7486802063713869,0.23036314041704808,0.057590785105864135,-0.105263,-0.002547000000000077,-0.918678,0.18156500000000003,-0.038515999999999995,-0.916664,0.286828,0.03596899999999992,0.0020139999999999603,0.9923168655658574,0.9744641366437584,double,-0.916664
71,0.295833,jog,-0.11761881901103939,0.07297167546804122,-0.03696591454632438,0.03081203362024423,0.3356513809428107,-0.6046079582411481,-0.0021603456553070076,-0.0021603456552870205,-0.00024003840614501487,0.0072011521843433676,-0.0024003840614655555,-0.0014402304368700894,-7.034537697030452,18.207259982344674,-4.2072658718000495,-0.0577290549731361,0.4607124269819865,0.1727999999996671,1.0949023925682755,-0.288161318717791,-8.296391144090463e-05,-0.10478200000000001,-0.0028599999999998627,-0.918525,0.182085,-0.03882999999999992,-0.916516,0.286867,0.03597000000000006,0.0020090000000000385,0.994892324638039,0.967033158153761,double,-0.916516
72,0.3,jog,-0.11087113030958018,0.06911447084234884,0.0026397888168906425,-0.3861570294919614,0.44775320989459916,-0.2636318249862771,-0.0004799616030655762,-0.0011999040076872533,0.0019198464122870747,0.002879769618433422,-0.0023998080153745066,-0.0009599232061436414,1.6193157430907728,-0.9256550577615545,9.504608438496579,0.4032599117450062,0.2304875564194319,0.5183308899525082,-1.03704885191024,0.00013824000265152663,0.11526451421321111,-0.10432199999999997,-0.0031529999999999614,-0.918528,0.18255900000000003,-0.03912800000000005,-0.916531,0.286881,0.03597500000000009,0.0019970000000000265,0.9961428482677366,0.9735807097445617,double,-0.916531
73,0.304167,jog,-0.11519078473721545,0.12479001679867338,0.00863930885530015,-0.26617777291730105,-0.313356731194381,0.25580313156057527,-0.0026397888168972683,-0.0019198464122889224,0.0,0.0009599232061444612,-0.00023998080151613289,0.0007199424046079296,-1.036634131901904,13.361062144546224,1.439769627648059,-0.5183170659543258,-0.17277235531597399,-0.4607262808464267,-0.46072628084687933,0.5183170659607289,0.4031354957407147,-0.103853,-0.0036810000000000453,-0.918564,0.183043,-0.039649000000000045,-0.916564,0.28689600000000004,0.035968,0.0020000000000000018,0.9945598470087398,0.9779605553501398,double,-0.916564
74,0.308333,jog,-0.11881901104177217,0.11809889582331651,-0.0002400384061518855,-0.25711016141530285,-0.01710464022904025,0.09847608617178409,-0.0009601536245808924,-0.00024003840612523588,-0.0007201152184348364,0.0024003840614522307,-0.0021603456552870205,0.00024003840614480668,-0.8709136592790981,-1.6061260142479281,-2.1313843642467667,0.40317695446864493,0.40321843642911315,-0.17285530927384443,0.34576592782231597,-0.46096131871600726,-0.11519539089369242,-0.10336199999999998,-0.0041739999999999,-0.918566,0.18354800000000004,-0.04014999999999991,-0.916562,0.28691,0.03597600000000001,0.0020040000000000058,0.997960065805097,0.9745628414293528,double,-0.916562
75,0.3125,jog,-0.11207103431725411,0.1183105351572065,0.005519558435324065,-0.350534520123127,-0.03887238182025244,0.0757238205528111,-0.0002399808015361185,-0.0009599232061711172,0.0,0.0002399808015294577,-0.0021598272138583707,0.0002399808015357022,1.6193848630952958,0.05078937698344127,1.3821926665409126,0.17282765131864122,-0.17275853132850622,0.17281382731817627,-0.5184553059569919,0.00012441598959679522,-1.3824000265055093e-05,-0.10289599999999999,-0.004671000000000092,-0.918589,0.184016,-0.04065200000000013,-0.916584,0.286912,0.03598100000000004,0.0020050000000000345,0.9983508896785339,0.9763061180788388,double,-0.916584
76,0.316667,jog,-0.10031197504199096,0.10847132229419235,0.013438924886022635,-0.47211029982610814,0.13125684560051668,0.13417098074430583,-0.000959923206144474,-0.0004799616030855586,-0.0009599232061436414,0.000959923206144474,-0.002879769618406779,0.0004799616030718207,2.8219484701855566,-2.361222189348264,1.900495908494988,-0.1727723553175809,0.11518157021491753,-0.2303631404232414,0.17277235531917937,-0.17277235530319468,0.057590785105860305,-0.10248200000000002,-0.005125000000000046,-0.918649,0.184438,-0.04111599999999993,-0.9166380000000001,0.28692,0.035990999999999884,0.002010999999999985,0.9976001919846323,0.9747679103772601,double,-0.9166380000000001
77,0.320833,jog,-0.11641862698031993,0.10465674507923732,-0.0012001920307327777,-0.3202548505087959,0.057514588097257915,0.08746410770753552,0.0,-0.0016802688429832496,0.0012001920307250745,0.0019203072491617847,-0.0024003840614655555,-0.0007201152184348364,-3.8662150596084874,-0.9156450347947727,-3.5139502920680274,0.23041843642450152,-0.2881198367493255,0.5185106185474591,0.2305290549729501,0.11507094501709625,-0.28806452748599526,-0.101997,-0.005568000000000017,-0.918639,0.184931,-0.0415620000000001,-0.916636,0.286928,0.03599400000000008,0.002002999999999977,0.9965585192563067,0.9747079795015121,double,-0.916636
78,0.325,jog,-0.1353491720662358,0.1171106311494644,-0.020638348932092595,-0.2829019237115782,-0.09372909369740968,0.011468319025990052,-0.0009599232061444612,-0.0014398848092033701,-0.0009599232061436286,0.0004799616030722306,-0.0016798656107195032,0.002399808015358655,-4.542967383229118,2.988693561369568,-4.664784473568435,-0.23036314042343506,0.057687553102922395,-0.5183861859536085,-0.3456553026372794,0.17291059533142472,0.7487216783761622,-0.101437,-0.00606199999999979,-0.918557,0.18549700000000002,-0.04205699999999979,-0.91654,0.286934,0.035995,0.0020169999999999355,0.9967017793571709,0.9748826690357658,double,-0.91654
79,0.329167,jog,-0.11831053515717986,0.11951043916489376,-0.011759059275249823,-0.2438612018473457,-0.07962246561683134,0.10363429842303924,-0.0007199424046016947,0.0,0.0,0.0021598272138184057,-0.0033597312215456238,0.0007199424046079392,4.08894574251405,0.5759078510749626,2.1308590489183636,0.05759078510745569,0.34554471063196024,0.23036314042323833,0.40313549573942514,-0.4031354957586106,-0.4031354957405149,-0.10094700000000001,-0.006559999999999899,-0.918508,0.18599899999999997,-0.04256900000000008,-0.916488,0.286946,0.03600900000000018,0.0020200000000000218,0.9988000959923304,0.9730359273156437,double,-0.916488
80,0.333333,jog,-0.10777724435910523,0.12265962554006908,0.0031204992798945625,-0.2769197725916635,-0.017021888968164596,0.12989739741672005,0.00048007681228378376,-0.0016802688430365487,-0.0007201152184348364,0.0009601536245808924,-0.0026404224675907915,0.0043206913106094355,2.5283943346314515,0.7559256781505802,3.571665519717805,0.28805070016454093,-0.4033290549775678,-0.17285530927384443,-0.28796773625480376,0.1726617268254517,0.8643180283248905,-0.100496,-0.007077999999999918,-0.918524,0.186452,-0.04309099999999999,-0.916483,0.286948,0.03601300000000007,0.0020409999999999595,0.9968498928332192,0.9710002614203972,double,-0.916483
81,0.3375,jog,-0.13702903767698196,0.12191024718026665,-0.020398368130549818,-0.11898325639545189,0.00791915295322759,-0.017262377042487766,-0.0007199424046016851,-0.0011999040076872372,-0.0007199424046077215,0.0011999040076739157,-0.0033597312214922927,0.002399808015358655,-7.01986880678582,-0.1798364194390274,-5.644076652374418,-0.2879815735266282,0.11527833821677654,4.147200074753086e-05,0.0575354891031969,-0.17262029131305393,-0.46097511285115567,-0.09992799999999999,-0.007591000000000125,-0.9184420000000001,0.18702799999999997,-0.043613000000000124,-0.9163880000000001,0.286956,0.036022,0.0020540000000000003,0.9973772344115208,0.9722939841344174,double,-0.9163880000000001
82,0.341667,jog,-0.12359011279097447,0.12934965202780135,-0.013438924886022635,-0.2692045293691341,-0.05091354566400036,0.04216468675709653,-0.0002399808015361185,-0.0007199424046016947,0.00023998080153591036,0.0011999040076872533,-0.0016798656107195255,0.0016798656107511643,3.225083965924543,1.7853143382612786,1.6701327680650881,0.11518157021011982,0.11518157021491367,0.23036314042323908,3.2007771263456334e-12,0.40313549574580676,-0.1727723553173734,-0.099414,-0.008132999999999946,-0.918385,0.187548,-0.04415899999999984,-0.916325,0.286962,0.03602599999999989,0.0020600000000000618,0.99867345620737,0.9749641402662422,double,-0.916325
83,0.345833,jog,-0.11401824291886771,0.13802208353336337,-0.004800768122904461,-0.3514669534905279,-0.10617173471988293,0.15804775603930998,0.0004800768122904462,-0.00024003840612523588,0.0009601536245798513,0.0024003840614522307,-0.0012001920307327777,-0.0007201152184348364,2.2976163879276887,2.081716635996642,2.073489381449392,0.1728414819554883,0.11519539089689353,0.1728691365924005,0.28816131871458867,0.11514008160987696,-0.5760875730163223,-0.098937,-0.008708999999999856,-0.918361,0.188033,-0.04473899999999986,-0.916308,0.28697,0.036030000000000006,0.0020529999999999715,0.998166676390247,0.9748389242667576,double,-0.916308
84,0.35,jog,-0.11879049676026543,0.16318694504440073,-0.008399328053757487,-0.3425403886352805,-0.10000614231319557,0.08869250331654227,0.0,-0.0007199424046016947,0.0009599232061436414,0.0,-0.005519558435350708,0.0038396928245741494,-1.1452493019913,6.039083635958125,-0.8635852965810047,-0.11520921821225076,-0.11516774621465359,-5.529600101029035e-05,-0.5760460910612537,-1.0365650119073566,1.0942663890110418,-0.09844199999999997,-0.009391999999999845,-0.918322,0.18852800000000003,-0.04544199999999998,-0.916257,0.28697,0.03605000000000014,0.0020649999999999835,0.9980001599872068,0.9681437559185939,double,-0.916257
85,0.354167,jog,-0.12383009359250229,0.15430765538755561,-0.007439404847612913,-0.3016160408668616,0.02989725534862335,-0.0006553894838195485,0.0004799616030655698,-0.0016798656107727896,-0.0009599232061436286,0.004319654427636754,-0.0014398848092033701,0.000239980801535699,-1.209406487217859,-2.1308590489188988,0.23036314042346218,0.11518157021011907,-0.2303631404298266,-0.4607262808464736,1.036634131902261,0.979043346807609,-0.8638617765870946,-0.09792400000000004,-0.010041999999999884,-0.918295,0.18906199999999995,-0.04609099999999988,-0.916225,0.28698599999999996,0.036049,0.0020700000000000163,0.9966776162455051,0.9717006079513844,double,-0.916225
86,0.358333,jog,-0.12073931829093396,0.16490638502162835,-0.014162265962534849,-0.2754033690509315,-0.022899007373755054,0.07029931136074591,-0.00096015362457423,-0.0012001920307327777,-0.0007201152184348364,0.0002400384061518855,-0.0016802688430365487,0.0009601536245800595,0.7419047771407411,2.54410216852442,-1.613744866759945,-0.345682963907777,0.11514008162266237,0.05756312715045416,-0.9792645274807648,-0.05770140034401787,0.1728691365925012,-0.09742499999999998,-0.010734000000000021,-0.918239,0.189566,-0.046785000000000077,-0.916162,0.286991,0.036051000000000055,0.0020769999999999955,0.9971711202544907,0.9759798646164516,double,-0.916162
87,0.3625,jog,-0.13822894168466437,0.1461483081353696,-0.02519798416127246,-0.1884674265528947,-0.09878252534962557,-0.0640338164941734,0.00143988480921005,-0.001919846412288948,-0.0011999040076793436,-0.0002399808015427793,-0.0023998080153212202,0.002399808015358687,-4.197173840588078,-4.50157832643601,-2.648360498857133,0.5759631470564659,-0.17270323531465667,-0.11514009821082552,-0.11519539421518299,-0.17267558730133803,0.3454894146337019,-0.09684300000000001,-0.011351000000000111,-0.918139,0.19014099999999998,-0.047404,-0.9160470000000001,0.286984,0.03605299999999989,0.0020919999999999828,0.9955282217872599,0.9734094748905491,double,-0.9160470000000001
88,0.366667,jog,-0.13942884569234312,0.13822894168464256,-0.018478521718260896,-0.19824592085087608,-0.11512721746470507,-0.07914498294739217,0.0,-0.0014398848092033701,0.0,-0.0004799616030722306,-0.0019198464122889224,0.0,-0.28795392552885507,-1.9004959085017974,1.6125419829641259,-0.3455447106335587,0.11518157021492062,0.28795392552899796,-0.05759078510425954,0.11518157020213443,-0.5759078510579959,-0.09626200000000001,-0.011932999999999971,-0.918062,0.19071999999999997,-0.04798799999999992,-0.9159700000000001,0.28698199999999996,0.03605499999999995,0.0020919999999999828,0.9976001919846611,0.975781779357154,double,-0.9159700000000001
89,0.370833,jog,-0.12313970235237952,0.13658185309650533,0.0033605376860197985,-0.38167133795256913,0.0916009304221654,-0.033034530883058535,-0.0007201152184356692,-0.0012001920307327777,-0.0012001920307250745,0.0002400384061518855,-0.0019203072491617847,0.0014402304368700894,3.910020004792029,-0.3953645194760497,5.24221301110914,-0.17285530927404433,0.05753547250854349,-0.28809218212315735,0.1728276546385299,-0.00011061854845471151,0.34571061854778884,-0.095752,-0.012507000000000046,-0.918081,0.19123400000000002,-0.04856499999999997,-0.915978,0.286986,0.03605799999999992,0.002103000000000077,0.9969270500288481,0.9749494064565809,double,-0.915978
90,0.375,jog,-0.2634989200863917,0.28989680825531144,-0.05447564194863895,-0.11144541660639415,0.1757085281517659,-1.6947901992254397,0.000479961603072237,-0.002879769618406779,0.00023998080153591036,0.0007199424046016947,-0.0026397888168906425,0.0016798656107511643,-33.68351757475713,36.79264582644756,-13.879572746498459,0.28799539753009673,-0.403066375731704,0.34561383063618745,0.1151677462082582,-0.17266176331386174,0.05750784110416997,-0.09465200000000001,-0.013726999999999823,-0.917853,0.19233499999999998,-0.04978399999999983,-0.915744,0.286987,0.036057000000000006,0.0021090000000000275,0.9951177683322787,0.9735587928324771,double,-0.915744
91,0.379167,jog,-0.14926805855531916,0.1437485001199951,-0.029277657787393135,-0.2363210355944932,-0.09136414159005654,-0.19758686314173102,0.0011999040076805924,-0.0011999040076872533,-0.0007199424046075229,-0.005279577633781285,-0.0016798656107728119,-0.005999520038397134,27.413213710360736,-35.07278812942577,6.047032436104142,0.17277235531758087,0.40313549573302976,-0.23036314042319145,-1.439769627641712,0.23036314041704728,-1.8429051233857312,-0.094025,-0.014330999999999872,-0.9177339999999999,0.19293500000000002,-0.050389999999999935,-0.915647,0.28696,0.03605900000000006,0.00208699999999995,0.9969277874778446,0.9655193292319235,double,-0.915647
92,0.383333,jog,-0.15338454152664432,0.13658185309650533,-0.030244839174258135,-0.19676234141069757,-0.09618869473974995,-0.19546580360077725,0.0002400384061452231,-0.0019203072491617847,0.0004800768122898216,0.008881421027366592,-0.0040806529044488055,0.004320691310609852,-0.9881140113598562,-1.7202705289221696,-0.23216067855616868,-0.23040460910594543,-0.17292444586522585,0.28805070016738926,3.399183548043175,-0.5762811554671128,2.4772470832950018,-0.093385,-0.014907999999999921,-0.917606,0.19361100000000003,-0.05097599999999991,-0.915503,0.28699600000000003,0.03606799999999999,0.002103000000000077,0.996676818745829,0.961159286854262,double,-0.915503
93,0.3875,jog,-0.1545476361890984,0.15430765538755561,-0.02687784977201827,-0.2402022773574034,-0.038054549709885775,-0.1698156651795176,0.0007199424046083459,-0.0021598272138583416,-0.00023998080153590716,0.0007199424046016851,-0.002879769618460027,0.0028797696184304695,-0.2791203893578254,4.253852241672701,0.8080128155123202,0.11516774621145168,-0.05748019311172428,-0.17280000331790815,-1.958598181609034,0.2881889335226228,-0.34579354263963796,-0.09273800000000001,-0.015560000000000018,-0.917495,0.194258,-0.05163099999999998,-0.9153789999999999,0.28699600000000003,0.036070999999999964,0.0021160000000000068,0.9961845484304017,0.9719470762580212,double,-0.9153789999999999
94,0.391667,jog,-0.13870890328774327,0.15046796256303308,-0.014398848092140466,-0.3175516779470554,-0.046335347090863926,-0.05186762824307978,0.000479961603072237,-0.0016798656107195255,0.001439884809215462,-0.008159347252214707,0.0007199424046016947,-0.0033597312215023285,3.800991816979893,-0.9214525616804802,2.99472082550465,-0.05759078510585798,0.11518157022769832,0.40313549574067165,-2.130859048912033,0.8638617765926907,-1.49736041275086,-0.09215799999999999,-0.01619400000000004,-0.917429,0.19480200000000003,-0.05225500000000016,-0.9153330000000001,0.28696,0.03606100000000012,0.0020959999999999868,0.9962267094104633,0.9642844870444878,double,-0.9153330000000001
95,0.395833,jog,-0.14738358137301374,0.1699471915506314,-0.03288526164187557,-0.31342618084141405,-0.22135324321262007,-0.2670027210413055,0.0014402304368713384,-0.0038406144983235695,-0.002160345655304926,0.006721075372052921,-0.004560729716752576,0.006000960153624331,-2.0822559014091384,4.675763079116253,-4.437449243815433,0.2305014003358379,-0.5186627190600197,-0.8641935824580858,3.571872929492947,-1.2675641193841254,2.246925438100493,-0.09153800000000001,-0.01691799999999999,-0.917301,0.19544399999999998,-0.052982000000000085,-0.915171,0.28698199999999996,0.036064000000000096,0.0021300000000000763,0.9922734805905572,0.9618687598272114,double,-0.915171
96,0.4,jog,-0.12359011279097949,0.1619870410367113,-0.009359251259901835,-0.4715004979407514,-0.12176759391839326,0.002645532547635706,0.0026397888168906074,-0.0016798656107727896,0.0004799616030718143,0.001679865610759468,-0.002399808015321188,0.001679865610751142,5.709975661635246,-1.9102833006767552,5.645790828407382,0.28787098152610024,0.518538249952187,0.6336230521662395,-1.2097935592256814,0.5185797219657718,-1.0369797319110043,-0.09101200000000001,-0.01760000000000006,-0.91726,0.19596600000000003,-0.05366699999999991,-0.915125,0.28697800000000007,0.03606699999999985,0.002134999999999998,0.9947240596919019,0.973021951332143,double,-0.915125
97,0.404167,jog,-0.08159347252220037,0.09287257019436462,0.09479241660668021,-0.8855151266837548,0.8899389459729697,0.7182885456859851,-0.0009599232061378132,-0.002879769618406779,-0.0009599232061436414,0.0004799616030589154,-0.0023998080153745066,0.0031197504199666263,10.078387393515566,-16.58614611047446,24.99440073592096,-0.8638617765846991,-0.2879539255181176,-0.34554471063486053,-0.28795392553409155,-1.2795406949273685e-11,0.3455447106348674,-0.09067599999999998,-0.017998999999999876,-0.917659,0.19630799999999998,-0.05406399999999989,-0.915507,0.28698399999999996,0.036065000000000014,0.0021520000000000428,0.9946938248294837,0.971871444027721,double,-0.915507
98,0.408333,jog,-0.12890062409985154,0.17450792126743728,-0.010561689870389815,-0.4316530775060192,0.14872394494800983,0.024155855890874288,0.001200192030719453,-0.0024003840614655555,-0.00024003840614501487,-0.0064810369659143606,0.0007201152184290069,-0.00696111377820439,-11.355533263958506,19.595619556666488,-25.28903179958472,0.5185106185447107,0.11507094501709625,0.1727999999996702,-1.6709070016738528,0.7489014003368967,-2.419794574692993,-0.09013400000000002,-0.018736000000000086,-0.917616,0.19681799999999997,-0.05478800000000006,-0.915492,0.286952,0.03605199999999997,0.0021240000000000148,0.9955092926226716,0.9628628032594782,double,-0.915492
99,0.4125,jog,-0.15670746340293218,0.1653467722582058,-0.02615790736739029,-0.25883293684080383,-0.023078267997642267,-0.21493046507294936,0.0002399808015361185,-0.003119750419976201,-0.00047996160307161255,0.001919846412288948,-0.0026397888168906425,-0.0016798656107511643,-6.673107584132662,-2.198499882224991,-3.7427927758580664,-0.23043226042316772,-0.17263411531333087,-0.05757696110549533,2.016050726710669,-0.8063124634796421,1.2673981683353146,-0.08948,-0.019438000000000066,-0.917509,0.197479,-0.05548799999999998,-0.91539,0.28695899999999996,0.036049999999999915,0.002118999999999982,0.9947240596918994,0.9726916660504077,double,-0.91539
100,0.416667,jog,-0.15118790496759943,0.1600671946244224,-0.0275977921766466,-0.22595800519472106,-0.10347532183821251,-0.1536929847261488,0.0019198464122889224,-0.0026397888168906074,-0.0019198464122870491,0.0004799616030722306,-0.0019198464122889224,-0.0007199424046079296,1.324588057435255,-1.2669972723262188,-0.34554471064466025,0.40313549574101054,0.11518157021492442,-0.34554471063485137,-0.3455447106351587,0.17277235531598623,0.2303631404231407,-0.088842,-0.020116000000000023,-0.9174019999999999,0.19811099999999998,-0.05616299999999996,-0.9152779999999999,0.286953,0.03604699999999994,0.0021240000000000148,0.9936886113758692,0.9752502950214382,double,-0.9152779999999999
101,0.420833,jog,-0.14882381180989174,0.18098895823335162,-0.02712433989436357,-0.25882625924610697,-0.07586185077214493,-0.15746866116584723,-0.0002400384061452231,-0.004320691310574041,-0.00024003840614501487,-0.001200192030719453,-0.0038406144983235695,0.0002400384061452231,0.5674731535544143,5.022026790429479,0.11364673122492298,-0.5184553092736783,-0.40348115546889884,0.40321843642391575,-0.40330140033405715,-0.4610581099459063,0.23043226374295536,-0.088223,-0.020888000000000018,-0.91729,0.198726,-0.05693300000000012,-0.9151640000000001,0.286949,0.036045000000000105,0.0021259999999999613,0.992776656230949,0.9720217828357516,double,-0.9151640000000001
102,0.425,jog,-0.14950803935684862,0.18670506359490036,-0.024238060955127986,-0.25323060033460354,-0.04562842333364442,-0.11835115471539218,0.0023998080153611848,-0.003119750419976201,-0.0014398848092152538,-0.0026397888168906425,-0.0016798656107728119,-0.0009599232061436414,-0.16420147515163955,1.3717555463279978,0.6926515332938806,0.6335124601647283,0.28820275752288144,-0.28794010152873667,-0.34547559063383676,0.5185382499521886,-0.2879677495293668,-0.08759,-0.021679000000000004,-0.917195,0.19933800000000002,-0.05771800000000016,-0.9150670000000001,0.286928,0.036039000000000154,0.0021279999999999077,0.9930148591326258,0.9732651637080958,double,-0.9150670000000001
103,0.429167,jog,-0.15622750179985787,0.1859851211902962,-0.018478521718260896,-0.4522818302368535,0.07037092148401716,-0.2239386339373718,-0.0007199424046083459,-0.004319654427663397,0.00023998080153590716,-0.0002399808015427761,-0.0026397888168906074,0.0009599232061436286,-1.6125419829635705,-0.172772355316571,1.3821788425406876,-0.7486802063761715,-0.28795392553088234,0.4031354957406163,0.5759078510553991,-0.2303631404170358,0.4607262808464736,-0.08694199999999999,-0.022472000000000047,-0.9171170000000001,0.199988,-0.05850400000000011,-0.9149860000000001,0.28693,0.036032000000000064,0.002130999999999994,0.9926903180215303,0.9739914398350302,double,-0.9149860000000001
104,0.433333,jog,-0.15170427268362774,0.1814690350456021,-0.015602496399419514,-0.41505347051130836,0.047555410524809674,-0.13397788926882068,-0.0002400384061452231,-0.0033605376860197985,-0.00024003840614501487,-0.001200192030719453,-0.005040806529003048,-0.0009601536245800595,1.0857487076884598,-1.0840341201858112,0.6903565335673022,0.11519539089369238,0.23022485397109882,-0.11522304553070611,-0.23048757301408454,-0.5763364647413439,-0.46089218212282446,-0.086311,-0.023241999999999985,-0.917053,0.20061500000000002,-0.05928099999999992,-0.9149250000000001,0.286926,0.03603899999999993,0.0021279999999999077,0.9943706003842898,0.9699367953272806,double,-0.9149250000000001
105,0.4375,jog,-0.16822654187665254,0.2056635469162737,-0.02999760019199483,-0.348716193063182,-0.033217182386027416,-0.22522608526143292,0.0011999040076805924,-0.002879769618460065,0.000719942404607731,-0.0047996160307223696,-0.0004799616030855586,0.002399808015358687,-3.965027404133643,5.806218351493095,-3.454548546334389,0.34555853463542685,0.11537510620584018,0.23037696442350644,-0.8637926565881778,1.0945152210025235,0.8063262874823053,-0.08560499999999999,-0.024111000000000216,-0.916925,0.201296,-0.06014000000000008,-0.91479,0.28690099999999996,0.03602899999999987,0.002134999999999998,0.9946637612734025,0.9696707406124845,double,-0.91479
106,0.441667,jog,-0.15214782817374592,0.1907847372209944,-0.02087832973363565,-0.33502623339101995,-0.033346828105191476,-0.23015002492275236,0.006719462443004657,-0.004319654427610168,-0.007199424046076478,-0.0035997120230351165,-0.003839692824577896,0.0019198464122872829,3.858582602089443,-3.5706286765729263,2.188449834019494,1.3245880574331885,-0.3455447106191771,-1.9004959084915418,0.2879539255308999,-0.8062709914788473,-0.11518157021152077,-0.08494299999999999,-0.024923999999999946,-0.9168679999999999,0.201915,-0.06095099999999998,-0.9146949999999999,0.286858,0.03602700000000003,0.0021729999999999805,0.982077148626207,0.9689326529638186,double,-0.9146949999999999
107,0.445833,jog,-0.1658665386461826,0.1949111857897346,-0.014642342774838621,-0.3423882335220812,-0.028384648894217036,-0.20819727574476196,0.0028804608737360146,-0.0043206913106273405,-0.00024003840614501487,-0.0012001920307327777,-0.0028804608737160275,0.0009601536245796432,-3.293017396168185,0.9905061374796437,1.4968763703305386,-0.9215078178753335,-0.0002488917468009284,1.6705198367574312,0.5759769544652753,0.23025250860822558,-0.2303631271501774,-0.08424000000000001,-0.025754000000000055,-0.916808,0.20260099999999998,-0.06177499999999991,-0.9146299999999999,0.286841,0.03602099999999986,0.0021780000000000133,0.9913360506369979,0.9727785411631222,double,-0.9146299999999999
108,0.45,jog,-0.21910247180225345,0.21982241420684182,-0.04439644828413471,-0.3173290515333549,-0.10793368592436993,-0.4623313817414736,0.0026397888168972683,-0.005039596832265082,-0.001679865610751142,-0.003839692824564523,-0.002879769618460027,0.005039596832253425,-12.775601909304166,5.9782165627806645,-7.140414089103878,-0.05775667310745008,-0.17252352331119172,-0.34553088663453707,-0.6334295161583214,0.00016588799040088924,0.9789880507976364,-0.083316,-0.02669100000000002,-0.91663,0.203498,-0.06270299999999995,-0.914424,0.286814,0.03601199999999993,0.0022059999999999302,0.9901134252505148,0.9663409279257544,double,-0.914424
109,0.454167,jog,-0.13174946004319585,0.1907847372210477,-0.017758579313659446,-0.3657956168436266,0.19618488636086284,-0.012297502315935025,0.004799616030715709,-0.013198944084453214,-0.0033597312215023285,-0.004319654427650133,-0.005279577633781285,0.002639788816894806,20.963045778511663,-6.9684849977908065,6.39257714674236,0.5183170659511527,-1.9580866935896757,-0.40313549574062785,-0.1151815702149299,-0.5759078510490213,-0.5759078510579874,-0.08274700000000001,-0.027541000000000038,-0.91657,0.204029,-0.06352000000000002,-0.914339,0.28677600000000003,0.03597899999999998,0.002230999999999983,0.9759320272245249,0.9654991747427233,double,-0.914339
110,0.458333,jog,-0.21651464234277804,0.22419587133941185,-0.03264522323569704,-0.350213926945678,-0.08449188544799613,-0.49006036642377304,0.004560729716752576,-0.007921267402772374,-0.00744119059049442,-0.0033605376860331234,-0.0036005760921983335,0.0014402304368700894,-20.346899255780635,8.019955381268396,-3.573366279893803,-0.05734189005356046,1.266845098819212,-0.9797070016783697,0.23022485396471656,0.40302485395654114,-0.28794008161899076,-0.08182600000000001,-0.028507999999999978,-0.9164650000000001,0.204917,-0.06446900000000011,-0.914197,0.28674299999999997,0.03596100000000013,0.0022680000000000478,0.9803560830577986,0.9687676082867217,double,-0.914197
111,0.4625,jog,-0.16390688744900023,0.20950323974079552,-0.017518598512116436,-0.4525680648775096,-0.023219027595100975,-0.13836662824399162,0.0035997120230417297,-0.005519558435350634,-0.0011999040076793276,-0.007439404847612913,-0.0028797696184067402,0.00215982721382254,12.624851186411664,-3.525949507707277,3.6300995256972612,-0.23062579642688721,0.5763640430577686,1.49778895675907,-0.9788498107942785,0.17297971533275444,0.17268941131568158,-0.081128,-0.029403999999999986,-0.916397,0.20556899999999997,-0.06535399999999991,-0.914115,0.286697,0.035949999999999926,0.0022820000000000062,0.9888366644772414,0.9634057616529026,double,-0.914115
112,0.466667,jog,-0.2251019918406527,0.28269738420929447,-0.08159347252220037,-0.2947080856996087,-0.40351750411244386,-0.9112155071402395,0.0045596352291795905,-0.007199424046070233,-0.004559635229181672,-0.007199424046070233,0.0,0.0033597312215023285,-14.685650201980515,17.565189457283264,-15.376739623250373,0.23036314042185416,-0.4031354957330474,-0.8062709914812488,0.05759078510743498,0.6910894212639205,0.2879539255291086,-0.08017100000000002,-0.030612000000000084,-0.916076,0.206477,-0.06653200000000004,-0.913761,0.286648,0.03591999999999995,0.002314999999999956,0.9838916642143902,0.9636087030179703,double,-0.913761
113,0.470833,jog,-0.17474795967354917,0.21843494959192647,-0.03648583773404726,-0.40763785543956615,-0.03955365971247991,-0.2670184403509562,0.0036005760921783464,-0.004560729716752576,0.0009601536245798513,-0.0079212674027857,-0.0019203072491617847,0.003360537686029792,12.086901624364733,-15.425452380549196,10.82756475951826,-0.23021102664456153,0.6333879811132154,1.324961318713759,-0.1732701288323251,-0.4609474913974516,0.00019358245978474958,-0.079428,-0.03154100000000004,-0.91592,0.207172,-0.06745000000000001,-0.913595,0.28659999999999997,0.03590899999999997,0.0023249999999999105,0.9901841541475545,0.9620561548470073,double,-0.913595
114,0.475,jog,-0.16798656107511642,0.20350371970241535,-0.023998080153585205,-0.3015589071429903,0.009821926208098835,-0.10431057423804851,0.011519078473720367,-0.010079193664477012,-0.01487880969522436,-0.008639308855286944,-0.0026397888168906425,0.005039596832253493,1.6226058551554567,-3.5832085168013457,2.996822073545027,1.900288548486217,-1.3243254014217585,-3.801047112983994,-0.17231616330723495,-0.17266176331386174,0.40294195973691166,-0.07868,-0.03243099999999988,-0.915882,0.20783600000000002,-0.06830899999999995,-0.913474,0.286516,0.035878000000000076,0.0024079999999999657,0.9644230766211961,0.9586795695846395,double,-0.913474
115,0.479167,jog,-0.15982721382289294,0.1559875209983284,0.03719702423806457,-0.5097738288824826,0.4193472883006163,0.2803203653162421,0.008159347252221259,-0.013198944084506324,-0.003359731221502284,-0.00863930885530015,-0.0019198464122889224,0.0031197504199665846,1.9580866935981314,-11.402975450944702,14.685650201979676,-0.8062709914804614,-0.7486802063905181,2.7643576850784712,-3.1692944138736096e-12,0.17277235531598623,-0.4607262808463868,-0.07798,-0.033136000000000054,-0.9160510000000001,0.20846599999999998,-0.068967,-0.913616,0.286446,0.035830999999999946,0.002435000000000076,0.9735385570641508,0.9600102793408252,double,-0.913616
116,0.483333,jog,-0.181709073451754,0.22251560249637528,-0.027364378300542107,-0.3270402826807273,-0.06497150544792253,-0.2165350501762649,0.006000960153623914,-0.007681228996647139,0.0009601536245798513,-0.009601536245795598,-0.0016802688430365487,0.002640422467594539,-5.252486708800056,15.969294646674705,-15.497216163851807,-0.5180957989912008,1.324463535251844,1.0369382731834211,-0.23097152916357352,0.05750781787142907,-0.11505711770812418,-0.07719799999999999,-0.034094999999999986,-0.915933,0.209183,-0.06990099999999999,-0.9134909999999999,0.286381,0.035806000000000004,0.0024420000000000552,0.9836756234892664,0.9587487598272022,double,-0.9134909999999999
117,0.4875,jog,-0.18574514038876921,0.21814254859612522,-0.024718022558186902,-0.3157624943504738,0.002845154368264428,-0.17088671212332926,0.0021598272138250666,-0.006959443244500811,0.002159827213822985,-0.00935925125990196,-0.0035997120230084733,0.0038396928245741494,-0.9685785785973706,-1.0494489801416083,0.6350745721994767,-0.9217981616987928,0.17321472333725269,0.28789862952799145,0.0581437451148643,-0.46062951283223796,0.28780186152618603,-0.07641499999999998,-0.03503299999999987,-0.915821,0.209918,-0.07082499999999992,-0.913372,0.28633299999999995,0.035792000000000046,0.0024490000000000345,0.9873329432669076,0.9576139458273887,double,-0.913372
118,0.491667,jog,-0.19678425725941473,0.2342212622990354,-0.023278137748983203,-0.32209185320422135,-0.01826692582070501,-0.22203332831507297,0.003839692824571184,-0.006479481641468453,0.00023998080153590716,-0.006719462442997906,-0.003599712023061712,0.0009599232061436286,-2.6491761148657145,3.858582602090244,0.3455447106320347,0.40313549573940594,0.11518157020214899,-0.4607262808464274,0.6334986361660747,-1.2776257134083946e-11,-0.6910894212696181,-0.07557900000000001,-0.03603599999999996,-0.915723,0.21071,-0.0718160000000001,-0.9132709999999999,0.286289,0.035780000000000145,0.0024520000000000097,0.9874407499655194,0.9626747759430502,double,-0.9132709999999999
119,0.495833,jog,-0.18482957273164188,0.2205952952472135,-0.03048487758041002,-0.33409629928058865,-0.02859637975195895,-0.20056222877728466,0.0026404224675974537,-0.00816130580895091,-0.0007201152184350447,-0.011521843494957383,-0.0028804608737160275,0.0019203072491597026,2.8695834200126833,-3.270755413303381,-1.7298943426372566,-0.287870945024899,-0.40370239257860213,-0.23045991837996907,-1.1527558934132196,0.17264789950688525,0.23052905497265322,-0.07479799999999998,-0.03698899999999994,-0.915599,0.21143200000000004,-0.0727469999999999,-0.9131360000000001,0.28623,0.035757999999999956,0.002462999999999993,0.9856533676771602,0.9553188492780702,double,-0.9131360000000001
120,0.5,jog,-0.20302375809934978,0.23710103191744528,-0.025917926565874154,-0.23956622983720383,-0.010484753102123014,-0.14872833426313992,0.0033597312214989983,-0.007199424046070233,0.002159827213822985,-0.00935925125990196,-0.0045596352291795905,0.002159827213822985,-4.366255187834892,3.9610599160623647,1.0959805650434105,0.17262029131306664,0.23083315643884877,0.6911308932704694,0.5189806179638673,-0.402969607742638,0.05748019310373978,-0.073938,-0.0380069999999999,-0.915482,0.212239,-0.07375399999999988,-0.913019,0.286177,0.03574699999999997,0.002462999999999993,0.9862781243113394,0.9576491153372699,double,-0.913019
121,0.504167,jog,-0.1924646028317713,0.22006239500841124,-0.03479721622271673,-0.3939362473491777,-0.03807602392176308,-0.243099313647145,0.0035997120230350688,-0.007919366450671823,0.0011999040076793276,-0.009119270458372382,-0.003599712023061712,0.0011999040076793276,2.533994544655242,-4.088945742508737,-2.130859048918289,0.057590785105848,-0.1727723553159551,-0.23036314042324216,0.057590785104289895,0.23036314041705572,-0.23036314042324216,-0.07312100000000002,-0.03895699999999991,-0.9153319999999999,0.21300299999999997,-0.07468600000000003,-0.9128689999999999,0.286124,0.03572900000000012,0.002462999999999993,0.9853642312906915,0.9589080244562099,double,-0.9128689999999999
122,0.508333,jog,-0.20907345175228276,0.21795487277962272,-0.03312530004800081,-0.06466867531883745,-0.036628604060257204,-0.25887501428350573,0.004320691310614015,-0.008641382621254681,0.0007201152184350447,-0.011521843494957383,-0.0019203072491617847,0.0026404224675949557,-3.9867616227823914,-0.5058862767135177,0.40132409378682754,0.17306271905399565,-0.1733116107976133,-0.11516773625642883,-0.5767098023487756,0.4031216451992141,0.345779755140573,-0.07223199999999999,-0.039900999999999964,-0.915191,0.213826,-0.07560199999999995,-0.91272,0.286058,0.03570099999999998,0.002471000000000001,0.9838530676342774,0.9553308550435831,double,-0.91272
123,0.5125,jog,-0.2095032397408211,0.22870170386374414,-0.03455723542117488,-0.12270540531941472,0.13882521152201277,-0.3659030856527145,0.007679385649149233,-0.008879289656789876,-0.0007199424046077406,-0.009839212862961006,-0.0007199424046017042,0.004799616030717439,-0.1031408659799274,2.579033137538186,-0.3436369986018952,0.8060221594757095,-0.05709312107876166,-0.3455861826356642,0.40379904775531755,0.28806451753302215,0.5181650019492499,-0.071327,-0.04089100000000001,-0.9150499999999999,0.21465800000000002,-0.07655800000000013,-0.9125559999999999,0.28598500000000004,0.035667000000000115,0.0024939999999999962,0.9803974869933381,0.9567748556905005,double,-0.9125559999999999
124,0.516667,jog,-0.19798416126710197,0.23014158867288811,-0.03383729301654563,-0.22494820793012138,-0.007253457087732271,-0.11537083112182223,0.0035997120230350688,-0.008399328053757375,0.0023998080153588633,-0.014878809695225826,0.0009599232061711044,0.004799616030717727,2.764357685077765,0.3455447106177023,0.17277235532259239,-0.9790433467996481,0.11518157020218334,0.7486802063754693,-1.2094064872245696,0.4031354957458113,6.910585481453031e-14,-0.070487,-0.04188499999999995,-0.914899,0.21542100000000003,-0.07751299999999994,-0.912395,0.28590800000000005,0.03562799999999999,0.0025040000000000617,0.9842532439924564,0.9488546182352069,double,-0.912395
125,0.520833,jog,-0.21291406625059967,0.23259721555448798,-0.023043686989914765,-0.3204231089435772,-0.040292140678030594,-0.15223610574138294,0.004560729716752576,-0.006961113778218132,0.001440230436869881,-0.015362457993280952,0.0007201152184290069,0.004560729716754659,-3.5837505961348253,0.5894447627460065,2.590879987189356,0.2306811554770779,0.34522666239540123,-0.23033547251295766,-0.116094166599886,-0.05756312715844871,-0.05734189005354485,-0.069581,-0.042883000000000004,-0.914797,0.21624400000000002,-0.07847899999999997,-0.91228,0.285825,0.03559599999999996,0.0025169999999999915,0.9859236581166746,0.9480944672001834,double,-0.91228
126,0.525,jog,-0.21814254859610901,0.2524598032157535,-0.021118310535151504,-0.29716220654520414,0.015406341769290729,-0.1285331743054271,0.004799616030722306,-0.006479481641468453,0.001919846412286841,-0.015358771298298058,-0.0016798656107727896,0.0011999040076793276,-1.254735384091507,4.766639707527088,0.4620533848723894,0.05732812910240662,0.11558246622262436,0.11509862620997272,0.0008847360170130538,-0.5759493230625817,-0.8065336474862744,-0.06865199999999999,-0.04396200000000006,-0.914701,0.217089,-0.07953800000000011,-0.9121870000000001,0.285741,0.03557600000000005,0.002513999999999905,0.9861851723548709,0.9490318513863414,double,-0.9121870000000001
127,0.529167,jog,-0.21166306695464054,0.24262059035273947,-0.03335733141348672,-0.3603595098513087,-0.0029983400777269177,-0.13145383137565164,0.005279577633787876,-0.006479481641468453,0.0031197504199663765,-0.017998560115188664,-0.0035997120230084256,0.004319654427645496,1.5549511978565926,-2.3612221893482026,-2.937130040397198,0.11518157021011907,0.0,0.287953925529044,-0.6334986361628476,-0.4607262808340824,0.7486802063753648,-0.067748,-0.04499999999999993,-0.9145490000000001,0.217896,-0.08056399999999986,-0.91203,0.285644,0.03556399999999993,0.002519000000000049,0.9851310852768267,0.9433825921437404,double,-0.91203
128,0.533333,jog,-0.2265962554008701,0.24651944311093082,-0.02784445511281997,-0.25043944099288873,-0.0452272301786978,-0.07105772677719542,0.0048007681228979275,-0.0062409985597892915,0.0016802688430149408,-0.01584253480557182,-0.006481036965914533,0.004800768122900009,-3.5845387532957163,0.9358744018702478,1.3233020404865325,-0.11493267184108522,0.05724509881881116,-0.3455308634064986,0.5175288789286848,-0.6916286468809847,0.11548576458341943,-0.06678400000000001,-0.04605300000000012,-0.9144260000000001,0.218774,-0.08161799999999997,-0.911894,0.285558,0.03556499999999985,0.0025320000000000897,0.986581445166204,0.9450509450131408,double,-0.911894
129,0.5375,jog,-0.22030237580993403,0.24670026397888675,-0.025197984161272124,-0.23853974099191858,-0.05246812743096435,-0.141867483216148,0.0035997120230417297,-0.006479481641468453,0.003599712023038191,-0.01679865610751475,-0.005279577633834501,0.0031197504199661683,1.5104102690031274,0.04339353682647616,0.6351022201938625,-0.28823040553304263,-0.0572313610941107,0.46062951284454895,-0.22945075640578894,0.2883271735253235,-0.403411975746059,-0.06585099999999999,-0.04710800000000015,-0.9143060000000001,0.21962199999999998,-0.08266800000000019,-0.911776,0.285473,0.035560000000000036,0.0025300000000000322,0.9862664709116132,0.9448950027636533,double,-0.911776
130,0.541667,jog,-0.22414206863450523,0.24358051355891058,-0.03167746580274058,-0.2089174065921224,0.033280256760304314,-0.09268188667020089,0.00455963522917953,-0.0043196544276101105,0.0011999040076793276,-0.017518598512116436,-0.0028797696184067402,0.0019198464122872573,-0.9214525616921443,-0.7486802063777648,-1.5549511978565884,0.2303631404218365,0.5183170659607212,-0.5759078510580381,-0.1727723553159782,0.5759078510745722,-0.28795392552889415,-0.06489800000000001,-0.04814099999999999,-0.914169,0.22048299999999998,-0.08369500000000007,-0.911636,0.285381,0.035554000000000086,0.0025330000000000075,0.9893425225226615,0.9449079726865386,double,-0.911636
131,0.545833,jog,-0.2277964474315902,0.2597215554488249,-0.03744599135862815,-0.3040338338827045,0.04552852502581314,-0.0857951843634891,0.00408065290446213,-0.004800768122931111,0.0,-0.0079212674027857,-0.010561689870363166,-0.004560729716754659,-0.8771912619022959,3.8744699687744406,-1.3846676802418558,-0.11497415379678337,-0.11548576459937593,-0.28802304553032326,2.303728062729412,-1.843955893412487,-1.5555871649164454,-0.06393200000000002,-0.049242999999999926,-0.914013,0.22139899999999998,-0.08482099999999981,-0.911499,0.285331,0.03557799999999989,0.0025140000000000162,0.9894987960085989,0.9515805368443524,double,-0.911499
132,0.55,jog,-0.22942164626829975,0.2502999760019485,-0.038876889848810714,-0.23110368490983269,-0.04603040880581474,-0.09351071208421124,0.0026397888168972683,-0.00311975041997616,0.001679865610751142,-0.029997600191981107,0.0033597312214922927,0.00551955843532524,-0.3900165194887316,-2.2609981873953364,-0.3433881665904848,-0.3457797186380731,0.4034119757511251,0.40313549574061175,-5.29789603772384,3.340873792141913,2.4190756304487215,-0.062965,-0.050299000000000094,-0.913844,0.22223,-0.08584999999999998,-0.911314,0.285195,0.03555099999999989,0.0025300000000000322,0.9926358080795308,0.923557244010309,double,-0.911314
133,0.554167,jog,-0.23206143508519655,0.25869930405565944,-0.0343172546196321,-0.14295187059457282,0.0001975986939605329,-0.02810881342543297,0.003359731221499043,-0.009119270458359302,0.012479001679865839,-0.03263738900888591,0.003839692824577947,0.0026397888168944246,-0.6334986361643519,2.0156774786923743,1.094224917009527,0.17277235531600393,-1.4397696276417702,2.591585329761196,-0.6334986361662711,0.11518157021494206,-0.6910894212697073,-0.06198400000000001,-0.05141499999999999,-0.9136489999999999,0.22306099999999998,-0.08691199999999988,-0.91116,0.285045,0.03549699999999989,0.0024889999999999635,0.9736384976349394,0.920162780696627,double,-0.91116
134,0.558333,jog,-0.23043686989918097,0.2510801728276768,-0.0340854536725817,-0.24544188656927707,-0.01218673277463634,-0.03678930924304463,0.0038406144983235695,-0.0040806529044488055,0.0036005760921748067,-0.033605376860291254,0.006961113778164833,0.006240998559769554,0.3899580379298092,-1.8288841161744187,0.055641129872875776,0.115430455310736,1.2094617268148087,-2.1311631271461895,-0.2323542610190458,0.749260910606549,0.8644286468735302,-0.06100800000000001,-0.052478000000000025,-0.913492,0.223881,-0.08792900000000015,-0.910992,0.284889,0.03545100000000012,0.0024999999999999467,0.9888986742474828,0.9168639401925247,double,-0.910992
135,0.5625,jog,-0.235421166306696,0.25317974562035517,-0.03599712023037733,-0.11739484000126087,-0.05928428147686211,-0.01370011583033196,0.0035997120230350688,-0.0021598272138050553,-0.0004799616030718143,-0.03911687065035349,0.0014398848092566567,-0.005759539236860939,-1.1961354469678385,0.5038571616698693,-0.4587632728091226,-0.05781196911171079,0.46096128885138843,-0.9792507068026374,-1.3226526973991348,-1.3249889534216783,-2.8798986792969528,-0.06001200000000001,-0.05354199999999998,-0.9133439999999999,0.22469899999999998,-0.088978,-0.910866,0.284711,0.03543600000000002,0.0024779999999999802,0.9929578366284257,0.9092786302091573,double,-0.910866
136,0.566667,jog,-0.23710103191744214,0.2526997840172696,-0.03839692824572516,-0.14553786092515314,0.07710751035065948,-0.07153992114868657,0.004319654427650075,0.0,-0.005759539236860939,-0.036717062634979016,0.0071994240460701376,0.0009599232061436286,-0.40313549573941393,-0.11518157021491505,-0.5759078510553904,0.17277235531917468,0.5183170659479335,-1.2669972723275942,0.5759078510617849,1.3821788425278227,1.612541982962447,-0.059006,-0.05459499999999995,-0.913208,0.225534,-0.090001,-0.910702,0.28454,0.03540600000000005,0.0025060000000000082,0.988000959923202,0.9125590946305193,double,-0.910702
137,0.570833,jog,-0.2477196351416237,0.24003840614495658,-0.039846375420067054,-0.23651437964480404,0.085953743107935,-0.05270028673541622,0.006721075372059584,-0.0002400384061785351,-0.0009601536245798513,-0.038406144983209045,0.007441190590468603,0.009361497839654122,-2.5488725934185212,-3.0392169640693756,-0.3479229895203777,0.5764332559792383,-0.05761843643267761,1.1520368728471158,-0.4054446347167615,0.05803325597658795,2.016700584135979,-0.057946,-0.05559599999999998,-0.913046,0.22640599999999997,-0.09097,-0.910497,0.28435199999999994,0.03537400000000002,0.0025490000000000235,0.9886774110272945,0.907468534148285,double,-0.910497
138,0.575,jog,-0.2450203983681338,0.2467002639788933,-0.04295656347493248,-0.09616628257026011,-0.007316552024657876,-0.0028976884513596903,0.009839212862967668,0.00095992320617113,-0.005999520038397215,-0.03527717782576326,0.0059995200384363465,0.007439404847612279,0.6477650044372345,1.5987179827062263,-0.7463854223339293,0.748293134367205,0.2879677495439616,-1.2093511912208925,0.7508920464232881,-0.345973254627378,-0.4612654168567026,-0.05688400000000002,-0.05661999999999989,-0.912892,0.22728,-0.09197299999999986,-0.910287,0.284164,0.03535299999999997,0.0026050000000000795,0.9807266877799274,0.9130352540081905,double,-0.910287
139,0.579167,jog,-0.2469402447804162,0.23830093592512935,-0.04607631389488085,-0.25126787104345577,0.14585620460847112,-0.16541472341848718,0.009119270458365721,0.0043196544276101105,-0.00671946244300436,-0.03455723542117396,0.008639308855273508,0.005999520038397054,-0.4607262808453062,-2.015677478705036,-0.7486802063710939,-0.17277235531604065,0.8062709914660319,-0.1727723553172881,0.17277235531300583,0.633498636150022,-0.3455447106348006,-0.055817000000000005,-0.05759500000000006,-0.912728,0.22816499999999998,-0.09292999999999996,-0.91007,0.28398199999999996,0.035334999999999894,0.002657999999999938,0.9797946869205606,0.9132158469007703,double,-0.91007
140,0.583333,jog,-0.2578012481997164,0.2467594815170495,-0.04896783485359886,-0.15205659745897465,0.1377928943267014,-0.10406472138979932,0.008401344215076146,-0.00024003840612523588,-0.007441190590494628,-0.03384541526644314,0.01632261161784852,0.00840134421507448,-2.607057949904027,2.0303758021891816,-0.6940760822654842,-0.17232987116888487,-1.0945014003205336,-0.17324247419353533,0.1708641754034613,1.8442877490578506,0.5765300472101356,-0.05470799999999998,-0.05862400000000001,-0.9125549999999999,0.229098,-0.09389000000000003,-0.909831,0.283806,0.03526600000000002,0.0027239999999999487,0.981290857815505,0.9085874381667923,double,-0.909831
141,0.5875,jog,-0.2378209743220505,0.20950323974079552,-0.03599712023037733,-0.04072769751279787,0.013902027305849296,-0.08064411508691496,0.0011999040076739157,-0.0011999040076872372,-0.0014398848092152348,-0.03335733141348672,0.024238060955154305,0.01031917446604255,4.794882140068575,-8.940782763679792,3.112722491773802,-1.7282073931850674,-0.2303493164295642,1.4401981716533112,0.11713075424920022,1.8995558764832554,0.4602424408370663,-0.05371200000000001,-0.059501999999999944,-0.912411,0.22995,-0.0946619999999998,-0.909638,0.28366199999999997,0.03515999999999986,0.0027730000000000254,0.9962908493338529,0.9014282256097046,double,-0.909638
142,0.591667,jog,-0.25869930405567254,0.22798176145908308,-0.036717062634979016,-0.03239625983900368,0.06856198949834556,-0.0618894672058437,0.004319654427650075,-0.00311975041997616,-0.0069594432445402666,-0.03599712023037733,0.029037676985796682,0.015358771298295977,-5.0103983042049185,4.43449045315273,-0.1727723553159782,0.7486802063777623,-0.4607262808468702,-1.3245880574334028,-0.633498636162848,1.1518157020979938,1.2094064872218353,-0.052615999999999996,-0.06046499999999999,-0.912287,0.230878,-0.09549099999999999,-0.909421,0.283494,0.035026,0.002865999999999924,0.9853915827791688,0.8901189161642218,double,-0.909421
143,0.595833,jog,-0.25252040326452824,0.2354776764282636,-0.05400864138262999,-0.2689183358833811,0.3187757225973237,-0.13333289900766584,-0.050408065290451554,0.0002400384061785415,0.03192510801728346,-0.030244839174272266,0.03648583773407488,0.017762842054729076,1.483173497634293,1.7993074818004562,-4.150643002316713,-13.136754613082825,0.8064783548139195,9.333785708551304,1.380768376405476,1.7878446347283696,0.5770693126339803,-0.051774000000000014,-0.06144499999999997,-0.911929,0.23180399999999998,-0.09631999999999996,-0.909122,0.283578,0.03487499999999999,0.002807000000000004,0.90055371094184,0.8875781375807253,double,-0.909122
144,0.6,jog,-0.2627789776817865,0.21790256779455291,-0.06311495080393838,-0.3655454060421516,0.4337294467582012,-0.18882348525877957,-0.006719462443004568,-0.0011999040076872372,0.0023998080153588633,-0.029037676985836647,0.04607631389488085,0.025197984161267128,-2.4618609112690595,-4.21768865699797,-2.1853394339592787,10.484425929312852,-0.3455585346450126,-7.0855051600490455,0.28969574956458116,2.3015301561809216,1.784291362260138,-0.050707,-0.062357999999999913,-0.9116559999999999,0.232778,-0.0970359999999999,-0.908754,0.283485,0.03467799999999999,0.00290199999999996,0.9879411139655354,0.8709640041589896,double,-0.908754
145,0.604167,jog,-0.340772738180944,0.1999040076794042,-0.1723062155027576,0.009612436156524861,-1.2361174914540891,0.19680979859750983,-0.008159347252214599,-0.0019198464122889224,-0.00023998080153590716,-0.02951763858890888,0.04727621790256809,0.028077753779697182,-18.71700515938491,-4.319308882925026,-26.20380722313856,-0.3455447106335542,-0.17277235531597784,-0.6334986361638469,-0.11518157021171786,0.2879539255308933,0.6910894212695062,-0.049320999999999976,-0.063199,-0.9109389999999999,0.23407500000000003,-0.09767199999999998,-0.9079189999999999,0.283396,0.034472999999999976,0.0030200000000000227,0.9860239939127697,0.8657875538383635,double,-0.9079189999999999
146,0.608333,jog,-0.2686029764762315,0.20811329812768856,-0.09169467114738195,-0.10151816605796657,0.1569591842638181,-0.1855108787862897,-0.009601536245802261,-0.0016802688430365487,-0.001680268843014896,-0.021603456553056753,0.05232837253961866,0.036485837734037685,17.323514571462425,1.9705449947874114,19.349866623949975,-0.3461807473806196,0.05750781787142907,-0.34572444586629564,1.8997076418272012,1.2127111466756035,2.0182630711331004,-0.04824200000000001,-0.06407300000000005,-0.9105639999999999,0.23510399999999998,-0.09832099999999988,-0.907385,0.283346,0.034247999999999834,0.003178999999999932,0.9835146441206193,0.8559579984979301,double,-0.907385
147,0.6125,jog,-0.26397888168946704,0.2025437964962948,-0.07847372210222311,-0.1774333754711129,0.3654479889576586,-0.2142140509730969,-0.009599232061437951,-0.00023998080151613289,-0.0040796736261097975,-0.0026397888168906074,0.0585553155747322,0.04319654427645746,1.1096939733055962,-1.3365734656572366,3.1727739489221816,0.000552960010633575,0.34564147864660544,-0.5758110830561275,4.550916183385169,1.494346780684784,1.6104407349219394,-0.047182,-0.06491800000000003,-0.910254,0.23619300000000001,-0.09892100000000004,-0.906878,0.28337500000000004,0.034003000000000005,0.0033760000000000456,0.9826117389654518,0.844886122338173,double,-0.906878
148,0.616667,jog,-0.26037916966643226,0.20278377729781635,-0.08519318454523661,-0.11407860478031681,0.3880198128082507,-0.2890717202831165,-0.00863930885528706,-0.0007199424046017042,-0.0038396928245742006,0.0031197504199629213,0.05303575713943627,0.037916966642669345,0.8638617765862352,0.05759078510236355,-1.6125419829646326,0.23036314042498426,-0.11518157021492213,0.05759078510573589,1.3821788425374704,-1.3245880574264548,-1.266997272327385,-0.04613299999999998,-0.06576599999999999,-0.909915,0.237291,-0.099545,-0.906365,0.283424,0.033779,0.003550000000000053,0.9841974671905216,0.8557160559051742,double,-0.906365
149,0.620833,jog,-0.2678828612577958,0.18530964954392568,-0.10561689870379155,-0.21518421543521363,0.46694975235761343,-0.40350751284274156,-0.0062409985597691375,0.00024003840612523588,-0.003120499279884777,0.00408065290446213,0.06481036965914361,0.05328852616418622,-1.8011741697944175,-4.19446177481773,-4.902475794180251,0.5756865807772253,0.23043226373666334,0.17263407217700988,0.2306535008399443,2.8263592222053115,3.689764647507649,-0.045043,-0.06653700000000007,-0.909488,0.23842399999999997,-0.100047,-0.905703,0.28346699999999997,0.03350999999999993,0.0037849999999999273,0.9883637065352482,0.8221430283061997,double,-0.905703
150,0.625,jog,-0.25773938084953474,0.1756659467242499,-0.11951043916486552,-0.21381735289711468,0.5429260421208129,-0.3545863595899601,-0.007919366450685144,0.0033597312214922927,-0.0019198464122870491,0.005039596832265082,0.08903287736978555,0.07007439404847574,2.4342405587379403,-2.3143035324395735,-3.334182976019645,-0.40277607173409985,0.7486663823774977,0.28813363753244986,0.23012813242211294,5.812936815608772,4.028286029347105,-0.044001999999999986,-0.06725500000000006,-0.908998,0.23951900000000004,-0.10040800000000005,-0.904913,0.283521,0.03315299999999999,0.004085000000000005,0.985309681087752,0.7701271362283557,double,-0.904913
151,0.629167,jog,-0.25605951523877524,0.17542596592273377,-0.12814974802016568,-0.07047318022767657,0.4504133957626472,-0.3992458697857566,-0.006719462443004568,0.004319654427663397,-0.001679865610751142,-0.009359251259901835,0.08591312694986267,0.07487401007919305,0.4031354957426178,-0.057590785101063156,-2.073268263810918,0.28795392552929383,0.23036314042982886,0.05759078510580882,-3.4554471063515257,-0.748680206364976,1.1518157021159765,-0.042963,-0.06796800000000003,-0.908471,0.240547,-0.10078100000000001,-0.904067,0.28351000000000004,0.03281299999999998,0.0044040000000000745,0.9863952073020443,0.7653850049062902,double,-0.904067
152,0.633333,jog,-0.2465194431108976,0.1788286125780113,-0.14090254440710603,-0.02197126740796984,0.5861735994822582,-0.3956913395443691,-0.006721075372059584,0.007921267402772374,-0.001440230436869881,-0.0033605376860331234,0.10513682189148779,0.10417666826692272,2.2899837080839243,0.8167658798073771,-3.0611609186126603,-0.00038716491959094377,0.8645254380962492,0.05752164519473374,1.4399216451917205,4.6144250940050675,7.033763367193868,-0.041964,-0.06868000000000007,-0.90789,0.24156,-0.10108800000000007,-0.903046,0.283524,0.03240799999999999,0.0048439999999999594,0.9825203614378824,0.7048155148529255,double,-0.903046
153,0.6375,jog,-0.24358051355892374,0.1687065034797004,-0.1696664266858715,-0.07419228088517967,0.4993585882522429,-0.39320635434955886,-0.010559155267582694,0.012239020878335546,0.00047996160307182706,-0.015118790496755685,0.1211903047756149,0.12239020878329968,0.7052866695401772,-2.4291118546462918,-6.902779524541882,-0.9210654896863892,1.036177939899989,0.4608092248480309,-2.8217549341787342,3.8525276899753824,4.370900051926398,-0.040993,-0.06933199999999995,-0.907181,0.24251200000000003,-0.10128599999999999,-0.901829,0.283505,0.03195400000000004,0.005352000000000023,0.9730473792675165,0.6583103402714195,double,-0.901829
154,0.641667,jog,-0.2267818574514025,0.15982721382290627,-0.18070554355651497,0.020036651126115922,0.4379605588937238,-0.46211016689213513,0.0,0.011279097672217402,-0.014158867290616649,-0.043436525078003566,0.1307895368370563,0.14062874970002287,4.031354957408474,-2.130859048906663,-2.6491761148652215,2.5339945446562546,-0.23036314041711964,-3.5130378914538913,-6.7957126424880405,2.303631404233578,4.37689966804009,-0.040048,-0.06995099999999987,-0.9064869999999999,0.243276,-0.10140700000000002,-0.90049,0.283324,0.03145600000000015,0.005996999999999919,0.9698295781686805,0.6118655768694625,double,-0.90049
155,0.645833,jog,-0.23211713874219753,0.16322611617859178,-0.20163226116177418,-0.006181220071043132,0.4199635792349175,-0.30719894641082546,-0.0031204992798812376,0.015842534805544747,-0.005520883341334509,-0.06601056168986306,0.15074411905906684,0.1514642342774842,-1.2806724173775852,0.8158671041011799,-5.023215939812578,-0.7490396735192596,1.0954001760267265,2.0734478994916308,-5.418635768569247,4.789866111860426,2.600932447782364,-0.03909399999999999,-0.07056499999999999,-0.90567,0.24396800000000002,-0.10145899999999997,-0.899019,0.28306200000000004,0.030893999999999977,0.0066509999999999625,0.9715588532770809,0.5607277956734871,double,-0.899019
156,0.65,jog,-0.21766258699303678,0.17086633069355422,-0.2162227021838334,0.036967021686248026,0.5523218829574484,-0.4947216335693826,-0.010559155267575752,0.016558675305998617,0.005039596832253217,-0.09071274298055833,0.1612670986321096,0.18574514038876758,3.4688149146053835,1.8335048032067152,-3.5014257312356887,-1.7851346262765677,0.17185997131122255,2.534312496661302,-5.9280492658255515,2.525313072484446,8.226759325961869,-0.03823099999999999,-0.07120799999999994,-0.904748,0.24449700000000002,-0.101499,-0.8973439999999999,0.282728,0.030291000000000068,0.007404000000000077,0.9662080292210183,0.488997199592719,single,-0.8973439999999999
157,0.654167,jog,-0.1999040076793842,0.15814734821213347,-0.22102231821452906,0.0754394119369284,0.3649427089748836,-0.38757947107106594,-0.008159347252221259,0.016318694504429198,0.012239020878329808,-0.11519078473722877,0.16750659947206195,0.19750419966402516,4.2617180978287585,-3.052311610612109,-1.1518157021107776,0.5759078510569895,-0.057590785113851066,1.7277235531741146,-5.874260080794397,1.4973604127555296,2.8219484701841835,-0.03743199999999999,-0.07179899999999995,-0.903776,0.24484999999999998,-0.10145999999999988,-0.8956000000000001,0.282282,0.029660999999999937,0.008175999999999961,0.9633838086068088,0.4458486643470283,single,-0.8956000000000001
158,0.658333,jog,-0.20931349015843356,0.1629860777724709,-0.24171867498799957,0.09730347629103164,0.3146763426618722,-0.40148873195233115,-0.004080652904468901,0.011521843494971014,0.01728276524243924,-0.14018242918866744,0.18434949591932304,0.20787325972156054,-2.2586371769202103,1.1614809314300418,-4.967920492911917,0.9790432903870531,-1.151428470825326,1.2106923581636015,-5.998954501065607,4.042942018065656,2.4889726494324647,-0.036577,-0.07243,-0.9026970000000001,0.24513800000000002,-0.1013710000000001,-0.893727,0.28171500000000005,0.028941000000000106,0.008970000000000034,0.9647194348403394,0.4103,single,-0.893727
159,0.6625,jog,-0.1963042956563425,0.16054715622745466,-0.2673386129109793,0.1911947036874532,0.31552623812325864,-0.39294378195833346,0.0007199424046083459,0.014158867290570856,0.022318214542836244,-0.16102711783058016,0.1963042956563425,0.2399808015358755,3.121956923947916,-0.585294347256112,-6.14829323805605,1.152050710121721,0.6328350841372262,1.2084111592025353,-5.00232508805197,2.8689224230908015,7.705193619945938,-0.03575600000000001,-0.07304,-0.90149,0.24528499999999998,-0.10122199999999992,-0.891613,0.281041,0.02818199999999993,0.009877000000000025,0.9559326733408596,0.40123,single,-0.891613
160,0.666667,jog,-0.1864650827933751,0.15862730981521903,-0.2733381329493622,0.18208417675545,0.16066505306407952,-0.347592430130084,-0.0059995200383962215,0.011039116870647982,0.018958483321334166,-0.1845452363810795,0.22414206863450523,0.25221982241420493,2.3612221893370124,-0.46072628083408274,-1.439769627641671,-1.612541982962447,-0.7486802063649748,-0.8062709914811742,-5.643896940364571,6.680531072273222,2.9371300403958083,-0.03500400000000001,-0.07365500000000003,-0.900272,0.245293,-0.10094899999999996,-0.889423,0.280297,0.02729399999999993,0.010848999999999998,0.9620936669092145,0.39151,single,-0.889423
161,0.670833,jog,-0.18530964954392568,0.16298607777246657,-0.2868458953432418,0.2799352909241786,0.026648868990371673,-0.3082880025533653,0.0016802688430165617,0.016562650024027056,0.02760441670667317,-0.19155064810370148,0.23835813730197333,0.25588094095055214,0.2773483556047566,1.0462717132135242,-3.2423817556119934,1.8434442826242865,1.325860094426085,2.075356069452472,-1.6815678642875598,3.412402464586677,0.8788090581726368,-0.034225000000000005,-0.07426500000000003,-0.898962,0.24526699999999999,-0.10063500000000003,-0.887162,0.27949199999999996,0.026370000000000005,0.011800000000000033,0.9462736227383277,0.382,single,-0.887162
162,0.675,jog,-0.18598512119030286,0.14830813534917273,-0.30213582913366943,0.2895568824155945,0.10983348085740034,-0.3495115694159665,0.011519078473720213,0.021838252939779833,0.03191744660427128,-0.21238300935924223,0.2550995920326441,0.24502039836812894,-0.16210022711235414,-3.5224243876394845,-3.6692905664572906,2.3611254213351516,1.2660434163073522,1.0350443718737885,-4.999366751989583,4.017627725142941,-2.606321714044423,-0.033402000000000015,-0.07479199999999997,-0.89757,0.245157,-0.10019,-0.8848820000000001,0.278559,0.02539800000000003,0.012687999999999922,0.9327458828587416,0.37312,single,-0.8848820000000001
163,0.679167,jog,-0.17542596592273177,0.16750659947201313,-0.31245500359972406,0.2945454260144402,-0.20047900183456568,-0.33473240635007956,0.01439884809215398,0.029037676985850743,0.0350371970242388,-0.24382049436045986,0.2783777297816347,0.25821934245260886,2.5339945446535377,4.607262808457108,-2.476403759552393,0.6910894212704155,1.7277235531727975,0.7486802063757082,-7.544392848864464,5.586306155265435,3.167493180820774,-0.032611,-0.0753689999999998,-0.896122,0.244872,-0.09972799999999982,-0.882504,0.27748300000000004,0.02435900000000002,0.013618000000000019,0.9204505973478874,0.36382000000000003,single,-0.882504
164,0.683333,jog,-0.17354776764282306,0.17930868939031508,-0.34013442150744133,0.22070704311337472,-0.12046957563315243,-0.2570733238009534,0.024723955832931327,0.028084493518944462,0.03744599135861733,-0.27844455112817895,0.2906865098415387,0.2712433989438306,0.45083972153353424,2.8329548531689728,-6.644123357589355,2.478422405371421,-0.22880064015993282,0.5782031527552878,-8.311103400796705,2.9545799471685026,3.1262737616950855,-0.03178500000000001,-0.07599899999999993,-0.894549,0.244435,-0.09926400000000002,-0.879957,0.27622,0.02326500000000009,0.01459200000000005,0.9117734129723986,0.35408,single,-0.879957
165,0.6875,jog,-0.16438684905207246,0.18022558195342941,-0.33885289176864847,0.3513945543543883,-0.28129827554558723,-0.17509548460026772,0.006479481641468453,0.021838252939779833,0.0729541636669062,-0.2745380369570495,0.2918166546676498,0.30693544516438426,2.1984445862132316,0.22003661221846135,0.30754253390757236,-4.378323540067851,-1.4989778207738378,8.521279651617135,0.9374884019989062,0.27121306122175654,8.565405860463978,-0.031073000000000017,-0.07665899999999981,-0.892833,0.24397599999999997,-0.09879899999999986,-0.877266,0.275049,0.02214000000000005,0.015566999999999998,0.8726203948587175,0.34433,single,-0.877266
166,0.691667,jog,-0.16174706023518184,0.17974562035039715,-0.3580513558915377,0.29542179979510336,-0.2446982912047158,-0.2622450067948461,0.023038156947447087,0.006959443244500718,0.08231341492680512,-0.30669546436284895,0.32685385169182934,0.3050155987520978,0.6334986361628496,-0.11518157020212631,-4.607262808468701,3.9737641723010575,-3.570628676572835,2.2460406191261937,-7.717165204175479,8.408254625432997,-0.460726280846272,-0.030302999999999997,-0.07737900000000009,-0.890998,0.24337199999999998,-0.0981860000000001,-0.874503,0.273675,0.02080700000000002,0.016494999999999926,0.8570675295159652,0.33504999999999996,single,-0.874503
167,0.695833,jog,-0.16754680748919915,0.19059049447910725,-0.3761401824291848,0.3413507751160243,-0.3583128931062004,-0.23553487649598567,0.038406144983195716,0.006961113778218132,0.07345175228036498,-0.4315890542486714,0.3036485837734207,0.3951032165146416,-1.3921620868980549,2.6031863006985345,-4.34201309112988,3.688907353756269,0.00040099225093942297,-2.1271393774460243,-29.97925825391799,-5.5701555253021215,21.624488181119464,-0.029445,-0.07814399999999999,-0.8891249999999999,0.24227200000000002,-0.097715,-0.87129,0.271717,0.019571000000000005,0.017834999999999934,0.8613693056418557,0.32165000000000005,single,-0.87129
168,0.7,jog,-0.16438684905207684,0.2047036237101053,-0.38900887928966027,0.34093067844122943,-0.5405155153350815,-0.17331375668078994,0.03599712023038495,0.012479001679851685,0.06791456683465416,-0.3772498200144103,0.3916486681065776,0.3340532757379475,0.7583293585606818,3.3868800650343953,-3.0882401872991903,-0.5781196910993073,1.3241871614191645,-1.3288182015144998,13.040372986383995,21.118330773496183,-14.65081372130915,-0.028609999999999997,-0.07894500000000004,-0.887221,0.241385,-0.09693599999999991,-0.868277,0.269995,0.017990999999999868,0.018944000000000072,0.8702148513017547,0.31055999999999995,single,-0.868277
169,0.704167,jog,-0.15718742500600233,0.23302135829134815,-0.39284857211422775,0.3877592190718458,-0.46283310261576865,-0.12314719294451532,0.021358291336694278,0.014878809695225826,0.05591552675785908,-0.3892488600911927,0.4031677465802474,0.35253179745620117,1.7277235531736166,6.795712642486832,-0.9214525616912518,-3.5130378914544176,0.5759078510617045,-2.879539255290374,-2.879539255287325,2.764357685065922,4.434490453144591,-0.027865999999999974,-0.07985400000000009,-0.885351,0.240418,-0.09622700000000006,-0.865171,0.26828399999999997,0.01637299999999997,0.020179999999999976,0.8972043326764381,0.29819999999999997,single,-0.865171
170,0.708333,jog,-0.22851656265001918,0.11113778204509837,-0.36845895343253765,0.035145929093316486,-0.4858728525426225,-0.31980498143005637,0.02640422467594789,0.023283725396066653,0.06120979356697068,-0.41094575132020883,0.42678828612579356,0.37253960633701394,-17.121732511765916,-29.256739377400308,5.854445194836792,1.2112177962682684,2.017502568612775,1.2708273665654326,-5.208087188914095,5.669836664797442,4.802642554203734,-0.026803999999999994,-0.08021999999999996,-0.883561,0.23965799999999998,-0.09491199999999989,-0.8620840000000001,0.266462,0.014691999999999927,0.02147699999999997,0.8823145225426814,0.28523,single,-0.8620840000000001
171,0.7125,jog,-0.164146868250543,0.2572594192465025,-0.39716822654189116,0.5463448858132267,-0.6068079641711145,0.06372328528796463,0.030237580993517223,0.01823854091671812,0.06239500839932753,-0.43796496280296415,0.484041276697845,0.3748500119990358,15.447490856605636,35.06638761732733,-6.889674372295005,0.9199319216629004,-1.210747415250419,0.2844288054612059,-6.4840920284989485,13.739618567806822,0.5544530026450262,-0.02599399999999999,-0.08121600000000018,-0.8816459999999999,0.23851700000000003,-0.09396700000000013,-0.8588669999999999,0.26451100000000005,0.012750999999999957,0.022778999999999994,0.8805092663720265,0.27221000000000006,single,-0.8588669999999999
172,0.716667,jog,-0.03671706263498568,0.20638348932081937,-0.2538996880249569,0.929461569091391,1.8350062778035992,-0.4789486798608689,0.027117830573554387,0.021358291336694278,0.08039356851451827,-0.46412287017039405,0.5233981281497413,0.37556995440364577,30.58070689118223,-12.209246442448455,34.38169870816731,-0.748680206374565,0.7486802063777622,4.31930888293511,-6.277395576537005,9.444888757354445,0.17277235531796978,-0.025728,-0.08198700000000003,-0.880253,0.23673599999999997,-0.092646,-0.856244,0.262464,0.010658999999999974,0.024008999999999947,0.8541816274117995,0.25991,single,-0.856244
173,0.720833,jog,-0.18026884301488746,0.2659625540086744,-0.4051848295727476,0.37807780462361146,-0.361070751643337,-0.5674084579596947,0.02304368698991538,0.028564570331302296,0.08785405664906613,-0.5333653384541669,0.590014402304401,0.4109457513202215,-34.45794056166719,14.301263727281945,-36.3142442505508,-0.9779509322225427,1.7297837241018252,1.7908036808804737,-16.620851724381815,15.990464271402182,8.491549907963666,-0.024881000000000014,-0.08297599999999994,-0.878199,0.23526499999999997,-0.09129600000000004,-0.8528439999999999,0.260146,0.008320000000000105,0.025355000000000016,0.8413137139405897,0.24645,single,-0.8528439999999999
174,0.725,jog,-0.1850251979841584,0.23806095512355996,-0.4451643868490343,-0.06283330761911146,-0.05963437819370153,-0.7263988916032162,0.019678425725948134,0.028557715382764418,0.08639308855291533,-0.4991600671946136,0.6325893928485872,0.42980561555075286,-1.1414338779147817,-6.695848064582251,-9.594326200212722,-0.8075980955044924,-0.0016450560446069705,-0.35060429473261134,8.208608413619642,10.217180356176097,4.526005334900703,-0.024027999999999994,-0.08384899999999984,-0.875984,0.233956,-0.08965199999999984,-0.849198,0.257984,0.005803000000000003,0.026785999999999976,0.8448428279252284,0.23214000000000007,single,-0.849198
175,0.729167,jog,-0.15742740580753845,0.27861771058314344,-0.368370530357584,0.3367004497698388,-0.39791308332731706,-0.32418187870122933,0.027597792176619954,0.01871850251980367,0.09719222462202928,-0.5593952483801319,0.6882649388048593,0.40844732421406027,6.622940287165765,9.73284268288533,18.42905123384923,1.900495908488543,-2.3612221893354146,2.5915853297609477,-14.455287061559355,13.361062144533642,-5.125579874416229,-0.023257,-0.08493199999999979,-0.8740439999999999,0.232281,-0.08794499999999994,-0.845961,0.255538,0.0030130000000001544,0.02808299999999997,0.8287436213954613,0.21916999999999998,single,-0.845961
176,0.733333,jog,-0.1452232357177134,0.28012481997122884,-0.37277964474313835,0.4205215388734054,-0.3637886709936114,-0.12152016502284518,0.019923187710033527,0.0249639942390499,0.07825252040326444,-0.6012962073931776,0.7957273163706083,0.3816610657705233,2.929469536683879,0.36176413540216096,-1.0583567896193842,-1.8421998239525736,1.4991578778795551,-4.546256413529723,-10.057839417437748,25.795097831432784,-6.429730783374214,-0.022569000000000006,-0.08599500000000004,-0.8721650000000001,0.230381,-0.08579700000000012,-0.8428180000000001,0.25295,0.00019799999999992046,0.029347000000000012,0.8591337181899102,0.20653,single,-0.8428180000000001
177,0.7375,jog,-0.15142788576913555,0.28989680825530756,-0.394048476121915,0.38225379295142126,-0.3157238543050895,-0.014501674339450198,0.023998080153591547,0.03287736981042781,0.08063354931605397,-0.6652267818574455,0.8845692344612551,0.4070074394048436,-1.4889968925898975,2.3450895810123926,-5.1041112020102,0.9778959547775352,1.8990582124736861,0.5714012269713256,-15.34211050258399,21.320354713377995,6.082643060791962,-0.021837999999999996,-0.08706599999999987,-0.870187,0.22824,-0.08331899999999992,-0.83948,0.250078,0.003746999999999945,0.03070700000000004,0.8494583984037936,0.19293000000000005,single,-0.83948
178,0.741667,jog,-0.14854811615071278,0.3052555795536804,-0.3522918166546803,0.4981573560347866,-0.46703508707109825,0.0012222921821295784,0.02207823374129655,0.02831773458124904,0.08039356851452042,-0.6325893928485907,0.8910487161027473,0.3690904727621855,0.6910894212677745,3.6858102467898037,10.020796608407851,-0.46072628084833994,-1.0942249170095655,-0.057590785105244346,7.832346774383356,1.5549511978623156,-9.099344046714377,-0.021127000000000007,-0.08821999999999997,-0.8683839999999999,0.22622299999999998,-0.080878,-0.8364739999999999,0.24735,0.00734199999999996,0.031909999999999994,0.8532531624848778,0.18090000000000006,single,-0.8364739999999999
179,0.745833,jog,-0.11737878060489416,0.3002880460873476,-0.3924627940470333,0.4818293503879865,-0.1932310141710162,-0.030342611589799635,0.022083533365340538,0.034085453672555055,0.06649063850216058,-0.6361017762842016,0.9471915506481042,0.34997599615938546,7.481837625016466,-1.1923988157303818,-9.642577386546568,0.001272113308686245,1.384474097769086,-3.337237160912106,-0.8431069216540773,13.476436520728976,-4.588208498031688,-0.02054600000000001,-0.08932899999999999,-0.866472,0.22406199999999998,-0.07818299999999989,-0.833381,0.244608,0.0111460000000001,0.03309099999999998,0.8701442509039463,0.16909000000000007,single,-0.833381
180,0.75,jog,-0.11423086153107764,0.31029517638588405,-0.40796736261099636,0.1670200692645152,-0.29223683887058177,0.10925974854834067,0.02183825293976651,0.018958483321319806,0.05519558435325115,-0.6369090472762106,0.9779217662586508,0.339332853371729,0.755440142504559,2.40151915011672,-3.7207987914477854,-0.058862593130315825,-3.6301824696988563,-2.7105961480463994,-0.19372953971896806,7.3746617735892315,-2.5541499370425615,-0.019978999999999997,-0.09054300000000004,-0.864542,0.221884,-0.07540100000000005,-0.830267,0.241863,0.015141999999999989,0.034275000000000055,0.8961453217043316,0.15725,single,-0.830267
181,0.754167,jog,-0.09623230141588898,0.328293736501086,-0.43460523158147185,-0.08606371488372756,-0.08851845675157889,0.07415924060705219,0.017518598512116436,0.023758099352068754,0.06287497000239935,-0.6621070314374827,1.0211183105351782,0.31269498440124516,4.319308882934611,4.3193088829378015,-6.392577146742329,-1.0366341319054575,1.1518157021235689,1.8429051233856824,-6.047032436110386,10.366341319060975,-6.39257714674434,-0.019504999999999995,-0.091812,-0.862469,0.219526,-0.07251399999999997,-0.827153,0.239031,0.019298000000000037,0.035316000000000014,0.8842343071418475,0.14684000000000003,single,-0.827153
182,0.758333,jog,-0.07993278924627933,0.33917426788288707,-0.4099855976956413,0.21435841273092696,-0.18278878309583926,0.010332264684326053,0.015362457993280952,0.021843494959208638,0.0650504080652905,-0.6845895343254833,1.0801728276524112,0.313970235237637,3.912508922133854,2.6117454108979965,5.90965767782778,-0.5175565335658864,-0.4595785868603252,0.5221886852835216,-5.396664159385637,14.17535216448222,0.30610917820255623,-0.019107999999999986,-0.09313400000000005,-0.86049,0.21700700000000003,-0.06942700000000013,-0.8241369999999999,0.23611500000000002,0.023706999999999923,0.03635300000000008,0.882802410705857,0.13647000000000004,single,-0.8241369999999999
183,0.7625,jog,-0.07967362610991248,0.32061435085193885,-0.39284857211423824,0.43374055093249364,0.15900593907333616,0.024074780459006354,-0.0026397888168973385,0.012718982481367824,0.07151427885769267,-0.6933045356371695,1.1447084233261415,0.30429565634749756,0.06219417719387089,-4.454023765526417,4.112557134966017,-4.320193618953356,-2.1897078180563923,1.5512048937850471,-2.0914330001647223,15.487303977377389,-2.3217131965777864,-0.018786999999999998,-0.0944170000000002,-0.858555,0.21445,-0.06599300000000019,-0.821232,0.233237,0.028424000000000005,0.037322999999999995,0.8788592063284422,0.12677000000000005,single,-0.821232
