frame_id,timestamp,gait_type,root_linear_velocity_x,root_linear_velocity_y,root_linear_velocity_z,root_angular_velocity_x,root_angular_velocity_y,root_angular_velocity_z,left_linear_velocity_x,left_linear_velocity_y,left_linear_velocity_z,right_linear_velocity_x,right_linear_velocity_y,right_linear_velocity_z,root_acceleration_x,root_acceleration_y,root_acceleration_z,left_acceleration_x,left_acceleration_y,left_acceleration_z,right_acceleration_x,right_acceleration_y,right_acceleration_z,left_pos_rel_x,left_pos_rel_y,left_pos_rel_z,right_pos_rel_x,right_pos_rel_y,right_pos_rel_z,step_length,step_width,step_height,left_contact_prob,right_contact_prob,support_type,max_foot_height
1,0.004167,stand,0.03695704343652208,-0.020398368130523332,0.0019198464122889372,0.07232010624792556,0.002226461846705443,-0.03535248288469847,-0.0016798656107594808,0.0019198464122889372,-0.0023998080153595064,0.0011999040076606034,0.0,0.0007199424046083515,0.0,0.0,0.0,0.0,0.0,0.0,0.0,0.0,0.0,0.13665900000000003,0.04769599999999996,-0.926397,-0.152918,0.012620000000000076,-0.925105,0.28957700000000003,0.035075999999999885,0.0012920000000000709,0.9941626591795258,0.9847478058176227,double,-0.925105
2,0.008333,stand,0.034805568891037385,-0.02184349495920865,0.00024003840615188562,0.07114544502517858,0.029275426794872147,-0.0020928843011565395,0.0014402304368713395,0.0007201152184290073,0.0019203072491601203,0.001440230436884664,0.00048007681225047203,0.0,-0.5164365207596477,-0.3468859406349783,-0.40321843642271993,0.7489428822925637,-0.28798156357655535,1.0369935824579035,0.05768757302545864,0.11523687283976763,-0.17281382731837527,0.13651999999999997,0.04779,-0.92639,-0.153057,0.012712999999999974,-0.925106,0.289577,0.035077000000000025,0.0012840000000000629,0.9958232091098945,0.9846297730355484,double,-0.925106
3,0.0125,stand,0.042956563474905014,-0.023278137748983376,-0.004799616030722342,0.18513657942801146,0.04993344014456947,0.008337340171085297,-0.002159827213818393,0.00047996160308555583,-0.0016798656107511545,-0.00023998080154277791,-0.0021598272138050713,-0.0009599232061444684,1.9560822135511466,-0.34428672660780524,-1.2094203112249164,-0.8639447205878886,-0.0576322571018602,-0.8639723685892187,-0.40321843974740623,-0.6335262841505983,-0.2303631404234385,0.13633200000000006,0.04788900000000007,-0.926377,-0.15323699999999996,0.012801000000000062,-0.92509,0.289569,0.03508800000000001,0.0012870000000000381,0.9953700356360349,0.983170518783878,double,-0.92509
4,0.016667,stand,0.039836813054955476,-0.015838732901343765,0.011039116870648066,0.3418336600939167,0.09530843081725972,-0.001369500453806798,0.001679865610746159,0.00023998080151613468,0.0014398848092150374,0.00023998080154277791,0.0009599232061178252,-0.000479961603070569,-0.7486802063713793,1.7853143382864436,3.8009918169835384,0.9214525616905571,-0.05759078511385196,0.748680206375376,0.11518157021491619,0.7486802063649859,0.11518157021211886,0.13617300000000004,0.04795599999999989,-0.926417,-0.15340199999999993,0.012870999999999855,-0.925138,0.28957499999999997,0.03508500000000003,0.0012790000000000301,0.9962908493338651,0.9853771163527452,double,-0.925138
5,0.020833,stand,0.0328852616418756,-0.022323571771512427,0.0014402304368846645,0.11530141601609746,-0.00317349893936275,0.0044822815221126815,0.0019203072491617863,0.0007201152184290074,-0.0024003840614489017,0.0004800768122771218,0.00048007681230377136,0.00024003840614522328,-1.6686393214305992,-1.5566103865023195,-2.304101400327269,0.05771522765617555,0.11525070017111684,-0.9218120188823667,0.05763226373844068,-0.11518156356554342,0.17282765463653202,0.136044,0.048051999999999984,-0.9264330000000001,-0.15353700000000003,0.012966000000000033,-0.925143,0.28958100000000003,0.03508599999999995,0.0012900000000000134,0.9947379795015354,0.9858998079692738,double,-0.925143
6,0.025,stand,0.03527717782577591,-0.014398848092140383,0.0023998080153478495,0.05254665825899864,0.01518473310889118,-0.051778057500683886,-0.0026397888168906273,0.00023998080156942112,0.0019198464122856065,0.0009599232061444684,-0.00047996160308555583,-0.0009599232061444684,0.5740139630190334,1.9017815405260483,0.23028019641545114,-1.094335509011858,-0.11522304220292447,1.0367723719065292,0.11515392221438601,-0.23039078843036406,-0.2879677495295636,0.135886,0.04811300000000007,-0.926435,-0.15368000000000004,0.013023999999999925,-0.925157,0.28956600000000005,0.03508900000000015,0.0012780000000000014,0.9945451637081117,0.9848201919846313,double,-0.925157
7,0.029167,stand,0.03743700503960765,-0.0208783297336089,-0.0033597312214923205,0.04296031699680306,-0.025813633541740065,-0.002016064002946789,0.0009599232061444692,-0.0007199424046016911,0.0,-0.0002399808015161349,0.0,-0.0011999040076789212,0.5183170659543417,-1.5549511978566168,-1.382178842534239,0.8638617765862968,-0.2303631404298327,-0.4607262808460782,-0.287953925524503,0.11518157021491629,-0.057590785105460285,0.13573399999999997,0.048197000000000045,-0.926421,-0.153837,0.013110999999999873,-0.9251480000000001,0.28957099999999997,0.03508600000000017,0.0012729999999999686,0.9980001599872057,0.9852305553501421,double,-0.9251480000000001
8,0.033333,stand,0.035765722515591604,-0.01632261161784852,-0.0024003840614655555,0.03507383448331883,0.002843930553424389,0.0036336085476782634,0.004320691310600691,0.0,0.0004800768122904462,0.001920307249135135,0.000480076812303771,0.0014402304368696728,-0.4011719932827767,1.0935473153529471,0.23028016323254064,0.8067134192165673,0.17281382731677644,0.1152368728493629,0.5185521004923832,0.11523687285256136,0.6337336640779145,0.13560299999999997,0.048265,-0.926409,-0.15397800000000006,0.013180999999999887,-0.925132,0.28958100000000003,0.035084000000000115,0.0012770000000000836,0.9927545326147232,0.9831501316102114,double,-0.925132
9,0.0375,stand,0.03167746580274084,-0.023278137748983397,-0.0019198464122889385,0.09170332849371328,-0.004804762860237141,0.03218271567573241,-0.0016798656107461602,-0.0009599232061711124,-0.0016798656107511558,0.0009599232061444692,-0.0002399808015161349,-0.0011999040076789212,-0.9811031228343571,-1.6691927360534875,0.11531981021757076,-1.4400184596464736,-0.23036314042983275,-0.5183447139528686,-0.23047373241916644,-0.1728000033165122,-0.6335815801652498,0.13546399999999997,0.0483579999999999,-0.926408,-0.15410600000000008,0.013276999999999983,-0.925129,0.28957000000000005,0.03508099999999992,0.0012790000000000301,0.9957295103383486,0.9846179110877544,double,-0.925129
10,0.041667,stand,0.038156947444209284,-0.018718502519803795,0.0007199424046016899,0.11723328108298792,0.012930084021686102,0.009717747317124045,0.002399808015361169,0.0019198464122889352,0.00191984641228727,-0.0016798656107461574,0.0004799616030855554,-0.0028797696184317376,1.5549511978565964,1.0942249170097427,0.6334986361628572,0.9790433467980144,0.6910894212767087,0.8638617765870944,-0.6334986361628568,0.1727723553159802,-0.40313549574101626,0.13531499999999996,0.04844399999999993,-0.926403,-0.15427200000000008,0.013357000000000063,-0.925144,0.28958700000000004,0.03508699999999987,0.0012590000000000101,0.9939606156025307,0.9817961815664266,double,-0.925144
11,0.045833,stand,0.033845415266429875,-0.018722995679314108,-0.007681228996620501,-0.020482958702341045,0.005113376380222953,-0.005574453979516382,0.00024003840613856108,-0.0007201152184290081,-0.00024003840614522347,-0.0009601536245808939,0.0004800768122504725,0.0007201152184356705,-1.0349333119969786,-0.001078530847410576,-2.016603792900192,-0.5184276546381685,-0.6336921821214464,-0.5184553092732826,0.1727585180425502,2.76546243200012e-05,0.8641106185471463,0.135175,0.04851899999999998,-0.926372,-0.15441700000000003,0.013436999999999921,-0.9251090000000001,0.289592,0.03508200000000006,0.001262999999999903,0.9986731377859157,0.9852155893714682,double,-0.9251090000000001
12,0.05,stand,0.03527717782577588,-0.01895848332131993,-0.0009599232061444676,0.058557945444714425,0.018878801026100664,-0.013988861084115801,0.0019198464122889352,0.00023998080151613449,0.0007199424046083507,0.0016798656107461574,-0.0021598272138050696,0.001679865610751153,0.34359552660091236,-0.05651251308035104,1.6129843509661692,0.40312167174235003,0.23040461241784058,0.2303769644237037,0.6335539321639185,-0.6335262841505974,0.2303216684222418,0.135036,0.04859899999999984,-0.926365,-0.15455700000000006,0.013506999999999936,-0.925098,0.28959300000000004,0.0350919999999999,0.0012670000000000181,0.9965593451455718,0.9819787928324939,double,-0.925098
13,0.054167,stand,0.039836813054955504,-0.020638348932092765,-0.003119750419976186,0.057122850386233714,-0.0018302908104297828,0.0019828700802352246,0.0016798656107461602,0.0014398848092566686,-0.0007199424046083519,0.0004799616030855562,0.0014398848092033823,-0.0011999040076789212,1.0942249170097502,-0.4031354957458208,-0.5183170659543365,-0.05759078510745743,0.28795392554368493,-0.345544710635158,-0.28795392552450255,0.8638617765799026,-0.6910894212695168,0.13487699999999997,0.04869100000000004,-0.926355,-0.154721,0.013598999999999917,-0.92509,0.28959799999999997,0.03509200000000012,0.0012650000000000716,0.9961221663407226,0.9841253548723002,double,-0.92509
14,0.058333,stand,0.040806529044647946,-0.02064330292847586,-0.0040806529044488055,0.07249939740375927,0.007381089174458583,-0.010465991704531484,-0.0009601536245675675,-0.0031204992798945625,0.0004800768122904462,-0.0026404224675907915,-0.000480076812303771,-0.0040806529044654614,0.23276908057907858,-0.0011891493958463915,-0.2306535008335619,-0.6337060094368041,-1.0946673281688017,0.28805070016773815,-0.7490120188853446,-0.46086452748611423,-0.6914903736885594,0.13470300000000002,0.04876400000000003,-0.926336,-0.15490199999999998,0.01368299999999989,-0.9250900000000001,0.289605,0.03508100000000014,0.0012459999999999694,0.9945000291707108,0.9793999016045067,double,-0.9250900000000001
15,0.0625,stand,0.03767698584112379,-0.02687784977204514,-0.0019198464122889385,0.14542446215696514,-0.006283440063488602,0.008067864672917775,-0.0026397888169039513,-0.0014398848092033823,0.0004799616030722346,0.0007199424046016911,0.0007199424046549775,0.0021598272138233904,-0.7510302864228837,-1.496171548732729,0.5185520739524523,-0.40308019974475284,0.4033152077492636,-2.7648000530734497e-05,0.8064230554817579,0.2879815735442163,1.4975954207556652,0.13453500000000002,0.04887000000000019,-0.926326,-0.15505599999999997,0.013798000000000199,-0.925073,0.289591,0.03507199999999999,0.0012529999999999486,0.9949249749858171,0.9834903686220622,double,-0.925073
16,0.066667,jog,0.0460763138949078,-0.021598272138210556,-0.005759539236866806,0.05742980058488399,0.010375077056911992,-0.017746767510748076,0.0004799616030722338,0.0014398848092033799,-0.0014398848092167015,-0.0002399808015427777,0.0019198464122889352,-0.001679865610751153,2.0156774787098635,1.2669972723385114,-0.9214525616937518,0.7486802063777734,0.6910894212639211,-0.46072628084687645,-0.23036314042343842,0.2879539255181081,-0.9214525616929542,0.13434499999999994,0.048966000000000065,-0.926308,-0.15524900000000008,0.01389600000000013,-0.925056,0.289594,0.035069999999999935,0.0012520000000000309,0.9965131597923959,0.9832095103383569,double,-0.925056
17,0.070833,jog,0.04632741238598157,-0.024243879020620977,0.005040806529029714,0.16360938135462022,0.041667434676056186,-0.041907983266462646,-0.0009601536245808955,-0.0024003840614655637,0.003600576092175027,0.00048007681230377255,-0.002160345655340327,0.0016802688430149015,0.06027328158275823,-0.6350472593399971,2.592497783460525,-0.3456829639109777,-0.9218120188835702,1.2099042010061791,0.17284148196028615,-0.9794028006791342,0.8065613187148496,0.13414799999999993,0.049056999999999906,-0.926314,-0.15544000000000002,0.01398799999999989,-0.92507,0.28958799999999996,0.03506900000000002,0.0012440000000000229,0.9926123438499533,0.9829289242667166,double,-0.92507
18,0.075,jog,0.050155987520975165,-0.027837772978162915,-0.0035997120230350926,0.09145497979602467,0.04953802908300396,-0.03197137763988457,0.0002399808015427777,0.0,-0.0026397888168939554,-0.0011999040076872453,0.0004799616030855554,-0.0007199424046083507,0.9187845296360907,-0.8624655525658592,-2.0735585678101267,0.28800922153195874,0.5760460910644496,-1.4975677727547339,-0.40316314374634415,0.6336230521780369,-0.5760046190600552,0.13394000000000006,0.04917299999999991,-0.92631,-0.15565399999999996,0.014105999999999952,-0.9250579999999999,0.289594,0.03506699999999996,0.0012520000000000309,0.9955822090164039,0.9850144316442622,double,-0.9250579999999999
19,0.079167,jog,0.041516678665728245,-0.032877369810428034,0.008879289656842987,0.2394744233566854,-0.009496769876103825,-0.009323592084981049,0.0009599232061444676,-0.0009599232061178244,0.0002399808015361169,-0.0007199424046016899,0.00023998080151613449,0.0009599232061444676,-2.073268263798155,-1.2094064872246493,2.9947208255046958,0.17277235531598015,-0.23036314041704428,0.6910894212695151,0.11518157021491597,-0.05759078511385186,0.4031354957410167,0.13377099999999997,0.04930600000000007,-0.926346,-0.15583000000000002,0.014243999999999923,-0.925091,0.289601,0.03506200000000015,0.0012550000000000061,0.9977023587527132,0.9854105553501459,double,-0.925091
20,0.083333,jog,0.04752760441668755,-0.024243879020620893,-0.0014402304368846632,0.05151866975827144,0.017110874403232803,-0.059505203753136705,-0.0024003840614522307,-0.001440230436911313,0.004080652904463795,-0.0014402304368846632,0.000960153624607542,-0.0002400384061452231,1.442853036716106,2.0723693686526965,-2.4770811554795107,-0.8066028006713144,-0.1152921821395795,0.9219088101122601,-0.172896791234511,0.17286913660379427,-0.28803687284918145,0.13356300000000004,0.049400999999999806,-0.926323,-0.156034,0.014348999999999945,-0.925086,0.28959700000000005,0.03505199999999986,0.0012370000000000436,0.9917524691438069,0.984717490042649,double,-0.925086
21,0.0875,jog,0.044876409887220706,-0.025197984161272377,0.0033597312215189693,0.11504977762888896,-0.0010445740856294236,-0.05191109366062503,0.002639788816890634,0.0007199424046549787,-0.0019198464122872764,0.0002399808015427785,-0.000479961603085557,0.0011999040076789234,-0.6362357882089866,-0.2289669164030444,1.1518986461251843,1.2095447272241124,0.5184000099751132,-1.4400046356494087,0.4032184397474072,-0.3456000066458129,0.34555853463502517,0.13338699999999998,0.049509000000000025,-0.9263450000000001,-0.15622000000000003,0.01445199999999991,-0.925095,0.289607,0.035057000000000116,0.0012500000000000844,0.9944290903618854,0.9853092850271674,double,-0.925095
22,0.091667,jog,0.05039596832251794,-0.029037676985850164,-0.0009599232061444676,0.09566666727077049,0.003701233359120998,-0.023050255718036226,-0.0016798656107461574,-0.0026397888169439115,0.0002399808015361169,0.0002399808015427777,0.0014398848092033799,-0.0014398848092150361,1.3245880574267415,-0.9214525616937325,-1.0366341319086712,-1.0366341319022767,-0.8062709915044125,0.5183170659523377,-1.951407797850078e-16,0.46072628084687667,-0.6334986361636565,0.13317000000000007,0.04961899999999986,-0.92634,-0.15642899999999993,0.014578999999999898,-0.9250970000000001,0.289599,0.03503999999999996,0.0012429999999999941,0.9947697396885115,0.9841526718881348,double,-0.9250970000000001
23,0.095833,jog,0.04872779644744697,-0.028324531925123,0.005280844935181583,0.1511201166947536,0.02394521063258194,-0.020674897205680314,0.001200192030719453,0.000720115218482306,0.0002400384061452231,-0.0014402304368846632,0.000960153624607542,0.0007201152184356692,-0.4004253180679234,0.17118220372711573,1.4980240377642933,0.6913244458630841,0.8065060094638058,1.3827318556455069e-05,-0.403315227659011,-0.11515390892842957,0.5184829639103945,0.13297199999999998,0.04974000000000012,-0.926361,-0.15663800000000005,0.014701000000000075,-0.925116,0.28961000000000003,0.03503900000000004,0.0012449999999999406,0.9976331893970313,0.9844254001936255,double,-0.925116
24,0.1,jog,0.06983441324695007,-0.042476601871819425,-0.04295656347493162,-0.3695608471216756,-0.10987813883018006,0.14992542323930189,-0.0002399808015294561,0.0,0.0014398848092150361,0.0023998080153744905,-0.0009599232061711108,0.0021598272138217216,5.065182817255358,-3.3962250892000028,-11.576051934272416,-0.3456138306332872,-0.1728138273295669,0.2879401015286326,0.9215355057017399,-0.46078157686072735,0.3455032386335616,0.13267999999999996,0.04991699999999999,-0.926176,-0.15691900000000003,0.014873999999999832,-0.924928,0.289599,0.03504300000000016,0.0012480000000000269,0.9975670896207132,0.981906181566397,double,-0.924928
25,0.104167,jog,0.05159587233020536,-0.04103671706266947,-0.020398368130550022,-0.02152090232842385,-0.07741231136003734,0.07632964659490786,0.0002399808015294569,0.0007199424046016923,-0.0019198464122872764,-0.00215982721383172,0.0021598272138583633,-0.0019198464122872764,-4.376899668045298,0.34554471061914116,5.4135337999476,0.11518157020852271,0.17277235531598129,-0.8062709914812384,-1.0942249170161318,0.7486802063905643,-0.9790433467984179,0.13246599999999997,0.05009100000000011,-0.926099,-0.15714300000000003,0.015054000000000123,-0.924851,0.289609,0.035036999999999985,0.0012480000000000269,0.9965593451455756,0.9815071624756084,double,-0.924851
26,0.108333,jog,0.04968795007200122,-0.032405184829571804,-0.010561689870363166,-0.0319633676094196,0.005295853330645806,0.02279397516776974,-0.0019203072491617847,0.00024003840612523588,-0.0007201152184340036,0.0009601536245808924,-0.0002400384061785351,0.0007201152184356692,-0.45797461790785804,2.0718992398218092,2.3611805713362575,-0.518552100501978,-0.11519539089689296,0.28798156357495724,0.7489152276554513,-0.5760599183957985,0.6336921821226461,0.132251,0.05022700000000002,-0.926058,-0.15734599999999999,0.01518799999999998,-0.9248040000000001,0.289597,0.03503900000000004,0.0012539999999999774,0.9965585192562654,0.9854200658050788,double,-0.9248040000000001
27,0.1125,jog,0.04823614110871287,-0.031917446604256924,-0.003359731221518958,0.10312566737681751,-0.008076252193061502,-0.015365657092853384,0.0002399808015427777,-0.0009599232061178244,0.0021598272138217216,0.0007199424046016899,0.00023998080156942094,0.0,-0.3484062786869089,0.11704781025075087,1.728331809177874,0.518427657956458,-0.28796774951837273,0.6911308932699117,-0.05764608110851985,0.11519539422797109,-0.17281382731837497,0.13205100000000003,0.05035600000000007,-0.9260349999999999,-0.15754400000000002,0.015322000000000058,-0.92479,0.28959500000000005,0.03503400000000001,0.0012449999999999406,0.9960405187838706,0.9862851901207147,double,-0.92479
28,0.116667,jog,0.047276217902568404,-0.0309575233981391,-0.00671946244298463,0.05447310354272935,0.009855740141405991,-0.012217915874535343,-0.0007199424046150115,-0.0026397888169439115,-0.0009599232061428024,-0.00023998080151613449,-0.0007199424046549763,0.0,-0.23036314042343728,0.23036314041704456,-0.8062709914724426,-0.23036314042663505,-0.40313549575859986,-0.7486802063749751,-0.23036314041704428,-0.2303631404426197,0.0,0.131851,0.05047399999999991,-0.926011,-0.15774199999999994,0.015447999999999906,-0.9247620000000001,0.28959299999999993,0.035026,0.0012489999999999446,0.9951671682370258,0.9862451901206586,double,-0.9247620000000001
29,0.120833,jog,0.04728756601056247,-0.029524723955855876,-0.007681228996647164,0.026363155810657415,0.023260262497473927,-0.03358654169429263,-0.00024003840613856148,0.0009601536246075451,0.002160345655305349,0.0012001920307061322,-0.00024003840612523667,-0.00096015362457923,0.0027239817556568434,0.34392689445108643,-0.23086091062470881,0.1151953908968918,0.8641244458836932,0.7489843642458376,0.3456967912199401,0.11519539090968337,-0.23047374569832751,0.13165300000000002,0.05060100000000012,-0.92597,-0.15793400000000002,0.015570000000000084,-0.9247340000000001,0.28958700000000004,0.035031000000000034,0.0012359999999999038,0.996039568356274,0.9850472888868886,double,-0.9247340000000001
30,0.125,jog,0.05471562275018137,-0.029277657787366296,-0.0035997120230350926,0.11429149087294146,0.04313560062447409,-0.0540213652026628,-0.0002399808015427777,0.00023998080151613449,-0.0026397888168956207,0.002639788816890625,-0.0009599232061178244,0.0007199424046066855,1.7825910102277152,0.059291137146527555,0.9794857148097115,1.3823997068343308e-05,-0.172827651329832,-1.1519401181187823,0.345475590637027,-0.17275853131571564,0.40319079174128003,0.13142399999999999,0.05072399999999999,-0.9259660000000001,-0.15815100000000004,0.015688000000000146,-0.924716,0.289575,0.035035999999999845,0.0012500000000000844,0.9955641402662152,0.9826671682371239,double,-0.924716
31,0.129167,jog,0.051115910727146274,-0.03623710103192035,-0.0021598272138317128,0.14371368969781487,0.03812776377391483,-0.01810254581114803,0.0011999040076872453,0.0011999040076872453,0.003119750419966189,-0.003359731221492315,0.0014398848092033799,-0.0004799616030722338,-0.8638617765862945,-1.6701327680715254,0.3455447106319603,0.3455447106383541,0.23036314042983197,1.38217884253943,-1.439769627641693,0.5759078510490045,-0.28795392552889804,0.131216,0.050880000000000036,-0.925944,-0.15837800000000002,0.01584500000000011,-0.924709,0.289594,0.03503499999999993,0.0012349999999999861,0.9940810140840852,0.9815055749557314,double,-0.924709
32,0.133333,jog,0.05760921747480024,-0.031204992798839027,-0.0012001920307327777,0.15862752168438385,0.023289984734091093,-0.04107445570199331,0.0014402304368713384,0.0007201152184290069,-0.0007201152184340036,0.002400384061438906,-0.0019203072491617847,-0.0012001920307244498,1.558643002317321,1.2078992398178872,0.2303492998317173,0.05768757301586484,-0.11516773625977869,-0.9217152276524699,1.3826488917261681,-0.8065751460310039,-0.17288296391075744,0.130982,0.051012999999999975,-0.9259419999999999,-0.15860800000000008,0.015967000000000064,-0.924709,0.28959000000000007,0.03504599999999991,0.0012329999999999286,0.9970601419313719,0.982170029170732,double,-0.924709
33,0.1375,jog,0.051355891528662406,-0.032877369810428034,0.0016798656107728006,0.11147291132495994,0.05945742353537119,-0.012008927045652765,-0.0011999040076872453,-0.0014398848092033799,0.002159827213823387,-0.0021598272138050696,0.0028797696184067597,0.0002399808015361169,-1.5006781728192526,-0.4013383757113043,0.6911585412780359,-0.6335815801676461,-0.5183585379487364,0.6911308932703114,-1.0943631570059924,1.1519262941129205,0.34561383063608475,0.13076300000000002,0.05114400000000008,-0.92594,-0.15883099999999994,0.01611600000000002,-0.9247150000000001,0.28959399999999996,0.03502800000000006,0.0012249999999999206,0.9952338311783844,0.9817371624757022,double,-0.9247150000000001
34,0.141667,jog,0.05351571874252112,-0.03623710103192059,-0.0002399808015427793,0.1508812899518133,0.05840177084689774,-0.016262074420001098,-0.001919846412288948,0.002159827213805084,-0.0011999040076805924,0.0007199424046016947,-0.00047996160303227217,0.0002399808015361185,0.5183170659608168,-0.8062709914789002,-0.46072628085327355,-0.17277235531598437,0.8638617765799098,-0.8062709914816412,0.6910894212639263,-0.806270991466055,3.837768669105179e-16,0.13053199999999993,0.051304000000000016,-0.925944,-0.15905100000000005,0.016265000000000196,-0.924713,0.289583,0.03503899999999982,0.0012309999999999821,0.9947850552714339,0.9861934567687919,double,-0.924713
35,0.145833,jog,0.052568410945743896,-0.03432549207873359,-0.0031204992798945625,0.059151810241173185,-0.02489981802243136,-0.025612830942485315,0.0052808449351949074,0.000480076812303771,-0.0012001920307244498,-0.0016802688430098993,0.0007201152184290069,-0.0004800768122904462,-0.22739025366711985,0.45885956629548785,-0.6914350644147338,1.7284424741919948,-0.40320460909777045,-6.91365923805532e-05,-0.5761428822879482,0.28806452747510275,-0.1728414819554883,0.13033499999999998,0.05144900000000008,-0.925936,-0.159277,0.016411000000000175,-0.924702,0.289612,0.0350379999999999,0.0012339999999999574,0.9909387488774851,0.9845098928332595,double,-0.924702
36,0.15,jog,0.0501559875210018,-0.031917446604256924,0.005759539236866806,0.2303562582005498,0.07354475554697022,-0.03272494928371572,-0.0002399808015294561,0.0007199424046016899,0.002399808015359504,0.0014398848092033799,0.00023998080151613449,0.0028797696184300722,-0.5789353071135326,0.5778846830997508,2.1310387609218524,-1.324892185439011,0.05756313710053245,0.8639308965884209,0.7487769743732364,-0.115223042215712,0.8062986394817651,0.130125,0.05158499999999999,-0.92595,-0.15948000000000007,0.016545000000000032,-0.924714,0.28960500000000006,0.03503999999999996,0.0012360000000000149,0.9958051001993061,0.9822589808627136,double,-0.924714
37,0.154167,jog,0.05591552675784197,-0.02951763858888243,0.0009599232061444676,0.10724657958175247,0.05022487339183912,-0.06535333118693752,0.0004799616030722338,0.0004799616030855554,0.0004799616030705686,-0.0019198464122889352,0.0,-0.001679865610751153,1.3821788425342358,0.5759078510617929,-1.1518157021171906,0.17277235531598015,-0.05759078510106415,-0.4607262808468763,-0.8062709914788366,-0.057590785101064135,-1.0942249170101321,0.12989400000000006,0.05170999999999992,-0.925952,-0.159721,0.016667999999999905,-0.924725,0.28961500000000007,0.03504200000000002,0.001226999999999978,0.9986144701963167,0.9834782818123587,double,-0.924725
38,0.158333,jog,0.05112818050888588,-0.039846375420093706,-0.0016802688430098993,0.10126133012673869,-0.014055770304564412,-0.02242172028098176,0.0026404224675907915,0.0016802688430365487,0.0002400384061452231,-0.002880460873742677,0.000960153624607542,-0.0009601536245792267,-1.149146963263583,-2.479293526454937,-0.6337474913956709,0.5185935824576468,0.28811983676212016,-0.057590781787168824,-0.23058436424717735,0.23047374570512272,0.17275851804414924,0.12969200000000003,0.05188300000000012,-0.925944,-0.15994600000000003,0.01683800000000013,-0.924722,0.28963800000000006,0.03504499999999999,0.0012219999999999454,0.9947684842252136,0.9824725511435966,double,-0.924722
39,0.1625,jog,0.06263498920087988,-0.035757139428834794,-0.0035997120230350926,0.09427976975705295,0.022962379849777698,0.0012351446159444852,-0.0019198464122889352,0.002399808015321204,-0.0011999040076789193,0.0007199424046283331,0.0009599232061178244,-0.0009599232061428024,2.7614131730247164,0.9813381308516698,-0.46062951284501835,-1.0943769810126522,0.17267558730133303,-0.345558534635023,0.8640276645958738,-5.5296013851099684e-05,5.529600106175511e-05,0.12942299999999995,0.05204199999999992,-0.925934,-0.160204,0.01699099999999998,-0.9247110000000001,0.28962699999999997,0.03505099999999994,0.001222999999999974,0.9945013490581723,0.9852089551886231,double,-0.9247110000000001
40,0.166667,jog,0.05591552675784197,-0.04175665946727102,-0.0011999040076872453,0.1509527295786289,0.039020991956270464,-0.04147637972889079,0.0021598272138183914,0.0011999040076872453,0.0009599232061428024,-0.0035997120230350926,0.0004799616030855554,-0.0002399808015361169,-1.6125419829704601,-1.439769627654481,0.5759078510553983,0.9790433467980135,-0.2879539255181084,0.5183170659519365,-1.0366341319086685,-0.11518157020212828,0.17277235531717897,0.129199,0.05222100000000007,-0.925925,-0.16045199999999993,0.017167000000000154,-0.924707,0.28965099999999994,0.03505399999999992,0.0012180000000000524,0.9955822090164044,0.9817541849099679,double,-0.924707
41,0.170833,jog,0.0626500240038566,-0.03696591454632438,0.002880460873742677,0.2480452438431874,0.09327093228532694,-0.06845535854691512,0.0004800768122904462,0.0012001920307327777,0.0002400384061452231,-0.0024003840614655555,-0.0002400384061785351,-0.0012001920307261153,1.6165379851211281,1.1499627750712054,0.979444282628401,-0.4032046091041632,6.91365927826397e-05,-0.1727999999994188,0.28788477234026316,-0.1728276546481253,-0.23048757301728223,0.12893999999999994,0.05238000000000009,-0.925936,-0.16072300000000006,0.017320000000000002,-0.924724,0.289663,0.03506000000000009,0.0012119999999999909,0.9978087591714344,0.9833892926226617,double,-0.924724
42,0.175,jog,0.056875449963986816,-0.03863690904724181,0.0011999040076872533,0.17359296565143156,0.006129893583737214,-0.016749291080873824,-0.0011999040076739317,0.0016798656107728119,-0.0019198464122872829,0.0016798656107461687,-0.001199904007633967,0.0007199424046083555,-1.3857869066162254,-0.4010065996922112,-0.40330138374260455,-0.40316314373995377,0.11511245021359176,-0.5183308899526082,0.979181586803875,-0.23034931640399264,0.46079540084820775,0.12869800000000003,0.05254800000000004,-0.925949,-0.160953,0.017476000000000047,-0.924726,0.28965100000000005,0.03507199999999999,0.001222999999999974,0.995301439835007,0.9841261180789435,double,-0.924726
43,0.179167,jog,0.06647468202543111,-0.04007679385649822,-0.0004799616030855554,0.19103028059175597,0.02489002635654192,-0.08327229523252151,0.0009599232061444676,0.002399808015321204,0.0004799616030722338,0.0,0.001199904007633959,-0.0007199424046083507,2.3036314042342894,-0.34554471064468584,-0.40313549574581403,0.5183170659511392,0.17277235530318974,0.5759078510581989,-0.4031354957394209,0.5759078510362187,-0.34554471063515835,0.12842500000000007,0.05272499999999991,-0.925945,-0.16122999999999998,0.017647999999999886,-0.924727,0.28965500000000005,0.035077000000000025,0.0012180000000000524,0.9956185700544107,0.9854878058176608,double,-0.924727
44,0.183333,jog,0.060489678348542915,-0.03960633701391517,0.00600096015363724,0.1397075417883387,0.04365682932278512,-0.030953710804985227,0.0,0.000480076812303771,0.0004800768122904462,-0.002400384061438906,0.000960153624607542,-0.0021603456553036765,-1.436630743372105,0.11292771065363555,1.5556701288340833,-0.23041843642449997,-0.4608092181990955,2.7654637112910138e-05,-0.576184364243616,-0.05754929981431032,-0.3457521005029584,0.12817300000000004,0.05289199999999994,-0.925968,-0.16149199999999997,0.017816999999999972,-0.924761,0.289665,0.03507499999999997,0.001206999999999958,0.998868448101781,0.9823148340343992,double,-0.924761
45,0.1875,jog,0.06047516198704817,-0.03887688984881097,0.00455963522917956,0.18456109305858043,0.005554561725507501,-0.03139407562786178,0.0021598272138183914,0.0023998080153744905,0.0014398848092150361,-0.0014398848092033799,0.00023998080151613449,-0.0011999040076789193,-0.0034836480668929658,0.17505331535977958,-0.34589031064499115,0.5183170659511374,0.46069863284634455,0.2303354924225076,0.23050138042609192,-0.17282765132983124,0.23048755642542748,0.12793,0.053064,-0.925981,-0.16174999999999995,0.017979999999999885,-0.9247850000000001,0.28967999999999994,0.035084000000000115,0.0011959999999999749,0.9941081034066519,0.9848906487985112,double,-0.9247850000000001
46,0.191667,jog,0.06695464362851666,-0.039356851451896525,0.004799616030722338,0.19904235942859494,0.07094455616238715,-0.044781628554448276,-0.002879769618433403,0.0,0.0007199424046066855,-0.0009599232061444676,-0.0009599232061178244,-0.0004799616030722338,1.554951197856608,-0.11518157021491582,0.05759078510745812,-1.2094064872214516,-0.5759078510617922,-0.17277235531757856,0.11518157020852215,-0.2879539255181084,0.17277235531717897,0.12763899999999995,0.05322800000000005,-0.9259980000000001,-0.16203299999999998,0.018140000000000045,-0.924807,0.28967199999999993,0.03508800000000001,0.0011910000000000531,0.9950526690357318,0.9856901919846683,double,-0.924807
47,0.195833,jog,0.06313010081613371,-0.03624579932789537,-0.0033605376860464478,0.12802515286076438,0.010186608362487195,-0.03592370558045052,0.0012001920307327777,0.0009601536245542427,0.0012001920307261153,0.00048007681227712134,0.0,0.0012001920307244498,-0.9180371609176549,0.7467719932792007,-1.9587502920712387,0.9793474913985064,0.23047374569232884,0.11527835480543194,0.3456553092706644,0.23041843641810458,0.4033014003352574,0.12738099999999997,0.05338299999999996,-0.925979,-0.16229400000000005,0.018291000000000057,-0.9247879999999999,0.289675,0.0350919999999999,0.0011910000000000531,0.9967498646164961,0.9859355893714543,double,-0.9247879999999999
48,0.2,jog,0.06983441324692342,-0.041996640268787154,-0.0016798656107461574,0.1615275158737629,0.03831002421235576,-0.067062686259446,0.0009599232061444676,0.0007199424046016899,0.0014398848092150361,-0.002639788816890625,0.0011999040076872453,-0.0009599232061428024,1.6089062708878585,-1.3800914185005462,0.40332903174952933,-0.05765990510878568,-0.057646081102124436,0.057521665104132605,-0.7487078543719087,0.2879539255308961,-0.5183861859532638,0.12709400000000004,0.05356099999999997,-0.925966,-0.16259599999999996,0.018471000000000126,-0.924785,0.28969,0.035089999999999844,0.0011809999999999876,0.9968761500376375,0.983099238436383,double,-0.924785
49,0.204167,jog,0.06239500839933752,-0.04679625629948316,0.000959923206144474,0.1774328469769639,0.03406383907573249,-0.02314321386523706,0.0007199424046016947,0.001919846412288948,-0.0021598272138234013,-0.0026397888168906425,0.001199904007633967,-0.0019198464122872829,-1.7853143382735646,-1.1518157021108795,0.6334986361628621,-0.05759078510745723,0.2879539255309011,-0.8638617765871028,-4.163003302080194e-15,-1.2785780004137624e-11,-0.23036314042344275,0.12683699999999998,0.05376399999999992,-0.925979,-0.16286699999999998,0.018670999999999882,-0.924797,0.28970399999999996,0.03509300000000004,0.0011820000000000164,0.9950365276193938,0.982383912988516,double,-0.924797
50,0.208333,jog,0.07417186749880064,-0.04104656745077319,-0.0036005760921716838,0.22748499989495746,0.0685248840830327,-0.04102257186249585,-0.0019203072491617847,0.0019203072491617847,0.0012001920307244498,0.0007201152184290069,-0.00024003840612523588,0.0,2.826898487629167,1.3801461470739245,-1.0946949827931238,-0.6337613187142289,0.0001106185484485696,0.8065336640777362,0.8065060094382254,-0.3456414819393187,0.4608368728486033,0.12651999999999997,0.05394299999999985,-0.925959,-0.163173,0.018840999999999886,-0.924782,0.289693,0.03510199999999997,0.0011769999999999836,0.9950514814862927,0.9869648865177952,double,-0.924782
51,0.2125,jog,0.07439404847612963,-0.04703623710105227,0.0004799616030589122,0.22739643322556066,0.042888037254988985,-0.03140803423255508,-0.0021598272138183914,-0.0009599232061178244,-0.003119750419966189,-0.0004799616030855554,-0.0016798656107195142,0.0002399808015361169,0.05331916902543408,-1.43740572360909,0.9792507067987981,-0.05748019310213737,-0.6912000132660443,-1.0367032519055999,-0.2879953975316921,-0.34553088663169595,0.057590785105859535,0.12620099999999995,0.054135000000000044,-0.925974,-0.1634850000000001,0.019030000000000102,-0.9247829999999999,0.28968600000000005,0.03510499999999994,0.0011910000000000531,0.9934767192903516,0.9851508474409088,double,-0.9247829999999999
52,0.216667,jog,0.07391408687304407,-0.04415646748259222,-0.012239020878335302,0.10125659730342595,0.029976103168493293,0.015541576003906248,0.0014398848092167015,0.0019198464122889352,0.0026397888168956207,-0.001919846412262292,0.003119750419922894,-0.002159827213823387,-0.11518157021491582,0.6910894212767095,-3.05231161060576,0.8638617765862945,0.6910894212639206,1.38217884253943,-0.3455447106255664,1.151815702098009,-0.5759078510581958,0.12589899999999998,0.054327000000000014,-0.925912,-0.16380099999999997,0.019226999999999883,-0.9247409999999999,0.28969999999999996,0.03510000000000013,0.0011710000000000331,0.9940540481772145,0.9812025489374887,double,-0.9247409999999999
53,0.220833,jog,0.034565530484858824,-0.056649063850246,0.020163226116198738,0.140198892610493,-0.0027240396291371353,0.14870491383914752,0.0026404224675907915,0.0016802688429832496,0.0004800768122887806,-0.0012001920307327777,0.000960153624607542,-0.001680268843014896,-9.445164759525976,-2.998702920704217,7.777783724084018,0.2881751460331467,-0.05750781788422599,-0.5184138273180122,0.17274469071759813,-0.5183861726633102,0.11511242698235495,0.12576600000000004,0.05457000000000001,-0.925994,-0.16394999999999993,0.019467000000000123,-0.924832,0.289716,0.035102999999999884,0.0011619999999999964,0.9947227932636469,0.9845846595533001,double,-0.924832
54,0.225,jog,0.05759539236861477,-0.047516198704084536,-0.010799136069131922,-0.04994799173528939,0.005871781802216328,0.058593351485186594,-0.002399808015361169,0.0,-0.0014398848092150361,-0.0016798656107461574,0.0007199424046016899,-0.0004799616030722338,5.526724714124293,2.191712298094901,-7.430372494679777,-1.2095585512243716,-0.4032322637348807,-0.4607539288466078,-0.11511245020719443,-0.05764608111491523,0.2880506935307562,0.12551600000000002,0.05476799999999993,-0.925955,-0.16419699999999993,0.01966800000000002,-0.924789,0.28971299999999994,0.03509999999999991,0.0011660000000000004,0.9953356116351897,0.9851906487985023,double,-0.924789
55,0.229167,jog,0.07343412526998516,-0.03647708183343648,-0.016078713702886528,0.018607659643610382,0.004410624301200487,0.03530660468013158,-0.0019198464122889352,0.0031197504199761807,-0.0009599232061428024,0.0004799616030589122,-0.0004799616030855554,0.001679865610751153,3.800991816983531,2.6491761148663415,-1.2669972723193188,0.1151815702117191,0.7486802063777724,0.11518157021171906,0.5183170659479404,-0.2879539255308961,0.5183170659523362,0.12520199999999998,0.0549329999999999,-0.925892,-0.164501,0.01981799999999989,-0.9247150000000001,0.289703,0.03511500000000001,0.0011769999999999836,0.9936886113758514,0.9852103078012673,double,-0.9247150000000001
56,0.233333,jog,0.07969275084013411,-0.036485837734073906,-0.019203072491617845,0.036623106038995004,-0.030834823307731903,-0.028441220146721395,0.0024003840614522307,0.0014402304368580138,-0.0021603456553053423,-0.0007201152184290069,0.0016802688430365487,-0.0031204992798845687,1.5023105065167885,-0.0021017524333713207,-0.7499661038721351,1.0370212370958143,-0.4031492998363336,-0.28814749139763296,-0.2880645274814974,0.5185382731930155,-1.1522719372625345,0.12487999999999999,0.055091,-0.925821,-0.16483599999999998,0.019977000000000134,-0.9246479999999999,0.289716,0.03511399999999987,0.0011730000000000906,0.9941066891252024,0.9822424279191249,double,-0.9246479999999999
57,0.2375,jog,0.07799376049916525,-0.04223662107030357,-0.014158867290597687,-0.019115383133750975,-0.0008980767820036539,-0.028850824253375647,0.001919846412288948,0.0026397888168906425,0.0007199424046083555,-0.000959923206144474,-0.0007199424046016947,0.0002399808015361185,-0.40772506382742296,-1.3800775944875683,1.2105124072522646,-0.11531981021437135,0.2878709815293102,0.6912138372723096,-0.057549313106663905,-0.5760046190636566,0.8064507034846908,0.12456299999999998,0.05527799999999994,-0.925759,-0.165165,0.020150000000000112,-0.9245880000000001,0.289728,0.035127999999999826,0.001170999999999922,0.9944290903619006,0.9862505553501393,double,-0.9245880000000001
58,0.241667,jog,0.07511399088073133,-0.04175665946721773,-0.012718982481420857,-0.016818964819899297,-0.06829815539266708,0.010235887456037358,-0.002879769618433403,0.0007199424046549763,0.0009599232061428024,-0.001439884809230023,0.0007199424046016899,-0.0014398848092150361,-0.6910894212704384,0.1151815702149841,0.3455447106255889,-1.1518157021171938,-0.4607262808340927,0.05759078510545876,-0.11518157021491447,0.3455447106319614,-0.40313549574061747,0.12423799999999996,0.05545500000000003,-0.9257019999999999,-0.16548400000000008,0.020326999999999984,-0.924541,0.28972200000000004,0.03512800000000005,0.0011609999999999676,0.9948004159667003,0.984790287976949,double,-0.924541
59,0.245833,jog,0.07393182909264875,-0.04224675948150596,-0.0009601536245542427,0.11477535443896479,-0.01826590970092074,0.020432807292830243,0.0004800768122904462,-0.000480076812303771,0.0014402304368696728,-0.0014402304368580138,0.0016802688429832496,-0.0012001920307244498,-0.28376423141684387,-0.11764282628138027,2.8225705369338945,0.8064921821228629,-0.28805070018212825,0.1152921821235886,-8.29639049425622e-05,0.2305152276479978,0.05753547251334282,0.12393199999999999,0.05562899999999993,-0.9256920000000001,-0.165798,0.020509999999999806,-0.9245420000000001,0.28973,0.03511900000000012,0.0011499999999999844,0.9973462755718003,0.9843040932622882,double,-0.9245420000000001
60,0.25,jog,0.0830333573314032,-0.045836333093365024,-0.012718982481420857,0.13604782232234355,0.05462653314191593,-0.019479272626915126,-0.002639788816890625,0.0009599232061178244,-0.0007199424046066855,-0.0007199424046016899,0.0011999040076872453,0.0007199424046066855,2.1841920419377097,-0.8614287525459704,-2.8218931741940487,-0.7487078543751063,0.3455723586324919,-0.5184000099535292,0.17285529931757215,-0.1152783382039846,0.4607954008474042,0.12357500000000005,0.055823999999999874,-0.925642,-0.16614699999999993,0.02070599999999989,-0.9244859999999999,0.289722,0.03511799999999998,0.0011560000000000459,0.9951671682371239,0.9858172344115216,double,-0.9244859999999999
61,0.254167,jog,0.08543316534677825,-0.046796256299536446,-0.006959443244527454,0.1387606096822623,0.020650253193578105,-0.040611112554174995,0.001919846412288948,0.001919846412288948,-0.0016798656107511643,0.0,0.0004799616030855586,0.0002399808015361185,0.5759078510619308,-0.2303631404299081,1.3821788425470207,1.0942249170097431,0.23036314042983658,-0.23036314042344233,0.17277235531598129,-0.1727723553159805,-0.11518157021131983,0.12322700000000003,0.05602700000000005,-0.92562,-0.16650299999999996,0.020903000000000116,-0.924456,0.28973,0.03512399999999993,0.0011639999999999429,0.9946787718199905,0.9874656443574308,double,-0.924456
62,0.258333,jog,0.08857417186751403,-0.0499279884781531,-0.0038406144983235695,0.22970925429189945,0.09954350323426601,-0.026872174299762252,0.00024003840613856067,0.0026404224675907915,0.0024003840614488996,-0.0009601536245808924,0.0,-0.0012001920307244498,0.7539621989284142,-0.751736000628097,0.7486386812779362,-0.4032184364259208,0.17296592782089365,0.9794166279884928,-0.2304737456987258,-0.11520921821544845,-0.34569679122913277,0.12285899999999994,0.05624600000000002,-0.925594,-0.16687600000000002,0.021111000000000102,-0.924445,0.28973499999999996,0.035134999999999916,0.0011490000000000666,0.994039180498586,0.9859483404394968,double,-0.924445
63,0.2625,jog,0.08495320374369157,-0.0525557955363493,0.000479961603058909,0.09095913872071558,0.01908145643729278,-0.04897400242336486,-0.0023998080153478313,-0.0014398848092033701,0.0002399808015361153,0.0009599232061444612,0.0007199424046016851,0.0019198464122872573,-0.8689628326907671,-0.6306232441075548,1.0368553159065144,-0.6335124601599165,-0.9791954107977274,-0.5184553059545879,0.4607815768479335,0.17277235531597782,0.7487493263766939,0.12249500000000002,0.05645900000000004,-0.925595,-0.16722599999999999,0.021333000000000046,-0.924439,0.289721,0.03512599999999999,0.0011559999999999349,0.9953184945561734,0.9846667094104267,double,-0.924439
64,0.266667,jog,0.08519318454523547,-0.053275737940951695,0.004319654427663454,0.14701023385327328,-0.042384518166385464,-0.0622976006957072,0.003839692824564574,0.003839692824577896,0.0019198464122872829,-0.0026397888168906425,-0.00023998080151613608,0.0007199424046066903,0.057590785107728054,-0.17277235531615037,0.9214525617001601,1.497360412745966,1.266997272325725,0.40313549574062324,-0.8638617765863029,-0.23036314041704503,-0.2879539255292954,0.12215599999999999,0.056697,-0.925605,-0.16759199999999996,0.021554000000000073,-0.924454,0.28974799999999995,0.035142999999999924,0.0011510000000000131,0.990400767938571,0.9839121569705482,double,-0.924454
65,0.270833,jog,0.08521363418146759,-0.04848775804129509,-0.0031204992798945625,0.12454692266723826,-0.004796685475457172,-0.06719428317380789,-0.0014402304368713384,0.000960153624607542,0.0009601536245792267,0.0009601536245808924,0.0009601536245542427,-0.0002400384061452231,0.004908698087401431,1.149299063767787,-1.7859226374359125,-1.267384364242897,-0.6911999999928833,-0.23036312715027735,0.864124445864506,0.2880783547936577,-0.23043226374265785,0.12179499999999999,0.05690300000000015,-0.925588,-0.16794299999999995,0.02176,-0.924442,0.28973799999999994,0.035143000000000146,0.0011459999999999804,0.9967009876575076,0.9862418072305703,double,-0.924442
66,0.275,jog,0.0895128389728711,-0.04775617950565364,0.007439404847612913,0.2814223522457873,0.03418139042565811,-0.07976525360546408,0.005519558435323991,0.0019198464122889224,0.0002399808015361153,-0.0014398848092300135,0.0019198464122889224,0.0002399808015361153,1.0317266118078907,0.17556480336967742,2.5341742566612417,1.6702157120699008,0.23030784441597626,-0.17282765131823996,-0.575963147062848,0.2303078444287671,0.11519539421198338,0.12144500000000003,0.057110000000000216,-0.925618,-0.16832199999999997,0.02196700000000007,-0.924472,0.289767,0.035143000000000146,0.0011460000000000914,0.9902519337597369,0.9845203713218287,double,-0.924472
67,0.279167,jog,0.09287257019439127,-0.053275737940951695,0.002879769618433422,0.24345417384076026,0.0120837306033017,-0.04822115183618098,-0.005999520038396301,0.002159827213805084,-0.0009599232061428088,-0.0004799616030589154,0.001919846412288948,-0.0021598272138234013,0.8062709914855261,-1.3245880574269466,-1.0942249170097231,-2.7643576850780796,0.057590785101071,-0.2879539255289011,0.23036314042983047,6.140429870568286e-15,-0.5759078510582025,0.121033,0.057341000000000086,-0.925634,-0.16871099999999994,0.022197000000000022,-0.924493,0.28974399999999995,0.035144000000000064,0.0011409999999999476,0.9892528366990396,0.9837077683322407,double,-0.924493
68,0.283333,jog,0.09385501680269562,-0.0566490638501927,0.0009601536245808924,0.2971225236483482,0.06721186131106993,-0.039064768010053576,0.0014402304368713384,0.0028804608737160275,0.001920307249160119,0.0012001920307061283,0.00024003840612523588,0.0021603456553053423,0.23582491797992045,-0.8097277746617866,-0.4607815635747788,1.7858258461996241,0.17297975513944866,0.6913659278211536,0.4033014003276626,-0.4032184364291193,1.0370074097764619,0.12064799999999998,0.05758899999999989,-0.92563,-0.16909700000000005,0.022433999999999843,-0.924488,0.28974500000000003,0.03515500000000005,0.0011419999999999764,0.993750800387366,0.9844417056998142,double,-0.924488
69,0.2875,jog,0.09287257019439127,-0.04967602591794323,-0.002159827213831727,0.17861302206413643,0.021608546003124788,-0.043607068030670236,0.005039596832251828,0.0009599232061711172,0.0023998080153578545,0.0002399808015427793,0.00023998080156942253,-0.000479961603072237,-0.235768324527083,1.6733952321213135,-0.7487355023788426,0.8637788325847156,-0.46089216883727413,0.11507097820920045,-0.2304322604183716,-1.3823987476204874e-05,-0.6336230521664493,0.12028199999999994,0.057800000000000074,-0.925611,-0.16948300000000005,0.02264200000000005,-0.924481,0.289765,0.03515800000000002,0.0011299999999999644,0.9905604161897352,0.9877202824802602,double,-0.924481
70,0.291667,jog,0.09671226301894123,-0.04919606431485701,0.0004799616030855522,0.18718921070606323,-0.06330960288697571,-0.05470039108943032,0.0,0.0007199424046016851,-0.000959923206142796,-0.0009599232061444612,0.00311975041997616,-0.0002399808015344501,0.9214525616870488,0.11518157021507325,0.6334986361692486,-1.2094064872214516,-0.05759078511385416,-0.8062709914808316,-0.28795392553089305,0.6910894212639105,0.057590785106259916,0.11987900000000001,0.05800800000000006,-0.925617,-0.16988999999999999,0.022860000000000102,-0.9244840000000001,0.289769,0.03514799999999996,0.0011329999999999396,0.9980001599872079,0.9832151637080933,double,-0.9244840000000001
71,0.295833,jog,0.0964954392702864,-0.05232837253961866,0.0019203072491617847,0.26791824262840414,0.038846231000369526,-0.06217116978602266,0.0014402304368713384,0.0038406144983235695,0.0026404224675941226,0.0014402304368846632,0.0007201152184290069,0.0014402304368696728,-0.052046027041484255,-0.751874273826607,0.3457382731820047,0.34571061854808866,0.7490811554781283,0.864221237094795,0.5761290549757855,-0.5760046091087737,0.40331522765341377,0.119483,0.05824200000000013,-0.925614,-0.17028599999999994,0.02308100000000013,-0.924486,0.28976899999999994,0.035161,0.0011280000000000179,0.9918697385850079,0.9851194239078123,double,-0.924486
72,0.3,jog,0.09959203263740259,-0.05087592992557719,-0.0016798656107728119,0.29037659345838057,0.041730809920256955,-0.040038289742902196,0.0011999040076872533,0.0016798656107195255,0.0,-0.002879769618433422,0.001919846412288948,-0.0014398848092150459,0.7431229582712255,0.34855834270253827,-0.8639723685948205,-0.057673729105852285,-0.5185382499649762,-0.6336507001665798,-1.0367170759102735,0.2879124535301051,-0.6911723652711147,0.11907299999999998,0.058460999999999874,-0.925607,-0.170713,0.023301000000000016,-0.924485,0.289786,0.03515999999999986,0.0011219999999999564,0.9965593451456065,0.9825323000752634,double,-0.924485
73,0.304167,jog,0.10271178305735078,-0.05039596832254425,0.0,0.2567710458340176,0.030833584838838104,-0.05345232888151885,0.006239500839925676,0.002879769618460027,0.001679865610751142,-0.0002399808015427761,0.0028797696184067402,0.0002399808015344501,0.7486802063710506,0.1151815702022895,0.4031354957458121,1.2094064872182348,0.28795392554367466,0.40313549574061175,0.6334986361628572,0.230363140417035,0.40313549574021673,0.11867099999999997,0.05868300000000004,-0.9256,-0.17114200000000002,0.02352299999999996,-0.924484,0.289813,0.03516000000000008,0.0011160000000000059,0.9882094208679341,0.9840071682371418,double,-0.924484
74,0.308333,jog,0.10321651464232601,-0.0499279884781531,-0.012241958713373064,0.08105769320462444,-0.0035035401116699488,-0.05492117545502301,0.0,0.0019203072491617847,0.0031204992798845687,-0.0021603456553136702,0.0033605376860197985,-0.0014402304368696728,0.1211549651884851,0.11233313595562824,-2.9385402576507573,-1.4977198367560423,-0.23030781788243918,0.3458074097775866,-0.4609613187160088,0.11540280067524195,-0.40331522765341377,0.11824100000000004,0.058899000000000035,-0.925536,-0.17158099999999998,0.023744999999999905,-0.924439,0.289822,0.03515400000000013,0.0010970000000000146,0.9938932879170759,0.9819521451380462,double,-0.924439
75,0.3125,jog,0.10367170626352326,-0.049196064314857665,-0.009599232061444739,0.08856438932779652,-0.000753627186971493,-0.019164883022095836,0.0045596352291795905,0.003839692824577896,0.0021598272138234013,0.0014398848092300326,-0.0007199424046016947,0.0007199424046083555,0.109237250107333,0.1756477473711156,0.6342036601699881,1.0942249170097471,0.46061568884476173,-0.2305428524264874,0.863986192595086,-0.97923688279854,0.5184000099539334,0.11782799999999993,0.05912000000000006,-0.925487,-0.17200700000000002,0.02394699999999994,-0.924396,0.28983499999999995,0.03517300000000012,0.0010909999999999531,0.989432969511539,0.9861508474408484,double,-0.924396
76,0.316667,jog,0.11495080393568753,-0.06071514278859135,-0.004079673626120675,0.28116720195382017,0.07564336237539071,-0.02709398337437267,0.001439884809216711,0.0033597312214923374,0.0007199424046083555,-0.0002399808015427793,0.002879769618460065,0.0,2.706766899967443,-2.764357685081294,1.3245880574331883,-0.7486802063745854,-0.11518157021491753,-0.3455447106347622,-0.4031354957458175,0.8638617765926998,-0.1727723553175809,0.11735499999999993,0.05938700000000008,-0.9254669999999999,-0.17248700000000006,0.024212000000000122,-0.924379,0.289842,0.035174999999999956,0.0010879999999999779,0.9937908268553614,0.9843037474686356,double,-0.924379
77,0.320833,jog,0.10801728276523047,-0.04848775804129509,0.0007201152184556565,0.2659844191366985,-0.035967058923971965,-0.07307077188090338,0.0024003840614522307,0.0050408065290563474,0.0024003840614488996,-0.0016802688430098993,0.0016802688429832496,-0.0004800768122904462,-1.6643113707290107,2.93504194606247,1.1521336640845723,0.23055670961006217,0.4035226374373521,0.40337053692763875,-0.3457244458634467,-0.287926254315126,-0.1152368728493629,0.11691499999999999,0.05961000000000016,-0.9254600000000001,-0.172944,0.024421000000000026,-0.9243840000000001,0.289859,0.03518900000000014,0.0010759999999999659,0.9898711882691682,0.9851995515529458,double,-0.9243840000000001
78,0.325,jog,0.1072714182865303,-0.047516198704084224,-0.006959443244554005,0.23087021257638374,0.0037126540528584196,-0.06837011502679499,0.005039596832251761,0.002399808015321188,0.003599712023038399,-0.0014398848092300135,0.0021598272138583416,0.0014398848092150266,-0.1789931554356026,0.23315558848352766,-1.842946595394673,0.6333603961601896,-0.6337889401812189,0.28781568552663556,0.0576875531029239,0.11508480222584315,0.46075392884700217,0.11648900000000001,0.05981799999999993,-0.925416,-0.17339700000000002,0.024628000000000094,-0.924349,0.28988600000000003,0.03518999999999983,0.0010670000000000401,0.9889302035812595,0.9843826690356813,double,-0.924349
79,0.329167,jog,0.1166306695464337,-0.05423566114712282,0.000959923206144474,0.27229005784239885,-0.00717277977002602,-0.06417467077411812,0.005279577633794607,0.001919846412288948,0.004079673626110684,0.0,0.0016798656107195255,-0.0014398848092150459,2.246040619127296,-1.6125419829706342,1.9004959084949662,0.057590785107474736,-0.11518157020212212,0.1151815702117321,0.3455447106383541,-0.11518157022769832,-0.6910894212695198,0.11602500000000004,0.060051999999999994,-0.925403,-0.173883,0.024861000000000022,-0.9243589999999999,0.28990800000000005,0.03519099999999997,0.001044000000000045,0.9884285448032158,0.9858724772189456,double,-0.9243589999999999
80,0.333333,jog,0.12361977916467663,-0.06192990878537428,-0.00864138262122803,0.33134260421360967,0.11043372420706718,0.0003462170226054688,0.008881421027366592,-0.00024003840612523588,0.001680268843014896,0.0002400384061518855,0.0024003840614655555,0.0014402304368696728,1.677654733135605,-1.8469149395706803,-2.3046821477130335,0.8645807473768562,-0.5184553092688868,-0.5759492998309617,0.05761843642628068,0.1729521005151295,0.6913382731840414,0.11554700000000001,0.060308999999999946,-0.92536,-0.17439700000000002,0.025128999999999957,-0.9243169999999999,0.28994400000000004,0.03517999999999999,0.0010430000000000161,0.9849297421972789,0.9848873708150194,double,-0.9243169999999999
81,0.3375,jog,0.1231101511879006,-0.05543556515480933,-0.007439404847612913,0.19948335160767558,0.021440344068766732,-0.07671645395064568,0.00455963522917953,-0.005759539236866767,-0.0031197504199678336,-0.0019198464122889224,0.0026397888168906074,0.002639788816895603,-0.122300930351819,1.5585177899123823,0.2884515895404627,-1.0371456199152937,-1.3245742334392823,-1.1519124701182368,-0.5183308899545936,0.05745254509840413,0.2878709815276988,0.11505300000000002,0.060516000000000014,-0.925342,-0.17491800000000002,0.025371000000000032,-0.924275,0.28997100000000003,0.03514499999999998,0.0010670000000000401,0.986698432806717,0.9823334174527911,double,-0.924275
82,0.341667,jog,0.12263018958484331,-0.05711543076552959,-0.009839212862960876,0.1860767789531579,-0.011714008327603158,-0.10180836033249815,0.008399328053757487,-0.0033597312214923374,-0.005279577633787946,-0.0016798656107461687,0.002159827213805084,-0.0016798656107511643,-0.11518157020813256,-0.40313549573320645,-0.57590785105543,0.9214525616937795,0.5759078510617814,-0.5183170659515539,0.05759078510745262,-0.11518157021490909,-1.0366341319046777,0.11457699999999998,0.060740000000000016,-0.925323,-0.17543600000000004,0.02561799999999992,-0.924241,0.290013,0.0351220000000001,0.0010820000000000274,0.9825428742958242,0.9838287928324938,double,-0.924241
83,0.345833,jog,0.12602016322611553,-0.05592894863176369,0.0072011521843433676,0.4131196609874131,0.10277525824326667,-0.027424008403708774,0.004560729716752576,-0.004800768122877812,-0.0014402304368696728,-0.0026404224675907915,0.0043206913106273405,-0.0007201152184356692,0.8137238697244882,0.2848012803086661,4.090342066083589,-0.9214110266454413,-0.3459042010046743,0.9215907817854706,-0.2305705369286179,0.5186903736971328,0.2303769544684336,0.11407099999999998,0.060953000000000035,-0.9253589999999999,-0.17597200000000002,0.02586899999999992,-0.9242739999999999,0.290043,0.035084000000000115,0.0010850000000000026,0.9887057175440408,0.9806257258150439,double,-0.9242739999999999
84,0.35,jog,0.13438924886009315,-0.06191504679627861,-0.022558195344355172,0.23382587304211613,0.13004240103815148,-0.042105758999740533,0.005039596832251828,0.00047996160303227217,0.008399328053754157,-0.002879769618433422,0.0050395968322651495,0.0,2.008419878564355,-1.436548635592741,-7.141672073121841,0.11491891420668451,1.2672737523182418,2.3613051333390653,-0.05743872110454328,0.17252352331121026,0.17281382731837613,0.11353199999999997,0.06121299999999996,-0.92523,-0.17654400000000003,0.02614800000000006,-0.92418,0.290076,0.0350649999999999,0.0010499999999999954,0.9836550542023086,0.9798260646168531,double,-0.92418
85,0.354167,jog,0.13750899928004087,-0.06407487401008284,-0.00767938564915569,0.2418259421246338,0.0779669205130744,-0.07961984913414767,0.0004799616030722306,-0.005519558435297348,0.0002399808015361153,-0.0033597312214922927,0.0033597312214922927,0.0009599232061444612,0.7486802063709374,-0.5183170659477364,3.5706286765537243,-1.0942249170097342,-1.4397696276288874,-1.958086693596827,-0.11518157020851141,-0.40313549574582286,0.23036314042343506,0.11296100000000003,0.061457000000000095,-0.925197,-0.17713099999999993,0.026429000000000036,-0.924144,0.29009199999999996,0.03502800000000006,0.0010530000000000816,0.9907573634043407,0.9813910423659438,double,-0.924144
86,0.358333,jog,0.1344215074411917,-0.06433029284683983,-0.013442150744132493,0.23250228368547354,0.12514221545267346,-0.0897793127808902,0.0024003840614522307,-0.005760921747485354,0.0031204992798845687,-0.0019203072491617847,0.0038406144983235695,0.0004800768122887806,-0.7411166199830005,-0.06131033047455358,-1.3832849483861738,0.4609751460345652,-0.057936464759482914,0.6914350644139345,0.34551703608509526,0.11543045531235631,-0.11518156357553536,0.11241100000000004,0.061701000000000006,-0.925128,-0.17769899999999994,0.026712999999999987,-0.924086,0.29011,0.03498800000000002,0.0010419999999999874,0.9883705858107217,0.9823788478156437,double,-0.924086
87,0.3625,jog,0.13510919126469484,-0.07127429805615393,-0.008639308855273623,0.19180606948536616,0.04097483009972548,-0.10096008063222862,0.005519558435324065,-0.004799616030749013,0.004559635229182921,0.0004799616030589154,0.0035997120230084733,0.0,0.1650309151675433,-1.6664279360005128,1.1525898461384445,0.7485419663719347,0.23069491642340914,0.345364998631716,0.5760184430575267,-0.05781196911809396,-0.11520921821185105,0.11187100000000005,0.06197799999999987,-0.925073,-0.17825999999999997,0.027024999999999855,-0.92405,0.29013100000000003,0.03495300000000001,0.0010229999999999961,0.9856345212414171,0.9837173858290169,double,-0.92405
88,0.366667,jog,0.13342932565394688,-0.06335493160548115,-0.01583873290137029,0.2362969298743867,0.1317014903841291,-0.08774741833544798,0.0047996160307089844,-0.005279577633781215,0.0023998080153578225,-0.0002399808015427761,0.0009599232061711044,0.0007199424046083459,-0.4031354957398469,1.9004959084887723,-1.7277235531789323,-0.17277235531919247,-0.11518157020211132,-0.5183170659527435,-0.17277235531597934,-0.6334986361500717,0.1727723553175763,0.11133500000000002,0.06221999999999994,-0.9249970000000001,-0.178817,0.02729300000000001,-0.923981,0.290152,0.03492699999999993,0.0010160000000000169,0.987453494007412,0.9878005553500957,double,-0.923981
89,0.370833,jog,0.13922227556409614,-0.07393182909264875,-0.015122419587142392,0.26882186306992756,0.06854562631540874,-0.08939481119680294,0.0024003840614522307,-0.004800768122877812,0.003360537686029792,-0.003120499279867913,0.006240998559789125,-0.0004800768122904462,1.3905304633099493,-2.5388616147785865,0.17194270624769475,-0.5759078178724801,0.11493267184431175,0.23061201888429397,-0.6914350644083377,1.2676609106140224,-0.2880507001677367,0.110765,0.06250800000000001,-0.92492,-0.17940999999999996,0.027627000000000068,-0.92392,0.29017499999999996,0.03488099999999994,0.0010000000000000009,0.989445586527252,0.9783430930674074,double,-0.92392
90,0.375,jog,0.14182865370770614,-0.0772738180945369,-0.009599232061418097,0.3502164683508863,0.19585582442839136,-0.11029539230547869,0.0011999040076872533,-0.005519558435350708,0.003599712023038447,-0.0007199424046016947,0.0033597312214923374,0.000479961603072237,0.6254807160091241,-0.8020131993972078,1.3254589694562817,-0.28809216553035377,-0.17249587532347016,0.05739724910214944,0.5760875630588509,-0.6914488452836103,0.23039078842397134,0.11017900000000003,0.06280699999999984,-0.924865,-0.18000399999999994,0.02796299999999996,-0.9238780000000001,0.29018299999999997,0.034843999999999875,0.0009869999999999601,0.9888366644772418,0.9843477296637244,double,-0.9238780000000001
91,0.379167,jog,0.13798896088312826,-0.07895368370530971,-0.010319174466046434,0.27371648287262174,0.08090025077396515,-0.095113552762594,0.0028797696184201,-0.005039596832211863,0.005279577633789612,-0.0035997120230617597,0.005519558435297421,0.0011999040076789273,-0.9214525616937619,-0.40313549574581703,-0.17277235532237614,0.40313549573622665,0.11518157022770513,0.4031354957406225,-0.6910894212767175,0.5183170659479472,0.17277235531718127,0.10961599999999999,0.06311500000000003,-0.9248000000000001,-0.18059400000000003,0.028314999999999868,-0.92383,0.29021,0.034800000000000164,0.0009700000000000264,0.9869228199950335,0.9791366644772966,double,-0.92383
92,0.383333,jog,0.13490158425349544,-0.07801248199715087,-0.0031204992798945625,0.4247579916461881,0.13257420890144253,-0.09172630648664354,0.004800768122904461,-0.005280844935234882,0.006000960153623914,-0.008641382621201382,0.005520883341360118,-0.0004800768122904462,-0.7410889653463318,0.22592455788738336,1.7279585180393342,0.46111341922332205,-0.057908810135146205,0.17315951028187765,-1.210194574685458,0.0003180283395815381,-0.4032599183795901,0.10907399999999995,0.06341799999999997,-0.924762,-0.18119200000000002,0.028663000000000105,-0.923819,0.29026599999999997,0.03475499999999987,0.0009430000000000271,0.984459173788116,0.9734605386619137,double,-0.923819
93,0.3875,jog,0.14494840412765378,-0.08687305015598049,-0.006719462443011228,0.5006968855253101,0.22316815500407078,-0.0819034472582618,0.007439404847612913,-0.0059995200383829005,0.0009599232061444612,-0.005039596832265082,0.0028797696184067402,0.004079673626110629,2.4110438862870804,-2.126366248819186,-0.8636820645828266,0.633222156157531,-0.17246822729733924,-1.2097520872280811,0.8643594405894581,-0.6338165881817512,1.0942525650110488,0.10850100000000001,0.063755,-0.9247299999999999,-0.181817,0.02903699999999998,-0.923774,0.290318,0.03471800000000003,0.0009559999999999569,0.9839912838203563,0.9786155495567614,double,-0.923774
94,0.391667,jog,0.15166786657066703,-0.09215262778976294,-0.02687784977201863,0.29291191575899994,0.16681682194942285,-0.15335206161370493,0.006239500839939081,-0.0033597312214923374,0.00623950083993242,0.001919846412288948,0.0131989440845065,0.007679385649147466,1.612541982964551,-1.2669972723260092,-4.837625948885893,-0.2879539255276791,0.6334986361628457,1.266997272327331,1.670132768071531,2.4764037595631914,0.8638617765867188,0.10789500000000007,0.06412499999999999,-0.924592,-0.18244099999999996,0.029476000000000058,-0.92363,0.29033600000000004,0.03464899999999993,0.0009620000000000184,0.9842634064691571,0.9647289820896671,double,-0.92363
95,0.395833,jog,0.15218434949592485,-0.09073451752280105,-0.032165146423419916,0.14212773098624967,0.13536484395021503,-0.18363546522040192,0.0026404224675907915,0.00024003840612523588,0.007441190590495253,-0.0038406144983235695,0.00600096015361059,0.0007201152184356692,0.12397573817998728,0.34040092821936685,-1.269154261018071,-0.8639170360893632,0.8640829639024414,0.28845169240586466,-1.3827318556439063,-1.7277925902294538,-1.6704921821199692,0.10727200000000003,0.0645039999999999,-0.924427,-0.183091,0.02987899999999999,-0.923493,0.29036300000000004,0.034624999999999906,0.0009339999999999904,0.9868343073516548,0.9787249432787997,double,-0.923493
96,0.4,jog,0.1430285577153915,-0.09287257019441668,-0.020638348932092595,0.3616216849765417,0.1958519150514776,-0.10068350917397816,0.00455963522917953,0.0019198464122889224,0.005519558435323991,-0.0009599232061444612,0.004319654427663397,0.006239500839932337,-2.1972142501879737,-0.5130915938602374,2.766210101110447,0.46057421684394617,0.4031216717455421,-0.4611548248551109,0.6913106052745588,-0.4034810957396641,1.3245465854323555,0.10669499999999998,0.06489900000000004,-0.924318,-0.18369100000000005,0.0302840000000002,-0.923381,0.29038600000000003,0.03461499999999984,0.0009369999999999656,0.9876462321322479,0.9778811179501405,double,-0.923381
97,0.404167,jog,0.14998800095992088,-0.08903287736978673,-0.02687784977201863,0.28751735645461757,0.1504156789359551,-0.15285343672698334,0.0002399808015427793,0.0004799616030855586,0.007919366450683585,-0.000959923206144474,0.003839692824577896,0.0033597312215023285,1.670132768065615,0.9214525617062576,-1.4973604127492366,-1.0366341319022738,-0.34554471063195874,0.5759078510582211,-3.070214935284143e-15,-0.11518157021490369,-0.6910894212695043,0.10607100000000003,0.065272,-0.9241729999999999,-0.18432000000000004,0.030671000000000115,-0.9232549999999999,0.29039100000000007,0.03460099999999988,0.0009179999999999744,0.9867707900099651,0.9821673691493493,double,-0.9232549999999999
98,0.408333,jog,0.15434469515121188,-0.09601536245798263,-0.03792606817090527,0.09405491306210796,0.09901590062842679,-0.19053222557172622,0.006240998559762475,0.0050408065290563474,0.010321651464234598,0.0002400384061518855,0.004320691310574041,0.0031204992798845687,1.0457739297385986,-1.6760645915016563,-2.6519967352104254,1.440474737930795,1.0947779467044614,0.5766406657587642,0.28803687285078217,0.1154581099366646,-0.057424853964896695,0.10545400000000005,0.065693,-0.923972,-0.18496199999999996,0.031088999999999922,-0.923084,0.290416,0.03460400000000008,0.0008879999999999999,0.9782121158518298,0.9822281329929695,double,-0.923084
99,0.4125,jog,0.15766738660907664,-0.11327093832494135,-0.01559875209982772,0.2547914987276703,0.14370125338439596,-0.1497073664001332,0.006239500839939081,0.007199424046070233,0.008399328053755822,0.0004799616030855586,0.0033597312214923374,0.005039596832253493,0.7973821593148024,-4.141006927515916,5.3581272068820915,-0.0003594240036942849,0.5180267619423801,-0.46132071285788023,0.0575769611071933,-0.23061197242181644,0.460546568843037,0.10482300000000006,0.066195,-0.923872,-0.18561699999999992,0.03157499999999991,-0.922998,0.29044,0.034620000000000095,0.0008740000000000414,0.9788319036518696,0.9811336189895503,double,-0.922998
100,0.416667,jog,0.14446844252459487,-0.09935205183583184,-0.022078233741295965,0.3158572636198416,0.21996629189075237,-0.15127496064112272,0.003119750419962838,0.0016798656107727896,0.014398848092153596,-0.0011999040076872372,0.0009599232061711044,0.005039596832253425,-3.1674931808211357,3.340265536143365,-1.5549511978565385,-0.7486802063777824,-1.324588057426782,1.4397696276452432,-0.40313549574580826,-0.5759078510490075,-1.623571287811254e-14,0.10423400000000005,0.06661600000000001,-0.92372,-0.18622399999999995,0.03199299999999994,-0.922885,0.290458,0.03462300000000007,0.0008350000000000302,0.9752859903915236,0.9828689031276984,double,-0.922885
101,0.420833,jog,0.1545847335573904,-0.10705712914070287,-0.0158425348055714,0.33386270608967156,0.15671153440454044,-0.22855776860593732,0.005760921747472029,0.00984157465193416,0.011521843494959048,0.0019203072491617847,0.0031204992798945625,0.0040806529044654614,2.4282983756110266,-1.8495144754851216,1.4968072337312917,0.6339825558111352,1.9591236296594732,-0.6905915979823682,0.7489705369296735,0.5186212370915642,-0.23018337200863256,0.10361399999999993,0.06710300000000013,-0.923606,-0.18686000000000003,0.03245200000000015,-0.922802,0.29047399999999995,0.03465099999999999,0.0008040000000000269,0.9729816066492339,0.9828196098105217,double,-0.922802
102,0.425,jog,0.1653467722582058,-0.11255099592028638,-0.016798656107514975,0.3518477437309626,0.18055374830113854,-0.17826211318762314,-0.0002399808015294577,0.008399328053757487,0.01175905927525815,-0.02999760019199483,-0.018238540916718362,0.026157907367410273,2.5826826735818194,-1.318422553295786,-0.22945075640594684,-1.4401014036480733,-0.346111494642832,0.05692723309313737,-7.6596850110767445,-5.125759586420217,5.298117221729047,0.10292400000000002,0.06760699999999997,-0.923487,-0.187674,0.03284500000000001,-0.922623,0.290598,0.03476199999999996,0.0008639999999999759,0.9759120951525243,0.9183924175881357,double,-0.922623
103,0.429167,jog,0.1600671946244224,-0.11183105351573648,-0.005759539236866767,0.4169620833859165,0.18824924461662712,-0.24295601369744044,0.006959443244540683,0.011759059275249667,0.012958963282936905,0.005999520038409543,-0.0011999040076872372,0.010319174466042967,-1.2669972723262188,0.17277235530354915,2.64917611486636,1.7277235531725668,0.8062709914787988,0.28795392552885674,8.638617765875713,4.088945742508038,-3.8009918169827666,0.10228600000000004,0.06812200000000002,-0.9234089999999999,-0.18831599999999993,0.03330600000000006,-0.9225559999999999,0.29060199999999997,0.03481599999999996,0.0008529999999999927,0.9686133408258415,0.9714755999520717,double,-0.9225559999999999
104,0.433333,jog,0.16562650024005734,-0.12313970235237286,-0.01248199711952495,0.3645341725558245,0.16523124055646685,-0.19134145068905536,0.004320691310614015,0.010561689870363166,0.010561689870378156,-0.0021603456553136702,-0.000480076812303771,0.009601536245798929,1.3344468592498662,-2.714510042399512,-1.6136480755300477,-0.6334018084317489,-0.2874146435157226,-0.5754376890443466,-1.9586811554784462,0.17278617267966054,-0.17226073457610114,0.10161399999999998,0.06867899999999993,-0.923313,-0.18901500000000004,0.033816999999999986,-0.9224640000000001,0.290629,0.03486199999999995,0.0008489999999999887,0.9740852380529833,0.9750878718580746,double,-0.9224640000000001
105,0.4375,jog,0.17710583153345563,-0.15862730981522113,-0.024238060955127986,0.3259575100374614,0.25763621863489916,-0.141932138675371,0.005999520038396301,0.007679385649155792,0.011519078473723696,0.0026397888168906425,-0.0016798656107728119,0.00863930885529194,2.7548191248856138,-8.516344483524954,-2.8212296221749704,0.4028866637346522,-0.6916976772755916,0.22975488441217798,1.151940118119592,-0.28792627753036903,-0.23091610043364402,0.10090100000000007,0.06937199999999999,-0.923164,-0.18974199999999997,0.03447099999999992,-0.922327,0.29064300000000004,0.03490100000000007,0.0008369999999999767,0.9748528567160655,0.976315873354865,double,-0.922327
106,0.441667,jog,0.17686585073196615,-0.12191024718021498,-0.016318694504429413,0.15149824723836727,0.11211619031137283,-0.26637649971221256,-0.002879769618433422,0.012958963282937077,0.009119270458362512,0.0026397888168906425,-0.002159827213805084,0.0064794816414685385,-0.05759078509466955,8.811390121191831,1.9004959084949886,-2.1308590489152324,1.2669972723257295,-0.5759078510586029,0.0,-0.11518157020212977,-0.5183170659523431,0.10015199999999996,0.06993399999999994,-0.923058,-0.19046800000000008,0.034969999999999946,-0.922232,0.29062000000000004,0.034963999999999995,0.0008259999999999934,0.9731574086304098,0.9795360592733556,double,-0.922232
107,0.445833,jog,0.17306769083052595,-0.10609697551609533,-0.012481997119551601,0.18971028869727818,0.12001725908454192,-0.24022759645838634,0.004560729716752576,0.005520883341360118,0.010321651464234598,-0.00024003840612523588,0.0012001920307327777,0.003360537686029792,-0.9117042490254904,3.7957925261929044,0.9209547251266945,1.786005601340853,-1.7854248539551016,0.2886176202285371,-0.691269136585664,0.8065336640753383,-0.7486663359190457,0.09944999999999998,0.0703990000000001,-0.922963,-0.19118999999999997,0.03541700000000003,-0.922166,0.29063999999999995,0.03498200000000007,0.0007969999999999366,0.9790624674217624,0.9860691804985771,double,-0.922166
108,0.45,jog,0.1727861771058165,-0.11567074634031432,-0.017038636909057527,0.19101023627582808,0.12287455884269019,-0.292244653093334,0.0007199424046016851,0.008639308855273508,0.01007919366450685,0.0016798656107461464,0.0033597312214922927,0.009359251259898506,-0.06755788929912172,-2.297521196116852,-1.093506068995894,-0.921715217698791,0.7483622543588593,-0.05818521711728953,0.46074010484074096,0.518247945946604,1.439576091641149,0.09873300000000002,0.07091700000000012,-0.92285,-0.19190299999999993,0.035913000000000084,-0.922056,0.29063599999999995,0.035004000000000035,0.0007939999999999614,0.9778423502368578,0.9752518235425641,double,-0.922056
109,0.454167,jog,0.18262538996880634,-0.13774898008155884,-0.018718502519777278,0.22131588269258656,0.1428427394436502,-0.21206942258587833,0.005759539236866844,0.010799136069131993,0.01823854091672669,0.0067194624430113176,0.005279577633781285,0.00863930885529194,2.361222189342426,-5.298352229720336,-0.40313549573308405,1.209406487224667,0.5183170659607623,1.9580866935972845,1.20940648722467,0.460726280846893,-0.17277235531715157,0.09799600000000003,0.07153600000000004,-0.9226960000000001,-0.19263599999999992,0.0365089999999999,-0.921942,0.29063199999999995,0.03502700000000014,0.0007540000000000324,0.9633925475547309,0.9722072379790854,double,-0.921942
110,0.458333,jog,0.18122899663947686,-0.14402304368702726,-0.01944311089774308,0.20535042299889986,0.11541779982988241,-0.264948278168469,0.004560729716752576,0.00600096015361059,0.011281805088813825,0.00048007681227712134,0.0031204992798945625,-0.0002400384061452231,-0.3351880291237338,-1.5060162279088856,-0.17393384012621269,-0.2877603264796608,-1.1517464991650022,-1.6698837801039026,-1.497692182125346,-0.5182617268091024,-2.131384364243196,0.09725999999999996,0.07216100000000014,-0.922568,-0.19338900000000003,0.0371220000000001,-0.9218620000000001,0.290649,0.03503900000000004,0.0007059999999999844,0.9773866494462233,0.9876627932636002,double,-0.9218620000000001
111,0.4625,jog,0.1984641228701742,-0.18958483321330463,-0.02999760019199443,0.2359698626738411,0.24012519417623723,-0.13809986554323128,0.00455963522917953,0.00911927045835906,0.008639308855291825,0.0021598272138316985,0.0016798656107727896,0.0031197504199661683,4.136099407414736,-10.933954769924892,-2.5328748006362534,-0.00026265600505069836,0.7483346063711173,-0.634148364176141,0.4031078477452758,-0.34572442263541203,0.8062848154814892,0.09645199999999993,0.07298899999999997,-0.922407,-0.19420700000000002,0.037919000000000036,-0.921724,0.29065899999999995,0.035069999999999935,0.0006829999999999892,0.9777271325616794,0.9862539067011258,double,-0.921724
112,0.466667,jog,0.18622510199184145,-0.1468682505399713,-0.0047996160307223696,0.40149187826574345,0.1330765469612941,-0.2619331403704003,0.0,0.005519558435297421,0.004559635229181256,-0.0004799616030855586,0.0023998080153212202,-0.00311975041996621,-2.9371300403966467,10.251159748820154,6.04703243611044,-1.0942249170097327,-0.8638617765926707,-0.9790433467987983,-0.6334986361692517,0.1727723553032001,-1.4973604127507592,0.09567599999999993,0.07362399999999991,-0.922368,-0.19498500000000007,0.038540999999999936,-0.921717,0.290661,0.035082999999999975,0.0006509999999999572,0.988067807463298,0.9868814440277698,double,-0.921717
113,0.470833,jog,0.1891502640422226,-0.15290446471435387,-0.024003840614495658,0.16538388853614294,0.10004884846324705,-0.15142879186175484,0.004560729716765901,0.006961113778218132,0.00840134421507448,0.02280364858378953,0.0002400384061785351,0.03480556889102237,0.7021512362892824,-1.4489232295685481,-4.609751460339241,1.0947502920705467,0.3460286468844718,0.9221577018466688,5.588960678558586,-0.5184276546189831,9.103533199949245,0.09490700000000007,0.07428999999999997,-0.922233,-0.1956779999999999,0.039179000000000075,-0.921472,0.290585,0.03511099999999989,0.0007610000000000117,0.9802910098627516,0.9230380066577208,double,-0.921472
114,0.475,jog,0.19342452603793833,-0.15574754019676107,-0.03431725461963164,0.019944170104938347,0.03662938459267591,-0.210770754589783,0.005039596832251828,0.007439404847639656,0.006959443244540776,0.007679385649129148,0.007439404847586369,0.016798656107511644,1.0257408197062055,-0.6822835330950838,-2.475021359523889,0.11491891420348671,0.11478067420722976,-0.34602855064403965,-3.6295327416991765,1.7277097291595573,-4.3213133629735605,0.09412199999999998,0.07496999999999998,-0.922061,-0.19645200000000007,0.03985899999999987,-0.9212589999999999,0.29057400000000005,0.035111000000000114,0.0008020000000000804,0.981057387031065,0.9587922949701759,double,-0.9212589999999999
115,0.479167,jog,0.19390448764096802,-0.13054955603554014,-0.014398848092140275,0.21068470161452976,0.13913695380441007,-0.25628613934030353,0.007679385649142368,0.004799616030695663,0.0014398848092150266,0.013678905687565234,0.004319654427663397,0.013918886489081366,0.11518157020150685,6.04703243609809,4.780035163784789,0.6334986361628318,-0.6334986361756595,-1.324588057433575,1.4397696276544372,-0.7486802063649984,-0.69108942126956,0.09334600000000004,0.07553399999999999,-0.921995,-0.1972029999999999,0.04042100000000004,-0.921141,0.29054899999999995,0.03511299999999995,0.0008540000000000214,0.9847172440808665,0.9581472031478864,double,-0.921141
116,0.483333,jog,0.20115218434949708,-0.18698991838696222,-0.04032645223237083,0.08009641899032091,0.15489698935941942,-0.21253457785916544,0.012481997119538275,0.01032165146423793,0.0048007681228994644,0.008881421027353268,0.007921267402772374,0.012241958713394717,1.7397255661375568,-13.547854621080662,-6.223620772979006,1.1528112026874469,1.3255005841436063,0.8067410738560815,-1.1515805713422858,0.8645254380962492,-0.4025270704960747,0.09256000000000003,0.07635600000000009,-0.9218069999999999,-0.19800399999999996,0.041233000000000075,-0.920922,0.290564,0.035123000000000015,0.0008849999999999136,0.971844473819948,0.9626947881227846,double,-0.920922
117,0.4875,jog,0.19702423806097344,-0.17086633069350324,-0.030717542596596526,0.14532512105721868,0.20472291508844953,-0.17563864500450674,0.013918886489081551,0.014638828893709889,0.0011999040076789273,0.012479001679851519,0.0045596352291795905,-0.006719462443004657,-0.9906278590169586,3.869351498310312,2.3059538362789436,0.3448258626213786,1.036039699897284,-0.8641382565924064,0.8633502885764991,-0.8067271834875935,-4.550377047372086,0.09179699999999996,0.077129,-0.921674,-0.1987730000000001,0.04196399999999989,-0.9208219999999999,0.29057000000000005,0.03516500000000011,0.0008520000000000749,0.9662743716761069,0.9666658613403196,double,-0.9208219999999999
118,0.491667,jog,0.20206383489320925,-0.17254619630432702,-0.0292776577873661,0.007567179721722605,0.08155303502212627,-0.2635761386044777,0.018478521718260896,0.01055915526756243,0.005759539236861772,0.019918406527490908,0.004799616030695663,-0.007919366450685144,1.2094064872176091,-0.4031354957580442,0.3455447106384482,1.0942249170096736,-0.9790433468076382,1.0942249170105134,1.785314338286377,0.05759078510104879,-0.2879539255292724,0.09103199999999995,0.07789200000000007,-0.921528,-0.19953200000000004,0.042702999999999935,-0.920733,0.290564,0.03518900000000014,0.0007949999999999902,0.963252973775734,0.9554403626221812,double,-0.920733
119,0.495833,jog,0.1973115698511602,-0.1781084973595823,-0.02232357177148576,0.19567879229034732,0.1554965358310525,-0.1903807271661405,0.0158425348055714,0.007441190590468603,0.0050408065290446875,-0.0016802688430098993,0.0316850696111428,-0.014162265962553171,-1.1407261262719781,-1.3351658798020374,1.669247723447032,-0.6327380971410214,-0.7484312715059587,-0.17252345362868066,-5.184511610777915,6.453541425935458,-1.4985356485520938,0.09027600000000002,0.07866499999999998,-0.921414,-0.20036099999999996,0.04357699999999998,-0.920699,0.290637,0.03508800000000001,0.0007149999999999102,0.9696425481904598,0.9349387480506728,double,-0.920699
120,0.5,jog,0.2047036237101159,-0.17182625389967435,-0.03119750419965544,0.0865928704492366,0.10236737302353291,-0.18575344921494127,0.006719462442997997,0.0069594432445540975,-0.000479961603072237,-0.0002399808015427793,0.03983681305498235,-0.0019198464122872829,1.7739510100685778,1.5076178209522442,-2.129573416887384,-2.189362218040186,-0.11561011421034519,-1.3248783614391544,0.34564147863382005,1.956261925567458,2.937945656411317,0.08945099999999995,0.07940999999999998,-0.921286,-0.20121500000000003,0.044459000000000026,-0.920577,0.290666,0.034950999999999954,0.0007090000000000707,0.9838569425880956,0.9264370507104687,double,-0.920577
121,0.504167,jog,0.20782337413006272,-0.1790256779457422,-0.023758099352068754,0.07639125211014051,0.03195937929020931,-0.16517364326930212,0.00359971202304839,0.002879769618460027,0.006239500839934002,0.007439404847612913,0.048476121910255326,0.007919366450683479,0.7486802063707176,-1.7277235531720179,1.7853143382737289,-0.7486802063713901,-0.9790433467948259,1.612541982962848,1.8429051233874811,2.073268263804394,2.361222189337818,0.08860000000000001,0.08016800000000002,-0.921161,-0.20205,0.045406999999999975,-0.920445,0.29065,0.03476100000000004,0.0007160000000000499,0.9870704504637394,0.9100417930795863,double,-0.920445
122,0.508333,jog,0.21267402784445447,-0.18626980316853323,-0.029044647143525355,0.3070336985913126,0.25082421010322575,-0.19166115801782477,-0.0052808449351949074,0.00384061449827027,0.005040806529043022,0.019923187710046853,0.021603456553030104,0.0009601536245808924,1.1643431863638376,-1.738868272393428,-1.2689745058705226,-2.13167473793646,0.23063967350221853,-0.28773267184132956,2.9965873409586967,-6.4504717612158435,-1.6704783548013877,0.08769199999999999,0.08095999999999992,-0.921019,-0.20285299999999995,0.04627300000000001,-0.92032,0.29054499999999994,0.03468699999999991,0.0006990000000000052,0.9862515280225663,0.944004199930824,double,-0.92032
123,0.5125,jog,0.21238300935926122,-0.18598512119030114,-0.0403167746580418,0.01602019882646875,0.07899201374327042,-0.20763725027748117,-0.0069594432445408685,0.0028797696184601033,0.005519558435325803,0.028557715382765178,0.00695944324455419,0.0023998080153578866,-0.06983884933843441,0.06831820931895678,-2.705094195948323,-0.4028313677336196,-0.23058432440849172,0.11489126620657308,2.072120871782695,-3.5142820514701687,0.34548941463331456,0.08677799999999997,0.08174700000000001,-0.920828,-0.203619,0.047077000000000035,-0.920142,0.29039699999999996,0.03466999999999998,0.0006859999999999644,0.9844371838585999,0.9439878542158305,double,-0.920142
124,0.516667,jog,0.2207823374129996,-0.19510439164865526,-0.042716582673388556,0.08684906305959468,0.1769079916341539,-0.21456558093949732,-0.007679385649142368,0.006959443244554005,0.003599712023038399,0.033117350611943944,-0.004319654427663397,0.0002399808015361153,2.0156774786989016,-2.18844983401825,-0.5759078510551324,-0.17277235531593324,0.9790433467947852,-0.46072628084650574,1.0942249170095346,-2.706766899980202,-0.518317065951945,0.08582600000000001,0.08258900000000002,-0.920635,-0.204401,0.047871999999999915,-0.919963,0.290227,0.03471700000000011,0.0006720000000000059,0.981714855690477,0.9376154312592442,double,-0.919963
125,0.520833,jog,0.2227556409025405,-0.19947191550648719,-0.040086413826192296,0.10267411628084998,0.07701459466084536,-0.20001737364572847,-0.002880460873742677,0.005040806529003048,0.0009601536245792267,0.03192510801729468,-0.007681228996647139,0.007681228996640476,0.47366862446972835,-1.0483734656341637,0.6313415379731776,1.1519262542966124,-0.4605464991720968,-0.6335953908927436,-0.2861840121577683,-0.8069070016763658,1.7861853564820824,0.08488600000000002,0.08344099999999988,-0.9204640000000001,-0.20519599999999993,0.04867099999999991,-0.919764,0.29008199999999995,0.03476999999999997,0.0007000000000000339,0.9901923102319894,0.9367956338263432,double,-0.919764
126,0.525,jog,0.22798176145908308,-0.2015838732901237,-0.03815694744420903,0.10881834199576054,0.03105237868143243,-0.20691038179349294,-0.0035997120230350688,0.00767938564915569,0.004079673626110629,0.034797216222690094,-0.008159347252187955,0.015118790496758612,1.2541686000822057,-0.5068293217270214,0.46303488888487027,-0.17260646731278773,0.6332083321700556,0.7486249103747009,0.6892508292285559,-0.11473920219361958,1.7848719702707174,0.08392100000000002,0.08431299999999986,-0.920288,-0.206001,0.04947699999999999,-0.9195420000000001,0.289922,0.03483599999999987,0.0007459999999999134,0.9843143176136799,0.9278613277786232,double,-0.9195420000000001
127,0.529167,jog,0.2258219342452647,-0.20638348932087267,-0.016078713702913066,0.3538341724909838,0.11842730870110595,-0.18854588114211118,0.002879769618420062,0.007919366450725109,-0.0004799616030722306,0.03335733141348672,-0.011759059275249667,0.009839212862972402,-0.5183170659511318,-1.151815702123573,5.298352229732612,1.5549511978533912,0.057590785113851066,-1.0942249170105172,-0.3455447106319564,-0.8638617765926768,-1.2669972723268945,0.08299199999999995,0.08520600000000011,-0.920223,-0.20680300000000001,0.05028800000000011,-0.919434,0.28979499999999997,0.034918000000000005,0.0007890000000000397,0.985932721066201,0.9309227386208057,double,-0.919434
128,0.533333,jog,0.22515602496399872,-0.20163226116177957,-0.012962073931829066,0.2876915377015702,0.1052494737827957,-0.21759318168302078,0.0033605376860332127,0.014642342774812361,0.004560729716756029,0.02640422467593527,-0.013202112338007608,0.009841574651944416,-0.15984380251224012,1.140477234539899,0.748113243179088,0.11540280067526719,1.6137725213844039,1.2099595102804586,-1.6690126590378376,-0.3463881571670615,0.0005669200604930038,0.08206799999999997,0.08610699999999993,-0.92015,-0.20763100000000007,0.051072999999999924,-0.919339,0.28969900000000004,0.03503400000000001,0.0008110000000000062,0.9738332446379607,0.9400265188812323,double,-0.919339
129,0.5375,jog,0.23710103191744214,-0.20422366210701431,-0.04151667866570132,0.12044474768392835,0.16900959776543226,-0.24371835794675975,0.008399328053757375,0.008879289656842928,0.004079673626108965,0.02639788816895936,-0.011519078473733534,0.01319894408447302,2.8665723430389547,-0.6218864759382591,-6.852556931574763,1.2092129512176921,-1.38302210654413,-0.11544422621719715,-0.0015206400230161434,0.403895815760514,0.8057042074702612,0.08111499999999999,0.08699499999999993,-0.91996,-0.208509,0.05187599999999981,-0.919111,0.289624,0.03511900000000012,0.0008489999999999887,0.9785242880430833,0.9387066490538831,double,-0.919111
130,0.541667,jog,0.2443004559635256,-0.20926325893933267,-0.03167746580274058,0.24555470258659423,0.12873659259580922,-0.2319596587973672,0.00767938564915569,0.013198944084453037,0.0038396928245745146,0.026637868970475494,-0.009599232061391325,0.012958963282936905,1.7277235531757613,-1.2094064872374182,2.3612221893354137,-0.1727723553159778,1.0366341318958667,-0.05759078510545918,0.057590785101063156,0.4607262808596577,-0.057590785105858515,0.080129,0.08792200000000006,-0.919812,-0.20941600000000005,0.0527080000000002,-0.918925,0.28954500000000005,0.035213999999999857,0.0008869999999999711,0.9737570999083104,0.9392311654801925,double,-0.918925
131,0.545833,jog,0.24171867498799313,-0.19995199231873764,-0.047767642822839435,0.09808042266401268,0.15105799187830704,-0.23055030874482765,0.0036005760921716838,0.00816130580895091,0.0050408065290446875,0.025204032645228438,-0.008881421027379916,0.01368218915026439,-0.6197265903822525,2.2350615987986138,-3.862260446495162,-0.979070945027365,-1.2092266623864913,0.2883134192199165,-0.34417578618508277,0.17230221651738076,0.17360198447611247,0.07913700000000001,0.088789,-0.9195920000000001,-0.210318,0.053503999999999996,-0.9186690000000001,0.289455,0.03528500000000001,0.0009230000000000071,0.9829233109533954,0.940733202401995,double,-0.9186690000000001
132,0.55,jog,0.24310055195583835,-0.21166306695465387,-0.04775617950565364,-0.025462643458149904,0.008403841014933265,-0.2472366758986117,0.003839692824564523,0.011039116870647982,0.005519558435323991,0.06071514278859055,-0.011759059275249667,0.04703623710103031,0.331623942367462,-2.8104330779736344,0.002750976046506996,0.05738342510027296,0.6906194052548716,0.11489126620573555,8.521984675632792,-0.6905779332540746,8.004331161690825,0.07813999999999999,0.08971700000000005,-0.91937,-0.21107799999999993,0.05433700000000008,-0.918274,0.2892179999999999,0.03537999999999997,0.0010959999999999859,0.9784573505967689,0.8595429854537382,double,-0.918274
133,0.554167,jog,0.2500599952003857,-0.217182625389957,-0.04607631389488208,0.30817825311329056,0.022456185205617932,-0.1520492692854827,-0.005279577633781356,0.007199424046070329,0.0023998080153595515,0.03071754259657029,-0.010559155267615998,0.00719942404607699,1.670132768069947,-1.3245880574281832,0.40313549574552265,-2.1884498340163314,-0.9214525616937188,-0.7486802063749698,-7.19884813823394,0.2879539255180448,-9.560070327562773,0.07707600000000003,0.09065199999999995,-0.919168,-0.211992,0.05519799999999986,-0.918052,0.28906800000000005,0.0354540000000001,0.0011160000000000059,0.9845921444010564,0.933389950162006,double,-0.918052
134,0.558333,jog,0.257321171387426,-0.21603456553051423,-0.04248679788765785,0.22624635703511842,-0.11139566747675055,-0.2912887154486611,-0.0021603456553003454,0.011521843494970707,0.0040806529044654614,-0.030724915986535255,0.04656745079213331,0.010561689870379823,1.7429611586750606,0.27557845881967663,0.8616217012060073,0.7487354725110438,1.0375466752041227,0.40346732815792336,-14.748549827917786,13.712579467054551,0.8070729295013996,0.07599500000000003,0.09160000000000013,-0.9189740000000001,-0.21319199999999994,0.05629200000000001,-0.9178310000000001,0.28918699999999997,0.03530800000000012,0.0011430000000000051,0.9793123964252545,0.8939347759291927,double,-0.9178310000000001
135,0.5625,jog,0.25917926565875143,-0.21310295176385724,-0.04439644828413471,0.3373128123588808,0.038617251231604234,-0.2652590231325389,-0.006239500839938998,0.009599232061444612,-0.0009599232061444612,0.0292776577873661,-0.010799136069078563,0.007679385649147364,0.445906952561897,0.7035310215159504,-0.45827943279981825,-0.9789189307988052,-0.4613898328596304,-1.209641495226754,14.399465748476338,-13.766879496331038,-0.6916976772816024,0.07488899999999998,0.09252800000000017,-0.9187930000000001,-0.21415,0.05713500000000016,-0.917614,0.289039,0.03539300000000001,0.0011790000000000411,0.980851597146472,0.9346486242682254,double,-0.917614
136,0.566667,jog,0.25677945764337695,-0.20974322054231168,-0.041996640268786876,0.19986896142828336,-0.028444116348471587,-0.33727045385241894,-0.002159827213818377,0.012958963282936905,0.002399808015359488,0.03911687065035349,-0.011759059275302955,0.009119270458364056,-0.5759078510617865,0.80627099149161,0.5759078510553904,0.9790433468011975,0.8062709914788257,0.8062709914816232,2.361222189341808,-0.23036314044261677,0.3455447106351526,0.07381000000000004,0.09345599999999998,-0.918608,-0.21505699999999994,0.05795999999999979,-0.917401,0.288867,0.035496000000000194,0.001206999999999958,0.9777415021550668,0.9181771398792421,double,-0.917401
137,0.570833,jog,0.25684109457513554,-0.20427268362941828,-0.05736917906864836,0.08995902400962233,0.0068583153743102905,-0.3218466046401702,-0.0052808449351949074,0.015362457993240979,-0.0014402304368696728,0.031204992798839027,-0.012962073931828721,0.006000960153623914,0.01479523085899921,1.313138961328227,-3.68999971192066,-0.749164119389469,0.5769310394392875,-0.9217567096085353,-1.8991545490913246,-0.2887697207214992,-0.7485142354152998,0.072718,0.09437099999999998,-0.918375,-0.215997,0.05875699999999995,-0.917137,0.288715,0.035614000000000035,0.0012380000000000724,0.9728191906682229,0.9304220382318475,double,-0.917137
138,0.575,jog,0.26901847852171934,-0.21526277897766805,-0.05999520038396382,0.13396393281004434,-0.10340912694490904,-0.2921828831314594,0.0043196544276501905,0.013438924886022816,0.0002399808015344565,0.03791696664266726,-0.01799856011514918,0.009119270458364298,2.922338360111358,-2.6374118906287443,-0.6301947000997146,2.303935532240288,-0.4616110168510198,0.40321843974181937,1.610744862929773,-1.208659991197637,0.7483346063691968,0.07161500000000004,0.09532399999999996,-0.918124,-0.21696,0.05957900000000005,-0.916849,0.288575,0.035744999999999916,0.0012750000000000261,0.9764697766897086,0.915664665932256,double,-0.916849
139,0.579167,jog,0.26781857451403823,-0.20782337413007604,-0.07295416366692577,0.28888510680676693,-0.11862417260922009,-0.3903550039823032,0.0040796736261072995,0.011999040076819087,-0.0014398848092150266,0.031917446604283355,-0.01871850251980367,0.005519558435323991,-0.28795392552942123,1.785314338275006,-3.1099023957191867,-0.0575907851074848,-0.34554471063204173,-0.4031354957402137,-1.4397696276419156,-0.1727723553286504,-0.8638617765875402,0.07051600000000002,0.0962400000000001,-0.9178259999999999,-0.21794299999999994,0.06036700000000006,-0.916522,0.28845899999999997,0.035873000000000044,0.0013039999999999718,0.9787414090617677,0.9246085930916521,double,-0.916522
140,0.583333,jog,0.2779644743158885,-0.2239558329332866,-0.08953432549206827,0.20286850200900672,-0.2810889737574973,-0.34737308833717906,0.004560729716752576,0.015122419587115743,-0.0009601536245792267,0.04032645223234418,-0.026884301488264987,0.008641382621219704,2.435405617342837,-3.8724096983222656,-3.9798756181330996,0.11547193726482866,0.749731039437507,0.11515390893802196,2.0184843082239117,-1.960105369289801,0.749357701847266,0.06937700000000002,0.0972360000000001,-0.917457,-0.218933,0.06118800000000002,-0.916113,0.28831,0.03604800000000008,0.0013440000000000119,0.9736261006179697,0.9045088318560068,double,-0.916113
141,0.5875,jog,0.2586993040556792,-0.20422366210701431,-0.06431485481162562,0.20215625634253834,-0.2469103730382765,-0.44776913102915417,0.008399328053757375,0.019918406527490908,-0.0038396928245745146,0.044636429085677484,-0.02735781137507718,0.00887928965682794,-4.623271000770134,4.73534217093164,6.052188788203135,0.9211899056886895,1.1509447901068224,-0.6910341252688423,1.0343116998639967,-0.1136332821723518,0.05709312109628847,0.068334,0.09817000000000009,-0.9172049999999999,-0.219825,0.06192500000000001,-0.915808,0.288159,0.03624500000000008,0.0013969999999999816,0.9634078457355755,0.8975285494537445,double,-0.915808
142,0.591667,jog,0.27237820974321775,-0.21382289416845893,-0.07511399088073083,0.22606798926649962,-0.3453246761055707,-0.4606407390266042,0.0009599232061444612,0.014878809695225826,-0.005279577633789541,0.05063594912406038,-0.042476601871872424,0.006239500839932337,3.2826747510291434,-2.3036314042343506,-2.5915853297588494,-1.7853143382800232,-1.2094064872246324,-0.345544710634753,1.4397696276416725,-3.628219461673897,-0.6334986361640468,0.06720300000000001,0.09912300000000007,-0.916914,-0.22074900000000003,0.06263899999999989,-0.915469,0.28795200000000004,0.03648400000000018,0.0014450000000000296,0.9736384976349322,0.8749055190284427,double,-0.915469
143,0.595833,jog,0.2729236677868528,-0.21939510321653988,-0.08593374939989888,0.44855793275553313,-0.24736381029724622,-0.5127963954584529,0.0033605376860332127,0.015602496399419928,-0.006240998559769304,0.04680748919828644,-0.044167066730668926,0.02232357177148469,0.1309308794131188,-1.33754417860804,-2.597157589814771,0.5762396735210787,0.17371260302307262,-0.23077794670662208,-0.9189774185727417,-0.4057764903496269,3.8607947507327816,0.06608000000000003,0.10010200000000014,-0.916582,-0.22169099999999997,0.06336900000000001,-0.915018,0.287771,0.03673300000000013,0.0015640000000000098,0.9714381193013308,0.8708306023720471,double,-0.915018
144,0.6,jog,0.27717782577394007,-0.22606191504679415,-0.10607151427884307,0.5184082529577777,-0.4525941462743798,-0.5422852090624256,0.0014398848092166917,0.015838732901343647,-0.006479481641468453,0.12550995920324842,-0.07823374130065369,0.06263498920086281,1.0209162436014516,-1.599906846713277,-4.832676956790024,-0.46091981685061345,0.05669222508368535,-0.057231361098907314,18.88708183464396,-8.175347868966764,9.673966265749417,0.06493100000000002,0.10111000000000003,-0.9161670000000001,-0.22232300000000005,0.06398500000000018,-0.914315,0.28725400000000006,0.03712499999999985,0.0018520000000000758,0.9713778247135564,0.7137923191660616,double,-0.914315
145,0.604167,jog,0.2591792656587381,-0.2111831053515683,-0.09815214782817125,0.2506192035580102,-0.34709976215443045,-0.4732665278853617,-0.0011999040076872372,0.01823854091671812,-0.010319174466042967,0.05663546916246993,-0.054955603551723776,0.03647708183345289,-4.3193088829378015,3.57062867656005,1.9004959084885424,-0.6334986361660447,0.575907851061784,-0.921452561692941,-16.528555325360685,5.586306155250717,-6.277395576532211,0.06384600000000001,0.10206599999999999,-0.9158010000000001,-0.223167,0.06463600000000014,-0.9137540000000001,0.287013,0.03742999999999985,0.002047000000000021,0.9650170872639585,0.8346327928718686,double,-0.9137540000000001
146,0.608333,jog,0.26692270763322157,-0.22827652424386063,-0.10009601536245809,0.3579658721407359,-0.37683618199431124,-0.6012786753577464,0.0012001920307327777,0.01728276524245606,-0.008161305808929258,0.03672587614019914,-0.057369179068675,0.03816610657705216,1.858723469631169,-4.1030770264743905,-0.4666028646871909,0.5761152276572283,-0.22942286948201096,0.5179713531237896,-4.779066976061155,-0.5793508201995258,0.4054308073930073,0.06273900000000004,0.10308899999999999,-0.9154180000000001,-0.22412599999999994,0.06534799999999996,-0.913178,0.286865,0.037741000000000025,0.0022400000000000198,0.9680825131592177,0.8474647671700933,double,-0.913178
147,0.6125,jog,0.25485961123110135,-0.23398128149746597,-0.12407007439404505,0.5140353260474712,-0.42916002195603464,-0.546719004733657,-0.0004799616030722306,0.0172786177106003,-0.009839212862970736,0.054715622750181,-0.05903527717781776,0.06935445164386905,-2.8949115435853443,-1.3690322182878072,-5.753313902468629,-0.4032046157439394,-0.0009953280191409345,-0.40266547973157335,4.317193810890742,-0.39983155966948464,7.48460404771218,0.061675000000000035,0.104136,-0.914942,-0.22495999999999994,0.06607699999999994,-0.9123720000000001,0.286635,0.038059000000000065,0.002569999999999961,0.9668508797296074,0.7972171310812076,double,-0.9123720000000001
148,0.616667,jog,0.25317974562036194,-0.24622030237580775,-0.08039356851454083,0.7012551875466353,-0.529299747098506,-0.6774839257642662,0.005759539236853599,0.013678905687538954,-0.009599232061434877,0.05615550755938587,-0.07727381809453794,0.07391408687305055,-0.4031354957378061,-2.9371300403988507,10.481522889250073,1.4973604127492077,-0.8638617765926121,0.057590785105798854,0.3455447106323253,-4.376899668039484,1.0942249170102198,0.060643999999999976,0.10521899999999995,-0.914647,-0.225781,0.06678099999999998,-0.911729,0.286425,0.03843799999999997,0.002917999999999976,0.9705405170333369,0.7695188420409413,double,-0.911729
149,0.620833,jog,0.23523763802207878,-0.24651944311092425,-0.10921747479596323,0.6913280316212587,-0.42288609395329085,-0.609996548870149,0.005760921747485354,0.01464234277481197,-0.00912145943351015,0.06865098415746718,-0.0924147863658376,0.09145463274123838,-4.306794910773679,-0.07180526527040292,-6.918844522664999,0.00033185564852476865,0.23126190284997972,0.11468378010675158,2.999394286625371,-3.634413891334528,4.210404673112775,0.05968800000000002,0.10630699999999993,-0.91423,-0.22647499999999998,0.06742300000000001,-0.910893,0.286163,0.03888399999999992,0.0033370000000000344,0.9696873952000479,0.7215823843624865,double,-0.910893
150,0.625,jog,0.2927765778737676,-0.24094072474201997,0.20758339332853326,4.866835514458135,-0.6958939453880778,-0.35985909493207596,0.007919366450685144,0.014638828893709694,-0.011759059275257994,0.022558195344381516,-0.06407487401008284,0.0722342212622991,13.808240905132799,1.3387853057125596,76.0261262597778,0.5179852899447502,-0.0008432640034260403,-0.6329733241535455,-11.061384404388123,6.801034882590482,-4.612529752565187,0.058501000000000025,0.10737200000000002,-0.915144,-0.22760099999999994,0.06816,-0.911457,0.28610199999999997,0.039212000000000025,0.003686999999999996,0.9660356742956435,0.7978672094547088,double,-0.911457
151,0.629167,jog,0.2037437005039554,-0.24310055195582503,-0.09959203263737462,0.957871423764541,-0.4008552037417375,-0.4360410581147859,0.010559155267575752,0.016078713702913066,-0.01271898248140079,0.08855291576672664,-0.07031437484998188,0.12790976721862124,-21.366181274252824,-0.5183170659479346,-73.7162049354225,0.633498636162848,0.345544710631956,-0.23036314042303524,15.837465904090381,-1.4973604127427373,13.361062144545647,0.057696000000000025,0.10845199999999999,-0.9147820000000001,-0.22808099999999998,0.06888000000000005,-0.910509,0.285777,0.03957199999999994,0.004273000000000082,0.9615655930452356,0.6727302217261149,double,-0.910509
152,0.633333,jog,0.18026884301488266,-0.29212674027845,-0.4080652904464795,-2.7402585950584237,0.0018736884761462221,-0.8414880150233754,0.0072011521843433676,0.011761881901095944,-0.011041766682668602,0.16298607777243992,-0.130100816130591,0.2009121459433502,-5.634867376157639,-11.768168104326673,-74.04542914284796,-0.8060497079290404,-1.036205425304157,0.40259620708885885,17.866817572182725,-14.35104207407803,17.523374633876355,0.056975,0.10971799999999998,-0.913128,-0.228153,0.06955500000000003,-0.907972,0.285128,0.04016299999999995,0.005156000000000049,0.9705551801333838,0.46580724827644077,single,-0.907972
153,0.6375,jog,0.17998560115191808,-0.24646028317737717,-0.1622270218382584,0.382723499465707,-0.4428543894512662,-0.3327972287150628,0.006479481641468625,0.01295896328293725,-0.01007919366450712,0.1466282697384305,-0.11663066954643525,0.15094792416607067,-0.06797260930275587,10.959072978419409,58.99646474879428,-0.17318707532391553,0.28727654951795745,0.23099904443520533,-3.9255598833716694,3.2325765740715133,-11.990453990228096,0.05625199999999997,0.11079900000000009,-0.912494,-0.228292,0.07009600000000016,-0.906667,0.28454399999999996,0.040702999999999934,0.005827000000000027,0.9705839916675515,0.5407318066839621,double,-0.906667
154,0.641667,jog,0.16918646508279478,-0.2694984401247844,-0.15262778977680946,0.47384759239590474,-0.4393613254318852,-0.3085287232592031,0.0014398848092166917,0.007919366450671823,-0.014398848092153596,0.15526757859370008,-0.10607151427886971,0.18886489080873292,-2.5915853297631926,-5.528715370148084,2.30363140423539,-1.2094064872214771,-1.2094064872247152,-1.036634131904594,2.0732682638035813,2.533994544652138,9.099344046715133,0.055552999999999964,0.11195500000000003,-0.911918,-0.22835000000000005,0.07077700000000009,-0.905244,0.283903,0.04117799999999994,0.006673999999999958,0.9725067452906497,0.4890718076386807,single,-0.905244
155,0.645833,jog,0.21435429668746436,-0.3278924627940416,0.3041286605856978,6.061693521686396,-0.8005579060363235,-0.36908548492303084,0.0036005760921716838,0.0067210753720928955,-0.011521843494959048,0.13034085453674288,-0.07441190590495253,0.26764282285165725,10.842014307409878,-14.016808129922504,109.6390903414563,0.5186488917318748,-0.28763588059983847,0.6905915979823682,-5.983371113047811,7.599521933249438,18.909729246981342,0.054674999999999974,0.11334900000000014,-0.9132330000000001,-0.22869999999999996,0.07183300000000004,-0.9053960000000001,0.28337499999999993,0.04151600000000011,0.007836999999999983,0.9769728493660199,0.42162999999999995,single,-0.9053960000000001
156,0.65,jog,0.17014638828893922,-0.29253659707219815,-0.12383009359252892,0.7804675826613628,-0.4433085921432893,-0.38495465986720256,-0.0035997120230350688,0.0057595392368134804,-0.01271898248140079,0.12526997840170565,-0.05039596832254425,0.18886489080873292,-10.609049291702618,8.484728994922772,-102.70188485198547,-1.7279309131765535,-0.23075021245006186,-0.2872903735161344,-1.2169129193753767,5.7633639506618906,-18.905191274999694,0.05395099999999997,0.1145919999999998,-0.91277,-0.22888700000000006,0.07284199999999985,-0.904093,0.28283800000000003,0.041749999999999954,0.008676999999999935,0.9759686122937707,0.5262823000738656,double,-0.904093
157,0.654167,jog,0.1490280777537744,-0.29445644348454036,-0.484041276697845,-3.367317052834185,0.13028043657235225,-0.8458429721082015,-0.0011999040076739157,0.003599712023061712,-0.012479001679866339,0.22606191504679415,0.008639308855326794,0.19534437245020303,-5.067989089312369,-0.4607262808596602,-86.4437684437997,0.5759078510585877,-0.5183170659351457,0.057590785105459286,24.188129744441504,14.167333136038058,1.5549511978569857,0.05332500000000001,0.11583399999999999,-0.9108050000000001,-0.22856600000000005,0.07410500000000009,-0.901262,0.28189100000000006,0.041728999999999905,0.00954300000000008,0.9782614538969552,0.40641214087164274,single,-0.901262
158,0.658333,jog,0.14234277484398117,-0.2813250120019158,-0.1514642342774999,0.2089978826184983,-0.28012322730390166,-0.31635141520860643,0.00024003840613856707,0.0031204992798946458,-0.015122419587134468,0.31469035045609606,-0.17354776764283436,0.27820451272204283,-1.6047294550632305,3.1520478834913392,79.83126318299418,0.3456414819521172,-0.11502946307419074,-0.6345218212357652,21.27422837477297,-43.73189546283386,19.889616003802676,0.052732999999999974,0.11701899999999998,-0.910237,-0.227848,0.07455400000000001,-0.899472,0.28058099999999997,0.042464999999999975,0.010764999999999914,0.9742618577268853,0.39235,single,-0.899472
159,0.6625,jog,0.13990880729541535,-0.2740580753539639,-0.17638588912887823,0.03009085362439132,-0.2527183884007247,-0.19771635896019543,0.0021598272138316985,0.00023998080151613289,-0.01271898248140079,0.17302615790735928,-0.07943364530839422,0.2615790736741026,-0.5841054832171333,1.7439252814859143,-5.98071870683421,0.4607124568498,-0.6912691332801754,0.5767787630750324,-33.99668647677842,22.585582513664367,-3.9897861886105352,0.05215900000000001,0.11816199999999988,-0.909555,-0.22771000000000002,0.0753649999999999,-0.897647,0.27986900000000003,0.042796999999999974,0.01190800000000003,0.9784945123449795,0.38092000000000004,single,-0.897647
160,0.666667,jog,0.1346292296616208,-0.2781377489801112,-0.1838252939764645,0.10692732840679256,-0.27996112049152816,-0.3155494428230525,0.0009599232061444612,0.002879769618460027,-0.019678425725941473,0.3654907607391506,-0.187664986801069,0.31197504199664017,-1.2669972723288965,-0.9790433468075882,-1.7853143382736274,-0.2879539255308923,0.6334986361756357,-1.6701327680683058,46.187809654857176,-25.97344408271513,12.094064872219146,0.05160200000000004,0.11933300000000013,-0.908871,-0.22674799999999995,0.07574199999999998,-0.895581,0.27835,0.04359100000000016,0.013290000000000024,0.9668147052032708,0.3671,single,-0.895581
161,0.670833,jog,0.13130100816131043,-0.2902064330292882,-0.13826212193951526,0.2117721543136093,-0.38273370177489713,-0.262719248816575,-0.0014402304368713384,-0.001440230436911313,-0.013442150744119167,0.22803648583773542,-0.09745559289484065,0.30772923667786617,-0.7989009842319651,-2.896947683431838,10.936911194658954,-0.5761290549725872,-1.036965927837575,1.4969455069184592,-32.994305065150044,21.653719132555995,-1.0191563415204021,0.05104900000000001,0.12053599999999998,-0.908351,-0.22634499999999996,0.07654500000000009,-0.893723,0.277394,0.04399099999999989,0.014627999999999974,0.9773406908969258,0.35372000000000003,single,-0.893723
162,0.675,jog,0.12814974802015236,-0.2877369810415025,-0.1619870410367113,0.034985236269250646,-0.2899927510120045,-0.2967506214499744,-0.0019198464122889224,-0.000959923206117818,-0.012239020878330224,0.3316534677225783,-0.16798656107509422,0.30405567554595503,-0.7562419345231702,0.5926210673831723,-5.693525101318901,-0.11509862621012247,0.11526451422929955,0.2887280695437806,24.86608636545287,-16.926078276998567,-0.8815841449270728,0.050507000000000024,0.12173100000000003,-0.9077270000000001,-0.22549699999999995,0.07704400000000011,-0.891781,0.27600399999999997,0.04468699999999992,0.015946000000000016,0.9792903072298242,0.34053999999999995,single,-0.891781
163,0.679167,jog,0.14014878809696185,-0.31005519558437616,-0.1701463882889571,-0.3916407047921737,-0.41598998098530504,-0.24514106623284587,-0.0019198464122889736,0.0014398848092034085,-0.021598272138229305,0.44996400287976857,-0.2327813774898382,0.29925605951524403,2.8795392552939094,-5.355943014848587,-1.9580866936035388,-1.2280859741136737e-14,0.5759078510490214,-2.246040619126292,28.39225705716163,-15.549511978580568,-1.1518157021144917,0.04991499999999999,0.12302900000000005,-0.9071079999999999,-0.22420600000000002,0.07736600000000005,-0.889825,0.274121,0.04566300000000001,0.017282999999999937,0.9637813569388957,0.32717,single,-0.889825
164,0.683333,jog,0.13106096975515855,-0.3094095055208528,-0.1742678828612321,-0.11937493676598532,-0.1645418252700523,-0.2703903566578477,-0.005760921747485354,-0.003600576092145034,-0.013202112337973944,0.3542966874700028,-0.18530964954392568,0.3041286605856945,-2.181425430101608,0.15499041371180625,-0.9893169880640915,-0.9220056013433454,-1.2099042009957846,2.015400816191876,-22.963829911129544,11.395037913085094,1.1696113947312654,0.04934499999999997,0.12430300000000005,-0.906437,-0.22327599999999997,0.07788299999999992,-0.8878320000000001,0.27262099999999995,0.04642000000000013,0.018604999999999983,0.9752541733170318,0.31394999999999995,single,-0.8878320000000001
165,0.6875,jog,0.13054955603551352,-0.30813534917207897,-0.15910727141830458,-0.1466766556022035,-0.20778497712521693,-0.3869036292932454,-0.009359251259888514,-0.003359731221545579,-0.014878809695224161,0.4134869210462937,-0.215982721382264,0.29733621310295044,-0.12272947435685684,0.30577306186076414,3.638255685847709,-0.8635300005767058,0.057798145092261374,-0.4023751757259909,14.204519696733966,-7.360948365331912,-1.6300569912992546,0.04876200000000003,0.12557299999999993,-0.905836,-0.22209700000000004,0.07826700000000009,-0.88593,0.27085900000000007,0.04730599999999985,0.01990599999999998,0.9701735410167113,0.30093999999999993,single,-0.88593
166,0.691667,jog,0.15550755939524286,-0.3292536597072038,-0.15478761699064117,-0.07045335031274336,-0.19026702065383938,-0.3932352818044159,-0.004319654427650075,-0.0043196544276101105,-0.0175185985121181,0.3990880729541801,-0.3016558675306105,0.3875689944804366,5.989441651002915,-5.067989089302784,1.036634131908658,1.2094064872182386,-0.23036314040425346,-0.6334986361636478,-3.4554471063387338,-20.55991028278039,21.654135199780526,0.04809600000000003,0.126927,-0.905264,-0.22108199999999995,0.07838199999999995,-0.88367,0.269178,0.04854500000000006,0.021594000000000002,0.9690780497516968,0.2840600000000001,single,-0.88367
167,0.695833,jog,0.16130580892943,-0.3446951512241939,-0.1797887662025922,-0.34310151160862074,-0.2890458551018544,-0.3446985090920099,-0.005520883341333468,-0.0064810369659143606,-0.015122419587134063,0.4882381180988907,-0.2635621699472018,0.3326932309169461,1.3918025766171724,-3.7065510122395775,-6.001236008629626,-0.2883410738558311,-0.5188148195641499,0.5751749699913673,21.399434744289625,9.143950452090428,-13.172290821769193,0.047401000000000026,0.128336,-0.904578,-0.21971999999999997,0.0787199999999999,-0.881535,0.267121,0.049616000000000104,0.023043000000000036,0.9710761744120344,0.2695700000000001,single,-0.881535
168,0.7,jog,0.10535157187425752,-0.38852891768660136,-0.009359251259902085,3.498277830172411,-0.48527202152270077,-0.2595697568130899,-0.007679385649155894,-0.0031197504199762427,-0.01823854091672693,0.5061195104391811,-0.2438204943604332,0.2906167506599536,-13.427942657829025,-10.519262409985187,40.899811601318305,-0.5179991139482762,0.8066442394860047,-0.7478092943587539,4.291190866400466,4.737623130974067,-10.09754745788175,0.04692999999999997,0.129942,-0.904615,-0.21804999999999997,0.07932300000000003,-0.880285,0.26497999999999994,0.05061899999999997,0.024329999999999963,0.9666104565019673,0.25670000000000004,single,-0.880285
169,0.704167,jog,0.1202303815694672,-0.3566114710823343,-0.1600671946244224,-0.2728884379567194,0.04979135960734261,-0.11414977525184715,-0.005519558435323991,-0.0059995200383829005,-0.018478521718262562,0.5250779937604874,-0.31845452363812526,0.3501319894408425,3.5706286765561734,7.6595744190705055,-36.167013046440886,0.5183170659543764,-0.6910894212638915,-0.05759078510574237,4.549672023351592,-17.910734167912523,14.282514706236723,0.046406,0.13140300000000016,-0.904025,-0.21636299999999997,0.07948200000000005,-0.878159,0.262769,0.051921000000000106,0.025865999999999945,0.9663384685886671,0.24134,single,-0.878159
170,0.708333,jog,0.16634661545847304,-0.35621699471911134,-0.13538166106577257,0.15132680496637596,-0.08458501956631755,-0.4273119063954561,-0.0021603456553003454,-0.00816130580895091,-0.012962073931828721,0.5302448391742715,-0.3617378780604714,0.366298607777244,11.069667280126213,0.09468947748991452,5.925476130256796,0.8063400816187334,-0.518911610794049,1.3241593342375988,1.2402413379222492,-10.389667408148373,3.880609298224069,0.04570400000000002,0.1328529999999999,-0.903515,-0.21484699999999995,0.07945899999999995,-0.876069,0.260551,0.05339399999999994,0.02744599999999997,0.9742183653612917,0.22554000000000002,single,-0.876069
171,0.7125,jog,0.14686825053995603,-0.3772498200144269,-0.15694744420444623,0.04228163672843707,-0.13584942358357524,-0.1308523026961143,-0.006479481641468453,-0.011759059275249667,-0.016318694504440855,0.5668346532277315,-0.40820734341251247,0.38660907127429545,-4.674433625753987,-5.047474272933867,-5.175373923367769,-1.0365097159030656,-0.8633917605708494,-0.8055244954672687,8.780852904597982,-11.151779542126397,4.8741213095875455,0.04506500000000002,0.13437600000000005,-0.9029290000000001,-0.21309699999999998,0.07933000000000012,-0.873804,0.258162,0.05504599999999993,0.029125000000000068,0.964780097651792,0.20875,single,-0.873804
172,0.716667,jog,0.14470842332613765,-0.3777297816174592,-0.1559875209983284,-0.10699383651380528,0.019036271863851383,-0.2438953570592984,-0.005519558435323991,-0.0071994240460701376,-0.01631869450443919,0.6222702183825142,-0.5022798176146164,0.42908567314614454,-0.5183170659511318,-0.11518157020212631,0.23036314041704137,0.23036314042343511,1.094224917009718,3.9964831699969335e-13,13.30347135943898,-22.575587761483845,10.193568963726607,0.044439000000000006,0.13592000000000004,-0.902347,-0.21110700000000004,0.07881099999999996,-0.871366,0.25554600000000005,0.057109000000000076,0.030981000000000036,0.9688820781254193,0.19019000000000003,single,-0.871366
173,0.720833,jog,0.11713874219875206,-0.3754200672107392,-0.17834853576573895,-0.49923978045279704,0.06105456166908386,-0.008078157964625047,-0.000960153624580918,-0.00960153624580918,-0.01608257321171372,0.6718674987998244,-0.4906385021603427,0.39966394623140733,-6.617782315743232,0.5544201648391909,-5.367502344553796,1.0944322637405643,-0.5765991838067941,0.05667817876271659,11.905252140497252,2.794362807074883,-7.062344434646658,0.043947000000000014,0.1374439999999999,-0.901671,-0.20879600000000004,0.07833099999999993,-0.8689579999999999,0.25274300000000005,0.05911299999999997,0.0327130000000001,0.9687411988228153,0.17287000000000002,single,-0.8689579999999999
174,0.725,jog,0.16510679145668747,-0.3662107031437789,-0.14326853851690763,0.18539435342005495,0.06771450494015047,-0.3298253901447555,-0.0035997120230350688,-0.011519078473733534,-0.01631869450443919,0.7508999280057654,-0.5687544996400205,0.40556755459562854,11.511410909031687,2.2100705704248136,8.41852585765084,-0.6334433401617785,-0.4601733208361746,-0.05666457708794562,18.966265708169043,-18.746339687947476,1.4167526671997044,0.043244000000000005,0.138922,-0.901142,-0.206355,0.07748700000000008,-0.866671,0.24959900000000002,0.061434999999999906,0.03447100000000003,0.9661725421414452,0.1552900000000001,single,-0.866671
175,0.729167,jog,0.1387089032877281,-0.385649148068131,-0.13654907607392305,0.2922869412758649,0.11154256729616883,-0.05377303286074973,0.0014398848092166917,-0.01511879049674196,-0.016558675305975303,0.761219102471785,-0.604511639068855,0.3777297816174692,-6.334986361641265,-4.664853593556982,1.612541982957649,1.2094064872214356,-0.8638617765798894,-0.0575907851058581,2.476403759543921,-8.581026980761758,-6.680531072272416,0.04267200000000004,0.14046599999999998,-0.9006419999999999,-0.20376100000000003,0.07657500000000006,-0.864528,0.24643300000000007,0.06389099999999992,0.03611399999999998,0.9625522281393841,0.13886000000000004,single,-0.864528
176,0.733333,jog,0.0482477196351432,-0.39222275564093473,-0.19779164666345062,-0.5792032640807224,0.20606517125490978,0.4756577580697675,0.0026404224675907915,-0.014402304368686735,-0.01632261161786018,0.8091694671147409,-0.6603456553048891,0.3665386461833892,-21.714158341955073,-1.5779182843983979,-14.70056903253181,0.28817514603314903,0.17198418820336642,0.05666435144386028,11.509929102965877,-13.402308265970735,-2.686302312549196,0.04248200000000002,0.14204000000000017,-0.899886,-0.20059100000000002,0.07545800000000003,-0.862177,0.24307300000000004,0.06658200000000014,0.03770899999999999,0.9634537639891012,0.12290999999999996,single,-0.862177
177,0.7375,jog,0.13030957523398407,-0.3858891288696471,-0.17470602351813208,-0.4995207039343433,0.15139364243364534,-0.022049580808939206,-0.0026397888168906074,-0.014878809695225826,-0.010559155267577417,0.8764098872090138,-0.7444204463642703,0.3479721622270175,19.693269882131084,1.5199488292026824,5.540106346368696,-1.2671493363286197,-0.1143521301989651,1.383118874557888,16.136409909832583,-20.176335747391544,-4.455599701553056,0.04192800000000002,0.143586,-0.899202,-0.19748200000000005,0.07396399999999992,-0.859999,0.23941000000000007,0.06962200000000007,0.03920299999999999,0.9692752713189208,0.10797000000000007,single,-0.859999
178,0.741667,jog,0.13006959443244473,-0.40868730501560896,-0.16918646508278595,0.12170222806776078,0.25227263579100884,0.2246010262610704,-0.0007199424046150258,-0.017038636909084623,-0.011519078473722185,0.8632109431245838,-0.7674586033117579,0.3026157907367464,-0.057590785106633124,-5.471124585064144,1.3245880574385007,0.46072628084368084,-0.5183170659608441,-0.23036314042351472,-3.1674931808087976,-5.528715370167507,-10.884658384994474,0.041383,0.14521799999999985,-0.898545,-0.19442699999999996,0.0724689999999999,-0.858033,0.23580999999999996,0.07274899999999995,0.04051199999999999,0.9657005574361237,0.09488000000000008,single,-0.858033
179,0.745833,jog,0.12506000960153463,-0.41238598175710683,-0.15050408065291496,0.222803799732959,0.3001315558986556,0.14035334323066564,0.009121459433505152,-0.017522803648581296,-0.015122419587134063,0.8797407585213431,-0.8134901584253149,0.30028804608737425,-1.202492758259745,-0.8878244698746693,4.484489781534081,2.3623144114546735,-0.11621861245719468,-0.8649402576600758,3.9677905417089145,-11.049341121833178,-0.5587481155477989,0.04089999999999999,0.14686299999999997,-0.8979809999999999,-0.19128300000000004,0.07079800000000014,-0.856155,0.23218300000000003,0.07606499999999983,0.04182599999999992,0.9585359176825844,0.08174000000000009,single,-0.856155
180,0.75,jog,0.10607151427885639,-0.4022078233741296,-0.20038396928243646,-0.6797383563444426,0.058080291710404186,0.3215563432390615,0.06479481641469785,-0.036237101031920106,-0.04919606431485535,0.9155267578593673,-0.8800095992320756,0.2778977681785451,-4.556874327496543,2.4425626069059696,-11.970215653832762,13.360536832539543,-4.491072086234381,-8.177020573007205,8.587952804901345,-15.96338872252463,-5.373236839171818,0.04072800000000004,0.14838799999999996,-0.897351,-0.18791000000000002,0.06880700000000006,-0.8541620000000001,0.22863800000000006,0.0795809999999999,0.04318899999999992,0.8515660596849434,0.06810999999999995,single,-0.8541620000000001
181,0.754167,jog,0.1615070794336524,-0.4326853851691829,-0.1955843532517408,-0.030896341014621242,0.1611434080665436,0.0985117962799709,0.03575713942883455,-0.029517638588882233,-0.023518118550515988,0.9227261819054374,-0.9354451643868316,0.24622030237580786,13.303471359442183,-7.314029708436071,1.1518157021107776,-6.968484997807314,1.6125419829704395,6.162214006320894,1.7277235531725574,-13.303471359432585,-7.6019836339661655,0.04020399999999996,0.1500680000000001,-0.896634,-0.18473800000000007,0.0667120000000001,-0.852321,0.22494200000000003,0.08335599999999999,0.04431300000000005,0.91334990690277,0.056869999999999976,single,-0.852321
