frame_id,timestamp,gait_type,root_linear_velocity_x,root_linear_velocity_y,root_linear_velocity_z,root_angular_velocity_x,root_angular_velocity_y,root_angular_velocity_z,left_linear_velocity_x,left_linear_velocity_y,left_linear_velocity_z,right_linear_velocity_x,right_linear_velocity_y,right_linear_velocity_z,root_acceleration_x,root_acceleration_y,root_acceleration_z,left_acceleration_x,left_acceleration_y,left_acceleration_z,right_acceleration_x,right_acceleration_y,right_acceleration_z,left_pos_rel_x,left_pos_rel_y,left_pos_rel_z,right_pos_rel_x,right_pos_rel_y,right_pos_rel_z,step_length,step_width,step_height,left_contact_prob,right_contact_prob,support_type,max_foot_height
1,0.004167,jog,-0.02183825293978,-0.07247420206384077,0.0069594432445540585,-0.24192791301265656,-0.09553147996439168,0.16411094906789758,0.0038396928245778743,-0.0019198464122889372,0.0007199424046076229,0.00047996160303226946,0.00023998080156942118,-0.0023998080153586738,0.0,0.0,0.0,0.0,0.0,0.0,0.0,0.0,0.0,-0.049501999999999935,-0.09993800000000008,-0.92178,0.08638799999999991,0.11534200000000006,-0.9165260000000001,0.13588999999999984,0.21528000000000014,0.005253999999999981,0.9927452375221044,0.9433615475698182,double,-0.9165260000000001
2,0.008333,jog,-0.03384541526642984,-0.07681228996636484,0.005520883341333472,-0.17270429510541452,-0.14335246095344226,0.11461375982827043,0.0019203072491617858,-0.0016802688429832506,0.002160345655304823,0.0016802688430365498,-0.00024003840617853526,-0.0021603456553049272,-2.8821801072131157,-1.0413077058387117,-0.3453096263131509,-0.46072625430054925,0.05750781788422623,0.34575210050340854,0.28811983677491126,-0.11522304554679702,0.05748016323901741,-0.04935299999999998,-0.09962500000000007,-0.921794,0.08653599999999995,0.11566099999999979,-0.9165580000000001,0.13588899999999993,0.21528599999999987,0.005235999999999907,0.9944277531296517,0.9430610581123671,double,-0.9165580000000001
3,0.0125,jog,-0.037437005039607625,-0.08591312694986332,0.005039596832238476,-0.029334823731939113,-0.05169329036781563,0.10158584002976168,0.0031197504199761833,-0.0023998080153744927,0.0007199424046077269,0.0031197504199761833,-0.0026397888168906273,0.0002399808015361171,-0.8619125925552639,-2.1840261539473187,-0.1154995222210212,0.28784333352877306,-0.1726755873269119,-0.34566912663717203,0.3454479426301016,-0.575894027048738,0.5760322670604858,-0.049183999999999894,-0.09927700000000006,-0.921812,0.08670500000000003,0.11600799999999989,-0.916578,0.13588899999999993,0.21528499999999995,0.005233999999999961,0.9933312007037021,0.9408370569917397,double,-0.916578
4,0.016667,jog,-0.025437964962788447,-0.06455483561316887,0.008399328053757437,-0.11431767711448702,-0.15878018712478537,0.2600647669698155,0.004079673626094008,0.00023998080156942112,0.0021598272138228683,0.002879769618406762,0.00047996160308555583,0.0,2.8795392552961787,5.125579874416714,0.8062709914852316,0.23036314041704453,0.6334986361756452,0.3455447106347831,-0.05759078511385202,0.7486802063777737,-0.057590785105859625,-0.04906100000000002,-0.09900699999999985,-0.9218379999999999,0.08682299999999987,0.11627900000000002,-0.916613,0.1358839999999999,0.21528599999999987,0.005224999999999924,0.9922960722005412,0.9428841792414574,double,-0.916613
5,0.020833,jog,-0.031445031205017585,-0.06337013922228565,0.009841574651960817,-0.24715192385399581,-0.12437418659017363,0.22904961176818367,0.0028804608737160297,-0.002640422467644093,0.0009601536245799563,-0.00024003840612523607,0.0,0.0009601536245796439,-1.441926606392016,0.28437263343332064,0.3461945747007634,-0.28785711770954836,-0.6914074097968109,-0.28796773625609984,-0.7488737456869895,-0.11520921821544788,0.23047374569842632,-0.04891800000000002,-0.09875400000000001,-0.921875,0.08695300000000006,0.11654300000000006,-0.9166500000000001,0.13587100000000008,0.21529700000000007,0.005224999999999924,0.9932937051471019,0.946100493828774,double,-0.9166500000000001
6,0.025,jog,-0.03431725461963144,-0.0873530117590134,0.004079673626094008,-0.08277691828229342,-0.051369336562617864,0.12701637205550897,-0.0011999040076872464,-0.002879769618406762,0.00023998080153580487,0.002879769618406762,0.0,-0.0009599232061432195,-0.6892784772291474,-5.755428974496699,-1.3827456265579094,-0.9792092347980024,-0.05743872108535369,-0.17282765131849084,0.7486940303652502,0.0,-0.4607815768473394,-0.048780000000000046,-0.0984020000000001,-0.921891,0.08710799999999996,0.11690699999999987,-0.916671,0.135888,0.21530899999999997,0.005220000000000002,0.9947850552714477,0.9427407604829297,double,-0.916671
7,0.029167,jog,-0.03479721622266374,-0.08519318454526169,0.004559635229179568,-0.09333302876456354,-0.10701160084723188,0.13193708284722555,0.004079673626147298,0.0014398848092033823,-0.0016798656107511558,-0.0009599232061178259,-0.0002399808015161349,-0.0007199424046079356,-0.1151815702021356,0.5183170659351368,0.11518157021491726,1.2669972723385046,1.0366341318958836,-0.46072628084640316,-0.9214525616809672,-0.05759078510106433,0.057590785105659716,-0.04861800000000005,-0.09804100000000004,-0.921917,0.08724899999999991,0.11726100000000006,-0.916693,0.13586699999999996,0.2153020000000001,0.005224000000000006,0.9922649869586692,0.9457205553501746,double,-0.916693
8,0.033333,jog,-0.0991358617378772,-0.08641382621217371,-0.12289966394622097,1.3920348086334222,-0.9407559567611289,-0.08340174438339716,0.004800768122877812,-0.000480076812303771,0.002640422467594851,0.0016802688430365487,0.0012001920307327777,-0.002880460873739762,-15.443745922998898,-0.2930008801997166,-30.595127022419693,0.17309037367511118,-0.46086452748611423,1.037035064413347,0.6337474913956728,0.34569679122633495,-0.5186074097772023,-0.048185000000000144,-0.09768300000000019,-0.921394,0.087669,0.11762600000000001,-0.916193,0.13585400000000014,0.2153090000000002,0.005201000000000011,0.9908333819512303,0.9420831256759933,double,-0.916193
9,0.0375,jog,-0.0482361411087396,-0.08111351091916769,-0.01847852171826105,0.05402810579136534,-0.08428588863419835,-0.031980677451669826,0.0016798656107728034,-0.0014398848092033823,-0.00215982721382287,0.0009599232061178259,0.001679865610719517,0.0014398848092154548,12.214955754532669,1.2719739124084535,25.059069409157665,-0.7489566863702929,-0.23033549241651355,-1.1519677661189645,-0.17286912333062715,0.11511245020080145,1.0368000199076601,-0.047976999999999936,-0.09735099999999997,-0.921326,0.08787400000000001,0.11797100000000005,-0.91611,0.13585099999999994,0.215322,0.005215999999999998,0.9948467727674781,0.9438203713218994,double,-0.91611
10,0.041667,jog,-0.03863690904729484,-0.06983441324689678,-0.01607871370291317,0.13420859082121767,-0.050576128828700745,0.10507601947526536,-0.0009599232061711108,-0.0021598272138050696,0.00047996160307171344,-0.0007199424046016899,-0.0016798656107195142,0.0,2.303631404234401,2.7067668999930157,0.575907851055406,-0.6334986361756447,-0.1727723553159795,0.6334986361638063,-0.40313549573302476,-0.8062709914660495,-0.34554471063485803,-0.047819999999999974,-0.09706900000000007,-0.921257,0.08803200000000011,0.118255,-0.9160429999999999,0.13585200000000008,0.21532400000000007,0.005214000000000052,0.9959803713218542,0.9448139344429514,double,-0.9160429999999999
11,0.045833,jog,-0.04752760441668762,-0.06577052328375126,-0.011521843494944077,0.17429493519891226,-0.03338308988357066,0.11738327513011736,-0.00360057609214504,-0.0009601536246075436,-0.0033605376860297975,-0.0004800768123037718,0.0019203072491617878,0.0,-2.1341083459896284,0.9754896695020467,1.09382386173046,-0.6338581099313327,0.2879677362452057,-0.9218673281568686,0.05757695446421468,0.8641797551323345,0.0,-0.04763699999999993,-0.09679900000000008,-0.921223,0.08822799999999997,0.11853700000000011,-0.915995,0.1358649999999999,0.2153360000000002,0.00522800000000001,0.9916368439109057,0.9444209876575225,double,-0.915995
12,0.05,jog,-0.05471562275015472,-0.07775377969762194,-0.014638828893709791,0.2422456450312989,0.00871194104387526,0.09372710838734236,-0.0019198464122889352,-0.0009599232061178244,0.0011999040076794397,0.00023998080156942094,0.001199904007633959,0.0014398848092150361,-1.7249864011200124,-2.8757514792106247,-0.748016654371421,0.40334285573700585,5.529601385148997e-05,1.0944184530139747,0.17280000332929973,-0.1728829473308923,0.34554471063475756,-0.04741700000000004,-0.09647899999999998,-0.921157,0.08845700000000001,0.11886599999999992,-0.915928,0.13587400000000005,0.2153449999999999,0.005229000000000039,0.9959015475698247,0.9445606487985326,double,-0.915928
13,0.054167,stand,-0.015598752099880929,-0.029517638588935767,0.10223182145429272,-1.652791003207507,0.6555509697603173,0.21186620551527532,-0.00023998080156942131,0.0009599232061178259,0.0,-0.0009599232061711124,-0.0014398848092033823,0.0031197504199666107,9.387297972227937,11.575747806260189,28.0467123465329,0.40313549573302493,0.4607262808340897,-0.2879539255290234,-0.2879539255436847,-0.6334986361500704,0.4031354957407189,-0.04735299999999998,-0.096352,-0.921583,0.0885180000000001,0.11898300000000006,-0.916341,0.13587100000000008,0.21533500000000005,0.00524200000000008,0.9983508896786066,0.9416340481772136,double,-0.916341
14,0.058333,jog,-0.041286605856898424,-0.07873259721552657,-0.0064810369659143606,-0.055033980104718015,-0.07135930735121565,0.19080210886899493,-0.0012001920306794786,0.0002400384061785351,0.002880460873739762,0.0036005760921983335,0.0016802688430365487,-0.003120499279884985,-6.166071473119893,-11.81348022721814,-26.095261262651704,-0.23048757299809328,-0.17279999998542736,0.6914212370954776,1.0946949828059154,0.7489567096111207,-1.4978995918990858,-0.04718599999999995,-0.09602299999999997,-0.921544,0.08870500000000003,0.11931800000000004,-0.916327,0.13589099999999998,0.215341,0.005217000000000027,0.9947838034844202,0.939409626668287,double,-0.916327
15,0.0625,jog,-0.042236621070303355,-0.09191264698824633,-0.003839692824577877,-0.08791856986829129,0.026953955683580683,0.10969706917189666,-0.00023998080156942131,0.001679865610719517,0.0,0.0021598272138050735,0.0002399808015161349,0.0014398848092154548,-0.2279854123841929,-3.162958908740046,0.6338718841700229,0.23043226040558146,0.3455308866189064,-0.6912553092728015,-0.34575207064873076,-0.3456414786466078,1.0944046290137852,-0.047011000000000136,-0.09563300000000008,-0.921528,0.08888999999999991,0.11970199999999998,-0.916305,0.13590100000000005,0.21533500000000005,0.005222999999999978,0.9971717991313676,0.9434252353847166,double,-0.916305
16,0.066667,jog,-0.029757619390451854,-0.07967362610991088,0.0074394048476129635,-0.25596732944642436,-0.0447221472595858,0.24636349871807764,-0.004799616030695695,0.00023998080156942094,-0.0019198464122869578,0.00023998080151613449,0.0,-0.0004799616030718175,2.9947208254983178,2.9371300403972733,2.706766899973801,-1.094224916996945,-0.3455447106191732,-0.4607262808464017,-0.4607262808468771,-0.05759078510106423,-0.46072628084647715,-0.04690700000000003,-0.09529999999999994,-0.921567,0.08901499999999984,0.12003399999999997,-0.916338,0.13592199999999988,0.21533399999999991,0.005229000000000039,0.9913751465271698,0.9468156443574661,double,-0.916338
17,0.070833,jog,-0.028084493518997857,-0.08041286605856339,0.010561689870389851,-0.20720461863423256,-0.05124358197238634,0.315420260814245,-0.005520883341360136,-0.002160345655340327,-0.00024003840614501568,-0.0024003840614122644,0.0012001920307327819,-0.0009601536245800627,0.40161446746375445,-0.17744597903324733,0.7494683203977187,-0.17313185565637143,-0.576170536944252,0.403218436423895,-0.6337889733385516,0.2880921821250084,-0.11526452748637697,-0.046812999999999994,-0.09497400000000011,-0.921612,0.08912200000000015,0.12037399999999998,-0.916386,0.13593500000000014,0.2153480000000001,0.005225999999999953,0.9901110520928271,0.9429895030857257,double,-0.916386
18,0.075,jog,-0.02063834893209273,-0.061195104391676504,0.028797696184307386,-0.31130464536532104,-0.15099380708202179,0.37578437716146323,-0.0021598272138050696,-0.0014398848092033799,0.000959923206143531,0.002639788816890625,-0.00023998080151613449,0.0007199424046079344,1.7869317463175234,4.611893848544964,4.376291412027243,0.8065889434977354,0.1728967713311606,0.2879677495292886,1.2095447272145152,-0.34561383063328893,0.4031907917417796,-0.04673599999999989,-0.09472499999999995,-0.921728,0.08921900000000016,0.12062800000000018,-0.9165030000000001,0.13595500000000005,0.21535300000000013,0.005224999999999924,0.9953873439746472,0.9431721569705477,double,-0.9165030000000001
19,0.079167,jog,-0.0415166786657016,-0.07439404847607635,0.04319654427644776,-0.43034079047845997,-0.053594174191496015,0.15375790399697933,-0.00671946244298463,-0.0021598272138050696,0.00047996160307171344,0.0,0.0,-0.0002399808015361169,-5.010398304201788,-3.167493180801496,3.455447106345178,-1.0942249170097327,-0.1727723553159801,-0.11518157021161916,-0.6334986361628564,0.057590785101064135,-0.23036314042333822,-0.04659099999999983,-0.09442400000000006,-0.921906,0.08939200000000014,0.12093799999999999,-0.916684,0.13598299999999997,0.21536200000000005,0.005221999999999949,0.9882094208679842,0.9473800319974398,double,-0.916684
20,0.083333,jog,-0.050168026884278336,-0.10849735957756089,0.032405184829571804,-0.11143030997097295,0.030956440081495392,-0.0017523042968438298,-0.0038406144983235695,-0.004800768122931111,-0.0009601536245799554,-0.00216034565534032,-0.0026404224675907915,-0.0050408065290446875,-2.076655837392398,-8.186104441066854,-2.5903407217657093,0.6910340721702012,-0.6339272465496975,-0.345682963910626,-0.5185659278301292,-0.6338028006698967,-1.152382555810986,-0.04639799999999994,-0.09399200000000008,-0.922045,0.0895919999999999,0.12137900000000013,-0.91684,0.13598999999999983,0.2153710000000002,0.005205000000000015,0.9896291555473906,0.9378053989973367,double,-0.91684
21,0.0875,jog,-0.03143748500122476,-0.07535397168224771,0.038636909047268325,-0.20241751310157455,-0.02154730619702439,0.2631508035568207,0.0014398848092033846,-0.00047996160303227054,0.002399808015358783,0.0,0.00047996160303227054,0.0004799616030718191,4.494970454296525,7.953776792731763,1.4954941727133517,1.2672184563299658,1.03691061192677,0.8063262874823006,0.518441481963121,0.7488322703679072,1.3248783614390496,-0.046260999999999886,-0.09367999999999999,-0.922196,0.089723,0.12169499999999989,-0.916999,0.13598399999999988,0.21537499999999987,0.005197000000000007,0.9952675147723596,0.9468987196525758,double,-0.916999
22,0.091667,jog,-0.051355891528662406,-0.07391408687304407,0.022078233741322756,-0.2628242549866883,-0.1926058824790831,0.13188538533784558,0.00023998080151613449,-0.00455963522917956,0.002639788816894684,0.00023998080156942094,-0.00047996160303226897,0.0,-4.780035163771929,0.34554471063202197,-3.973764172293149,-0.28795392553089727,-0.9790433468076039,0.057590785105807694,0.057590785113851864,-0.2303631404042569,-0.11518157021161954,-0.04604600000000003,-0.093391,-0.922277,0.08993800000000007,0.12200100000000003,-0.9170910000000001,0.1359840000000001,0.21539200000000003,0.005185999999999913,0.9912097988257641,0.9472456443574853,double,-0.9170910000000001
23,0.095833,jog,-0.03984637542004041,-0.07105136821893274,0.012722035525676837,-0.1537302285426822,-0.17783958741918932,0.20021084049152457,-0.0014402304368580138,-0.0019203072491617847,-0.0009601536245799554,0.0021603456552870205,0.0028804608737160275,0.004800768122899882,2.7627259022136315,0.6871624229743958,-2.2458469072601805,-0.40331522764621863,0.6335400816173244,-0.8641244458652513,0.46096131870321605,0.8066304552924373,1.1523687284925295,-0.04588600000000009,-0.09310299999999994,-0.922334,0.09011299999999989,0.122309,-0.917124,0.13599899999999998,0.21541199999999994,0.005209999999999937,0.9956911787428999,0.9378983997439885,double,-0.917124
24,0.1,jog,-0.03887688984881097,-0.06479481641468496,0.002879769618433403,-0.16794709680036157,-0.18655998923701864,0.1496879123260592,-0.002639788816890625,0.0021598272138050696,-0.005039596832253355,0.002639788816890625,-0.0021598272138050696,0.0009599232061432187,0.23265792446110797,1.5014523168341187,-2.361954861349514,-0.2878709815293041,0.9791539387969402,-0.9789880507975511,0.11505715421252799,-1.209572375215045,-0.9217290416982624,-0.04573500000000008,-0.09282400000000002,-0.922367,0.09028599999999987,0.12257000000000007,-0.9171320000000001,0.13602099999999995,0.21539400000000009,0.00523499999999999,0.9898578335068482,0.9417445432124729,double,-0.9171320000000001
25,0.104167,jog,-0.050155987521028615,-0.07247420206384093,-0.006479481641468517,-0.14464255953760616,-0.1422744307221458,0.02698667588284822,-0.003359731221492326,0.00023998080151613527,-0.006239500839932815,0.0019198464122889415,0.00047996160303227054,0.0002399808015361177,-2.706766899980243,-1.8429051233875675,-2.246040619126936,-0.17277235531598337,-0.46072628084687756,-0.2879539255290288,-0.1727723553159792,0.6334986361500711,-0.17277235531727925,-0.045539999999999914,-0.09252100000000008,-0.922366,0.090503,0.12287399999999993,-0.917104,0.13604299999999991,0.215395,0.005261999999999989,0.9881823160525695,0.9440576162455458,double,-0.917104
26,0.108333,jog,-0.0607297167546948,-0.0633701392222856,0.0019203072491617847,-0.10710609698566512,-0.12175648018773584,0.12086410548777433,-0.03528564570334113,0.014402304368740034,0.017282765242438783,-0.0033605376860197985,-0.0028804608737160275,-0.004080652904464629,-2.5381011122578445,2.185324733930708,2.0162719372612328,-7.663445626944019,3.399501576385955,5.646247259330672,-1.2674949827913433,-0.8066304552924377,-1.0371180283247103,-0.045433999999999974,-0.09219699999999986,-0.9223020000000001,0.0907420000000001,0.12312600000000007,-0.9171290000000001,0.13617600000000007,0.21532299999999993,0.005172999999999983,0.9302544876342731,0.9382364456681477,double,-0.9171290000000001
27,0.1125,jog,-0.06527477801771722,-0.06959443244538065,-0.0019198464122889352,-0.04426042525977832,-0.10360766828029747,0.0009236483586848538,0.005759539236866806,-0.0019198464122889352,-0.001679865610751153,-0.0031197504199761807,0.0021598272138050696,-0.000959923206143635,-1.0907274449297852,-1.4937108766726763,-0.9215631536958763,9.850056381139405,-3.9170028272207715,-4.55066735137747,0.05778432110477984,1.209572375215045,0.7489152143798874,-0.04513800000000012,-0.09191499999999997,-0.922301,0.09100099999999989,0.1234249999999999,-0.9171250000000001,0.136139,0.21533999999999986,0.005175999999999958,0.9895013160959772,0.9417167192903401,double,-0.9171250000000001
28,0.116667,jog,-0.08039356851456586,-0.06287497000239602,0.011999040076792523,-0.07562853669100954,-0.1333878455493242,-0.015201139076224737,-0.0023998080153744905,0.0011999040076872453,0.007199424046076326,0.0021598272138050696,0.0,-0.0004799616030718175,-3.6282194616867347,1.6125419829576733,3.3402655361366556,-1.958086693602421,0.7486802063777724,2.13085904891468,1.2669972723257128,-0.5183170659479404,0.11518157021161916,-0.04481299999999999,-0.09164799999999995,-0.9223210000000001,0.09134500000000001,0.12368699999999988,-0.917177,0.136158,0.21533499999999983,0.005144000000000037,0.9871947759430486,0.9448724772189343,double,-0.917177
29,0.120833,jog,-0.08209313490154664,-0.06553048487757283,-0.00048007681230377255,0.010210517623955707,-0.06838832793439892,0.014207198559206609,0.0024003840614655637,-0.002880460873769336,0.003360537686029699,0.0052808449352349,0.0016802688430365544,0.004080652904464642,-0.4079612066684553,-0.637425558131739,-2.9954673281556237,1.1522304553144664,-0.9794442826348035,-0.9214801632373109,0.7491641194022656,0.4033290549775705,1.094722637430742,-0.044461000000000084,-0.09138700000000011,-0.9223049999999999,0.09170900000000004,0.12396699999999994,-0.917158,0.13617000000000012,0.21535400000000005,0.005146999999999902,0.9916081865244422,0.9370599478421229,double,-0.917158
30,0.125,jog,-0.07103431725463731,-0.05759539236861477,-0.008639308855273566,-0.05686904910765504,-0.041463668681811464,0.04376941541419374,0.0014398848092033799,-0.0014398848092033799,0.005039596832253459,0.0,0.0009599232061178244,0.0021598272138229706,2.653903922944401,1.904269860561088,-1.9580590455891014,-0.2305013804324893,0.3457105986479373,0.4029419597369231,-1.2673014003443472,-0.17286912333062857,-0.46096128885089255,-0.04415900000000006,-0.09115300000000004,-0.9222480000000001,0.09200500000000011,0.12421099999999985,-0.9171130000000001,0.13616400000000017,0.2153639999999999,0.005135000000000001,0.9909409234038132,0.9447107720175374,double,-0.9171130000000001
31,0.129167,jog,-0.0683945284377467,-0.06719462443005944,-0.021598272138237198,-0.0007285231131482318,-0.04777611004178979,0.05949811839376992,0.0043196544276634255,-0.0011999040076872453,0.0023998080153587753,-0.005039596832265116,-0.0021598272138050696,-0.003839692824574124,0.6334986361628538,-2.3036314042343795,-3.1099023957196112,0.6910894212767081,0.05759078510106416,-0.6334986361638304,-1.2094064872246486,-0.7486802063649846,-1.4397696276450895,-0.043855999999999895,-0.09087800000000001,-0.922148,0.09226900000000016,0.12448199999999998,-0.917039,0.13612500000000005,0.21536,0.005108999999999919,0.9915248299734072,0.9377538319486538,double,-0.917039
32,0.133333,jog,-0.08449351896301192,-0.0607297167546948,-0.00864138262122803,-0.12220168464635443,-0.12575813536248207,-0.04640916357996706,0.000960153624607542,-0.000480076812303771,0.0069611137782044944,0.0024003840614122566,0.000480076812303771,0.00048007681229002974,-3.8643760262278484,1.551826134268995,3.1101511082595192,-0.8064092182083248,0.17278617267966245,1.0948885652534122,1.7858811554674427,0.6336783548028897,1.0369106185463635,-0.04349999999999987,-0.09062700000000001,-0.922083,0.09263099999999991,0.1247370000000001,-0.917001,0.13613099999999978,0.2153640000000001,0.005082000000000031,0.9882610011592807,0.9450224128479462,double,-0.917001
33,0.1375,jog,-0.09143268538516063,-0.06623470122388833,-0.030237580993510763,0.034429511576463345,-0.1340776910458178,-0.06624913595285925,0.007199424046070185,-0.002639788816890625,0.0055195584353251725,0.003599712023061736,-0.0019198464122889352,-0.0021598272138229706,-1.6652667199780884,-1.3210905853596169,-5.18267299550821,1.4973051167416935,-0.5182894179474087,-0.3459456066425055,0.2878156855410315,-0.575935499062324,-0.6335262841643864,-0.04308899999999993,-0.09036200000000005,-0.921934,0.09302699999999997,0.12500500000000003,-0.916884,0.1361159999999999,0.2153670000000001,0.005049999999999999,0.9842532439924667,0.9418064618583508,double,-0.916884
34,0.141667,jog,-0.08447324214060714,-0.05303575713943556,-0.011999040076792603,-0.07399721093465325,-0.07449298940217547,0.034930631792279905,0.005519558435297421,-0.004799616030695727,0.0038396928245740453,0.0009599232061711172,0.0004799616030855586,0.0002399808015361185,1.6701327680714,3.1674931808142173,4.3768996680389405,-0.403135495745806,-0.5183170659479516,-0.4031354957406136,-0.6334986361628591,0.5759078510617969,0.5759078510581,-0.04271400000000014,-0.09016099999999994,-0.921868,0.093383,0.12522800000000012,-0.916833,0.13609700000000013,0.21538900000000005,0.005035000000000012,0.9862315698920139,0.9478171163526592,double,-0.916833
35,0.145833,jog,-0.08785405664908502,-0.06048967834851627,-0.00600096015363724,-0.018246507382383682,-0.1455213867337867,0.013872456639774775,0.005520883341360118,-0.00216034565534032,0.004560729716754659,0.0014402304368580138,0.0014402304368580138,-0.001680268843014896,-0.8115253260868647,-1.7892273665580176,1.4397695446844356,0.0003180283395815381,0.633526254285983,0.17307654637076636,0.11529218211399334,0.23050140032944177,-0.4609336640784957,-0.042324999999999946,-0.08991800000000016,-0.921824,0.09375500000000003,0.125486,-0.9168149999999999,0.13607999999999998,0.21540400000000015,0.005009000000000041,0.9875336562242412,0.9455092958873635,double,-0.9168149999999999
36,0.15,jog,-0.1027117830573781,-0.06407487401008327,0.0009599232061444676,-0.05406754032369702,-0.1846902060949061,-0.045712784399483494,0.004799616030695695,-0.0028797696184067597,0.005279577633789264,0.0028797696184067597,-0.0004799616030855554,0.001679865610751153,-3.565569092462939,-0.8603781285257975,1.6704783680781619,-0.17309030733487463,-0.17264793930080133,0.1725096993123601,0.34546176663036826,-0.46080922484846826,0.8063677594830924,-0.04187699999999994,-0.08966300000000005,-0.921806,0.09419500000000003,0.12575099999999995,-0.916812,0.13607199999999997,0.215414,0.004994000000000054,0.9871760502825099,0.944446181566458,double,-0.916812
37,0.154167,jog,-0.08999280057595725,-0.06911447084234838,-0.010319174466046365,0.02126617836230337,-0.03654251732027471,-0.048438124105085655,0.0019198464122889352,-0.0009599232061178244,0.007199424046076326,-0.0021598272138050696,0.0004799616030855554,0.002399808015358671,3.0523116106121524,-1.2094064872246475,-2.7067668999737995,-0.6910894212639206,0.4607262808468763,0.4607262808464268,-1.2094064872118608,0.23036314042983197,0.1727723553173788,-0.04149399999999992,-0.08937899999999988,-0.9217329999999999,0.09456100000000012,0.12604100000000007,-0.916759,0.13605500000000004,0.21541999999999994,0.004973999999999923,0.9874790210043254,0.9448198470087615,double,-0.916759
38,0.158333,jog,-0.08257321171385014,-0.0424867978876312,-0.010801728276515052,-0.04212069162970614,-0.08979906742767103,0.10290221162434995,0.00984157465193416,-0.0012001920307327777,0.001680268843014896,0.004560729716752576,0.0007201152184290069,-0.0012001920307248661,1.7809862847112596,6.391664175400184,-0.11583144754409187,1.9015190205581418,-0.05767374570690186,-1.3248092182096558,1.6131917740176767,0.05764609105699744,-0.8641382731837577,-0.04110900000000006,-0.08920700000000004,-0.921681,0.09492400000000001,0.12622099999999992,-0.916719,0.13603300000000007,0.21542799999999995,0.004962000000000022,0.9832402303843537,0.9424288850558731,double,-0.916719
39,0.1625,jog,-0.10103191744660531,-0.05951523878090371,-0.004319654427636783,-0.18390027865099332,-0.1601659597796149,-0.10397554912949654,0.00455963522917956,-0.0007199424046016899,0.003359731221502306,0.0,-0.0016798656107728006,0.0007199424046075181,-4.4297349970614714,-4.0864988944738405,1.5555732778685536,-1.2675640563365957,0.11525069021624366,0.40303872773875893,-1.094487573014776,-0.5759493230625882,0.460795400847704,-0.040669000000000066,-0.08896199999999999,-0.921649,0.09534500000000001,0.12646199999999985,-0.916698,0.13601400000000008,0.21542399999999984,0.004951000000000039,0.9904844594405525,0.9474439344428659,double,-0.916698
40,0.166667,jog,-0.07559395248381688,-0.08615310775137938,-0.03215742740582634,-0.21278254398780402,-0.11561046302978673,-0.2772969282705189,0.007199424046070185,-0.0031197504199761807,0.0014398848092152443,0.0009599232061178244,0.002159827213858356,0.0014398848092154525,6.1046232212115195,-6.392577146742417,-6.680531072279705,0.6334986361628564,-0.5759078510617922,-0.46072628084642664,0.23036314041704428,0.9214525617065401,0.1727723553174787,-0.040324000000000026,-0.08861600000000003,-0.9215089999999999,0.09566399999999997,0.12683,-0.916558,0.135988,0.21544600000000003,0.004950999999999928,0.9867044475333244,0.9458773439745822,double,-0.916558
41,0.170833,jog,-0.10393662986075501,-0.04176668266925549,0.008401344215076146,-0.18804483812647044,-0.2677416471659107,0.05598454838011712,0.006240998559789125,-0.0012001920307327777,0.0009601536245799554,0.000480076812303771,-0.000480076812303771,-0.0007201152184352529,-6.803331103441697,10.654446731186717,9.735662895079804,-0.230058926135636,0.46076773625621736,-0.11515390893789931,-0.11518156356554322,-0.6336783548156805,-0.5184829639103945,-0.03986500000000004,-0.08844699999999994,-0.9215399999999999,0.09609899999999993,0.12700200000000006,-0.916596,0.13596399999999997,0.215449,0.0049439999999999484,0.9892875437357669,0.9489104938287429,double,-0.916596
42,0.175,jog,-0.08687305015598165,-0.06311495080391258,-0.013198944084453214,-0.05966589708961137,-0.18635370210591734,0.054354315522677984,0.003119750419976201,-0.0035997120230617597,0.005039596832253389,0.004799616030749013,0.0,0.0009599232061436414,4.09493153462286,-5.123174498357861,-5.1836544995271145,-0.7490396303846752,-0.5758387310604741,0.9789880507975658,1.0366064839081512,0.11520921821544845,0.40317696774151757,-0.039490000000000025,-0.08819900000000014,-0.9214640000000001,0.09648100000000004,0.12726499999999996,-0.916537,0.13597100000000006,0.2154640000000001,0.004927000000000015,0.9884423779882934,0.942572221400488,double,-0.916537
43,0.179167,jog,-0.1156707463403151,-0.07343412527001181,-0.0021598272138317128,-0.13558816789073205,-0.17773468420828267,-0.13583774597250467,0.0043196544276634255,-0.0035997120230084494,-0.0007199424046076221,0.003119750419922894,-0.0004799616030855554,-0.0011999040076793356,-6.910894212703004,-2.4764037595630475,2.6491761148599693,0.2879539255308911,1.2793429522705112e-11,-1.382178842539238,-0.4031354957586076,-0.11518157021491598,-0.5183170659522378,-0.03898999999999986,-0.08790799999999988,-0.921458,0.09697599999999995,0.12756900000000004,-0.916533,0.1359659999999998,0.21547699999999992,0.004924999999999957,0.9905519463954833,0.945121951332169,double,-0.916533
44,0.183333,jog,-0.10129620739316422,-0.0499279884781531,-0.004560729716752576,-0.13348739856518435,-0.19294219134259732,0.05826979692247787,0.0012001920306794786,-0.0031204992798945625,0.003360537686029792,-0.0009601536245542427,-0.0016802688429832496,0.0019203072491597026,3.450441417943079,5.642375610143708,-0.5763088101106245,-0.7487907818012349,0.11502946306142262,0.9794719372629408,-0.9793336640607618,-0.2881198367493263,0.748970536927277,-0.038563000000000125,-0.08771299999999993,-0.921425,0.09739399999999998,0.12777000000000016,-0.916506,0.1359570000000001,0.2154830000000001,0.004919000000000007,0.9920993688357695,0.9462661463068166,double,-0.916506
45,0.1875,jog,-0.09215262778976231,-0.061675065994708775,0.0023998080153478474,-0.11490787296430154,-0.10019730438008005,0.04605243018195797,0.0033597312215456012,-0.0043196544276634255,0.0023998080153587753,0.0016798656107195142,0.00023998080151613449,0.0004799616030718175,2.194283562131486,-2.819073078127109,1.6703954240701744,0.5182479459721911,-0.28777421352744464,-0.2305566764269296,0.633553932151129,0.4608230488359449,-0.3456553026368811,-0.038165000000000004,-0.08747400000000005,-0.9214249999999999,0.09778499999999979,0.12802800000000003,-0.9165139999999999,0.1359499999999998,0.21550200000000008,0.004910999999999999,0.9900408770513831,0.9479508474409195,double,-0.9165139999999999
46,0.191667,jog,-0.12934965202785378,-0.028557715382764606,0.014638828893683148,-0.12457848397919526,-0.17064179841037816,0.22799803003409153,0.0016798656107195142,-0.00527957763378125,0.005039596832253355,0.0038396928245778704,-0.0007199424046016899,0.0004799616030718175,-8.926571691406632,7.947528344599024,2.9371300403972374,-0.4031354957585998,-0.23036314041704437,0.6334986361638054,0.518317065960728,-0.23036314041704428,0.0,-0.03761900000000007,-0.08737700000000004,-0.921465,0.09833999999999987,0.12814400000000004,-0.916573,0.13595899999999994,0.21552100000000007,0.0048920000000000075,0.9875174093798091,0.944520037010292,double,-0.916573
47,0.195833,jog,-0.14474315890545625,-0.06793086893903817,0.009121459433531803,-0.1941804198561507,-0.07834097546046966,-0.3043139982294629,0.0064810369659143606,-0.005280844935181583,0.006721075372059584,0.004560729716752576,-0.0007201152184290069,-0.00024003840614480668,-3.69503285588153,-9.451069024549577,-1.3243805713277343,1.1524655197299192,-0.0003042010082411787,0.4036194286620805,0.17307654636934833,-4.1481955668974835e-05,-0.17282765463673155,-0.03698899999999994,-0.08711599999999997,-0.921475,0.098962,0.1284240000000001,-0.9166120000000001,0.13595099999999993,0.21554000000000006,0.004862999999999951,0.9821220171455465,0.9436642229619756,double,-0.9166120000000001
48,0.2,jog,-0.13894888408924516,-0.04679625629948285,-0.02591792656587398,-0.028413371673818223,-0.23956701426508517,-0.15171161453612872,0.00599952003838294,-0.00839932805375743,0.005999520038396886,0.0023998080153744905,0.00047996160303226897,0.0007199424046075181,1.3905147147134824,5.071901281390761,-8.408779937462384,-0.11555481822208295,-0.7483760783719329,-0.1731594273248613,-0.5185797219529837,0.2879953975189044,0.23037696442340383,-0.03638500000000011,-0.08695600000000003,-0.9213420000000001,0.09955099999999995,0.12862099999999987,-0.916501,0.13593600000000006,0.2155769999999999,0.004841000000000095,0.9801018431104285,0.9473382818123489,double,-0.916501
49,0.204167,jog,-0.13702903767701044,-0.06239500839931088,-0.0014398848092300326,0.11031312665982346,-0.0876298128089809,-0.1045248956357075,0.010079193664530299,-0.005519558435297421,0.009599232061435165,0.0011999040076872533,0.0,0.002399808015358687,0.4607262808338691,-3.743401031876198,5.874260080788118,0.9790433468076271,0.6910894212767039,0.863861776587065,-0.2879539255308961,-0.11518157020212903,0.4031354957406237,-0.035771999999999915,-0.08671899999999999,-0.921296,0.10012700000000008,0.1288809999999998,-0.916485,0.135899,0.2155999999999998,0.00481100000000001,0.9750444324617034,0.9474182217872518,double,-0.916485
50,0.208333,jog,-0.10513682189148779,-0.07873259721557987,0.013922227556409613,-0.008624866264368957,0.053221730600296176,0.07042760425345984,0.007921267402772374,-0.008881421027379916,0.005520883341334613,0.0016802688430365487,0.001440230436911313,0.002160345655304926,7.655356645588724,-3.92164877970931,3.687496967268275,-0.5179851804507738,-0.8069761382819234,-0.978960326476368,0.11530600944534207,0.3457106185576841,-0.057480163239020915,-0.03530100000000003,-0.08642799999999995,-0.921331,0.1005720000000001,0.12921500000000008,-0.916534,0.13587300000000013,0.21564300000000003,0.004797000000000051,0.9781351201441142,0.9468755357949853,double,-0.916534
51,0.2125,jog,-0.11351091912645674,-0.0700743940484662,-0.005759539236866806,0.0456023083393301,-0.11963955141527947,0.0476166797114065,0.007199424046070185,-0.008879289656842987,0.010799136069114437,0.0028797696184067597,0.0021598272138050696,-0.0004799616030718175,-2.009622566587218,2.077802535904407,-4.723246170692681,-0.17322854732473908,0.0005114880098224056,1.2666793203215307,0.2878571575162491,0.1726894113015973,-0.6336230521662445,-0.03479800000000011,-0.08617300000000006,-0.9212619999999999,0.10105699999999995,0.12951599999999996,-0.916512,0.13585500000000006,0.21568900000000002,0.004749999999999921,0.9737906488674313,0.9464473858290141,double,-0.916512
52,0.216667,jog,-0.11783057355412016,-0.056395488360927525,-0.00527957763378125,0.1205115976433648,-0.1367023962927044,0.14870186526979906,0.008639308855326851,-0.00911927045835912,0.007919366450683947,0.0011999040076872453,-0.0004799616030855554,0.0031197504199666055,-1.0366341319086683,3.282674751029197,0.11518157021491603,0.3455447106447479,-0.057590785101063954,-0.6910894212696154,-0.40313549573302443,-0.6334986361628564,0.8638617765870937,-0.03427099999999994,-0.08597600000000005,-0.921207,0.101553,0.1297489999999999,-0.916477,0.13582399999999994,0.21572499999999994,0.004730000000000012,0.9752504143597733,0.9470719513320971,double,-0.916477
53,0.220833,jog,-0.12794047047530396,-0.07993278924631265,0.0064810369659143606,-0.007197184784923052,0.01153207770643663,-0.07870995087085582,0.0038406144983235695,-0.012722035525703486,0.012481997119539108,0.004800768122877812,0.0,-0.0009601536245800595,-2.426763543251031,-5.649856189482745,2.822999183796352,-1.151870945031992,-0.8648019844801639,1.0952065935802104,0.8643456829550081,0.11520921821544768,-0.9793336640774511,-0.03372199999999981,-0.085696,-0.921182,0.10210600000000003,0.13008200000000003,-0.916508,0.13582799999999984,0.21577800000000003,0.004673999999999956,0.9696135648075321,0.9451002632204024,double,-0.916508
54,0.225,jog,-0.1319894408446911,-0.0748740100791619,-0.0074394048476129635,-0.17097080116181174,-0.09885765026585382,-0.1376476744767899,0.014878809695225927,-0.011039116870648055,0.011279097672186255,0.002159827213858356,0.00023998080156942094,0.002399808015358671,-0.9716751546405425,1.214009879325833,-3.340638784143823,2.6489549308620943,0.4038681677598821,-0.288672773542801,-0.6337751161553763,0.057590785113851864,0.8063262874822961,-0.03310999999999997,-0.08543000000000012,-0.921104,0.102665,0.13039500000000004,-0.916467,0.13577499999999998,0.21582500000000016,0.004637000000000002,0.9638498838356987,0.9482341366437321,double,-0.916467
55,0.229167,jog,-0.1214302855771819,-0.05231581473483352,0.00911927045835912,-0.03737953213387203,-0.09330990449017287,0.15878812988026206,0.0105591552675625,-0.010319174466046365,0.01007919366450671,0.004799616030695695,0.0016798656107195142,0.0014398848092154525,2.5339945446386367,5.413533799934812,3.973764172299512,-1.0366341319086687,0.1727723553159802,-0.287953925529048,0.6334986361500687,0.3455447106191725,-0.2303631404231384,-0.03255999999999992,-0.08525500000000008,-0.9211,0.10319100000000003,0.13061999999999996,-0.916499,0.13575099999999996,0.21587500000000004,0.004601000000000077,0.9702057394345158,0.9451816184523555,double,-0.916499
56,0.233333,jog,-0.13322131541043225,-0.06961113778202142,0.00864138262122803,0.03799441552935043,0.006978317653347345,0.0777801290356011,0.0072011521843433676,-0.0141622659625082,0.013922227556409197,0.0043206913106273405,0.0016802688430365487,0.0024003840614497322,-2.8303000079813594,-4.151541778009575,-0.11471143474102005,-0.8060497079258595,-0.9224895574800366,0.9224757301734239,-0.11496032646863992,9.679124268710552e-05,0.23055670960976454,-0.03197500000000009,-0.08502399999999999,-0.9210780000000001,0.10376399999999997,0.13091699999999995,-0.916525,0.13573900000000005,0.21594099999999994,0.004553000000000029,0.9647920940812006,0.9457691826008077,double,-0.916525
57,0.2375,jog,-0.12718982481404956,-0.06239500839936417,-0.0026397888168906425,-0.31632977509390764,-0.05705683127281708,-0.09742369972429266,0.018238540916718362,-0.012958963282937077,0.016798656107511436,0.0007199424046016947,0.0009599232061178308,0.004079673626109851,1.4474419477760327,1.731732513236692,-2.707264563983378,2.648761394858425,0.2887695415337485,0.690287629254201,-0.8641106085974721,-0.17286912333062684,0.40299725573797185,-0.03136899999999998,-0.08481799999999984,-0.9209970000000001,0.10429700000000008,0.131181,-0.916497,0.13566600000000006,0.21599899999999983,0.0045000000000000595,0.9533698371593096,0.9479125489374287,double,-0.916497
58,0.241667,jog,-0.13534917206623673,-0.040796736261099906,-0.0031197504199761807,-0.26986199145891204,-0.3183362609010699,0.027516183969121415,0.010319174466046365,-0.014878809695225927,0.01751859851211905,0.004319654427610139,0.0019198464122889352,0.0021598272138229706,-1.958086693589432,5.1831706595306555,-0.11518157021491186,-1.9004959084885984,-0.4607262808468558,0.17277235531740143,0.8638617765798995,0.23036314042983044,-0.4607262808463832,-0.030761999999999956,-0.08470999999999984,-0.920911,0.10487899999999994,0.131359,-0.916475,0.1356409999999999,0.21606899999999984,0.0044359999999999955,0.9580090739485742,0.9469781298185795,double,-0.916475
59,0.245833,jog,-0.1404224675947756,-0.05952952472396202,0.0019203072491617847,0.06642142166139013,-0.16115692759109232,0.09336272517278384,0.0072011521843433676,-0.015362457993294278,0.02232357177148326,0.005280844935234882,0.0033605376860197985,0.0026404224675949557,-1.217785772572943,-4.496588685276549,1.2098074097786753,-0.7484450988245308,-0.11609416660306064,1.1533781227470494,0.23072263745193053,0.3458212370933419,0.11536131871627094,-0.030147000000000146,-0.08452599999999988,-0.920826,0.10548599999999997,0.131621,-0.916472,0.13563300000000011,0.21614699999999987,0.00435400000000008,0.9532677970591308,0.9451374110272459,double,-0.916472
60,0.25,jog,-0.13870890328778232,-0.07511399088073133,-0.0019198464122889352,-0.2618973609466796,-0.0966267821922426,-0.1459520426707236,0.015598752099827615,-0.008639308855273566,0.014158867290616743,0.00911927045835912,-0.00023998080151613449,0.0,0.4112225358755198,-3.7399726798102444,-0.9215631536958763,2.015262758695522,1.6134267189874505,-1.9593723256219124,0.9211484336751222,-0.8640553125836165,-0.6336507001667754,-0.029503999999999975,-0.0842489999999998,-0.920759,0.10610200000000014,0.13193300000000008,-0.916464,0.13560600000000012,0.21618199999999987,0.004295000000000049,0.9620514878229732,0.9418459540766833,double,-0.916464
61,0.254167,jog,-0.13702903767695715,-0.04895608351328824,0.0002399808015427793,-0.3040311324143679,-0.19479826857507312,-0.01623764657263328,0.01751859851211667,-0.0131989440845065,0.017518598512119166,0.004799616030695727,-0.0007199424046016947,0.003839692824573733,0.40313549575838264,6.277395576540252,0.5183170659543381,0.4607262808469076,-1.0942249170225486,0.8062709914812677,-1.0366341319086676,-0.11518157021491791,0.9214525616927658,-0.028860000000000108,-0.08410000000000006,-0.920687,0.10669299999999993,0.13213399999999997,-0.9164490000000001,0.13555300000000003,0.21623400000000004,0.004237999999999964,0.9532140004143128,0.9473057875704419,double,-0.9164490000000001
62,0.258333,jog,-0.14090254440713268,-0.029284685549677242,0.011761881901095944,0.23382030686920763,-0.31669756668263876,0.2806231844851951,0.02112337974077963,-0.01032165146423793,0.020883341334613587,0.007681228996647139,0.0031204992798945625,-0.00024003840614480668,-0.929790381703199,4.7218910138288495,2.7656987756968694,0.8652859406296108,0.6906607345819892,0.8076675041993322,0.6916977834736941,0.9218535008392353,-0.9792921821215882,-0.028184999999999905,-0.08402100000000012,-0.9206489999999999,0.10731200000000007,0.13226899999999997,-0.916499,0.13549699999999998,0.2162900000000001,0.004149999999999987,0.9475900877186925,0.944676066136027,double,-0.916499
63,0.2625,jog,-0.1456683465322821,0.018958483321319806,-0.0895128389728711,-0.9004511750703669,-0.9090562465543001,-0.1393247134676115,0.014158867290624141,-0.00911927045835906,0.01943844492440598,0.0059995200383829005,-0.0004799616030855522,0.001679865610751142,-1.1437010139547386,11.57743433429246,-24.303988690656656,-1.6713492800948968,0.28854835754232344,-0.3467473986579299,-0.4035778637543138,-0.8640414885961332,0.4607401048466364,-0.02751899999999985,-0.08413800000000005,-0.920195,0.10794400000000004,0.13218799999999997,-0.916119,0.1354629999999999,0.21632600000000002,0.0040759999999999685,0.9571343261608827,0.9488254599101946,double,-0.916119
64,0.266667,jog,-0.09695224382045865,-0.03023758099353761,0.01103911687064813,-0.30765888484499987,-0.026144447121880653,-0.1789716663332014,0.017998560115202226,-0.004799616030695727,0.019918406527477853,0.0050395968322651495,0.0009599232061711172,0.0019198464122868665,11.690929376487578,-11.806110946690112,24.130538959328007,0.9214525616938102,1.0366341319086532,0.1151815702116328,-0.23036314041702818,0.345544710644751,0.05759078510576577,-0.027039999999999953,-0.08403199999999988,-0.920158,0.10836899999999994,0.13231800000000016,-0.916157,0.1354089999999999,0.21635000000000004,0.004001000000000032,0.9545477234754062,0.9508605605867164,double,-0.916157
65,0.270833,jog,-0.08041286605856313,-0.09145463274123006,0.07561209793565866,-0.3750442370559382,0.8474652527788582,-0.5287929021327947,0.017282765242402763,-0.0028804608737693265,0.016322611617858723,0.005280844935181583,-0.0024003840614655555,0.002400384061450149,3.9700858765951788,-14.694443530411041,15.499995454875299,-0.17181826039353407,0.4606709450135379,-0.8631288789292191,0.05790881010956153,-0.8066028006809098,0.11534749139781135,-0.02663300000000013,-0.08366300000000004,-0.920405,0.10872599999999988,0.13268900000000006,-0.916462,0.135359,0.2163520000000001,0.00394300000000003,0.9600897298341233,0.9501069684504555,double,-0.916462
66,0.275,jog,-0.11039116870653311,-0.09287257019436339,0.009359251259901835,-0.3300805646345127,0.2500724084249001,-0.5112413830742057,0.012718982481420772,-0.004079673626093978,0.018478521718262562,0.00767938564915569,0.0007199424046016851,0.0,-7.194217098144889,-0.34027776653067426,-15.899411249281576,-1.0952202450160684,-0.2877880375149129,0.5173770339342025,0.5756037230559368,0.7488184463804216,-0.5760460910607466,-0.02611999999999992,-0.08329300000000006,-0.9203669999999999,0.10921800000000004,0.13307899999999995,-0.916501,0.13533799999999996,0.216372,0.003865999999999925,0.9619988298005313,0.9484849014638805,double,-0.916501
67,0.279167,jog,-0.12958963282937078,-0.05039596832254492,0.027357811375104187,-0.4181943507461763,-0.04719370146363799,-0.2109245660683016,0.013198944084453214,0.0,0.023758099352052003,0.009119270458359181,-0.001919846412288948,-0.00119990400767976,-4.60726280845639,10.193568963719393,4.319308882937954,0.11518157020217072,0.9790433467948166,1.266997272327687,0.3455447106319893,-0.6334986361628625,-0.2879539255291017,-0.02552500000000002,-0.08308300000000002,-0.920382,0.109796,0.13328099999999998,-0.91662,0.13532100000000002,0.216364,0.003762000000000043,0.954702851151581,0.9467198352528243,double,-0.91662
68,0.283333,jog,-0.14186269803168694,-0.07273163706191599,0.02328372539604,-0.24674597737556148,0.07296828517442762,-0.21859766988619683,0.011041766682666937,-0.005520883341360118,0.02280364858377329,0.000480076812303771,-0.0026404224675907915,0.0007201152184352529,-2.9460070096774253,-5.361418324380953,-0.9779371049121898,-0.5178054252967538,-1.3252240377724709,-0.22910484116147703,-2.073738273177005,-0.17296592782089365,0.46087835480437145,-0.02488800000000002,-0.08280300000000018,-0.920384,0.11038900000000007,0.13357299999999994,-0.9167139999999999,0.1352770000000001,0.21637600000000012,0.003670000000000062,0.9567819754334816,0.9586689242667689,double,-0.9167139999999999
69,0.2875,jog,-0.14638828893688574,-0.05807535397170071,0.012479001679878162,-0.08757800282113672,-0.19978834906922083,0.037766896475998735,0.010559155267615857,-0.0009599232061178308,0.021838252939764928,0.004799616030695727,-0.0023998080153745066,0.003599712023038031,-1.0860549328530902,3.517226563526605,-2.5929262577782337,-0.11581747421432258,1.094542869028633,-0.23167642044837217,1.0366064838953637,0.05774284910398039,0.6910479492687291,-0.024233999999999867,-0.082565,-0.920345,0.11101899999999998,0.13380499999999995,-0.916751,0.13525299999999985,0.21636999999999995,0.003593999999999986,0.959539920086158,0.953290531943193,double,-0.916751
70,0.291667,jog,-0.15310775137986837,-0.03407727381811505,0.020398368130549818,-0.21562428467879508,-0.24962359383271004,0.08477833257288207,0.009359251259875193,-0.0014398848092033701,0.023998080153587592,0.004319654427663397,-0.00311975041997616,-0.0007199424046075133,-1.6125419829571828,5.759078510579667,1.9004959084885036,-0.28795392554371363,-0.11518157021491136,0.5183170659521592,-0.11518157020214213,-0.17277235531597018,-1.0366341319043704,-0.02355700000000005,-0.08242899999999986,-0.92033,0.11167499999999997,0.133934,-0.916839,0.13523200000000002,0.21636299999999986,0.003491000000000022,0.9570020445102565,0.9561285743130588,double,-0.916839
71,0.295833,jog,-0.14930388862220884,-0.045847335573651,0.016082573211723284,-0.17855473220848553,0.013539398331901736,0.008655245888217717,0.012241958713399715,-0.0012001920307327777,0.02616418626980308,0.0019203072491617847,-0.0007201152184290069,0.0050408065290446875,0.9130731535428551,-2.8252668640268688,-1.0359565335637375,0.6919605025262889,0.05753547250854349,0.5199486596772654,-0.5759354725159891,0.5760046091087737,1.3828009922352849,-0.022883999999999904,-0.08224300000000007,-0.920288,0.1123050000000001,0.13412199999999985,-0.9168850000000001,0.135189,0.21636499999999992,0.003402999999999934,0.9518142870064117,0.9568999215484442,double,-0.9168850000000001
72,0.3,jog,-0.18022558195343183,-0.030957523398139303,0.022558195344355172,0.05300692601569125,-0.23726504847017243,0.19781539056750447,0.013678905687538772,-0.002159827213805084,0.020158387329013764,0.003839692824577896,-0.0045596352291795905,-0.0002399808015361185,-7.420612750473523,3.5732690605979793,1.5540249898324754,0.3448396866184463,-0.23029402041572153,-1.4412764436739505,0.46061568884476173,-0.9214110896929698,-1.267287576333294,-0.022075999999999985,-0.08212299999999995,-0.920298,0.11307200000000006,0.1342319999999999,-0.91698,0.13514800000000005,0.21635499999999985,0.003317999999999932,0.9592385703108721,0.9568769531280235,double,-0.91698
73,0.304167,jog,-0.19390448764096802,-0.022798176145897648,0.014398848092166919,0.010443843796987925,-0.27567288608069834,0.2174405892260786,0.016078713702913066,0.0035997120230084256,0.021838252939764637,0.0016798656107195032,-0.0016798656107195032,-0.0009599232061432123,-3.282674751028577,1.958086693602494,-1.9580866935896788,0.5759078510617411,1.3821788425278294,0.40313549574054713,-0.5183170659607335,0.6910894212767136,-0.1727723553172758,-0.021201000000000025,-0.08201300000000011,-0.9202670000000001,0.11388699999999985,0.13432,-0.917044,0.13508799999999987,0.2163330000000001,0.003223000000000087,0.9544054019875534,0.9634995103384297,double,-0.917044
74,0.308333,jog,-0.20403264522323974,-0.031445031205017564,-0.005760921747485354,-0.13198832017912882,-0.35612723485695574,0.07122462517539532,0.014882381180990506,0.0016802688430365487,0.017282765242438783,0.005520883341360118,-0.0038406144983235695,0.0007201152184348364,-2.4311468032337307,-2.0755773065578276,-4.839119020559831,-0.28716575178169934,-0.46074008160630714,-1.0934920060791768,0.9219917740375929,-0.5186627190600251,0.4032737456980431,-0.020289,-0.08187499999999992,-0.920171,0.11475999999999997,0.13443500000000008,-0.917017,0.13504899999999997,0.21631,0.00315399999999999,0.9618845850873652,0.9571869940761295,double,-0.917017
75,0.3125,jog,-0.20518358531318814,-0.024478041756670767,-0.012479001679878162,-0.12568201684708494,-0.25967145346680204,0.03841735376411559,0.012479001679851519,0.0016798656107195255,0.018478521718262808,-0.004319654427663454,-0.004079673626147319,0.006719462443004657,-0.2762035253055929,1.6719437121062724,-1.6122102069577267,-0.5767649390782339,-9.676801464439848e-05,0.2869585975099669,-2.3615401413543626,-0.05736960110961137,1.4397281556443136,-0.01938200000000001,-0.081766,-0.9200419999999999,0.11559699999999995,0.13451999999999997,-0.916937,0.13497899999999996,0.21628599999999998,0.0031049999999999134,0.9627320812565685,0.9540006106782785,double,-0.916937
76,0.316667,jog,-0.20350371970241535,-0.032397408207342694,-0.01559875209982772,-0.005434573300673251,-0.025452437473787715,-0.08160538901986582,0.01751859851211667,0.0014398848092566758,0.01487880969522436,0.0050395968322651495,-0.002879769618406779,0.002399808015358687,0.4031354957458137,-1.9004959084885944,-0.7486802063713882,1.2094064872246648,-0.057590785088277203,-0.8638617765871054,2.246040619133347,0.2879539255436877,-1.0366341319044863,-0.01846100000000006,-0.08162499999999984,-0.9199149999999999,0.11646599999999996,0.13464300000000007,-0.916862,0.13492700000000002,0.2162679999999999,0.0030529999999999724,0.9616176566910366,0.9590018355905133,double,-0.916862
77,0.320833,jog,-0.19779164666345062,-0.011761881901095944,0.0031204992798945625,0.09151494337291946,-0.022426918005343438,0.030954721069033478,0.01800288046088507,0.0064810369659143606,0.01632261161785893,0.0014402304368580138,-0.005280844935181583,0.0019203072491597026,1.3711169080568237,4.953318844514339,4.493339265415811,0.11624626710715312,1.2100701288184545,0.3465679122982645,-0.8639861726853415,-0.5763502920726842,-0.11509859966370241,-0.017562000000000078,-0.08154899999999987,-0.91986,0.11729599999999984,0.13467000000000007,-0.916867,0.13485799999999992,0.21621899999999994,0.0029930000000000234,0.9580829126903171,0.9604020163437565,double,-0.916867
78,0.325,jog,-0.20542356611475485,-0.037197024238037925,-0.021358291336694278,0.09337553093989377,-0.1560850387061023,-0.0960666371036314,0.01679865610751475,0.0059995200383829005,0.01607871370290349,0.010559155267615717,-0.006719462443037872,0.001679865610751142,-1.831514147181227,-6.103945845198413,-5.874439792797853,-0.2889907255508304,-0.11555481822209177,-0.058530817123935514,2.1883668900306295,-0.34524058263889557,-0.0577013771078855,-0.016635999999999873,-0.08136900000000002,-0.919704,0.11819600000000019,0.13479699999999983,-0.916771,0.13483200000000006,0.21616599999999986,0.0029329999999999634,0.9599752117762061,0.9496231683593734,double,-0.916771
79,0.329167,jog,-0.19342452603788504,-0.05231581473483387,-0.027837772978163103,0.11514497223391071,0.13227243477061512,-0.17992747448135865,0.01703863690903111,0.0064794816414685385,0.01895848332133442,0.0026397888168906425,-0.0064794816414685385,0.002159827213822985,2.879539255308345,-3.6282194616741132,-1.5549511978566983,0.057590785101118876,0.11518157021493657,0.6910894212697253,-1.9004959085013484,0.05759078511383123,0.11518157021162605,-0.01575900000000008,-0.08112399999999997,-0.919509,0.11901300000000004,0.13498799999999989,-0.916646,0.13477200000000011,0.21611199999999986,0.00286300000000006,0.9561656235895577,0.9591660592733469,double,-0.916646
80,0.333333,jog,-0.1975516082573254,-0.022563610177637645,-0.013202112337980607,0.08769928795868967,0.06267001975134391,-0.04573966465596565,0.01584253480559805,0.012722035525650186,0.019923187710033735,-0.0007201152184290069,-0.005520883341306819,0.004800768122899882,-0.9906582379837628,7.141671761208882,3.513120652948268,-0.2871104424947338,1.4984526846331356,0.231566103864454,-0.8065060094382254,0.23010040810410926,0.6339272465379008,-0.014869999999999939,-0.08097700000000008,-0.9193709999999999,0.11983300000000008,0.13505900000000004,-0.916571,0.13470300000000002,0.21603600000000012,0.0027999999999999137,0.9525725845366566,0.9597473253071938,double,-0.916571
81,0.3375,jog,-0.22294216462681798,-0.0405567554595835,-0.011759059275249667,0.08810528987726934,-0.009646525088137415,-0.21251727817131885,0.01655867530594533,0.008399328053757375,0.017038636909047118,0.0026397888168906074,-0.0067194624429845855,-0.001199904007679744,-6.093246068992654,-4.31800942691282,0.3463050306529707,0.1718599712856434,-1.0373668039099542,-0.6922368132917195,0.8063124634796229,-0.2876359735247799,-1.4400461076504871,-0.013872000000000106,-0.08077299999999998,-0.919251,0.12077300000000002,0.1352000000000002,-0.916527,0.13464500000000013,0.2159730000000002,0.0027240000000000597,0.9579995506849198,0.9605626152452318,double,-0.916527
82,0.341667,jog,-0.2003839692824924,-0.03383729301654608,-0.03551715862731889,0.08485925163693714,-0.18479674864289633,-0.15471027231311993,0.016558675305998836,0.017038636909084397,0.02327813774898018,0.0007199424046016947,-0.007199424046123519,0.0023998080153591035,5.413533799934173,1.6125419829703527,-5.701487725478608,1.284036738493615e-11,2.073268263817392,1.4973604127509235,-0.4607262808468739,-0.11518157022772657,0.8638617765872013,-0.012967999999999869,-0.08056099999999988,-0.919006,0.12161100000000014,0.13531099999999996,-0.916369,0.134579,0.21587199999999984,0.0026370000000000005,0.9445629342640182,0.9609251122515314,double,-0.916369
83,0.345833,jog,-0.22083533365339203,-0.02568410945747891,-0.017522803648581296,0.15461518264765992,-0.23205011361494987,-0.04028651887800597,0.014882381180990506,0.011761881901095944,0.017522803648583798,-0.0002400384061785351,-0.00768122899659384,0.0036005760921745985,-4.909112907081037,1.9570771865259642,4.319336288703212,-0.40237496999719846,-1.2666238617351053,-1.3815012242910174,-0.23043226374945489,-0.11565169238365816,0.28823045530856795,-0.01198599999999983,-0.08040500000000006,-0.91886,0.12253000000000003,0.135386,-0.916281,0.13451599999999986,0.21579100000000007,0.002578999999999998,0.9569601030315911,0.96006560127254,double,-0.916281
84,0.35,jog,-0.22510199184062604,-0.03911687065038066,-0.011999040076792603,0.047955175489529295,-0.0637179657383652,-0.19157452682848516,0.015358771298258297,0.01415886729062433,0.01775857931365487,-0.001919846412288948,-0.0069594432445540975,0.00431965442764597,-1.0239160516520367,-3.223604797912605,1.325597209452538,0.11432448218569566,0.575230475048812,0.056581633086410614,-0.40312167173276275,0.17321472331167415,0.17256499531350503,-0.010984000000000105,-0.0801829999999999,-0.918736,0.1234599999999999,0.13552000000000008,-0.9162129999999999,0.134444,0.21570299999999998,0.002523000000000053,0.9543037651081415,0.9607482832229559,double,-0.9162129999999999
85,0.354167,jog,-0.19582433405325694,-0.02111831053512486,-0.020398368130549818,0.0008449771008512968,0.06191017031662058,-0.06536564390871022,0.016078713702913066,0.011759059275249667,0.017518598512118934,0.005039596832265082,-0.0059995200383829005,0.000479961603071398,7.026075782905898,4.319308882950723,-2.0156774787034197,0.172772355328717,-0.5759078510618298,-0.05759078510581564,1.6701327680715088,0.23036314042985112,-0.9214525616929548,-0.010101000000000138,-0.08004600000000006,-0.918578,0.12429699999999988,0.135583,-0.916126,0.13439800000000002,0.21562900000000007,0.0024520000000000097,0.9557877027159519,0.9623967048765785,double,-0.916126
86,0.358333,jog,-0.24795967354778226,-0.018722995679314076,-0.008401344215076146,-0.10183643389712418,-0.30052756999058533,-0.18148460482321135,0.019203072491617845,0.008641382621201382,0.015602496399423885,0.00816130580895091,-0.0038406144983235695,0.002400384061450149,-12.51448379609344,0.57496756020422,2.8797464991535437,0.749966103865765,-0.7483621349131742,-0.4599380971423542,0.7493300472121522,0.5182202448534157,0.46097514603426537,-0.008987999999999996,-0.07993200000000011,-0.918478,0.12536400000000003,0.13564500000000002,-0.9160809999999999,0.13435200000000003,0.21557700000000013,0.0023970000000000935,0.9563196783240131,0.9604737333211184,double,-0.9160809999999999
87,0.3625,jog,-0.3693304535637067,0.05087592992557719,-0.20782337413005214,0.6741166709874493,-2.1137824344142095,1.071585593246665,0.017278617710600533,0.009359251259928604,0.03479721622270242,0.016798656107514975,0.0007199424046016947,-0.0002399808015361185,-29.126657071256332,16.702405952697784,-47.857458582907874,-0.4618322008680881,0.17227469131922876,4.606364248446999,2.0727982477955638,1.0944461010139885,-0.6336368761666145,-0.007376999999999967,-0.08010499999999987,-0.917467,0.126973,0.1354360000000001,-0.915216,0.13434999999999997,0.21554099999999998,0.002251000000000003,0.9333960196596276,0.9494636852390076,double,-0.915216
88,0.366667,jog,-0.2524598032157535,-0.012958963282936905,-0.04511639068876303,0.08016112549120698,-0.1101698922782053,-0.15271424214155926,0.01055915526756243,0.012958963282936905,0.008639308855291617,0.010319174466046297,0.005039596832265082,0.008639308855291825,28.046712346520827,-15.319148838136217,39.04655230172495,-1.6125419829704948,0.8638617765798594,-6.277395576532422,-1.5549511978566422,1.0366341319086523,2.1308590489147767,-0.006280999999999981,-0.07999699999999987,-0.917243,0.12806800000000007,0.13551100000000016,-0.914992,0.13434900000000005,0.21550800000000003,0.002251000000000003,0.9686388356389042,0.9535386282352021,double,-0.914992
89,0.370833,jog,-0.22107537205951727,0.028324531925123,-0.006721075372066247,0.10416607671175264,0.03677327177443805,0.2120848978025888,0.011521843494970707,0.013442150744079194,0.009121459433509317,0.004320691310574041,0.0016802688429832496,0.006721075372059167,7.533468832509893,9.909624389836743,9.216350292053951,0.23108214772162194,0.11598354804183592,0.11573465631725868,-1.439866335927089,-0.8063677362654417,-0.4604497079291062,-0.005311999999999983,-0.0800590000000001,-0.9171769999999999,0.12900699999999987,0.13539999999999996,-0.914936,0.13431899999999986,0.21545900000000007,0.0022409999999999375,0.9668067394580406,0.9639819416293476,double,-0.914936
90,0.375,jog,-0.24214062874971043,-0.07583393328533351,-0.08663306935443886,-0.10364195471543931,0.10165701527228355,-0.585196054654774,0.020878329733609004,0.00815934725224135,0.01511879049676027,0.010559155267615857,-0.008399328053757487,-0.0014398848092150459,-5.05525718507158,-24.99603196795227,-19.17734436822008,2.2453770671078357,-1.2677714163277836,1.4392443156349861,1.4971115807635833,-2.4189097424383954,-1.9584737656045739,-0.0042159999999999975,-0.07970900000000003,-0.916753,0.13006000000000006,0.13568099999999994,-0.914581,0.13427600000000006,0.21538999999999997,0.0021720000000000628,0.9549365439342326,0.9556650012906831,double,-0.914581
91,0.379167,jog,-0.26013918886491266,-0.0064794816414685385,-0.02039836813055009,0.18501701894865183,0.1595830154011982,-0.02499765535798268,0.019198464122889478,0.0014398848092033894,0.012239020878329763,0.0016798656107195255,-0.011279097672164265,0.003599712023038031,-4.319308882937926,16.64373689557604,15.895056689198261,-0.4031354957330299,-1.6125419829704821,-0.6910894212696241,-2.130859048931217,-0.6910894212639296,1.2094064872217676,-0.0030519999999998326,-0.07967600000000008,-0.916617,0.13115100000000002,0.13566100000000003,-0.914481,0.13420299999999985,0.2153370000000001,0.0021360000000000268,0.9619777870112658,0.958709710417927,double,-0.914481
92,0.383333,jog,-0.2561209793566799,-0.021843494959208638,-0.0772923667786952,-0.10022386563158983,-0.16671035878683527,-0.21927677226859976,0.013682189150257729,-0.0031204992798945625,0.013202112337974152,-0.000480076812303771,-0.012722035525703486,0.013922227556409197,0.9645246059128135,-3.687953268780626,-13.656744754715572,-1.3241178522879848,-1.0946673281560126,0.2311789389448845,-0.5184691365874449,-0.34636050252981737,2.477800176037244,-0.0019279999999999298,-0.07959800000000006,-0.9162399999999999,0.1322159999999999,0.13569900000000001,-0.9141009999999999,0.13414399999999982,0.21529700000000007,0.002139000000000002,0.9678875419690711,0.9471674120288963,double,-0.9141009999999999
93,0.3875,jog,-0.24022078233741828,-0.021598272138210414,-0.0710343172546102,0.1224586036511067,-0.05333497204665377,-0.13334028180842947,0.01823854091671812,0.003599712023061712,0.008879289656827315,-0.0016798656107195032,-0.00743940484758627,0.008879289656827107,3.8157420252607333,0.05884876913804228,1.5018117408411245,1.0934369489945657,1.6127216949738958,-1.0373944519190794,-0.2879262775175721,1.2677299443525738,-1.2102082792373534,-0.0008509999999999351,-0.07949300000000004,-0.915907,0.13321000000000005,0.13575800000000005,-0.913768,0.13406099999999999,0.21525100000000008,0.002139000000000002,0.9656632652886472,0.9591015632377649,double,-0.913768
94,0.391667,jog,-0.2495800335972968,-0.032397408207342694,-0.030237580993510964,0.024521046015161453,0.24426704817154832,-0.2104568163508807,0.011519078473733688,-0.0016798656107728119,0.01199904007679406,-0.0064794816414685385,-0.009359251259928604,0.011999040076794268,-2.246040619121328,-2.591585329765381,9.79043346798643,-1.612541982957636,-1.266997272338506,0.7486802063755129,-1.151815702123605,-0.4607262808596938,0.7486802063756128,0.00023700000000004273,-0.07936500000000013,-0.9157310000000001,0.13422299999999998,0.13585399999999992,-0.9135920000000001,0.13398599999999994,0.21521900000000005,0.002139000000000002,0.9721368383325262,0.9510441077671701,double,-0.9135920000000001
95,0.395833,jog,-0.2626020163226475,-0.02976476236198101,-0.03816610657705716,-0.1978318085622796,-0.015354408642851909,-0.21644217931470833,0.019203072491564548,-0.0009601536245542427,0.009841574651944152,-0.0036005760921983335,-0.0016802688429832496,0.010561689870378988,-3.125775978240687,0.6319361126648299,-1.9031506441541495,1.8444536768677038,0.17275851805534534,-0.5178745618938805,0.6910478994887669,1.8432507001789122,-0.34501925262008604,0.001411000000000051,-0.07924500000000001,-0.915531,0.13530200000000003,0.13597100000000006,-0.913389,0.13389099999999998,0.21521600000000007,0.0021419999999999773,0.9640009074293062,0.9597727360000867,double,-0.913389
96,0.4,jog,-0.2255819534437086,-0.018958483321319806,-0.058795296376301626,-0.07482656868958544,0.1562835472666482,0.0014624891374052226,0.016078713702913066,-0.006479481641468453,0.00839932805375571,-0.0050395968322117955,0.0026397888168906074,0.01007919366450685,8.884104362596265,2.5932995057982056,-4.95060950305839,-0.749786126386239,-1.3245327614384852,-0.34611149464565194,-0.34533735061517906,1.036730899897726,-0.1157898262232143,0.0024180000000000312,-0.07919300000000007,-0.9152509999999999,0.13622100000000015,0.136061,-0.913102,0.13380300000000012,0.21525400000000006,0.0021489999999999565,0.967895248342471,0.959220094309627,double,-0.913102
97,0.404167,jog,-0.25389968802496027,-0.04583633309336533,-0.05063594912406105,-0.17563216706614299,0.03564691390964408,-0.3478792079299533,0.013678905687538772,-0.010319174466046434,0.007679385649148091,-0.005519558435350708,0.005759539236866844,0.014158867290616836,-6.79571264248904,-6.450167931856414,1.9580866936022605,-0.5759078510617488,-0.9214525616937854,-0.17277235531740404,-0.11518157022772137,0.7486802063777909,0.9790433467986582,0.0035330000000000084,-0.07904500000000003,-0.915008,0.13725600000000004,0.13627600000000006,-0.912832,0.13372300000000004,0.2153210000000001,0.0021760000000000668,0.968705219355226,0.9511541621416715,double,-0.912832
98,0.408333,jog,-0.24123859817568935,-0.02760441670669399,-0.03936629860778994,-0.17585442890078398,0.1938827545377518,-0.16545214690164534,0.01200192030727448,-0.013202112337953957,0.0069611137782045985,-0.011521843494970707,0.006961113778164833,0.018722995679308664,3.0391478274774144,4.376360150425186,2.7051489477367037,-0.40254089780707913,-0.6920158117876909,-0.1724128350800508,-1.440778938939029,0.28842403775755826,1.0955661038626558,0.0045880000000000365,-0.07898499999999986,-0.9148149999999999,0.13821299999999992,0.13641999999999999,-0.9125899999999999,0.13362499999999988,0.21540499999999985,0.0022250000000000325,0.9680800059924455,0.9393167768951217,double,-0.9125899999999999
99,0.4125,jog,-0.23542116630672577,-0.043436525077990826,-0.032637389008858826,-0.26351453269290237,0.0271205339797651,-0.20041675427526465,0.026637868970475848,-0.014638828893709889,0.011999040076793852,-0.016318694504429413,0.005519558435350708,0.02639788816894681,1.3960719627942435,-3.799402056946706,1.6148091190139549,3.512346691433034,-0.3447843906301752,1.2090055912141304,-1.1511521500980881,-0.3459456066268618,1.8418268513650562,0.005680000000000129,-0.07886499999999996,-0.914629,0.13912600000000008,0.13662400000000008,-0.912344,0.13344599999999995,0.21548900000000004,0.0022849999999999815,0.9455367520087562,0.9246139326158165,double,-0.912344
100,0.416667,jog,-0.23782097432204383,-0.037197024238037925,-0.04583633309336472,-0.36015101360953233,0.11906407154654906,-0.22277822746851839,0.01367890568753859,-0.01535877129831138,0.0040796736261097975,-0.029757619390451653,0.004799616030695663,0.029997600191984438,-0.5759078510482452,1.4973604127556643,-3.167493180826924,-3.1099023957132608,-0.17277235531593116,-1.900495908491479,-3.2250839659280386,-0.17277235532878318,0.8638617765868973,0.006728000000000067,-0.07877400000000012,-0.9144209999999999,0.13999300000000003,0.1367989999999999,-0.912028,0.13326499999999997,0.21557300000000001,0.0023929999999999785,0.9650536898507158,0.905194360808149,double,-0.912028
101,0.420833,jog,-0.23571771483438256,-0.05712914066249647,-0.06265002400382993,-0.19336534587797005,0.19635476717596478,-0.22468393488704141,0.010801728276541701,-0.014882381180990506,0.0009601536245800595,-0.03648583773402061,0.006961113778218132,0.039606337013921834,0.5048630551275245,-4.784473457623267,-4.035931567562459,-0.690633079932042,0.11435192446492398,-0.7488046091045932,-1.6150308073857298,0.5188424742012645,2.306465871804462,0.007755000000000178,-0.07859800000000017,-0.9141560000000001,0.14082300000000014,0.1370659999999999,-0.911602,0.13306799999999996,0.21566400000000008,0.0025540000000000562,0.9693095880716552,0.8839623727774691,double,-0.911602
102,0.425,jog,-0.23854091672664868,-0.008879289656843046,-0.05711543076555624,-0.5789706414074903,0.0220813414789834,-0.06766547811622524,0.007439404847586369,-0.01703863690903111,-0.0023998080153588954,-0.06887449004083271,-0.013918886489108195,0.07535397168226586,-0.6775142530036322,11.579037918323422,1.3281961214959752,-0.8068930715035639,-0.5174599779315135,-0.8063262874823552,-7.772654741255648,-5.010799200222329,8.578746020720958,0.00878000000000001,-0.07863200000000004,-0.913928,0.14152999999999993,0.13704499999999986,-0.9110499999999999,0.13274999999999992,0.2156769999999999,0.002878000000000047,0.9687563797305634,0.7994995243897387,double,-0.9110499999999999
103,0.429167,jog,-0.23062155027597367,-0.027117830573561045,-0.0417566594672441,-0.2821409510894338,0.3090413842484314,-0.16613203533571727,0.0023998080153744745,-0.019438444924405357,-0.0040796736261097975,-0.05639548836092715,0.022318214542865384,0.044396448284137205,1.9004959084893083,-4.376899668038843,3.6858102467751435,-1.2094064872118686,-0.5759078510617299,-0.4031354957405542,2.9947208255112705,8.696208550989512,-7.429211278648529,0.009751000000000065,-0.0786,-0.913771,0.14225599999999994,0.137251,-0.9106909999999999,0.13250499999999987,0.21585100000000002,0.0030800000000000827,0.9666560035186504,0.8439269822869653,double,-0.9106909999999999
104,0.433333,jog,-0.2381180988957948,-0.057369179068675,-0.09385501680266896,-0.566910025868168,-0.01757498080362334,-0.2798874200522536,0.0040806529044488055,-0.024243879020620893,-0.0050408065290446875,-0.06529044647139408,0.03384541526642982,0.041046567450791924,-1.7994595822902364,-7.2614854765035854,-12.505606657567167,0.4034673281503432,-1.1534887412903343,-0.23070881011399166,-2.1351315675628713,2.7669708889977023,-0.8041000560118288,0.01075999999999988,-0.07846199999999981,-0.913401,0.142976,0.13763100000000006,-0.9101290000000001,0.1322160000000001,0.21609299999999987,0.0032719999999999416,0.9581727385363874,0.8269116825625105,double,-0.9101290000000001
105,0.4375,jog,-0.25005999520038236,0.0033597312215456238,-0.08423326133909101,-0.7746921107065803,0.13686416028008333,-0.15374991833243135,-0.003839692824577896,-0.023998080153585205,-0.009119270458363344,-0.07487401007921568,0.025917926565874154,0.05423566114710866,-2.865825847033267,14.573772567847605,2.3090365883316544,-1.9007309164930999,0.058987009127835284,-0.9787530427930597,-2.2998712761751037,-1.9024450925259684,3.1651292767738934,0.011785999999999852,-0.07857599999999998,-0.913088,0.1437059999999999,0.13772499999999988,-0.909552,0.13192000000000004,0.21630099999999985,0.0035359999999999836,0.9567368457467753,0.8046108078463969,double,-0.909552
106,0.441667,jog,-0.2620590352772016,-0.0009599232061711172,-0.0753539716822746,-0.4855988772188974,0.11407817700369949,-0.10382239495801539,-0.0014398848092033894,-0.031197504199708726,-0.01103911687065042,-0.08711303095749778,0.021118310535178427,0.05927525797936215,-2.879539255296209,-1.03663413192147,2.1308590489120363,0.5759078510617999,-1.7277235531854,-0.460726280846433,-2.9371300403844907,-1.1518157021108122,1.2094064872218664,0.012871999999999995,-0.07870200000000005,-0.91282,0.1444350000000001,0.13781700000000008,-0.908991,0.1315630000000001,0.21651900000000013,0.0038289999999999713,0.9447928235885119,0.7826055967801793,double,-0.908991
107,0.445833,jog,-0.23763802208354434,-0.021123379740726332,-0.09337493999039184,-0.39051246425341946,0.4012320109218857,-0.22415918328895373,-0.005520883341360118,-0.03312530004800081,-0.011521843494959256,-0.07345175228039828,0.027364378300515458,0.06240998559769554,5.861981083451088,-4.840003968928277,-4.325724509869713,-0.9795963831389165,-0.46274504279694684,-0.11587292950284114,3.279231559553406,1.4992961510650566,0.7524550212034052,0.013838999999999935,-0.07875200000000016,-0.912479,0.145119,0.1380189999999999,-0.908342,0.13128000000000006,0.21677100000000005,0.004137000000000057,0.9408270300620168,0.7916388540675544,double,-0.908342
108,0.45,jog,-0.25317974562035517,-0.003599712023061712,-0.10199184065274909,-0.5754488518974729,0.25708674044318086,-0.2730878672052061,-0.0067194624429845855,-0.03551715862731842,-0.014158867290616649,-0.047516198704084224,0.05927525797938717,0.093832493400527,-3.7297152716128408,4.205343824733498,-2.0678907277075074,-0.28763597351198905,-0.5740001390251004,-0.6328350841510374,6.224034935520485,7.657998483050508,7.540798608790791,0.014866000000000046,-0.0788850000000001,-0.9121130000000001,0.1459760000000001,0.1382810000000001,-0.907526,0.13111000000000006,0.2171660000000002,0.004587000000000008,0.9352978350131655,0.7529123030371717,double,-0.907526
109,0.454167,jog,-0.2610991120710305,0.0026397888168906425,-0.09839212862971533,-0.5924747081674607,0.36245366304051624,-0.24789483995464634,-0.010319174466046434,-0.036477081833436724,-0.015838732901368002,-0.08471322294217656,0.01895848332132006,0.08663306935445218,-1.9004959084894069,1.497360412755553,0.8638617765859805,-0.8638617765927212,-0.230363140417161,-0.4031354957406678,-8.9265716914069,-9.67525189778434,-1.727723553173713,0.01591100000000001,-0.07904800000000001,-0.911769,0.14671100000000004,0.13834900000000006,-0.906755,0.13080000000000003,0.21739700000000006,0.005014000000000074,0.9315259919412884,0.7454567837223784,double,-0.906755
110,0.458333,jog,-0.25132021123380205,0.0031204992798945625,-0.11113778204512503,-0.41215759093867804,0.5009904637593792,-0.21719652879943846,-0.009601536245808923,-0.03384541526642982,-0.01296207393182893,-0.10633701392222056,0.012241958713399715,0.09121459433509357,2.347311770818153,0.11538897335667779,-3.059446331111304,0.17226073457453464,0.6317010482493766,0.6905086340708283,-5.190540321662021,-1.6122238617187563,1.0997419540665836,0.01691799999999999,-0.079202,-0.9113600000000001,0.14731500000000008,0.13838700000000004,-0.905912,0.1303970000000001,0.21758900000000003,0.005448000000000008,0.9375118457125481,0.7111323326223152,double,-0.905912
111,0.4625,jog,-0.2481401487880901,0.021358291336694278,-0.1202303815694672,-0.33648257477005145,0.41253407477870674,-0.1389141359388719,-0.006479481641468453,-0.03407727381811505,-0.017278617710583026,-0.11039116870653311,0.013438924885969171,0.10079193664506768,0.7631539346560899,4.376719956035416,-2.1820493218963533,0.749233166388396,-0.05564160107636955,-1.0358876358901041,-0.9729193146898293,0.28724890150454685,2.298378284131037,0.01792499999999997,-0.07943300000000009,-0.910931,0.14788899999999994,0.13835399999999987,-0.904991,0.12996399999999997,0.21778699999999995,0.005940000000000056,0.9354116689416435,0.6904565449190077,double,-0.904991
112,0.466667,jog,-0.23158147348209457,0.002159827213805084,-0.10895128389730455,-0.49196793158411706,0.6506668777517781,-0.3150136941993441,-0.008879289656789758,-0.039116870650327366,-0.029037676985841407,-0.1252699784017073,0.015838732901397142,0.11303095752339858,3.9737641723051653,-4.6072628084687555,2.7067668999670564,-0.5759078510490327,-1.2094064872119852,-2.8219484701844126,-3.570628676547705,0.5759078510746304,2.9371300403962004,0.01885300000000001,-0.07960499999999993,-0.910598,0.1483319999999999,0.13841100000000006,-0.9040659999999999,0.1294789999999999,0.218016,0.006532000000000093,0.9174678843820029,0.6522331991716437,double,-0.9040659999999999
113,0.470833,jog,-0.2575612097935912,0.006961113778218132,-0.1375420067210596,-0.3732013638910066,0.503660136349724,-0.21631040019872352,-0.00216034565534032,-0.04224675948150596,-0.022323571771483468,-0.1389822371579176,0.048007681228991315,0.12962073931829096,-6.236134496278593,1.1524931743670292,-6.86287153714715,1.6128046090853179,-0.7512935264470939,1.6116431143441994,-3.2914687364883064,7.721783083916024,3.982184780339024,0.019916999999999963,-0.07980999999999994,-0.910118,0.14882600000000012,0.13858199999999998,-0.902953,0.12890900000000016,0.21839199999999992,0.007164999999999977,0.9202817873054767,0.6016563966725582,double,-0.902953
114,0.475,jog,-0.278377729781631,0.06935445164386497,-0.12359011279098779,-0.3018368887158253,0.603328740603966,0.037479224400133404,0.0014398848092033894,-0.038396928245778957,-0.020878329733621286,-0.24934005279578067,-0.06311495080391258,0.1742260619150476,-4.995565151917425,14.973203231496807,3.3481866882821896,0.8639861925950876,0.9238855857276284,0.3468303426595128,-26.483757052523085,-26.667298304032766,10.704421069536094,0.021082999999999963,-0.08025900000000008,-0.90969,0.14894700000000016,0.1380300000000001,-0.901712,0.1278640000000002,0.21828900000000018,0.00797800000000004,0.9271168740104885,0.42022000000000004,single,-0.901712
115,0.479167,jog,-0.28293736501080685,0.01703863690903088,-0.13150947924165796,-0.31007624483140694,0.5043675214018039,-0.3478770797647736,0.0009599232061711044,-0.021838252939726546,-0.018238540916726654,-0.20014398848092033,-0.009599232061444612,0.1495080393568504,-1.0942249170088352,-12.55479115306784,-1.900495908488146,-0.11518157020213135,3.973764172318763,0.6334986361638139,11.806110946690657,12.842745078585928,-5.931850865898015,0.02226600000000012,-0.08042099999999985,-0.909218,0.1492920000000002,0.13791900000000012,-0.900541,0.12702600000000008,0.21833999999999998,0.008676999999999935,0.9525519254929861,0.496555282699276,single,-0.900541
116,0.483333,jog,-0.2481997119539075,0.028564570331248235,-0.13682189150263058,-0.19661563458607262,0.6203214037601759,-0.0900423553640608,0.004560729716752576,-0.02280364858381618,-0.02280364858377329,-0.2503600576092478,-0.02232357177151241,0.1831493038886224,8.338370872995519,2.766666688002243,-1.2751829719089336,0.8643318556364544,-0.23173203170658485,-1.0958011682781161,-12.053785196430011,-3.0543302232519896,8.075195518908304,0.02331900000000009,-0.08063500000000001,-0.9087430000000001,0.14928300000000005,0.13770700000000002,-0.899208,0.12596399999999996,0.21834200000000004,0.009535000000000071,0.9457164585763973,0.40464999999999995,single,-0.899208
117,0.4875,jog,-0.2656587473002101,0.013438924886022635,-0.1605471562275101,-0.1867153651716899,0.48766839729427325,-0.31774077907409043,0.0033597312214923374,-0.008159347252188065,-0.0184785217182626,-0.30645548356131025,-0.03311735061194439,0.2061435085193193,-4.189833296448934,-3.629864517692749,-5.6936080453274895,-0.28821658153593605,3.5143511714970477,1.037947411929617,-13.46182528247247,-2.5902996977278714,5.518167657954652,0.024440000000000017,-0.08072499999999994,-0.908151,0.14911300000000005,0.137513,-0.89768,0.12467300000000003,0.21823799999999993,0.010471000000000008,0.965871219934442,0.39529000000000003,single,-0.89768
118,0.491667,jog,-0.27045836333090223,0.05519558435323991,-0.10775137988961586,-0.0876615299679849,0.5954833611299327,-0.049051893090963736,0.0,-0.005039596832265082,-0.01679865610751142,-0.28293736501080685,-0.0071994240460701376,0.15574754019678314,-1.1518157021099318,10.020796608403398,12.669972723276656,-0.8062709914788365,0.748680206365001,0.4031354957406212,5.6438969403655435,6.2198047914264585,-12.094064872218812,0.025566999999999895,-0.08097599999999994,-0.907772,0.1490609999999999,0.13725300000000007,-0.896582,0.12349399999999999,0.218229,0.011190000000000033,0.9707694802166276,0.3881,single,-0.896582
119,0.495833,jog,-0.2964474315890773,0.0681709073452167,-0.1473835813730204,-0.12330911884704206,0.34482504859957214,0.06595764644977685,0.0002400384061785351,-0.005760921747485354,-0.02088334133461338,-0.2952472395582913,0.009361497839630388,0.1586653864618334,-6.23837452188552,3.114575850210463,-9.513250476093258,0.05761843643267761,-0.17314568296213903,-0.9804813315175125,-2.95484266622286,3.975257293735121,0.7003951668387564,0.026803000000000132,-0.08128400000000013,-0.907245,0.14906600000000014,0.1370079999999998,-0.895307,0.12226300000000001,0.21829199999999993,0.011938000000000004,0.9638921452406873,0.38062,single,-0.895307
120,0.5,jog,-0.2913366930645681,0.047516198704084855,-0.15838732901367836,-0.039719997593065756,0.33726639472071246,-0.04824672586415208,-0.004079673626147319,-0.0011999040076872533,-0.016798656107511644,-0.34725221982246374,-0.0009599232061178308,0.17974562035037375,1.226479127552015,-4.956733535188857,-2.640688178703627,-1.036647955921737,1.094556693016109,0.9802460348216361,-12.480196847653644,-2.4769428955479427,5.058851425135703,0.028000000000000025,-0.08148700000000009,-0.906655,0.148833,0.13680599999999998,-0.893898,0.12083299999999997,0.21829300000000007,0.012757000000000018,0.9711190973545385,0.37243000000000004,single,-0.893898
121,0.504167,jog,-0.2824574034077213,0.05327573794095099,-0.14830813534917273,-0.04062003228547502,0.4074209592260104,-0.05430282415418513,-0.005279577633781215,-0.00455963522917953,-0.02135829133669282,-0.3868490520758182,-0.008159347252241243,0.19006479481641264,2.130859048919305,1.382178842540458,2.4188129744433775,-0.2879539255180914,-0.8062709914788219,-1.0942249170101133,-9.502479542441606,-1.7277235531853508,2.4764037595485506,0.029155000000000042,-0.08172800000000002,-0.906126,0.14839800000000003,0.13654999999999995,-0.892488,0.11924299999999999,0.21827799999999997,0.013638000000000039,0.9625522281393677,0.36362000000000005,single,-0.892488
122,0.508333,jog,-0.26692270763322157,0.04152664426307696,-0.132981277004307,-0.08358658844587542,0.6248329124517513,-0.1397697806426476,-0.009121459433505152,0.0014402304368580138,-0.020403264522323557,-0.40206433029281563,0.0026404224675907915,0.1939510321651462,3.7289236136581176,-2.8202337200849787,3.6790346483114993,-0.9221991838031528,1.440198191559659,0.22924311434691874,-3.6522511322605395,2.5923595102813315,0.9328462190911075,0.03022900000000006,-0.08189500000000005,-0.905657,0.14783500000000016,0.13638799999999995,-0.8911260000000001,0.1176060000000001,0.218283,0.01453099999999996,0.962673792008971,0.35469000000000006,single,-0.8911260000000001
123,0.5125,jog,-0.2836573074154161,0.03791696664269391,-0.19126469882410915,-0.0772805310354012,0.025216619508002792,-0.11955542357281601,-0.013438924886022816,-0.004079673626094086,-0.026157907367411037,-0.44948404127670966,0.0040796736261473725,0.2104631629469689,-4.015982669113239,-0.8662533286256582,-13.986902284570014,-1.036108819898667,-1.3246710014284149,-1.38100380251682,-11.379820250514742,0.34539264664185465,3.962594380087117,0.03135500000000002,-0.08207000000000009,-0.904969,0.14714400000000016,0.136247,-0.889452,0.11578900000000014,0.2183170000000001,0.015517000000000003,0.9505169906592602,0.34482999999999997,single,-0.889452
124,0.516667,jog,-0.3280537556995166,0.1067914566834714,-0.11951043916486552,0.2759904267023098,0.17050093975811445,0.33457331669951523,-0.013438924885969171,-0.0004799616030855522,-0.02807775377969739,-0.4866810655147889,0.019438444924405357,0.20974322054235495,-10.654295244564473,16.528555325360443,17.21964474663861,1.2873671411352622e-11,0.8638617765799151,-0.46072628084625367,-8.92657169140364,3.685810246762147,-0.1727723553189223,0.032666000000000084,-0.08251700000000017,-0.904588,0.14648299999999992,0.13588299999999998,-0.88808,0.11381699999999983,0.21840000000000015,0.016507999999999967,0.9481134966557758,0.33492,single,-0.88808
125,0.520833,jog,-0.2918867018723248,0.06048967834851627,-0.11977916466635306,-0.045515154215544286,0.6810559360108445,-0.016237979103152944,-0.015362457993294278,-0.00384061449827027,-0.028564570331253022,-0.540086413826179,0.02184349495915534,0.2117138742198744,8.681481955638933,-11.114205073200935,-0.06450444106758117,-0.46172182124942523,-0.8066857645666624,-0.11685466912041087,-12.819334688283726,0.577304377040322,0.4730325678155172,0.033818000000000126,-0.08278499999999989,-0.9042079999999999,0.14544900000000016,0.1357219999999999,-0.8866989999999999,0.11163100000000004,0.21850699999999978,0.017508999999999997,0.9455662963492604,0.32491000000000003,single,-0.8866989999999999
126,0.525,jog,-0.2891768658507059,0.06695464362848957,-0.14662826973839993,0.1176253712806483,0.26731226901349375,0.06642709766266054,-0.014638828893709694,0.0,-0.024958003359731012,-0.5795536357091523,0.028557715382817702,0.2150227981761445,0.6503086204988898,1.551467549789598,-6.443269755710742,0.1736570913329921,0.921673745685203,0.8655068326186665,-9.471375541870184,1.611283998959038,0.7940782232469606,0.03496199999999994,-0.0830639999999998,-0.9037010000000001,0.144239,0.13556200000000018,-0.8851920000000001,0.10927700000000007,0.218626,0.018508999999999998,0.9517760650977691,0.31491,single,-0.8851920000000001
127,0.529167,jog,-0.2937365010799387,0.06335493160548115,-0.15694744420447287,-0.19045610694385168,0.3663233326134004,-0.030518722041948648,-0.01511879049674196,-0.0023998080153744745,-0.026637868970482155,-0.6407487401007751,0.04391648668102251,0.21022318214542718,-1.0942249170225031,-0.8638617765798877,-2.476403759556723,-0.11518157020212673,-0.5759078510617845,-0.403135495740612,-14.6856502019732,3.685810246749385,-1.1518157021159798,0.03612300000000013,-0.08333799999999991,-0.903158,0.14279300000000017,0.13548099999999996,-0.883662,0.10667000000000004,0.21881899999999987,0.01949600000000007,0.9487947222803805,0.30504,single,-0.883662
128,0.533333,jog,-0.2974075852136395,0.09289486317814384,-0.1411425828132617,-0.010123081983647501,0.4355913777398314,0.17482877715673367,-0.012481997119525284,0.0014402304368580521,-0.0264042246759488,-0.7167546807489756,0.17258761401828007,0.2503600576092237,-0.8812011842777039,7.090718092334002,3.793773737688811,0.6329316796007549,0.9217567096093677,0.056083604064656796,-18.24434485074472,30.88601232291428,9.63439161396965,0.037310000000000176,-0.0837190000000001,-0.9026799999999999,0.141046,0.13581299999999996,-0.882031,0.10373599999999983,0.21953200000000006,0.020648999999999917,0.9512643868368124,0.29351,single,-0.882031
129,0.5375,jog,-0.32997360211180554,0.10343172546192582,-0.12359011279095951,0.16498351783197338,0.1958241702613872,0.2888927865057442,-0.013438924886022456,0.0023998080153744745,-0.025677945764338735,-0.7499400047995677,0.0585553155747322,0.2906167506599451,-7.81521883805274,2.528644656535133,4.212255824886502,-0.22964429241592646,0.23028019642822534,0.17429299534678666,-7.963840664888839,-27.365562381460762,9.660833465495818,0.038629000000000024,-0.08413999999999988,-0.9022720000000001,0.1392960000000001,0.13562600000000002,-0.880305,0.10066700000000006,0.2197659999999999,0.02196700000000007,0.9515312047900023,0.28032999999999997,single,-0.880305
130,0.541667,jog,-0.2946964242860565,0.07919366450687808,-0.15310775137989502,-0.22771023526101142,0.5238956428718935,0.10701889711248928,-0.010799136069131849,0.0019198464122889224,-0.0242380609551235,-0.7631389488841273,0.10655147588195527,0.26109911207103204,8.465845410546855,-5.81666929566776,-7.0836665680190265,0.633498636162848,-0.11518157021491443,0.3455447106348031,-3.1674931808398057,11.518157021171753,-7.083666568013635,0.03981199999999996,-0.08446200000000004,-0.901735,0.1373439999999999,0.13573999999999997,-0.878579,0.09753199999999995,0.220202,0.023155999999999954,0.955659438278796,0.26844,single,-0.878579
131,0.545833,jog,-0.2923667786845752,0.08113298127699213,-0.16754680748919248,-0.05869114368849951,0.48754316334183967,0.16871113052764225,-0.011761881901095944,0.0038406144983235695,-0.024963994239078215,-0.8370139222275601,0.15794527124335692,0.1987518002880465,0.5592044170622417,0.4655105065084136,-3.4659280147137435,-0.2310959750273872,0.4610581099459063,-0.17425186844808327,-17.732830855360728,12.336484724292275,-14.965749347812165,0.040980999999999934,-0.08478399999999997,-0.901141,0.13507499999999983,0.13605999999999985,-0.877053,0.0940939999999999,0.22084399999999982,0.024088,0.9535632690298823,0.25912,single,-0.877053
132,0.55,jog,-0.3246940244780776,0.102471802255808,-0.1778257739380816,0.24885538611529914,0.15342167937713408,0.28331015165215195,-0.01511879049674196,0.00455963522917953,-0.023758099352051684,-0.9004079673625988,0.14182865370770426,0.1718262538996862,-7.757918356971954,5.120907362326784,-2.466754607364781,-0.8055936154658003,0.1725511713117242,0.2893916215566407,-15.213353764108033,-3.867678794253069,-6.4616142040700995,0.04227100000000017,-0.08519199999999993,-0.900499,0.13267600000000002,0.1362239999999999,-0.875596,0.09040499999999985,0.22141599999999984,0.02490300000000001,0.9524542505600744,0.25097,single,-0.875596
133,0.554167,jog,-0.3230141588672601,0.11927045836332592,-0.18598512119032778,-0.21135084586774947,0.21933572197825768,0.20094173600391443,-0.012239020878335546,0.0009599232061178436,-0.026637868970482866,-0.9678425725941997,0.17350611951044947,0.1442284617230651,0.4031354957565496,4.0313549574077845,-1.958086693603632,0.6910894212638513,-0.8638617765926936,-0.6910894212697952,-16.183010614735355,7.601983633968279,-6.622940287166214,0.043565999999999994,-0.08568500000000001,-0.8998349999999999,0.1299889999999999,0.13644999999999996,-0.87422,0.08642299999999992,0.22213499999999997,0.025614999999999943,0.9511154663202668,0.24385,single,-0.87422
134,0.558333,jog,-0.2962073931828988,0.08113298127699213,-0.21771483437349748,-0.2998336868141228,0.13915692449571318,-0.005023047196799671,-0.010561689870363166,0.0007201152184290069,-0.02424387902064317,-1.0108017282765152,0.2078732597215633,0.11689870379260704,6.434653308776111,-9.154459214194373,-7.6163497799255095,0.402623861731248,-0.05756312714566408,0.5746495318866284,-10.311847259317192,8.249433560036922,-6.560191533955364,0.04475600000000002,-0.08601999999999999,-0.899029,0.1270119999999999,0.13697800000000004,-0.872826,0.08225599999999988,0.22299800000000003,0.026202999999999976,0.9559093884769001,0.23797000000000001,single,-0.872826
135,0.5625,jog,-0.3318934485241477,0.1197504199664083,-0.19294456443482355,-0.08460721930745355,0.34397411371678666,0.19892544511623006,-0.009119270458412347,0.0,-0.0242380609551235,-1.0993520518358317,0.20542356611470156,0.1468682505399552,-8.563968164446518,9.267443889948613,5.944389234142966,0.34615296663086353,-0.172813827316775,0.0013962240267988216,-21.250377624025894,-0.587879435291994,7.192115850095495,0.04610099999999995,-0.08651900000000001,-0.8983260000000001,0.12381400000000009,0.13733499999999998,-0.87141,0.07771300000000014,0.223854,0.02691600000000005,0.956838652433316,0.23084000000000005,single,-0.87141
136,0.566667,jog,-0.33453323734098506,0.13294936405086133,-0.18838492920567068,0.21349223496691808,0.29616658533955925,0.29078139188817187,-0.007679385649102403,-0.00455963522917953,-0.022318214542836244,-1.11327093832494,0.23302135829134815,0.0659947204223651,-0.6334986361500676,3.1674931808142386,1.09422491700332,0.3455447106575312,-1.094224917009718,0.46072628084647016,-3.3402655361430553,6.622940287172159,-19.408094580655025,0.04746300000000003,-0.08709199999999995,-0.897634,0.12056899999999993,0.1377520000000001,-0.87035,0.0731059999999999,0.22484400000000004,0.027284000000000086,0.9599352628809433,0.22716000000000008,single,-0.87035
137,0.570833,jog,-0.3118098895823716,0.10057609217478851,-0.23523763802207878,-0.2075458427178126,0.26717295789902756,-0.032041028119710095,-0.007201152184396667,-0.007441190590468603,-0.017762842054728813,-1.1805088814210212,0.2981277004320606,0.048727796447431984,5.454476178255746,-7.770828582830724,-11.246449547865595,0.11479439863315795,-0.6916839561423599,1.0934643514420135,-16.139688693250402,15.62802259738656,-4.144724909969539,0.048732,-0.08754200000000001,-0.8967280000000001,0.11695000000000011,0.1385749999999999,-0.869167,0.06821800000000011,0.2261169999999999,0.027561000000000058,0.9657320011588492,0.22439000000000003,single,-0.869167
138,0.575,jog,-0.33045356371489987,0.13630909527235727,-0.24094072474202638,-0.32427198140906327,0.21907948331561147,0.021032859300088736,-0.005759539236813634,-0.006479481641468625,-0.019198464122870587,-1.2251019918406556,0.2858171346292212,0.050635949124071725,-4.474123861897917,8.575234724638694,-1.3686313222816668,0.34595943066548124,0.23079168442524506,-0.3445217346152632,-10.701490381481948,-2.9542994487256147,0.457920008792843,0.05008500000000016,-0.08813699999999991,-0.895804,0.11322200000000016,0.13919799999999993,-0.8679520000000001,0.063137,0.22733499999999984,0.027851999999999988,0.9648915569176622,0.22148,single,-0.8679520000000001
139,0.579167,jog,-0.36573074154064006,0.1336693064555163,-0.20182385409166648,0.2519117630714779,0.08670096103349738,0.15516247078503465,-0.005999520038436187,-0.0071994240460701376,-0.01871850251979826,-1.2467002639788867,0.3364530837533273,0.015358771298296393,-8.465845410544738,-0.6334986361509335,9.387297972248525,-0.05759078512660214,-0.17277235531593638,0.11518157021174034,-5.183170659522655,12.151655657332778,-8.46584541055317,0.05158399999999985,-0.08872400000000003,-0.8950410000000001,0.10955099999999995,0.14004299999999992,-0.867047,0.0579670000000001,0.22876699999999994,0.027994000000000074,0.965110958268055,0.22005999999999998,single,-0.867047
140,0.583333,jog,-0.36101776284209575,0.15434469515121188,-0.21819491118580125,-0.3646526625469232,0.40882177737949443,-0.14518458901727055,-0.0038406144983235695,-0.008881421027379916,-0.0158425348055689,-1.309889582333183,0.3456553048487481,0.028084493518962785,1.1312958949938332,4.962887348942765,-3.9296824517846294,0.5182202448662064,-0.40374387453427213,0.6903427062480455,-15.167863263153235,2.20888648473856,3.0546620788925547,0.05307200000000001,-0.08940400000000004,-0.894198,0.10559800000000008,0.14083999999999985,-0.866021,0.05252600000000007,0.2302439999999999,0.028177000000000008,0.9690602795631399,0.21823000000000004,single,-0.866021
141,0.5875,jog,-0.3306935445164072,0.14278857691382207,-0.23806095512358658,-0.05868989931334174,0.3254819726617256,-0.05913671099497233,-0.0035997120230084256,-0.003839692824577845,-0.01871850251979826,-1.336453083753274,0.3938084953203722,0.022078233741299295,7.277230219747616,-2.773246517252152,-4.767469147536638,0.05781196911810464,1.2099179752344693,-0.6901770372520609,-6.374730362392775,11.55584124589002,-1.4413870356763723,0.05443500000000001,-0.09001499999999996,-0.893284,0.10140700000000002,0.14188599999999996,-0.864937,0.046972000000000014,0.2319009999999999,0.02834700000000001,0.9675927175442771,0.21653000000000006,single,-0.864937
142,0.591667,jog,-0.21934245260380955,0.10559155267578416,-0.33381329493641,-2.639779866449859,0.9152019770128786,-1.4624434181285808,-0.0026397888168906074,-0.019438444924405357,-0.016318694504439502,-1.4281257499400033,0.4948404127669769,0.056635469162466597,26.722124289080107,-8.92657169139372,-22.978723257216867,0.23036314041704126,-3.743401031876024,0.5759078510580131,-21.999679910422035,24.245720529542574,8.29307305523567,0.05533800000000011,-0.09053599999999995,-0.891961,0.09637000000000007,0.14350799999999997,-0.86331,0.04103199999999996,0.23404399999999992,0.028650999999999982,0.9574715318741883,0.21349000000000007,single,-0.86331
143,0.595833,jog,-0.4649543927028098,0.19347095535288172,-0.15746519443111065,1.6930265733438947,-0.17945323238044192,1.083642078622824,0.016562650023974196,-0.03264522323569791,0.04800768122899791,-1.3653384541526794,0.37518002880461393,-0.05688910225636109,-58.95629863154264,21.094431751584217,42.33031697198846,4.609322813457825,-3.1701340161528786,15.440800704138042,15.071362406943235,-28.723087845023056,-27.250257181668417,0.05734399999999984,-0.09147799999999995,-0.891105,0.092619,0.14426499999999987,-0.862891,0.03527500000000017,0.2357429999999998,0.028214000000000072,0.8993801235547276,0.21786,single,-0.862891
144,0.6,jog,-0.37269018478524735,0.18910487161027237,-0.20830333573313495,-0.07240870830058424,0.14343867638832417,-0.13038810295682576,-0.0028797696184067402,-0.015118790496795246,-0.015118790496760069,-1.4679625629949853,0.47612191024722644,-0.007439404847612913,22.14163856912929,-1.0477762761241474,-12.200177898253878,-4.665807449575423,4.206007376746467,-15.149141282879167,-24.627815896881472,24.224113617137448,11.866978019857882,0.058885000000000076,-0.0923290000000001,-0.8903,0.088055,0.14546100000000006,-0.862054,0.029169999999999918,0.23779000000000017,0.028245999999999993,0.9640428988150074,0.21754,single,-0.862054
145,0.604167,jog,-0.3882889368850216,0.1816654667626328,-0.22270218382530185,0.07341714667021057,0.21578111969833377,-0.12622503070122376,0.014638828893656407,0.003599712023061712,-0.06287497000239946,-1.4953203743700092,0.5320374370050148,0.001679865610751142,-3.7434010318632396,-1.7853143382864227,-3.4554471063515226,4.204127312710106,4.492081238266574,-11.46056623605448,-6.565349502045525,13.418652929634739,2.188449834020635,0.06056399999999984,-0.0930709999999999,-0.8896339999999999,0.08344200000000002,0.14692100000000008,-0.861119,0.022878000000000176,0.23999199999999998,0.028514999999999957,0.8922384951897459,0.21485000000000004,single,-0.861119
146,0.608333,jog,-0.37926068170910604,0.20667306769083055,-0.23355736917906889,-0.1518115221563662,0.21570729257150842,-0.2849513964428383,0.000960153624607542,-0.008881421027379916,-0.013682189150263974,-1.5643302928468799,0.5314450312049775,-0.05160825732117133,2.167127982696961,6.002784668314388,-2.605661390726602,-3.2834074097572863,-2.9959512843114786,11.808156709586042,-16.565030839383247,-0.14220014403199144,-12.79119609503659,0.06214800000000009,-0.09396899999999997,-0.888718,0.07850500000000005,0.14827400000000002,-0.8603609999999999,0.016356999999999955,0.24224299999999999,0.028357000000000077,0.9727662467192704,0.21643,single,-0.8603609999999999
147,0.6125,jog,-0.41876649868007493,0.20830333573316157,-0.2906167506599359,0.07296632471426955,-0.17536166265848374,0.1367823540851594,-0.0021598272138050553,-0.0033597312214922927,-0.02591792656587454,-1.5627549796016376,0.5497960163187007,-0.0494360451163898,-9.4806376220227,0.39123303151691996,-13.69315610291975,-0.7487355023788274,1.3250995454493837,-2.9363420723807225,0.3780449352633265,4.403884116564192,0.5212892260094829,0.06388400000000005,-0.09485100000000002,-0.887615,0.07373799999999986,0.14969699999999997,-0.859356,0.009853999999999807,0.244548,0.028259000000000034,0.9562935434165796,0.21741,single,-0.859356
148,0.616667,jog,-0.39116870650349206,0.21262299016077735,-0.3107751379889779,-0.38257578493327954,-0.12090770086573771,-0.33888953044376413,-0.007199424046123616,0.0175185985121169,-0.021358291336693494,-1.5896328293736715,0.6263498920086515,-0.035757139428847166,6.622940287157042,1.0366341318972556,-4.837625948894251,-1.2094064872374983,5.010398304201966,1.0942249170101108,-6.450167931853708,18.371460448752657,3.282674751030212,0.06548399999999988,-0.09566399999999997,-0.886409,0.06874399999999992,0.15142100000000003,-0.8582099999999999,0.0032600000000000406,0.247085,0.028199000000000085,0.9524222972027243,0.21801000000000004,single,-0.8582099999999999
149,0.620833,jog,-0.4378300528084605,0.23115698511762997,-0.24291886701869927,0.24671576097827944,-0.01845149043023313,-0.16470430673923328,-0.018722995679260775,-0.000960153624607542,-0.020163226116178542,-1.660825732117113,0.6094575132021285,-0.045127220355256965,-11.200515195623716,4.448870608942057,16.288111130647756,-2.766099767915783,-4.435610210447535,0.28686155077171177,-17.08903090337048,-4.054819684715085,-2.249179291024914,0.06723000000000012,-0.09663100000000013,-0.8854810000000001,0.06364900000000007,0.15299700000000005,-0.8573860000000001,0.0035810000000000564,0.24962800000000018,0.02809499999999998,0.954112814981843,0.21905000000000002,single,-0.8573860000000001
150,0.625,jog,-0.399568034557239,0.20974322054236494,-0.32589392848573817,-0.055424378028708234,-0.10972029227161736,-0.3524731907820163,-0.03815694744420903,0.002639788816943894,-0.019678425725941785,-1.6587473002159772,0.6625869930405549,-0.1192704583633294,9.182149808308424,-5.138892386672635,-19.912421758348515,-4.66377532156182,0.8639170726065295,0.11634278623392198,0.49878375357229493,12.7500551568097,-17.792953685642395,0.06873600000000013,-0.09749399999999997,-0.884205,0.058402000000000065,0.15488400000000002,-0.856525,0.010334000000000065,0.252378,0.027680000000000038,0.9283108259701494,0.2232,single,-0.856525
151,0.629167,jog,-0.4281257499400034,0.24886009119269178,-0.20182385409166648,0.44164143009530477,0.5561749122848595,-0.257796256003451,-0.036237101031920106,-0.009359251259928479,-0.018478521718262458,-1.6525077993760247,0.702903767698569,-0.03983681305495518,-6.8533034275892,9.387297972240592,29.774435899705004,0.4607262808468698,-2.8795392553089227,0.2879539255289941,1.4973604127555695,9.675251897771485,19.062549870020067,0.07036900000000013,-0.09857000000000005,-0.883441,0.053300000000000125,0.15677600000000003,-0.85585,0.017069,0.2553460000000001,0.027591000000000032,0.9304343068220893,0.22409,single,-0.85585
152,0.633333,jog,-0.4183869419106641,0.24195871339411837,-0.31973115698511734,-0.10570042692293423,-0.1973402130861805,-0.26874949372341445,0.026884301488211686,0.03096495439271379,0.03384541526644262,-1.7145943350936428,0.7119539126260255,-0.06240998559769554,2.337687957114568,-1.6565957269739344,-28.30228105939769,15.15156085456835,9.679358053922765,12.559754437039137,-14.903153076720615,2.172382363767757,-5.41842835879509,0.07222399999999984,-0.0994489999999999,-0.881968,0.04789999999999983,0.15873400000000015,-0.854778,0.024324000000000012,0.25818300000000005,0.027189999999999936,0.9113824352498355,0.22809999999999997,single,-0.854778
153,0.6375,jog,-0.40676745860332,0.22150227981762052,-0.2793376529877526,0.1890783919824728,0.263183900503967,-0.3720434127637431,-0.007679385649155894,0.00575953923686692,-0.010799136069114652,-1.740820734341255,0.7384209263259071,-0.08447324214063075,2.788452917529243,-4.909151326253476,9.693665466130433,-8.294621343260916,-6.048815732144793,-10.713835213716852,-6.293832312842012,6.351575161958744,-5.294757989665377,0.07388699999999981,-0.10034799999999988,-0.880849,0.04234099999999996,0.16088800000000014,-0.853966,0.03154599999999985,0.261236,0.02688299999999999,0.9759187373434168,0.23117,single,-0.853966
154,0.641667,jog,-0.4274058075354017,0.2536597072234407,-0.284617230621553,-0.12130625357776485,0.056591780538445824,-0.33280751563509064,-0.009599232061391325,-0.009359251259928479,-0.013438924886009031,-1.8656107511399354,0.8713702903767487,-0.14350851931845374,-4.952807519098046,7.717165204180454,-1.2669972723302954,-0.46072628083403316,-3.6282194616739343,-0.633498636163753,-29.947208255022666,31.90529494860587,-14.167333136026528,0.07562800000000003,-0.10144400000000009,-0.879719,0.036347999999999825,0.163462,-0.853378,0.039280000000000204,0.2649060000000001,0.02634100000000006,0.968362050635058,0.23659000000000002,single,-0.853378
155,0.645833,jog,-0.41718674987998466,0.24867978876621127,-0.23019683149304906,0.39872940936682405,0.5210482985196847,-0.3848194422783274,-0.07777244359097232,-0.011041766682666937,-0.019923187710033527,-1.7623619779164557,0.7803648583773141,-0.07801248199711922,2.452966311909991,-1.1953716892053396,13.062985868579903,-16.364189037345405,-0.40386832038849174,-1.5564721133040065,24.783670960988868,-21.844798847679932,15.721564407425461,0.07704200000000005,-0.10252600000000012,-0.8788429999999999,0.030743999999999883,0.16567699999999985,-0.852744,0.04629800000000017,0.26820299999999997,0.026098999999999983,0.8649341004246583,0.23901,single,-0.852744
156,0.65,jog,-0.4432445404367987,0.24958003359729347,-0.2526997840172696,-0.03565658331385066,0.3498463768478702,-0.4022004690580457,-0.018238540916771406,0.0016798656107727896,-0.012958963282937322,-1.7254619630429506,0.7552195824334021,-0.04271658267338606,-6.2533694640781885,0.21604147614163444,-5.400276583686195,14.286993682313526,3.052947514624341,1.6712801600902694,8.855295146029457,-6.034383475860745,8.470338210639042,0.07881300000000002,-0.10355899999999996,-0.877844,0.025401000000000007,0.16778399999999993,-0.851869,0.053412000000000015,0.2713429999999999,0.02597499999999997,0.9626056654390773,0.24025000000000002,single,-0.851869
157,0.654167,jog,-0.42428605711542555,0.25101991840655014,-0.22606191504679415,0.060696956653563054,0.48672481177901084,-0.48601289858491614,0.00023998080156941934,0.018958483321319806,-0.008159347252219699,-1.8101751859850728,0.8728101751860055,-0.07127429805615464,4.549672023367645,0.3455447106447452,6.392577146742322,4.434490453165511,4.146536527609044,1.1518157021160513,-20.32954714233777,28.21948470184843,-6.853303427590199,0.08058200000000015,-0.10452600000000012,-0.876936,0.019626000000000143,0.17037499999999994,-0.851224,0.06095600000000001,0.27490100000000006,0.025712000000000068,0.9655981013035219,0.24288000000000004,single,-0.851224
158,0.658333,jog,-0.4471915506481028,0.2676428228516577,-0.25252040326454156,0.022002788296082074,0.2698530918411848,-0.2501149362447105,0.045367258761401734,0.03240518482957267,-0.003600576092174903,-1.8744599135862114,0.9289486317811186,-0.047767642822853194,-5.498198159548206,3.9901354885040776,-6.351053340794069,10.832279875140058,3.227724797948443,1.0942801632368975,-15.430803552842137,13.475385644530638,5.642500056001452,0.0826340000000001,-0.1055060000000001,-0.875899,0.013680000000000136,0.17313,-0.850371,0.06895399999999996,0.2786360000000001,0.025527999999999995,0.9068864444831192,0.24472000000000005,single,-0.850371
159,0.6625,jog,-0.4823614110871255,0.2920566354691659,-0.17158627309812927,0.6328794170018156,0.46475106910268427,-0.14614423103335408,0.01655867530594533,0.00311975041997616,-0.024478041756659304,-1.7425005999520347,0.820494360451119,-0.03983681305495518,-8.44009129806154,5.858846320496282,19.422637428944487,-6.913506948753584,-7.027942022941274,-5.010190944200682,31.667701856053704,-26.02694296376261,1.9032468845447459,0.08471300000000004,-0.10671000000000008,-0.875286,0.00842900000000002,0.17533199999999982,-0.8498220000000001,0.07628400000000002,0.2820419999999999,0.02546399999999993,0.9504717505185334,0.24536000000000002,single,-0.8498220000000001
160,0.666667,jog,-0.4614830813534635,0.27165826733858944,-0.23638108951284045,0.15668703595345168,0.3688423805472194,-0.2677615491624162,-0.03191744660425671,0.011519078473733534,-0.01175905927525789,-1.7998560115190263,0.9095272378210111,-0.05591552675785908,5.010398304214503,-4.895216733999588,-15.54951197857228,-11.63333859136109,2.0156774787034584,3.0523116106074673,-13.764197640266667,21.36618127427199,-3.8585826020887404,0.086503,-0.10779399999999995,-0.8743500000000001,0.0028520000000000767,0.1779900000000001,-0.84907,0.08365099999999992,0.28578400000000004,0.02528000000000008,0.9401462884827925,0.24720000000000003,single,-0.84907
161,0.670833,jog,-0.49879980796928053,0.290686509841592,-0.18843014882382023,0.246784113558473,0.4686495673605597,-0.21877691394558754,0.022083533365333873,0.005280844935181583,-0.009121459433509317,-1.8622179548728153,0.9313490158425062,-0.028324531925108008,-8.957447579408786,4.567509002160956,11.51006737614503,12.962309162167676,-1.4974156357541877,0.6331252620615868,-14.969261486747222,5.238064815529304,6.62289842360803,0.088673,-0.10898300000000005,-0.873603,-0.0028280000000000527,0.1806589999999999,-0.848403,0.09150100000000005,0.28964199999999996,0.0252,0.9592170109221585,0.248,single,-0.848403
162,0.675,jog,-0.4614830813534635,0.2951763858890888,-0.27813774898008453,0.20709162480638713,0.03825452729500491,-0.2083045760235902,0.01055915526756243,-0.004079673626093978,0.0026397888168946666,-1.8584113270938118,0.9781617470602202,-0.002639788816893938,8.955297963958902,1.077484052675007,-21.52810178936012,-2.765629493105677,-2.246344747126347,2.822473782194359,0.9135175855539706,11.2341567597105,6.163845238352262,0.09063999999999983,-0.11022999999999983,-0.872433,-0.008649000000000129,0.18350500000000003,-0.847255,0.09928899999999996,0.29373499999999986,0.025178000000000034,0.980627340151522,0.24822,single,-0.847255
163,0.679167,jog,-0.5118790496760747,0.31677465802736093,-0.15502759779216144,0.7034567744363524,0.6347519584295259,-0.11019166030283957,0.0040796736261473725,-0.002639788816890678,0.013918886489081113,-1.832493400527987,0.9589632829374097,0.024958003359731678,-12.094064872237132,5.183170659532651,29.544072759281363,-1.5549511978438157,0.3455447106319479,2.7067668999728007,6.219804791414787,-4.607262808449921,6.6229402871673,0.09279000000000015,-0.1115609999999998,-0.8717290000000001,-0.014151999999999942,0.18618100000000015,-0.8465050000000001,0.10694200000000009,0.29774199999999995,0.025224000000000024,0.9754288096097625,0.24776000000000004,single,-0.8465050000000001
164,0.683333,jog,-0.4896783485357221,0.30532885261645726,-0.29452712433991557,-0.07728533164025794,-0.067856597780201,-0.17966936742603412,-0.025204032645228438,0.01632261161784852,-0.028084493518962993,-1.8785405664906103,1.00168026884301,0.0,5.329020917031333,-2.747432887878941,-33.48524401050265,-7.029214179398894,4.55170437703773,-10.082424389832951,-11.053088325161626,10.253717212097987,-5.9908793470311235,0.09472499999999995,-0.112765,-0.8706189999999999,-0.01993800000000001,0.18908199999999997,-0.845278,0.11466299999999996,0.301847,0.025340999999999947,0.9314756797466619,0.24658999999999998,single,-0.845278
165,0.6875,jog,-0.4756419486441409,0.3155747540196652,-0.2987760979121505,0.08656267837929707,0.01804091574742813,-0.27685452943348665,-0.029757619390451653,-0.020878329733608727,-0.03503719702423787,-1.8490520758339366,1.0417566594672174,0.0014398848092150266,3.3684664966597366,2.4588196311993977,-1.0196720835696864,-1.0927733969818048,-8.927511723411799,-1.6685153600371543,7.076671623871722,9.617564344662135,0.34554471063475295,0.09658300000000009,-0.11416699999999991,-0.8695200000000001,-0.025660999999999934,0.19210799999999995,-0.844027,0.12224400000000002,0.30627499999999985,0.0254930000000001,0.915853538075839,0.24507,single,-0.844027
166,0.691667,jog,-0.3890088792896233,0.25437964962804244,-0.5881929445644258,-2.763351014406337,-1.1083397108400541,-1.3344597856627132,0.0028797696184067402,0.010799136069078563,-0.009119270458363223,-1.9133669306455356,1.0136789056875386,0.046076313894888345,20.790273423210206,-14.6856502019732,-69.45448683759855,7.832346774384004,7.601983633954176,6.2198047914265535,-15.434330408350984,-6.738121857374272,10.71188602967914,0.09821599999999986,-0.11518200000000012,-0.8671070000000001,-0.03201300000000007,0.1952719999999999,-0.841384,0.13022899999999993,0.310454,0.02572300000000005,0.9759586290262927,0.24276999999999999,single,-0.841384
167,0.695833,jog,-0.5307249159865486,0.16490638502157504,-0.4169467114738328,1.710286318275042,-1.7048294809155748,0.9364278585237573,0.000480076812303771,0.012722035525703486,-0.00792126740278445,-1.8840614498319705,1.0381661065770837,0.05976956313010059,-34.01729157391387,-21.477019828724757,41.10567284939821,-0.5760184364145385,0.4615697207453003,0.28756674401794796,7.034440905800547,5.877868672478427,3.2869057213663546,0.10042899999999988,-0.11581599999999992,-0.865403,-0.0376510000000001,0.19891000000000014,-0.8393980000000001,0.13807999999999998,0.31472600000000006,0.026004999999999945,0.9750096052380237,0.23995,single,-0.8393980000000001
168,0.7,jog,-0.5241180705544102,0.30861531077517274,-0.2646988240940958,-0.08591625901608327,-0.1636173245438168,-0.2768776856573658,0.003839692824577947,0.0019198464122889736,-0.0035997120230381826,-1.8888888888889155,1.0664746820254325,0.07535397168226644,1.5855160624282538,34.48738319020889,36.53657004553393,0.8062433434783394,-2.59231800177939,1.0370903239132112,-1.158492694251267,6.793514626433715,3.7399588558114116,0.10262900000000008,-0.11709400000000003,-0.8643149999999999,-0.04333799999999988,0.20206799999999991,-0.837981,0.14596699999999996,0.31916199999999995,0.02633399999999997,0.9906626529638143,0.23666000000000004,single,-0.837981
169,0.704167,jog,-0.5277177825773514,0.34749220062392194,-0.14062874970001704,0.22398507413064536,0.5776964731272314,-0.1257381100255427,0.005039596832265082,0.006959443244554005,-0.006719462443004568,-1.8992080633549115,1.06527477801777,0.07919366450683896,-0.8638617765637518,9.329707187124768,29.774435899706695,0.2879539255308677,1.2094064872246204,-0.7486802063754167,-2.4764037595382726,-0.28795392552494514,0.9214525616924607,0.10484899999999997,-0.11851299999999987,-0.863757,-0.04905300000000001,0.2050590000000001,-0.837065,0.15390199999999998,0.32357199999999997,0.02669200000000005,0.9818201453045706,0.23308,single,-0.837065
170,0.708333,jog,-0.5252040326452417,0.34373499759963966,-0.18602976476235467,0.07450692694901288,0.07189585919484591,-0.1772035528979717,0.005280844935181583,-0.02136341814690487,0.002640422467594851,-1.8936629860777794,1.0856937109937181,0.09313490158425328,0.6033965271506527,-0.9018730255118297,-10.89798729292789,0.05790881010957777,-6.7985745058710645,2.2467318556407614,1.331031511553566,4.901328126727817,3.3464323277518746,0.10705900000000002,-0.12003399999999997,-0.862971,-0.05475399999999997,0.20814999999999984,-0.835902,0.16181299999999998,0.3281839999999998,0.02706900000000001,0.9630595528452921,0.22931,single,-0.835902
171,0.7125,jog,-0.5387568994480526,0.3362131029517578,-0.2375809935205277,-0.06937905831555584,-0.32787783017990296,-0.09199059754178994,0.0035997120230084256,0.031197504199655026,-0.007199424046076278,-1.8910487161027236,1.0765538756899342,0.11951043916486635,-3.2524278384475083,-1.8051103066670926,-12.37130519754563,-0.4034396237516546,12.613612274192343,-2.3613742533407858,0.6273746040450542,-2.193385002107957,6.3296226495351275,0.10931899999999994,-0.121305,-0.862011,-0.060389000000000026,0.21123499999999984,-0.834414,0.16970799999999997,0.33253999999999984,0.027596999999999983,0.9463014095588651,0.22403,single,-0.834414
172,0.716667,jog,-0.5349172066234748,0.3546916246699921,-0.20926325893927938,-0.2149481947884315,-0.17126161106523388,-0.034094340257541135,-0.001919846412235636,0.01055915526756243,-0.011519078473721982,-1.8934485241180448,1.0928725701944166,0.10511159107271359,0.9214525616937429,4.434490453139941,6.7957126424881436,-1.3245880574139717,-4.9528075191006575,-1.0366341319044088,-0.5759078510489845,3.916173387204775,-3.455447106348129,0.1115400000000002,-0.12273899999999993,-0.861187,-0.06604999999999994,0.21431100000000014,-0.833104,0.17759000000000014,0.33705000000000007,0.02808300000000008,0.9737601480412146,0.21917000000000003,single,-0.833104
173,0.720833,jog,-0.5475276044167154,0.3682189150264489,-0.2383581373019797,-0.36736223141838836,-0.5357805132731638,0.057654685402323394,-0.014402304368740418,0.007441190590522101,0.014402304368699298,-1.900624099855995,1.1135381661065669,0.11857897263562427,-3.0269797871437873,3.2470692166243706,-6.98388822916492,-2.9962693126512496,-0.748431271493137,6.222127422568879,-1.7224137633102068,4.960536704788949,3.2326888053074954,0.113761,-0.12424199999999996,-0.860134,-0.07168699999999983,0.21741599999999983,-0.8316169999999999,0.18544799999999984,0.3416579999999998,0.028517000000000015,0.9638589161270965,0.21483000000000002,single,-0.8316169999999999
174,0.725,jog,-0.5766738660906923,0.36477081833452224,-0.1855051595872373,0.04649296167051149,-0.430654438077901,0.2893754884301036,0.028557715382764418,-0.011279097672217402,-0.028317734581233194,-1.899448044156481,1.1195104391648922,0.11687065034797159,-6.994543238295321,-0.8274770079017548,12.683699955541636,10.309579973963164,-4.4925097822748645,-10.251989188848613,0.28223078942019364,1.4332308755280363,-0.4099645518724897,0.11628299999999991,-0.12580900000000006,-0.859479,-0.07719900000000002,0.220561,-0.830357,0.19348199999999993,0.34637000000000007,0.02912199999999998,0.9303848826284523,0.20878000000000002,single,-0.830357
175,0.729167,jog,-0.5641948644108409,0.37964962802974805,-0.19918406527477586,-0.28722338849539586,-0.5214889432235501,0.19848757790709118,0.02951763858893552,-0.02735781137507718,-0.0038396928245740983,-1.8792896568274207,1.1051115910726985,0.16942644588432756,2.9947208254982702,3.5706286765600432,-3.28267475102915,0.23036314042982844,-3.858582602078151,5.874260080791675,4.837625948898518,-3.455447106357957,12.612381938170284,0.118757,-0.12750499999999998,-0.858665,-0.08267899999999995,0.223584,-0.8288209999999999,0.20143599999999995,0.351089,0.029844000000000093,0.9326187449391234,0.20156000000000002,single,-0.8288209999999999
176,0.733333,jog,-0.5729716754680545,0.37806048967831996,-0.20571291406624964,-0.2129558512727087,-0.5905768214223464,0.2571927442516888,0.031925108017268035,-0.024243879020674194,-0.0016802688430147918,-1.8838214114258454,1.0986557849256,0.20955352856456988,-2.1067717372092205,-0.3814542370206667,-1.5671744578669646,0.5778851244197102,0.7474633591941872,0.5183446907247492,-1.087795150846062,-1.5496414179305098,9.63204096981332,0.12127699999999986,-0.129181,-0.857815,-0.08814000000000011,0.22658600000000018,-0.827091,0.20941699999999996,0.35576700000000017,0.030723999999999974,0.9331294472866476,0.19276000000000004,single,-0.827091
177,0.7375,jog,-0.5783537317014651,0.40820734341256576,-0.168226541876637,0.10009586265685658,-0.6206817343856494,0.5434314432293801,0.016078713702913066,-0.015838732901343647,-0.0045596352291817155,-1.8708903287736631,1.1115910727141671,0.17998560115190662,-1.291590168805028,7.234666122929103,8.996009644735388,-3.8028304090124427,2.0170737027430965,-0.6909926532677949,3.103211579597345,3.104220731597557,-7.0957349202455084,0.12375399999999992,-0.13094800000000006,-0.857133,-0.093526,0.22951699999999997,-0.82564,0.21727999999999992,0.36046500000000004,0.03149299999999999,0.9616239090750958,0.18507,single,-0.82564
178,0.741667,jog,-0.5819534437245423,0.4000479961602819,-0.22366210703145228,-0.30248351318981975,-1.1845155476130866,0.5831602851567426,0.019198464122889735,-0.009119270458359302,-0.01583873290136811,-1.8694504439645097,1.1106311495080254,0.20206383489321297,-0.8638617765964128,-1.9580866936126708,-13.303471359447167,0.7486802063779046,1.6125419829576366,-2.7067668999727883,0.3455447106199895,-0.23036314042277578,5.298352229735246,0.12625900000000012,-0.1326529999999999,-0.856267,-0.09889099999999984,0.23247799999999996,-0.823866,0.22514999999999996,0.3651309999999999,0.03240100000000001,0.9558220901640163,0.17599000000000004,single,-0.823866
179,0.745833,jog,-0.6032165146423393,0.39966394623140333,-0.27940470475274654,0.0773253267441861,-1.738297009207195,0.7472374261687504,0.0019203072491617847,0.0007201152184290069,0.0002400384061449108,-2.1008161305809137,1.312530004800774,-0.25612097935669653,-5.103953652855734,-0.09218673280810905,-13.380364311400434,-4.14742123709264,2.361830455302041,3.85952263742511,-55.536650652041246,48.46347942696793,-109.98195253238339,0.12878000000000012,-0.13431499999999996,-0.855102,-0.10512999999999995,0.23628099999999996,-0.823769,0.23391000000000006,0.3705959999999999,0.031333000000000055,0.9965585192562645,0.18667,single,-0.823769
180,0.75,jog,-0.5613150947923808,0.41468682505398097,-0.44708423326134983,0.34686329681526384,-2.5694197562008245,0.7962811779117596,-0.008399328053757375,0.0071994240460701376,0.0045596352291816114,-1.8596112311014992,1.1303095752339973,0.17326613870890206,10.05553632108426,3.6052025012185074,-40.23986765265227,-2.476514351552455,1.554909725855791,1.0366203079041678,57.884545111450116,-43.72940474364657,103.04466476256187,0.13108399999999998,-0.13601299999999994,-0.85322,-0.11054000000000008,0.23926300000000011,-0.8211839999999999,0.24162400000000006,0.37527600000000005,0.032036000000000064,0.9800576740063751,0.17964000000000002,single,-0.8211839999999999
181,0.754167,jog,-0.47708183345334426,0.4962802975762335,1.2536597072234141,-0.2854380639338769,10.821055903120959,-1.921854742308392,-0.009599232061444612,-0.004319654427663397,0.030237580993520346,-1.8586513078953812,1.1168706503479482,0.19030477561794792,20.214365572122855,19.580866935985576,408.14589404481666,-0.28795392553089244,-2.7643576850812206,6.162214006320744,0.230363140417068,-3.2250839659344948,4.088945742511575,0.13303200000000004,-0.1380990000000002,-0.858318,-0.1162970000000001,0.24184899999999987,-0.825615,0.24932900000000013,0.37994800000000006,0.03270300000000004,0.9466376127344674,0.17297000000000007,single,-0.825615
182,0.758333,jog,-0.6987518002880182,0.45535285645698853,0.009841574651960809,0.5796623737892178,-0.4674280465850511,1.3564133598386658,-0.03648583773402061,0.016802688430152292,0.011521843494959152,-1.847815650504075,1.1209793566970858,0.21843494959193482,-53.20930552920638,-9.824157733856199,-298.5641220766808,-6.453817972293801,5.070173513637943,-4.492495798982521,2.600973929742247,0.9862473233647677,6.752322125296899,0.135791,-0.139926,-0.858311,-0.12108400000000019,0.24462200000000012,-0.8247460000000001,0.2568750000000002,0.3845480000000001,0.033564999999999956,0.9303520844382183,0.16435000000000005,single,-0.8247460000000001
