frame_id,timestamp,gait_type,root_linear_velocity_x,root_linear_velocity_y,root_linear_velocity_z,root_angular_velocity_x,root_angular_velocity_y,root_angular_velocity_z,left_linear_velocity_x,left_linear_velocity_y,left_linear_velocity_z,right_linear_velocity_x,right_linear_velocity_y,right_linear_velocity_z,root_acceleration_x,root_acceleration_y,root_acceleration_z,left_acceleration_x,left_acceleration_y,left_acceleration_z,right_acceleration_x,right_acceleration_y,right_acceleration_z,left_pos_rel_x,left_pos_rel_y,left_pos_rel_z,right_pos_rel_x,right_pos_rel_y,right_pos_rel_z,step_length,step_width,step_height,left_contact_prob,right_contact_prob,support_type,max_foot_height
1,0.004167,walk,-0.0033597312215189615,-0.06311495080393886,-0.012239020878335314,-0.03783738098582369,-0.013246412479478234,0.02036471122667393,0.0028797696184067628,0.003359731221545605,0.001679865610751155,-0.0033597312215189615,-0.0007199424046016907,0.0007199424046083515,0.0,0.0,0.0,0.0,0.0,0.0,0.0,0.0,0.0,0.10263,0.1276480000000001,-0.922903,-0.09752899999999998,-0.089723,-0.9258310000000001,0.20015899999999998,0.2173710000000001,0.0029280000000000417,0.962831397918813,0.9941489725468403,double,-0.922903
2,0.008333,walk,-0.006481036965914365,-0.06577052328372454,-0.011041766682666944,-0.04056163172764473,-0.011795529322687293,0.009788944992130323,0.002880460873742679,0.00048007681225047203,0.0019203072491601203,-0.0009601536245808929,-0.0007201152184290073,-0.0014402304368696737,-0.7492332559758529,-0.6374393854502348,0.28738698887862946,0.00016592782907253611,-0.6912276546555768,0.0577152276545764,0.5759907817902228,-4.1481955668896786e-05,-0.5185244458660646,0.10266900000000001,0.12792399999999993,-0.922849,-0.09750599999999998,-0.08945199999999998,-0.925791,0.200175,0.2173759999999999,0.002942,0.9647549800853941,0.9968754001936716,double,-0.922849
3,0.0125,walk,-0.012718982481394223,-0.05447564194863863,-0.01247900167987809,-0.002794344192909102,-0.0569774185356341,0.017826365107079637,0.0026397888168906273,0.0038396928245778734,0.0011999040076789203,-0.0009599232061444684,0.0004799616030589126,-0.0004799616030722342,-1.4969871647419866,2.7105546760465344,-0.3449088066261449,-0.05775667311064354,0.8062433434910969,-0.17288294731970238,5.529600106180719e-05,0.2879953975252987,0.2304460844246315,0.10273299999999996,0.12816699999999992,-0.922792,-0.09745700000000002,-0.08922300000000005,-0.9257409999999999,0.20018999999999998,0.21738999999999997,0.0029489999999999794,0.9624906664843746,0.9980405649605837,double,-0.922792
4,0.016667,walk,-0.005999520038382945,-0.0635949124070244,-0.00959923206141804,0.006390423797582361,-0.04696872532733292,0.024429003002142475,-0.06359491240699776,0.009839212862960819,-0.03839692824574044,-0.0026397888168906273,0.0009599232061444684,-0.0016798656107511545,1.6125419829640695,-2.188449834025863,0.6910894212767097,-15.895056689198075,1.4397696276416954,-9.502479542457248,-0.4031354957394189,0.11518157021491618,-0.28795392552889854,0.10249299999999995,0.12847299999999995,-0.9229120000000001,-0.09744300000000006,-0.08895399999999998,-0.9257080000000001,0.199936,0.21742699999999993,0.0027960000000000207,0.8471461885203974,0.994545163708114,double,-0.9229120000000001
5,0.020833,walk,0.00024003840612523607,-0.06649063850215356,-0.005520883341360122,0.05540090116690181,0.02238043997286573,0.05201363519657748,-0.00456072971675258,0.01248199711957826,-0.015122419587134076,0.0014402304368846645,-0.0009601536245808931,0.0016802688430148974,1.4977336640682146,-0.6950854765072386,0.978960326466135,14.17047112103821,0.634369720743505,5.586775962219483,0.9793613187170648,-0.4608921821232265,0.8065613187148469,0.10247300000000004,0.12880200000000008,-0.922952,-0.09743799999999991,-0.08868100000000001,-0.925678,0.19991099999999995,0.2174830000000001,0.002726000000000006,0.9391870533744813,0.9959794064565693,double,-0.922952
6,0.025,walk,-0.002879769618433405,-0.06719462443003286,-0.004319654427636786,0.05047227456324807,0.044425970592030135,0.05900573406342887,-0.004079673626120652,0.017518598512116564,-0.004799616030717347,-0.0021598272138317145,0.0009599232061444684,-0.0014398848092150374,-0.7486940303716441,-0.16894310724245387,0.28827187754339717,0.11544422621356579,1.208687639198057,2.477274671566289,-0.8639447205942833,0.46078157684793886,-0.748776974377234,0.102468,0.12915500000000002,-0.9229539999999999,-0.09743499999999994,-0.08839700000000006,-0.925666,0.19990299999999994,0.21755200000000008,0.0027120000000000477,0.9418521744608921,0.9953873439746019,double,-0.9229539999999999
7,0.029167,walk,-0.0023998080153478513,-0.06503479721622785,-0.00599952003838295,0.04850713935648049,0.034433133202836815,0.026811132569880568,0.004559635229206211,-0.027117830573561274,0.0055195584353257025,0.00047996160305891297,0.0002399808015427781,-0.0004799616030722346,0.1151815702149158,0.5183170659479289,-0.4031354957394204,2.073268263817343,-10.711886029680315,2.4764037595495694,0.633498636162858,-0.1727723553159805,0.230363140423039,0.10249700000000006,0.129313,-0.922906,-0.09742300000000004,-0.08812500000000001,-0.925643,0.1999200000000001,0.21743800000000002,0.0027369999999999894,0.9258850497747865,0.9988000959923304,double,-0.922906
8,0.033333,walk,-0.004320691310600691,-0.061689870379275695,-0.007201152184370017,0.03846509375602428,0.059812102533516376,0.02222881129307601,0.0012001920307061283,0.0016802688429832496,-0.003600576092175015,0.0024003840614655555,0.0014402304368580138,-0.0007201152184356692,-0.4610857645830144,0.8029109066135739,-0.28843786509531116,-0.8063953909025636,6.912649883952112,-2.1891825558091,0.4609751460409604,0.2881060094371663,-0.05764609106179414,0.10251999999999994,0.12957699999999994,-0.9228909999999999,-0.09739500000000001,-0.087862,-0.925616,0.19991499999999995,0.21743899999999994,0.0027250000000000885,0.9658322465731655,0.9951825913830922,double,-0.9228909999999999
9,0.0375,walk,-0.005039596832265124,-0.062155027597794434,-0.009119270458359136,-0.016782636251806905,0.10697466901388215,0.022670636719998277,-0.0002399808015427781,0.0011999040076872472,-0.004319654427646781,0.0014398848092033823,0.0014398848092300254,-0.0016798656107511558,-0.17252352331759876,-0.11162880214032611,-0.46031156083252217,-0.34561383063328716,-0.11527833820398432,-0.17256499531359887,-0.23050138043248714,-8.294399519758325e-05,-0.23032166842224316,0.10253999999999996,0.12984099999999998,-0.922871,-0.09736800000000001,-0.08759699999999992,-0.925585,0.19990799999999997,0.2174379999999999,0.002713999999999994,0.9653772838437389,0.9956003519718396,double,-0.922871
10,0.041667,walk,-0.005039596832238472,-0.06263498920085324,-0.005759539236866806,0.02406494198875767,0.08411128971348951,0.053977907502399065,0.0007199424046283331,-0.012479001679851436,0.001679865610751153,0.002879769618433403,0.0004799616030589122,0.0007199424046083507,6.396038273315968e-12,-0.11518157020849647,0.8062709914788401,0.23036314042983208,-3.282674751029198,1.4397696276452912,0.34554471063835357,-0.23036314042983258,0.5759078510581963,0.10256399999999999,0.13005,-0.92284,-0.09733500000000006,-0.08733400000000002,-0.925558,0.19989900000000005,0.21738400000000002,0.002717999999999998,0.9517997882674065,0.9949884152923185,double,-0.92284
11,0.045833,walk,-0.0002400384061518859,-0.05832933269322935,-0.009361497839630403,0.0032039244323242544,0.11324620049726646,0.05491475488984957,0.00240038406143891,0.00960153624580894,-0.00024003840614522347,0.0014402304368846656,0.0009601536245808939,-0.0021603456553053457,1.1520783547975493,1.0335229254978147,-0.8646084020075854,0.4033705369204461,5.300177130499375,-0.4608507001671575,-0.34554469072221283,0.11526452748967406,-0.6913797551401102,0.10257499999999997,0.13033300000000003,-0.922802,-0.09732799999999997,-0.08708700000000003,-0.925528,0.19990299999999994,0.21742000000000006,0.002726000000000006,0.9562400875121497,0.9953862367599993,double,-0.922802
12,0.05,walk,0.0021598272138317128,-0.07055435565155176,-0.001439884809230023,0.017188984291952553,0.10480767409396258,0.03323654889850601,0.001439884809230023,-0.009359251259928541,-0.003599712023036758,0.002639788816890625,0.0016798656107461574,-0.0009599232061428024,0.5759216750620582,-2.9337708083327088,1.9010350444925301,-0.23050138041969911,-4.55022498337832,-0.8062571674805691,0.2878709815229082,0.17271705931491788,0.2880783415316876,0.102572,0.13058799999999993,-0.9228109999999999,-0.09732600000000002,-0.08678600000000003,-0.925526,0.19989800000000002,0.21737399999999996,0.002715000000000023,0.9559658539962681,0.9945451637081191,double,-0.9228109999999999
13,0.054167,walk,-0.01151907847373363,-0.053755699544036986,-0.009119270458359136,-0.03097820917061266,0.12409300767106858,0.034081591166607555,-0.022558195344381703,0.007919366450725175,-0.0009599232061444692,0.0021598272138050735,0.0009599232061444692,-0.0016798656107511558,-3.282674751035602,4.031354957406955,-1.8429051233811178,-5.759078510585971,4.146536527634684,0.6334986361632566,-0.11518157021491528,-0.17277235531598,-0.17277235531757953,0.102526,0.1308450000000001,-0.922777,-0.09726900000000005,-0.08655800000000002,-0.925495,0.19979500000000006,0.21740300000000012,0.002717999999999998,0.9329413648561229,0.9951671682371248,double,-0.922777
14,0.058333,walk,-0.009121459433505152,-0.060489678348542915,0.0002400384061518855,0.00937973057199403,0.08619969786443706,0.07304219266419103,0.027844455112819227,-0.026404224675961215,0.014642342774843617,0.002640422467617441,0.0012001920307327777,0.0004800768122904462,0.575520652959308,-1.6164135392477013,2.2465935824558367,12.09857188122921,-8.238980107221883,3.7451430583264704,0.11536131872596432,0.05767374570050608,0.5184691365918388,0.10268,0.13098700000000008,-0.922717,-0.09721999999999997,-0.08630099999999996,-0.925494,0.19989999999999997,0.21728800000000004,0.0027770000000000294,0.903776955201141,0.9951002365522427,double,-0.922717
15,0.0625,walk,0.00791936645067189,-0.07823374130068099,0.00047996160305891297,0.08547511590673429,0.12377471682808895,0.103137587591051,0.010559155267562518,0.00791936645067189,0.005039596832253468,0.005279577633781259,0.0007199424046016911,-0.0004799616030722346,4.089471054518131,-4.25823444975716,0.057576961100798574,-4.148140111652681,8.23700291015914,-2.3044746682481776,0.6333465721535444,-0.11525069021624357,-0.23039078842396962,0.10269099999999998,0.13134599999999996,-0.922698,-0.09723099999999996,-0.08597200000000005,-0.9254979999999999,0.19992199999999993,0.217318,0.0027999999999999137,0.9484527861298848,0.9910833146110024,double,-0.922698
16,0.066667,walk,-0.017278617710573773,-0.05279577633789243,-0.0035997120230350926,-0.04844140493250346,0.18296878963781396,0.018785044792105767,0.01607871370291317,0.014158867290624237,0.023278137748980028,0.003359731221492315,0.0004799616030855554,0.0,-6.047032436104065,6.104623221211551,-0.9790433467948167,1.32458805743956,1.4973604127555415,4.376899668040927,-0.4607262808468784,-0.05759078510106443,0.11518157021171926,0.10282999999999998,0.131625,-0.922586,-0.09714500000000004,-0.08574999999999999,-0.925483,0.199975,0.21737499999999998,0.0028969999999999274,0.9183024441019308,0.9943435982626598,double,-0.922586
17,0.070833,walk,0.04728756601056247,-0.15602496399424895,0.08905424867979145,1.4011222276846846,0.13378753474348656,0.20431089589573548,0.011521843494970747,0.009361497839630419,0.012722035525685207,0.003120499279894573,0.0012001920307061322,-0.001200192030724454,15.498363831285745,-24.77896967267326,22.240509050126448,-1.0938238617240603,-1.151552916705192,-2.533869952783209,-0.05742485396009183,0.1728829639031634,-0.28809218212300935,0.10268100000000002,0.13231399999999993,-0.922904,-0.097329,-0.08509500000000003,-0.925859,0.20001000000000002,0.21740899999999996,0.002955000000000041,0.9378650380952263,0.994079593300145,double,-0.922904
18,0.075,stand,-0.04559635229182225,0.018958483321346573,-0.07295416366689961,-1.0192400544686926,-0.15466961488163028,-0.04231826790839192,0.00455963522917956,-0.0019198464122889352,0.004079673626108992,0.0021598272138317128,0.001439884809230023,-0.0011999040076805846,-22.29035716399919,41.9926679423075,-38.87890865051377,-1.6707963200842766,-2.707306035977764,-2.074000935823424,-0.23054285242689207,0.05752166511252475,6.91200009285603e-05,0.10289000000000004,0.13222699999999987,-0.922583,-0.09712999999999994,-0.08516800000000002,-0.92556,0.20001999999999998,0.2173949999999999,0.0029770000000000074,0.9595425436238028,0.9952338311783562,double,-0.922583
19,0.079167,walk,-0.006959443244527408,-0.06743460523160222,-0.007199424046096829,0.028744096179749927,0.04840147058666818,0.09698153782041863,0.0009599232061444676,-0.002639788816890625,0.003119750419966189,0.0038396928245512272,0.0002399808015427777,0.0002399808015361169,9.27211640203859,-20.73268263809664,15.779875118983133,-0.8638617765862945,-0.17277235531598015,-0.23036314042303854,0.40313549573302443,-0.2879539255308961,0.3455447106351572,0.10292299999999999,0.13249699999999998,-0.9225399999999999,-0.09708500000000009,-0.0848859999999999,-0.9255289999999999,0.20000800000000007,0.21738299999999988,0.0029890000000000194,0.9631134174527936,0.993575562593346,double,-0.9225399999999999
20,0.083333,walk,-0.011281805088818823,-0.06889102256359242,-0.0014402304368580138,0.02749186638002002,0.060506033260438866,0.13172648023600744,0.002880460873742677,-0.004800768122877812,0.0052808449351899114,0.002640422467617441,0.0007201152184290069,0.001920307249160119,-1.0375328478856005,-0.3495960950528564,1.3824276546420573,0.46100280067167737,-0.5187180283214559,0.5187456829629671,-0.2878709450153109,0.11525070016472128,0.40334288229092674,0.10298200000000002,0.132764,-0.922512,-0.09702699999999997,-0.084596,-0.925515,0.200009,0.21736,0.003002999999999978,0.9571429720420421,0.9944277531295992,double,-0.922512
21,0.0875,walk,-0.011039116870648092,-0.06767458603311859,-0.009119270458359151,-0.035599334489690264,0.06558680538283906,0.11394950453702313,-0.007199424046096852,-0.00479961603069571,-0.0023998080153578467,0.0035997120230351048,0.0002399808015427785,0.0007199424046083531,0.058240513119926,0.2919214136006325,-1.8428221793859265,-2.418978862452496,0.00027648000530388494,-1.843209251391355,0.23021107641412666,-0.11522304220931832,-0.288064517531022,0.10299799999999992,0.1330260000000001,-0.922484,-0.096966,-0.08431299999999997,-0.925474,0.19996399999999992,0.21733900000000006,0.002990000000000048,0.9551345676874816,0.9938686066247717,double,-0.922484
22,0.091667,walk,-0.01631869450445595,-0.06767458603311836,-0.0074394048476129635,-0.07342455138798415,0.045671145838953445,0.08971596862631512,-0.00911927045835912,-0.0043196544276634255,-0.0011999040076805846,0.0014398848092033799,0.0007199424046016899,-0.0011999040076805846,-1.2669972723320984,5.3286442266626134e-14,0.4031354957394256,-0.4607262808404766,0.11518157020213207,0.28795392552850035,-0.5183170659543371,0.11518157020852195,-0.46072628084687683,0.10302800000000001,0.13329000000000002,-0.922458,-0.09689199999999998,-0.08402799999999999,-0.925448,0.19992,0.217318,0.002990000000000048,0.953163822606393,0.9966536276036719,double,-0.922458
23,0.095833,walk,-0.017762842054733184,-0.06481036965914361,-0.00984157465193416,-0.0765666568785498,0.06555664421088449,0.0716938272316683,-0.004560729716752576,-0.0050408065290563474,-0.0028804608737393457,0.004080652904475455,0.0016802688430098993,-0.0012001920307244498,-0.3466508762067288,0.6875219332632633,-0.5766130111188658,1.0942248539622037,-0.17310420100646218,-0.4033981915647527,0.6338857645876317,0.23051522765439478,-6.9136592382427e-05,0.10308300000000004,0.13353899999999996,-0.922429,-0.09680099999999991,-0.08375100000000002,-0.925412,0.19988399999999995,0.21728999999999998,0.002982999999999958,0.9578651860303702,0.9923777568877863,double,-0.922429
24,0.1,walk,-0.02063834893206609,-0.0638348932085405,-0.010559155267589144,-0.032567491167362524,0.07116955679846905,0.09205793202833838,-0.007199424046070185,-0.00023998080151613449,-0.006239500839932378,-0.001439884809230023,-0.0014398848092033799,0.0007199424046083507,-0.6900664452442767,0.23409562049510735,-0.17220557131149114,-0.633235980157813,1.1521060061291597,-0.8061051034780488,-1.324823065444078,-0.7487769743732364,0.4607954008478039,0.10313899999999998,0.13380400000000003,-0.922411,-0.09672100000000006,-0.08349099999999998,-0.925365,0.19986000000000004,0.21729500000000002,0.002954000000000012,0.9545766869437217,0.9964002879769582,double,-0.922411
25,0.104167,walk,-0.01895848332134664,-0.07631389488841882,-0.0011999040076872494,0.0671689847482784,0.048408862754234186,0.14136980544150554,-0.004319654427636797,-0.0021598272138583633,-0.002879769618430082,0.0011999040076872494,-0.0002399808015427785,-0.0007199424046083531,0.4031354957330103,-2.9947208255047646,2.2460406191269295,0.6910894212703133,-0.4607262808596672,0.8062709914812346,0.6334986361692533,0.28795392552450305,-0.3455447106351589,0.10320000000000007,0.13411299999999993,-0.922418,-0.09663699999999997,-0.08317399999999997,-0.9253629999999999,0.19983700000000004,0.2172869999999999,0.0029449999999999754,0.9611784501128922,0.9976337573861556,double,-0.922418
26,0.108333,walk,-0.025444071051353673,-0.0650504080652955,-0.0064810369659143606,-0.02825845625058647,0.10980164924724692,0.04684538282845058,-0.0050408065290563474,0.0002400384061785351,-0.0007201152184356692,0.00048007681227712134,-0.000480076812303771,0.0014402304368696728,-1.5567901416243473,2.703669424657541,-1.267674737932575,-0.17310420101285412,0.5760599183957985,0.5183999999986584,-0.1727861726860604,-0.05763226374483733,0.5185244458660644,0.10328499999999996,0.1343850000000001,-0.9223939999999999,-0.09652900000000009,-0.082905,-0.92533,0.19981400000000005,0.2172900000000001,0.0029360000000000497,0.9621439363971633,0.997346275571807,double,-0.9223939999999999
27,0.1125,walk,0.04463642908565114,-0.16270698344131407,0.08903287736981277,1.4739564672725483,0.08021366708517351,0.21249534480247165,-0.0007199424046016899,0.0,-0.00383969282457454,0.0019198464122889352,-0.0007199424046016899,0.00191984641228727,16.817974594913547,-23.435703233985716,22.92150572011688,1.0369244359142435,-0.057604609114119236,-0.7486387343745784,0.345517062637824,-0.05756313710053245,0.11509862621012641,0.10309600000000008,0.13506300000000004,-0.922781,-0.09670699999999999,-0.08223000000000003,-0.925693,0.19980300000000006,0.21729300000000007,0.0029120000000000257,0.9643689926421497,0.9953184945561477,double,-0.922781
28,0.116667,stand,-0.04799616030717009,0.0007199424046016899,-0.07343412526998516,-0.9797271767196348,-0.1721582270365366,0.10023629771509077,-0.0002399808015427777,-0.003599712023061736,-0.003119750419966189,0.0019198464122889352,0.0,-0.0028797696184300722,-22.230043050833007,39.21932465704718,-38.988961516630134,0.11518157020852215,-0.8638617765926884,0.17277235531757867,0.0,0.17277235531598015,-1.1518157021159918,0.10329500000000003,0.13504499999999997,-0.922488,-0.096499,-0.082233,-0.925399,0.19979400000000003,0.21727799999999997,0.002910999999999997,0.9629407931707756,0.9942315794329019,double,-0.922488
29,0.120833,walk,-0.019443110897743147,-0.08089294287086717,-0.005040806529029714,0.10234631228187946,-0.03382240066255144,0.11521711203025072,0.0016802688430099047,-0.00048007681230377255,0.0,0.0009601536245808955,0.00024003840615188627,0.00024003840614522388,6.853828470817815,-19.590226902416962,16.417023221544795,0.46093366407889763,0.7488322637441122,0.7488599183788279,-0.23036312715027418,0.05761843642628106,0.7488737456973846,0.103383,0.13537999999999994,-0.922467,-0.096414,-0.08189499999999994,-0.925377,0.199797,0.21727499999999988,0.002909999999999968,0.9679874900426964,0.9983026721526924,double,-0.922467
30,0.125,walk,-0.018718502519803795,-0.08015358771296979,-0.004799616030722338,-0.013317493762673776,0.031813142173557296,0.13435296965464785,0.004079673626120648,0.0043196544276634255,-0.0007199424046066855,0.0007199424046016899,-0.0023998080153744905,0.0,0.1738920993374972,0.17743104341189636,0.05788108910664163,0.5758110830599331,1.1518433501241165,-0.17277235531717897,-0.057646081108520604,-0.6335124601695162,-0.057604609106125186,0.10347800000000007,0.13573199999999996,-0.92245,-0.096333,-0.08157100000000006,-0.925357,0.19981100000000007,0.21730300000000002,0.002906999999999993,0.9609548268831443,0.9958242114594968,double,-0.92245
31,0.129167,walk,-0.02063834893206609,-0.07727381809456303,-0.007919366450671875,-0.03921238213236381,0.020453552884989904,0.10025940213630881,0.0009599232061444676,0.0011999040076872453,0.0014398848092150361,-0.0009599232061178244,0.0002399808015427777,0.0004799616030705686,-0.46072628084048267,0.6910894212639208,-0.7486802063713784,-0.7486802063777724,-0.7486802063777723,0.5183170659519365,-0.40313549573302443,0.6334986361692503,0.11518157021131945,0.103568,0.13605900000000004,-0.9224110000000001,-0.09625099999999998,-0.08124799999999999,-0.9253220000000001,0.19981899999999997,0.21730700000000003,0.002910999999999997,0.9673802950214334,0.9981671163527452,double,-0.9224110000000001
32,0.133333,walk,-0.020403264522323973,-0.07705232837254332,-0.009841574651960809,-0.06990638492096271,-0.022817322665550012,0.0958102534156485,0.0009601536245808924,0.0050408065290563474,0.0024003840614488996,0.00024003840612523588,-0.0014402304368580138,0.0009601536245808924,0.05642928702403146,0.0531660398511073,-0.46140379291621025,5.5309274225820276e-05,0.9219641193876859,0.2305567096096646,0.28803687283798834,-0.4033152276526141,0.11526452748687553,0.103657,0.1364010000000001,-0.92236,-0.09616500000000006,-0.08093299999999992,-0.925277,0.19982200000000006,0.21733400000000003,0.0029170000000000584,0.9613881503270707,0.9970874900427146,double,-0.92236
33,0.1375,walk,-0.026877849772018448,-0.07247420206381405,-0.01319894408447977,-0.012996396724806531,0.006896127218988773,0.09621677515652309,0.005759539236866806,0.002639788816890625,0.002159827213823387,0.0,-0.0009599232061444676,-0.002159827213823387,-1.5537761578340457,1.0986624211013347,-0.8057042074679523,1.1517604061161288,-0.5761981550673674,-0.05772902510811432,-0.05760460910132845,0.11526451421011416,-0.7487355023768362,0.10379300000000002,0.136714,-0.922296,-0.09605300000000006,-0.08063500000000001,-0.9252309999999999,0.19984600000000008,0.21734900000000001,0.00293499999999991,0.9594938319486532,0.9960607720175187,double,-0.922296
34,0.141667,walk,-0.02807775377970588,-0.07751379889610632,-0.011519078473707044,-0.015782907637324227,0.02967230634833091,0.0993029350323723,0.0011999040076606101,0.0023998080153745066,0.0009599232061428088,0.0007199424046016947,-0.0007199424046016947,-0.000479961603072237,-0.2879539255309429,-1.2094064872311732,0.4031354957457966,-1.094224917016132,-0.05759078510106069,-0.2879539255292981,0.17277235531598242,0.05759078510745723,0.403135495740619,0.10391499999999998,0.13704700000000014,-0.9222440000000001,-0.09593300000000005,-0.08031499999999991,-0.925185,0.19984800000000003,0.21736200000000006,0.0029409999999999714,0.9658406431137272,0.9981239837773808,double,-0.9222440000000001
35,0.145833,walk,-0.02064330292847586,-0.08113298127699213,-0.008881421027379916,0.0328744718247714,-0.01439342719245309,0.08967792947517031,-0.05088814210273399,0.01464234277481197,-0.031204992798847354,0.0007201152184556565,-0.0009601536245808924,0.0002400384061452231,1.784553732892466,-0.8687427702558341,0.6331390893728098,-12.503131567545502,2.938678530829922,-7.720815171625094,4.148196206475268e-05,-0.05765991838194851,0.1728276546369322,0.10378900000000002,0.13744599999999996,-0.922337,-0.09584399999999993,-0.07998099999999997,-0.9251469999999999,0.19963299999999995,0.21742699999999993,0.002809999999999979,0.8694609560087988,0.99796006580507,double,-0.922337
36,0.15,walk,0.07655387568996135,-0.1197504199664091,-0.10679145668344546,-1.1302822419830145,0.6370526598350363,-0.29542260164676865,-0.0023998080153478474,0.005039596832265116,-0.004319654427645109,-0.0002399808015427777,-0.0011999040076872453,0.0009599232061444676,23.32545683187836,-9.267443889948868,-23.496528835148894,11.63626927943031,-2.304474668237784,6.451965051884382,-0.2304046124306295,-0.05753548910639613,0.17275853131731314,0.10346,0.13796600000000003,-0.92191,-0.09616400000000003,-0.07948699999999997,-0.924698,0.19962400000000002,0.217453,0.0027880000000000127,0.9603565881370597,0.997407911087737,double,-0.92191
37,0.154167,walk,-0.02639788816895954,-0.09191264698824618,-0.006479481641468495,-0.027779403383717052,-0.016165433107988764,0.10519875581723993,-0.001439884809230023,0.00023998080151613449,-0.005999520038397927,-0.0007199424046016899,0.0002399808015427777,0.0004799616030705686,-24.706446810396155,6.680531072273313,24.07294817422051,0.23036314041704425,-1.1518157021235844,-0.4031354957410167,-0.11518157020852215,0.3455447106383541,-0.11518157021211868,0.10356399999999999,0.13834999999999997,-0.9219080000000001,-0.09605699999999995,-0.07910299999999992,-0.9246690000000001,0.19962099999999994,0.2174529999999999,0.0027610000000000134,0.9620990790094582,0.9985034567687548,double,-0.9219080000000001
38,0.158333,walk,-0.02184349495918199,-0.09313490158423995,-0.018242918867036953,-0.07410248096317776,0.00016794619532307906,0.07305572410688096,-0.0007201152184290069,-0.0014402304368580138,-0.005760921747478691,0.00048007681227712134,-0.0002400384061518855,-0.0009601536245792267,1.0932292870325364,-0.2933880451257257,-2.8236767224120136,0.17277234536750255,-0.40331522764621863,0.05727275346117023,0.28805070016294054,-0.11522304553400452,-0.3456829639101763,0.10365199999999997,0.13873199999999997,-0.921856,-0.09596400000000005,-0.07871600000000001,-0.924597,0.19961600000000002,0.21744799999999997,0.0027409999999999934,0.9626204562375038,0.9981666763902479,double,-0.921856
39,0.1625,walk,-0.10511159107272595,-0.06479481641468496,0.06479481641468496,0.8797780604689546,-0.4938699220055994,0.5105332227968826,0.014158867290624237,-0.012239020878335302,0.0023998080153578385,-0.0007199424046016899,-0.0009599232061444676,0.0002399808015361169,-19.982744447694717,6.801076354584826,19.92746227063159,3.57067014856089,-2.5915023857636856,1.9584184696031972,-0.2879815735250324,-0.17275853131571428,0.2880092215299598,0.10414900000000005,0.13895099999999994,-0.9221159999999999,-0.09552899999999998,-0.07845000000000002,-0.924866,0.19967800000000002,0.21740099999999996,0.00275000000000003,0.9410522376028114,0.9979605553501394,double,-0.9221159999999999
40,0.166667,walk,0.010559155267589144,-0.1821454283657462,0.0916726661867034,1.6014018323043357,-0.12287625947056646,0.24709670385208654,0.0038396928245778704,0.006479481641468495,-0.003359731221502306,0.0004799616030589122,-0.001439884809230023,0.0,27.758758421001918,-28.161893916741334,6.450167931849872,-2.4764037595503616,4.492081238253846,-1.3821788425390302,0.2879539255245023,-0.115181570214916,-0.057590785105859535,0.10412100000000002,0.139737,-0.922512,-0.09557100000000007,-0.07769700000000002,-0.925248,0.1996920000000001,0.21743400000000002,0.0027359999999999607,0.9588948273918543,0.9974703802414294,double,-0.922512
41,0.170833,walk,-0.052568410945743896,-0.005280844935181583,-0.06889102256359242,-0.936595165096937,-0.01847874809935231,-0.019689787640240375,0.0026404224675907915,0.0012001920307327777,0.0009601536245808924,-0.0014402304368580138,0.0,-0.0002400384061452231,-15.153040377660345,42.454292710169106,-38.54145193238015,-0.28787094502810323,-1.2672322637387694,1.0369382731836763,-0.4609198367539425,0.34562765463994766,-0.05761843642468145,0.10435099999999997,0.139764,-0.9222210000000001,-0.09535800000000005,-0.07767500000000005,-0.9249620000000001,0.19970900000000003,0.21743900000000005,0.0027409999999999934,0.9674980164580903,0.9975665056288008,double,-0.9222210000000001
42,0.175,walk,-0.029037676985850355,-0.08399328053754822,-0.0047996160307223696,0.1016359232403209,0.053539953937440855,0.03551924808490357,0.0047996160307223696,0.003839692824577896,0.0011999040076789273,-0.0007199424046016947,-0.00023998080151613608,0.0007199424046066903,5.646924396422769,-18.889473386697166,15.380707111319992,0.5181650019514256,0.6334295161615391,0.05753548910440035,0.17285529931757215,-0.057590785101064905,0.23037696442330666,0.10449200000000003,0.14012999999999998,-0.922196,-0.09523999999999999,-0.077326,-0.924939,0.19973200000000002,0.21745599999999998,0.00274299999999994,0.9621324443238842,0.9982565798962075,double,-0.922196
43,0.179167,walk,-0.032877369810428034,-0.08375329973603153,-0.003359731221492315,0.04023511710897407,0.13985012451921278,0.05881153216518258,0.0014398848092033799,0.0004799616030855554,-0.00191984641228727,-0.0019198464122889352,-0.0016798656107461574,-0.0002399808015344517,-0.9214525616937066,0.05759078510119675,0.34554471063836173,-0.806270991485238,-0.8062709914788426,-0.7486802063753766,-0.287953925530895,-0.34554471063835374,-0.23036314042264006,0.10463500000000003,0.14048100000000008,-0.9221900000000001,-0.09511099999999995,-0.07698399999999994,-0.924926,0.19974599999999998,0.21746500000000002,0.0027359999999999607,0.9685611107002766,0.9957295103383637,double,-0.9221900000000001
44,0.183333,walk,-0.02712433989436357,-0.08641382621220037,-0.002880460873742677,0.020073183409548633,0.13920897299394513,0.026228038362314594,0.004080652904475455,0.0033605376860197985,0.0004800768122904462,0.0002400384061518855,-0.0002400384061518855,0.0002400384061435575,1.3809481315565193,-0.6386285348460957,0.11504329038637487,0.6338857645876317,0.691448891726894,0.5760737456979631,0.5184553092752806,0.3456138273149954,0.11522304553000691,0.104765,0.14085500000000006,-0.922176,-0.094997,-0.07662499999999994,-0.924913,0.199762,0.21748,0.0027369999999999894,0.9637832467644807,0.9993070688079698,double,-0.922176
45,0.1875,walk,-0.03023758099353741,-0.08639308855289551,-0.006479481641468495,-0.019291753262215112,0.12016512528832318,0.0056837783281928796,0.001199904007660602,-0.0016798656107728006,0.0004799616030722338,-0.0004799616030855554,-0.0011999040076872453,0.001679865610751153,-0.7471180943541722,0.004976640101956704,-0.8636958885831089,-0.6913244292812216,-1.2096000232283644,-2.7648000530929593e-05,-0.17278617932263982,-0.23034931642317227,0.3455308866348918,0.10489599999999999,0.1412079999999999,-0.922147,-0.09487299999999999,-0.07627000000000006,-0.924879,0.19976899999999997,0.21747799999999995,0.0027319999999999567,0.9691475782471979,0.9964675782471965,double,-0.922147
46,0.191667,walk,-0.03143748500119801,-0.08927285817135555,-0.0019198464122889352,-0.005556107405508057,0.1626314143172251,0.019118356092120023,0.0,0.0016798656107728006,-0.0004799616030722338,0.001439884809230023,-0.0007199424046016899,0.0002399808015361169,-0.28795392552450166,-0.6910894212767061,1.0942249170097327,-0.2879539255245023,0.8062709914916242,-0.23036314042343814,0.4607262808532701,0.11518157021491597,-0.34554471063475756,0.10502699999999998,0.14158700000000002,-0.922141,-0.09473599999999993,-0.075901,-0.9248700000000001,0.1997629999999999,0.21748800000000001,0.0027290000000000925,0.9697981889891336,0.9972872850239305,double,-0.922141
47,0.195833,walk,-0.03480556889101071,-0.08833413346136215,-0.007921267402799024,0.05734162682551341,0.13265492806709614,-0.0011131285316430526,0.0007201152184556565,0.0038406144983235695,0.0028804608737393457,-0.0038406144983235695,-0.000480076812303771,-0.0012001920307244498,-0.808469488673236,0.22532998319572697,-1.440571529167087,0.17285530927884205,0.5186627190472316,0.8066304553076277,-1.267522637434851,0.057576954464214784,-0.3456967912291324,0.10517500000000002,0.14197100000000007,-0.9220959999999999,-0.094607,-0.07553500000000002,-0.9248419999999999,0.19978200000000002,0.2175060000000001,0.002746000000000026,0.9644492061065046,0.9932461421762859,double,-0.9220959999999999
48,0.2,walk,0.048716102711771785,-0.1262299016078776,-0.08351331893448875,-0.9336503028577405,0.7187892021507387,-0.3706521011946551,-0.0016798656107728006,-0.0014398848092033799,0.0009599232061444676,0.00023998080151613449,-0.0016798656107461574,0.00383969282457454,20.043597696852032,-9.094256814618527,-18.14064111631621,-0.5759493230689836,-1.2672184563299602,-0.4608921688492624,0.979264530799064,-0.28792627752397054,1.2094756072231787,0.10496499999999997,0.14249100000000015,-0.9217439999999999,-0.09480900000000003,-0.07501599999999997,-0.9244779999999999,0.199774,0.21750700000000012,0.002734000000000014,0.9686403713218319,0.9930034174527939,double,-0.9217439999999999
49,0.204167,walk,0.025917926565874154,-0.15046796256297978,0.009119270458385825,0.4201823000690511,0.6812572143484326,-0.12299799503670969,0.0007199424046283379,0.0031197504199229147,-0.0014398848092150459,-0.0016798656107461687,0.0,0.0,-5.471124585048659,-5.816669295680906,22.230043050845957,0.5759078510681911,1.0942249169969571,-0.5759078510582019,-0.4607262808404881,0.4031354957394209,-0.9214525616929594,0.10486000000000006,0.1431309999999999,-0.921788,-0.09492400000000001,-0.07438900000000004,-0.924516,0.19978400000000007,0.21751999999999994,0.0027279999999999527,0.9668689725469226,0.9972002239820897,double,-0.921788
50,0.208333,walk,-0.07777244359097232,-0.0475276044167142,-0.033605376860304584,-0.4612703867566962,-0.573500259999828,0.15532473497391364,-0.0036005760921716838,-0.0016802688429832496,-0.0002400384061452231,-0.0012001920307061283,-0.00048007681227712134,-0.0004800768122904462,-24.889671185032743,24.70963949742331,-10.25555624548497,-1.0370903736917951,-1.152188973333212,0.28800921821167114,0.11514008162266924,-0.11523687284616442,-0.1152368728493629,0.10516900000000007,0.14332200000000006,-0.921649,-0.09460499999999994,-0.07419299999999995,-0.924378,0.199774,0.21751500000000001,0.0027289999999999814,0.9660756889295448,0.9977018072305761,double,-0.921649
51,0.2125,walk,-0.025437964962788426,-0.09455243580513681,-0.011519078473733612,0.031286330779209524,-0.003530472910109552,0.04594058462251062,-0.0004799616030855554,0.002399808015321204,0.0011999040076789193,0.0007199424046016899,0.001199904007660602,-0.0009599232061428024,12.559270129153791,-11.28505672868312,5.300287589769847,0.74888756637536,0.9791401147838852,0.345558534635023,0.4607954008418086,0.40316314373355455,-0.11515392221078852,0.10527299999999995,0.1437259999999999,-0.921596,-0.09449600000000002,-0.07379400000000003,-0.924334,0.19976899999999997,0.21751999999999994,0.002738000000000018,0.9680772367444717,0.9971717991313502,double,-0.921596
52,0.216667,walk,-0.02615790736741676,-0.08183345332371596,-0.019438444924405485,0.10544995164371443,0.0025289760675865315,-0.01855650204473982,0.0009599232061444676,0.0016798656107728006,-0.0002399808015361169,0.0,-0.0019198464122889352,0.0026397888168939554,-0.17277235532237456,3.0523116106121524,-1.9004959084885689,0.3455447106383541,-0.17277235530319243,-0.34554471063475756,-0.17277235531598015,-0.7486802063713784,0.8638617765866942,0.10538599999999998,0.14407399999999992,-0.921516,-0.094387,-0.07346100000000011,-0.924242,0.19977299999999998,0.21753500000000003,0.002726000000000006,0.9694906445865468,0.9945598470087442,double,-0.921516
53,0.220833,walk,-0.13106096975517187,-0.0748919827172563,0.05712914066252312,0.5568550792858451,-0.28701270089837255,0.6381994342034921,-0.0014402304368580138,-0.0007201152184290069,0.0021603456553053423,-0.0024003840614655555,0.0,0.0014402304368696728,-25.180763895284453,1.6662195406768234,18.37916120665592,-0.5761290549693903,-0.5760875730201166,0.5761705369278582,-0.5761843642500128,0.46083687284899993,-0.2879400816188866,0.10592600000000008,0.14438300000000004,-0.921745,-0.09385100000000002,-0.07314900000000002,-0.924474,0.1997770000000001,0.21753200000000006,0.0027289999999999814,0.9682192926227035,0.995334492002822,double,-0.921745
54,0.225,walk,-0.024958003359729513,-0.10415166786655485,-0.003359731221518958,0.13443439694130901,0.1003279313983655,-0.002883240996923108,-0.0009599232061444676,0.0016798656107728006,-0.0004799616030722338,0.0009599232061444676,-0.001199904007660602,-0.0028797696184300722,25.462674920912466,-7.021762694816057,-14.516167958733387,0.11526451421011416,0.5759493230625882,-0.6336230521664443,0.8064092314878857,-0.2879539255245023,-1.0367170759058653,0.10602600000000006,0.14482400000000006,-0.9217329999999999,-0.09374300000000002,-0.07272,-0.924472,0.19976900000000009,0.21754400000000007,0.002739000000000047,0.9692876162455017,0.9945598470087569,double,-0.9217329999999999
55,0.229167,walk,-0.03887688984881097,-0.09575233981282405,-0.00839932805375743,0.08913533308495364,0.1679727786587025,-0.018159964876347252,0.0014398848092033799,0.0019198464122889352,-0.0007199424046066855,-0.0007199424046016899,-0.0004799616030855554,0.00191984641228727,-3.3402655361366556,2.0156774786970932,-1.2094064872182546,0.5759078510553983,0.05759078510106416,-0.05759078510545992,-0.4031354957394183,0.1727723553095863,1.1518157021159918,0.10619400000000001,0.1452310000000001,-0.921701,-0.093584,-0.07232300000000003,-0.924429,0.199778,0.21755400000000014,0.0027279999999999527,0.9685442114595284,0.9964902950214392,double,-0.921701
56,0.233333,walk,-0.04608737397982953,-0.0981757081132963,-0.0007201152184290069,0.12756048748807206,0.21682063006649416,0.003739383485834026,-0.0009601536245808924,0.003120499279841263,0.0012001920307244498,0.0002400384061518855,0.0012001920307327777,0.0026404224675941226,-1.7307931183433882,-0.581701464347636,1.8433060094403306,-0.5761014003322781,0.28820280066066417,0.4609060094409827,0.2304322637430568,0.40330140034045414,0.17296592782209602,0.10638199999999998,0.14565299999999992,-0.921693,-0.093391,-0.071909,-0.924415,0.19977299999999998,0.21756199999999992,0.002722000000000002,0.9669825217050618,0.9951494816558668,double,-0.921693
57,0.2375,walk,-0.05087592992560384,-0.09239260859130571,0.0023998080153745066,0.15304869960291556,0.2999530980494582,-0.09102408071776616,0.0033597312214923374,0.0035997120230617597,0.0016798656107511643,0.0,0.0007199424046016947,-0.0014398848092150459,-1.1491614940663146,1.3878328586490574,0.7487216783785773,1.036689427903349,0.11500185822426189,0.1151124502103953,-0.057604609107724226,-0.11525069021624329,-0.9791954108013419,0.10660799999999993,0.146053,-0.9216960000000001,-0.09317900000000001,-0.07152100000000006,-0.924431,0.19978699999999994,0.21757400000000005,0.002734999999999932,0.9639789003324853,0.9973169330723592,double,-0.9216960000000001
58,0.241667,walk,-0.039356851451896525,-0.1046316294696404,0.003119750419949537,0.2067438482123623,0.04324017404415252,0.034884523785835835,0.001439884809230023,0.0028797696184067597,0.0014398848092150361,-0.0035997120230350926,-0.0009599232061444676,0.0011999040076789193,2.764357685074946,-2.93713004039709,0.17277235530958238,-0.4607262808404878,-0.17277235532877352,-0.057590785105862234,-0.8638617765862945,-0.4031354957394194,0.633498636163658,0.10677800000000004,0.14650099999999988,-0.9217029999999999,-0.09302999999999995,-0.07108900000000007,-0.924439,0.19980799999999999,0.21758999999999995,0.0027360000000000717,0.9667616948817522,0.9934767192903413,double,-0.9217029999999999
59,0.245833,walk,-0.03096495439268714,-0.11185789726358068,0.00864138262122803,0.1815091291219577,0.2243567610354096,-0.011725928519637361,0.005040806529029698,0.0072011521843433676,-0.001680268843014896,-0.0009601536245808924,0.0002400384061518855,0.001680268843014896,2.0143775946253912,-1.7345818036342482,1.3254037929137037,0.8643595102735651,1.0372977834701402,-0.7489567096087205,0.6335953908915503,0.28803687285078067,0.11530600944214506,0.10692799999999991,0.14699699999999993,-0.9217460000000001,-0.09290500000000002,-0.07062199999999996,-0.9244680000000001,0.19983299999999993,0.2176189999999999,0.002722000000000002,0.9578645320192996,0.9967498646164821,double,-0.9217460000000001
60,0.25,walk,0.05567554595632583,-0.133189344852405,-0.08423326133909044,-0.9333905364229486,0.7090944631893417,-0.3839355649329355,0.004799616030722338,0.005759539236866806,0.0028797696184300722,-0.0016798656107461574,-0.0004799616030589122,0.0014398848092150361,20.792056719225553,-5.119137890286607,-22.288131499956414,-0.057881089106637675,-0.3459594306399233,1.0943216850119903,-0.17271705931491826,-0.17278617931624596,-0.05768755310771768,0.10671599999999992,0.14757599999999993,-0.9213830000000001,-0.093144,-0.07006899999999994,-0.924111,0.19985999999999993,0.21764499999999987,0.0027279999999999527,0.9593345104146103,0.9962267094104355,double,-0.9213830000000001
61,0.254167,walk,-0.044636429085678074,-0.1007919366450632,-0.008399328053757487,0.09477447029996335,0.21822465489064266,-0.055959674901315336,0.0,0.004319654427663454,0.0002399808015361185,0.0014398848092033894,-0.0011999040076872533,-0.0002399808015344533,-24.072948174227136,7.774755989282934,18.19868809343254,-1.1518157021171984,-0.3455447106319558,-0.6334986361636594,0.7486802063713858,-0.17277235532237706,-0.4031354957402205,0.10690199999999994,0.14801399999999998,-0.921347,-0.09295200000000003,-0.069654,-0.924077,0.19985399999999998,0.21766799999999997,0.00273000000000001,0.9654894742910993,0.9968506487984985,double,-0.921347
62,0.258333,walk,-0.04272683629380974,-0.11305808929428682,-0.01800288046088507,0.12049248283371747,0.25065149942591003,-0.0013821267278495497,0.0021603456553136702,0.0014402304368580138,0.0052808449351899114,-0.0033605376860197985,0.0019203072491617847,0.0004800768122887806,0.4583756101460238,-2.944347731450699,-2.30522141313672,0.5185659278237322,-0.6911723453685641,1.2100009922356671,-1.1522857645758964,0.7489705369296773,0.17284148195468874,0.10708899999999999,0.14849099999999993,-0.92125,-0.09278799999999998,-0.06917499999999999,-0.9239999999999999,0.19987699999999997,0.21766599999999992,0.002749999999999919,0.9626923102319311,0.9934997292329815,double,-0.92125
63,0.2625,walk,-0.04631629469642363,-0.10631149508038584,-0.019438444924405357,-0.03193911639855786,0.256418432739907,-0.026270848570415777,-0.0007199424046016851,0.004799616030748949,-0.002399808015359488,-0.0016798656107461464,-0.0011999040076872372,0.001679865610751142,-0.861401104538964,1.6190530870892546,-0.34450791061201763,-0.6912138372726981,0.806188047490019,-1.8432092513917304,0.403329031743134,-0.7487907983798892,0.2879262775287622,0.10727900000000001,0.14895400000000003,-0.921179,-0.09260199999999996,-0.06873700000000005,-0.923912,0.19988099999999998,0.21769100000000008,0.0027329999999999854,0.963646310556967,0.9955641402662143,double,-0.921179
64,0.266667,walk,-0.13654907607392486,-0.07679385649150464,0.062155027597794746,0.8283231273302608,-0.28878531333364993,0.49284875358712527,0.00023998080151613608,0.0026397888168906425,0.0016798656107511643,-0.002159827213831727,0.0002399808015427793,0.000959923206144474,-21.654135199784438,7.083666568006089,19.58086693597326,0.23036314041704503,-0.5183170659607197,0.9790433467988181,-0.11518157021492283,0.34554471063835485,-0.1727723553171759,0.10784899999999997,0.1492850000000001,-0.921431,-0.09204199999999996,-0.06841599999999992,-0.924167,0.19989099999999993,0.21770100000000003,0.0027359999999999607,0.9674097396885843,0.9960405187838375,double,-0.921431
65,0.270833,walk,-0.05280844935189578,-0.10897743638981136,-0.008401344215076146,0.07713722525175203,0.2228582611780311,-0.024302335886229074,-0.00048007681227712134,0.0038406144983235695,0.0021603456553053423,-0.0024003840614655555,-0.000480076812303771,-0.0007201152184356692,20.100966567937835,-7.725295222829261,-16.936239033334335,-0.17284148194749324,0.28824428262912294,0.11533366407925531,-0.057742882293285704,-0.1728414819602856,-0.40327374569854585,0.10806700000000002,0.14975500000000008,-0.921387,-0.09183200000000002,-0.06796400000000002,-0.9241349999999999,0.19989900000000005,0.2177190000000001,0.0027479999999999727,0.9651323438499646,0.9957472612366747,double,-0.921387
66,0.275,walk,-0.04727621790256809,-0.11159107271416706,-0.004319654427636754,0.16242616038621502,0.30482987236079956,-0.0027437039931217135,0.000479961603058909,0.005519558435297348,0.002399808015359488,-0.0019198464122622792,-0.001199904007660594,0.0021598272138233727,1.3276293374916348,-0.6272225400421593,0.9795271868105018,0.23039078841757213,0.40291431172876535,0.05746636910346621,0.1153198102239675,-0.1727447073090515,0.6911308932707031,0.10826599999999997,0.1502429999999999,-0.921359,-0.09164299999999992,-0.06750400000000001,-0.924108,0.1999089999999999,0.2177469999999999,0.0027490000000000014,0.9624470085390332,0.994785055271453,double,-0.921359
67,0.279167,walk,-0.04679625629948316,-0.11231101511879689,-0.004319654427636811,0.2487471902144433,0.25365691461692536,0.023835764466989675,-0.0009599232061178308,0.004799616030749013,0.0023998080153578545,-0.006239500839952402,0.00023998080151613608,0.0014398848092150459,0.11518157021476672,-0.17277235532273458,-1.3737910896864641e-14,-0.34554471062556946,-0.17277235530317697,-3.919467608908503e-13,-1.0366341319150822,0.3455447106255672,-0.172772355317574,0.10845700000000003,0.15073100000000006,-0.921331,-0.09147400000000006,-0.06703500000000007,-0.924084,0.19993100000000008,0.21776600000000013,0.0027530000000000054,0.9633844734888024,0.9893200304592777,double,-0.921331
68,0.283333,walk,-0.04176668266922884,-0.11401824291886771,0.005280844935181583,0.29378271145154766,0.30444785749212044,-0.03316827782964516,0.002400384061438906,0.006240998559735826,0.0021603456553053423,0.0,-0.00024003840612523588,-0.001680268843014896,1.207290837795084,-0.40980024005540555,2.3044885652468525,0.8066028006617221,0.34598716490321924,-0.057480163238721106,1.4977198367624573,-0.11522304552121258,-0.7489567096087228,0.10864099999999999,0.15123199999999992,-0.921344,-0.09130000000000005,-0.06656099999999998,-0.924113,0.19994100000000004,0.2177929999999999,0.0027689999999999104,0.9605983011936033,0.9971711202544992,double,-0.921344
69,0.2875,walk,0.03551715862729225,-0.14638828893688574,-0.07967362610991141,-0.7036781939212874,0.8432959441567287,-0.47999734651673703,-0.0035997120230351165,0.0050395968322651495,-0.0002399808015361185,-0.0026397888168906425,0.001919846412288948,0.0007199424046083555,18.546638180110758,-7.768189589157239,-20.387442055457996,-1.439907867644362,-0.2883133495250019,-0.5760322670605891,-0.6334986361628647,0.5183308899482113,0.5760046190600588,0.10847800000000007,0.15186299999999997,-0.921013,-0.09145899999999996,-0.06594299999999997,-0.923778,0.19993700000000003,0.21780599999999994,0.0027650000000000174,0.9620202891207414,0.9944290903619006,double,-0.921013
70,0.291667,walk,-0.04655627549793976,-0.11879049676026385,0.0009599232061444612,0.17869198744571801,0.2870626565960145,-0.04631618320388574,0.0011999040076872372,0.003599712023061712,0.00479961603071731,-0.0059995200383829005,-0.0002399808015427761,-0.0002399808015361153,-19.69604850617504,6.622940287166231,19.350503795549617,1.1518157021171869,-0.34554471063197184,1.209406487221836,-0.8062709914788174,-0.5183170659543335,-0.23036314042343733,0.10867700000000002,0.1523730000000001,-0.9209970000000001,-0.09128999999999998,-0.06544899999999998,-0.923783,0.199967,0.21782200000000007,0.002785999999999955,0.961942776750649,0.9899848139944643,double,-0.9209970000000001
71,0.295833,walk,-0.05376860297647667,-0.1149783965434486,-0.0021603456553136702,0.1507642140129925,0.28351140663973895,-0.010159223567909215,-0.0016802688430365487,0.006721075372039597,0.0002400384061452231,-0.002880460873742677,-0.0016802688430098993,-0.0004800768122904462,-1.731235592543664,0.9150504601092756,-0.7489843642482307,-0.6913521005097897,0.7492470832880179,-1.0944737456966116,0.7486939905521415,-0.34572444586344747,-0.057632263743238286,0.10889399999999994,0.15288000000000002,-0.920987,-0.09107799999999999,-0.06497699999999995,-0.9237759999999999,0.19997199999999993,0.21785699999999997,0.0027889999999999304,0.9605565281819777,0.9943848340343981,double,-0.920987
72,0.3,walk,-0.0475161987041115,-0.1089512838972779,-0.012479001679851519,0.03436649717943412,0.3576723163058871,-0.07517940684617905,0.002159827213831727,0.004799616030695727,0.0038396928245745658,-0.004319654427663454,-0.0004799616030855586,0.0011999040076789273,1.5004569888085442,1.4463913237750745,-2.476279343541614,0.9215493297020153,-0.4611133528543031,0.8638479525868402,-0.3453788226351777,0.2880506935263613,0.40316314374115264,0.109101,0.15335399999999988,-0.920919,-0.09089800000000003,-0.06452500000000005,-0.9237190000000001,0.19999900000000004,0.21787899999999993,0.0028000000000000247,0.9611417710899356,0.9924852834860682,double,-0.920919
73,0.304167,walk,-0.12598992080633398,-0.0952723782097645,0.06647468202543066,1.0910166509451125,-0.3233687558511304,0.5458522558702822,-0.0019198464122889224,0.005999520038436187,0.002639788816893938,-0.006959443244527361,-0.0007199424046016851,-0.0021598272138217073,-18.832186729594884,3.2826747510231087,18.947368299803596,-0.9790433468012042,0.2879539255436647,-0.2879539255293061,-0.6334986361564403,-0.057590785101061824,-0.8062709914808277,0.109618,0.15377600000000013,-0.921185,-0.09040199999999998,-0.06413099999999994,-0.924005,0.20001999999999998,0.21790700000000007,0.0028199999999999337,0.960416711086449,0.9877960592733666,double,-0.921185
74,0.308333,walk,-0.05280844935189578,-0.12289966394622097,-0.0012001920307327777,0.24126496176806153,0.30924131601538285,-0.05732870661356743,0.005520883341333468,0.005520883341306819,0.0028804608737393457,-0.006721075372066247,-0.0014402304368846632,0.0,17.56636376726792,-6.631609634291034,-16.244568904503936,1.7860609106150709,-0.11489118990143253,0.057770536928806404,0.057217444181736486,-0.17289679123451215,0.518441481954322,0.10986099999999999,0.15431099999999998,-0.921168,-0.09021000000000001,-0.06362500000000004,-0.9239999999999999,0.200071,0.21793600000000002,0.0028319999999999457,0.9578098321144828,0.9885439101749909,double,-0.921168
75,0.3125,walk,-0.05591552675786898,-0.11135109191265241,0.0002399808015427793,0.3200750379510233,0.23013837045149557,-0.07912350529585928,0.0035997120230351165,0.0069594432445540975,0.01151907847372203,-0.008159347252214707,-0.0014398848092033894,-0.0019198464122872829,-0.7456389263194682,2.7714355732106126,0.3456138306396845,-0.4610442328529788,0.3452267586386578,2.073102375805792,-0.34515763862454235,8.29440079850809e-05,-0.4607262808464828,0.11010900000000001,0.15480400000000005,-0.921121,-0.09001099999999995,-0.06316699999999997,-0.924009,0.20011999999999996,0.21797100000000003,0.0028880000000000017,0.9479011770679047,0.985825097874846,double,-0.921121
76,0.316667,walk,0.019438444924405617,-0.14230861531076508,-0.08159347252220037,-0.7434878287538429,0.8816962680280358,-0.4459134993493861,0.017278617710600533,0.03791696664264012,0.0033597312215023285,-0.01079913606910535,-0.0014398848092033894,-0.0011999040076805924,18.08350652322415,-7.429211278644791,-19.63845772108078,3.2826747510356356,7.429211278638396,-1.958086693597252,-0.6334986361628652,0.0,0.17277235531718133,0.11010000000000009,0.1555549999999999,-0.920767,-0.09013699999999991,-0.06257999999999997,-0.923674,0.200237,0.21813499999999986,0.002906999999999993,0.90125745672216,0.9817323618164013,double,-0.920767
77,0.320833,walk,-0.040566490638496065,-0.12169947191551485,-0.009121459433505152,0.19903490775353094,0.2223994157667112,-0.02195839850344112,0.017762842054706535,0.03840614498323569,0.003600576092175015,-0.006721075372066247,-0.002880460873742677,-0.0002400384061435575,-14.403489093351329,4.9469859326092696,17.396066511928748,0.11623243977580464,0.11742158919720885,0.057812018884466194,0.978891189879765,-0.34579358246262276,0.23040460910634522,0.11034299999999997,0.15622200000000008,-0.920714,-0.08999599999999996,-0.062084999999999946,-0.923637,0.20033899999999993,0.21830700000000003,0.002923000000000009,0.8999903207416511,0.9878062484764416,double,-0.920714
78,0.325,walk,-0.04919606431485701,-0.1264698824093929,-0.0028797696184333834,0.22033839062353644,0.2444951624647911,-0.03332440221095738,0.0016798656107727896,0.0067194624429845855,-0.0021598272138217073,-0.008879289656842928,-0.005039596832265082,0.0011999040076789112,-2.0709320077659905,-1.1448069339760023,1.4978857247592323,-3.859605578097822,-7.604195474022284,-1.3823862025429992,-0.5179299939468837,-0.5181511779511372,0.3455585346346191,0.11055500000000007,0.15677699999999994,-0.9207110000000001,-0.08982800000000002,-0.06157900000000005,-0.92362,0.2003830000000001,0.218356,0.0029089999999999394,0.9588179941942228,0.9828666106786309,double,-0.9207110000000001
79,0.329167,walk,-0.055675545956326206,-0.11927045836335098,-0.0045596352291795905,0.08624476525991764,0.2792058977239554,-0.054155709424686116,0.011279097672164265,0.0016798656107728119,0.0019198464122856175,-0.004319654427636811,0.0064794816414685385,-0.00239980801535952,-1.5549511978567865,1.727723553165813,-0.40313549573943286,2.3036314042216297,-1.2094064872118557,0.9790433467980196,1.094224917016113,2.7643576850812783,-0.8638617765871014,0.11083399999999999,0.15728100000000012,-0.9206840000000001,-0.08961399999999997,-0.06105499999999997,-0.9236110000000001,0.20044799999999996,0.21833600000000009,0.002927000000000013,0.9514566877799576,0.9864187450233262,double,-0.9206840000000001
80,0.333333,walk,-0.13898223715794425,-0.10249639942389699,0.09265482477196284,1.282104976643973,-0.512104057473367,0.47140235436896677,0.0009601536245808924,0.0040806529044488055,0.0028804608737410115,-0.010081613058086044,-0.002400384061438906,0.0,-19.996805377248677,4.026418372408541,23.33520403291943,-2.4769428822811728,0.5762811554671128,0.23058436424757398,-1.383091365926363,-2.1315088101074022,0.5760460910608541,0.11141699999999999,0.157725,-0.921058,-0.08907699999999996,-0.06063799999999997,-0.9239970000000001,0.20049399999999995,0.21836299999999997,0.002939000000000025,0.9621327956071501,0.9827276099016554,double,-0.921058
81,0.3375,walk,-0.05663546916246993,-0.11903047756180661,0.005039596832238439,0.25168174464773607,0.1885288243767044,-0.059677925736788116,0.009119270458385703,0.005279577633781215,0.0021598272138217073,-0.009359251259901835,-0.0009599232061444612,-0.0007199424046066807,19.761643387442692,-3.9678613241923437,-21.025972627723476,1.9580313976013315,0.2877189175263739,-0.17293824332116597,0.1733529633271427,0.3456829506346133,-0.1727723553171767,0.1116910000000001,0.15824300000000002,-0.9210699999999999,-0.08887999999999996,-0.06014599999999992,-0.924021,0.20057100000000005,0.21838899999999994,0.002951000000000037,0.9525626863202579,0.9842735755128846,double,-0.9210699999999999
82,0.341667,walk,-0.05855531557473299,-0.12191024718021498,0.007679385649155792,0.2888665494001069,0.2742534563953851,-0.05058336092709018,0.0057595392368402,0.0016798656107728119,0.00239980801535952,-0.010559155267589214,-0.002159827213831727,-0.000959923206144474,-0.46072628084066974,-0.6910894212643117,0.6334986361692747,-0.806270991491606,-0.8638617765798953,0.05759078510626684,-0.28795392553092997,-0.287953925530903,-0.05759078510626221,0.11195899999999992,0.15875800000000007,-0.921092,-0.08868000000000009,-0.059647000000000006,-0.924057,0.200639,0.21840500000000007,0.0029649999999999954,0.9595805319431967,0.9819659222180495,double,-0.921092
83,0.345833,walk,0.022083533365333873,-0.1313010081612971,-0.09865578492557342,-0.9703405456941351,0.8922529713851212,-0.4681640507971012,0.0021603456553136702,0.00600096015361059,-0.001920307249160119,-0.009601536245782274,-0.0014402304368580138,-0.0007201152184340036,19.356420772939703,-2.2541432983874516,-25.524524861912898,-0.8639446907168813,1.0372286468645644,-1.036993582457906,0.22986534368865555,0.17273086341183697,0.05756312715085698,0.11187599999999998,0.15932999999999997,-0.9206890000000001,-0.088812,-0.05910599999999999,-0.923649,0.20068799999999998,0.21843599999999996,0.0029599999999999627,0.9592986742474865,0.9837739640017328,double,-0.9206890000000001
84,0.35,walk,-0.025917926565874154,-0.12191024718024163,-0.005519558435324065,0.17454480531989083,0.18199691297554194,-0.02246080966347023,0.005759539236866844,-0.00023998080151613608,0.005999520038397967,-0.011759059275276467,-0.004319654427663454,0.002159827213821736,-11.519428829183656,2.2536023472655478,22.350906285157162,0.8637373605839199,-1.4977060127494028,1.9006065004939119,-0.5177641059501333,-0.6910064772751275,0.6911308932699199,0.112008,0.15983700000000012,-0.920641,-0.08875300000000008,-0.058616,-0.923617,0.20076100000000008,0.21845300000000012,0.0029759999999999787,0.95637316068845,0.9788130187374244,double,-0.920641
85,0.354167,walk,-0.057115430765555475,-0.12407007439404505,-0.0007199424046283283,0.19977983776781832,0.16477102207363495,-0.030788709852951904,0.004799616030722306,0.00047996160303226577,0.0059995200383962215,-0.012718982481394128,-0.0033597312214922927,-0.001679865610751142,-7.486802063758359,-0.5183170659475417,1.151815702110799,-0.23036314042345343,0.17277235530319088,-4.1879813218926194e-13,-0.23036314041700348,0.2303631404298426,-0.9214525616925483,0.11226600000000009,0.16035599999999994,-0.920613,-0.08856799999999998,-0.05811299999999997,-0.923621,0.20083400000000007,0.2184689999999999,0.0030080000000000107,0.9570898144689661,0.9778965652673577,double,-0.920613
86,0.358333,walk,-0.08305328852615391,-0.12241958713394385,0.01632261161787517,0.32227906224744096,0.06727791281575923,0.05158459317205235,0.0040806529044488055,0.0016802688430365487,0.009601536245798929,-0.014402304368686735,-0.0031204992798945625,0.0004800768122904462,-6.226082035669328,0.39618033127729124,4.090867504201508,-0.1725787629077053,0.2881198367749117,0.8646222293333424,-0.4040619028546822,0.05742485396008883,0.5184691365918355,0.11262899999999998,0.16087300000000004,-0.920641,-0.08828199999999997,-0.057616,-0.923687,0.20091099999999995,0.21848900000000004,0.003045999999999993,0.9519280935325263,0.975426167902183,double,-0.920641
87,0.3625,walk,-0.13318934485240588,-0.11087113030956686,0.08711303095752443,1.2321767863875475,-0.5583879783459526,0.36047815604243966,0.002159827213831727,0.001919846412288948,0.010319174466043104,-0.008639308855300266,-0.0007199424046016947,0.0011999040076789273,-12.0316909830219,2.7714079252164776,16.988341574189985,-0.4609612888449938,0.05749401709920822,0.1722193953069784,1.3830082825501564,0.5760875630652462,0.17274470731665112,0.11319299999999999,0.16134300000000001,-0.920961,-0.08776300000000004,-0.05715700000000001,-0.924045,0.20095600000000002,0.21850000000000003,0.0030839999999999756,0.9512997379715452,0.9854135008968665,double,-0.920961
88,0.366667,walk,-0.05735541156707161,-0.127429805615564,0.012239020878308577,0.2652075983337446,0.12134448191698018,-0.024119744829725658,-0.0002399808015427761,0.0028797696184067402,0.01271898248140079,-0.008879289656816284,0.0002399808015427761,0.0,18.19868809343261,-3.973764172305499,-17.968324953015426,-0.5759078510617914,0.230363140417035,0.5759078510577554,-0.05759078510103568,0.23036314042343733,-0.28795392552889804,0.11343099999999995,0.16188599999999997,-0.920959,-0.087561,-0.056624999999999925,-0.9240959999999999,0.20099199999999995,0.2185109999999999,0.0031369999999999454,0.9468914538969759,0.9851957799189675,double,-0.920959
89,0.370833,walk,0.01848295727316219,-0.12217954872779196,-0.10441670667305877,-1.075812157294679,0.6909195614995521,-0.2659650460389772,-0.02664426308208645,-0.017282765242402763,0.03816610657705216,-0.01032165146423793,-0.0016802688430098993,-0.0002400384061435575,18.204121181045064,1.2602632951925175,-28.001854909113604,-6.338041834023921,-4.83978273183137,6.108287108893747,-0.346222229337889,-0.46093366407889436,-0.05761843642428164,0.11324299999999998,0.1623230000000001,-0.920365,-0.08768100000000001,-0.05612299999999992,-0.923662,0.200924,0.21844600000000003,0.0032969999999999944,0.8842776515797766,0.9825662037369925,double,-0.920365
90,0.375,walk,-0.05375569954403726,-0.11903047756178156,0.002159827213831727,0.1377026859835709,0.042217360549636276,0.00951698714911896,-0.01439884809216711,-0.014398848092193753,0.013438924886009314,-0.009119270458359181,-0.0002399808015427793,-0.0007199424046083555,-17.335890764866775,0.7557166225127,25.5763220270917,2.938664504420305,0.6920847492702247,-5.934048881939762,0.28854835754229813,0.34564147863382005,-0.11516774621185523,0.11340699999999992,0.16275899999999988,-0.920318,-0.08749499999999999,-0.05562800000000001,-0.923674,0.20090199999999991,0.2183869999999999,0.0033560000000000256,0.9257768049687034,0.9847486793337097,double,-0.920318
91,0.379167,walk,-0.06359491240702478,-0.12095032397409715,0.003119750419949558,0.22879138119366516,0.08155433449508252,0.031979135187888356,-0.0035997120230351165,-0.011759059275249823,0.0196784257259434,-0.011519078473733688,-0.003119750419976201,0.0009599232061428088,-2.3612221893418712,-0.4607262808532753,0.23036314041704734,2.5915853297653118,0.6334986361756527,1.4973604127511686,-0.5759078510618,-0.6910894212703235,0.40313549574062246,0.11365700000000001,0.16321399999999997,-0.920249,-0.08727799999999997,-0.05513699999999999,-0.9236829999999999,0.20093499999999997,0.21835099999999996,0.003433999999999937,0.9269849347935946,0.9800456448551625,double,-0.920249
92,0.383333,walk,-0.06505040806526885,-0.12193951032164008,-0.0009601536245808924,0.1302182749231139,-0.027631343498242464,-0.022602321326296505,-0.005760921747458705,-0.008641382621201382,0.019203072491597858,-0.013442150744105843,-0.0038406144983235695,0.0021603456553053423,-0.3493748579558498,-0.2374427142445817,-0.979333664073559,-0.5187733375956761,0.7483621349132117,-0.11410303272816621,-0.4616112026817459,-0.17303506441367447,0.28814749139763146,0.113904,0.163686,-0.9201649999999999,-0.087063,-0.054645000000000055,-0.92367,0.200967,0.21833100000000005,0.0035050000000000914,0.9285639638313485,0.976423361980884,double,-0.9201649999999999
93,0.3875,walk,-0.06191504679627778,-0.11735061195103383,0.0019198464122889224,0.20318476635290109,-0.10916628131233433,0.019946811614260592,-0.0002399808015427761,-0.008399328053757375,0.024958003359731012,-0.010319174466046297,-0.0014398848092033701,-0.000959923206142796,0.7524265104370158,1.1012475091447596,0.6911447172713685,1.324919833433138,0.05808844911063237,1.381072922518145,0.7494543503862543,0.5761290350660381,-0.7488046223777572,0.11416100000000007,0.16413999999999995,-0.9200689999999999,-0.08684799999999993,-0.05416200000000004,-0.923682,0.201009,0.218302,0.0036130000000000884,0.9199790924929874,0.9825612116177942,double,-0.9200689999999999
94,0.391667,walk,-0.11495080393568753,-0.1355891528677804,0.10799136069116007,1.4395450690524678,-0.6472603774493602,0.3501536524154769,-0.002879769618433422,-0.01055915526756257,0.026397888168946393,-0.011279097672190909,-0.0023998080153478634,0.0007199424046066903,-12.727563508377742,-4.376899668045757,25.45512701676788,-0.6334986361628656,-0.518317065947974,0.34554471063484266,-0.2303631404234742,-0.23036314042344583,0.40313549574021973,0.11462800000000006,0.16466100000000006,-0.920409,-0.08641599999999994,-0.05360699999999996,-0.924129,0.201044,0.21826800000000002,0.0037199999999999456,0.9151718881798216,0.9807432955488151,double,-0.920409
95,0.395833,walk,-0.0021603456552870205,-0.08761401824293313,-0.11713874219876226,-1.3643751174697607,0.8129133109084539,-0.2261766554902651,0.0021603456553136702,-0.015602496399419514,0.02544407105136866,-0.013922227556409613,-0.0033605376860464478,0.0004800768122904462,27.07404183398954,11.515874849939324,-54.03987107295299,1.2098212370972368,-1.2105955669363755,-0.22895274065716054,-0.6344526846420313,-0.23061201889068259,-0.057576954468613516,0.11464600000000003,0.16496100000000014,-0.9198149999999999,-0.08646500000000001,-0.05325599999999997,-0.923639,0.20111100000000004,0.2182170000000001,0.0038240000000000496,0.9118849968278635,0.976116480146257,double,-0.9198149999999999
96,0.4,walk,-0.06023518118550499,-0.11255099592031152,-0.005519558435323991,0.08590653591710413,0.04805757458778675,0.04473255793790601,0.0019198464122622792,-0.014878809695225826,0.027837772978161066,-0.009599232061444612,-0.0016798656107461464,0.003599712023038399,-13.936845579605839,-5.984395890899496,26.786461186330072,-0.0577152011162441,0.17367091533325693,0.5744425070296104,1.037435923917679,0.4033290317495293,0.748652558374833,0.11490499999999992,0.16536800000000007,-0.9196759999999999,-0.08625400000000005,-0.05279400000000001,-0.923601,0.20115899999999998,0.21816200000000008,0.003925000000000067,0.9080452038715994,0.9826854965027356,double,-0.9196759999999999
97,0.404167,walk,-0.062155027597794746,-0.11567074634028922,-0.0023998080153478634,0.03795599353779156,0.07506055963170917,0.04904475141297803,-0.008159347252214707,-0.013438924886022635,0.01799856011519057,-0.012479001679851519,-0.0033597312214923374,0.0038396928245745658,-0.4607262808470758,-0.748680206378141,0.7486802063777647,-2.4188129744365354,0.34554471063191733,-2.3612221893377856,-0.6910894212639603,-0.403135495739429,0.05759078510587188,0.11512999999999995,0.165794,-0.919591,-0.08604699999999998,-0.052325999999999984,-0.923575,0.20117699999999994,0.21811999999999998,0.0039839999999999876,0.9203295323243308,0.9775304825131235,double,-0.919591
98,0.408333,walk,-0.07129140662505797,-0.11881901104177217,-0.006240998559762475,0.12468723047504827,-0.02761988766478624,0.04713184642825216,0.004800768122904461,-0.031925108017268035,0.03048487758041335,-0.009361497839657038,-0.000480076812303771,0.0004800768122887806,-2.1930818596407136,-0.7557044410664788,-0.922033255980463,3.1109254380986937,-4.4373939345284175,2.9971957429723406,0.748320652951147,0.6912276546299962,-0.8064368728482436,0.11544699999999997,0.16615600000000008,-0.9194380000000001,-0.085789,-0.05183300000000002,-0.923547,0.20123599999999997,0.2179890000000001,0.004108999999999918,0.8849057272709332,0.984356525207214,double,-0.9194380000000001
99,0.4125,walk,-0.06575473962082987,-0.11375089992800028,-0.011279097672190909,0.026028490858979552,0.018248010305965442,0.04553843304133975,0.0026397888168906425,-0.026157907367443577,0.034557235421166094,-0.01103911687064813,-0.0007199424046016947,0.003599712023038447,1.3286937855119103,1.2162493673558732,-1.2090470632177734,-0.5185935459596427,1.3840174345631129,0.977287698764763,-0.402596359729086,-0.05756313710053398,0.7486525583752542,0.11573199999999995,0.16652099999999992,-0.919247,-0.085561,-0.05136200000000002,-0.923485,0.20129299999999994,0.21788299999999994,0.004237999999999964,0.8852512083300743,0.9806108317038024,double,-0.919247
100,0.416667,walk,-0.06647468202543066,-0.11087113030959202,-0.00311975041997616,0.04037769975289,0.027695663090542486,0.10138434942057696,0.011039116870647982,-0.027597792176593312,0.048716102711783116,-0.010079193664503522,0.0,0.002639788816893938,-0.17277235531576507,0.6910894212642759,1.9580866935960373,2.01567747870345,-0.3455447106190844,3.39785632124236,0.23036314042347028,0.17277235531598012,-0.23036314042344655,0.11605499999999991,0.16686800000000013,-0.919031,-0.08532600000000001,-0.050899999999999945,-0.923461,0.20138099999999992,0.21776800000000007,0.004429999999999934,0.8605866334645969,0.9826347545427683,double,-0.919031
101,0.420833,walk,-0.06577052328375114,-0.10129620739316422,-0.01032165146423793,-0.01732175472414064,-0.08910829183766103,0.08707257058788524,0.00600096015363724,-0.03888622179548616,0.04056649063850273,-0.011761881901122593,0.0012001920307327777,-0.0019203072491584534,0.16902514202580873,2.2983492358204,-1.7287328478784842,-1.2093511082598989,-2.7096566535988575,-1.9562198927701353,-0.40390980235695395,0.2880921821250064,-1.0945981915632232,0.11635400000000007,0.16712800000000005,-0.9188189999999999,-0.08510099999999998,-0.05047299999999999,-0.923426,0.20145500000000005,0.21760100000000004,0.004607000000000028,0.8597406232249651,0.9800368459755255,double,-0.9188189999999999
102,0.425,walk,-0.11495080393566089,-0.1430285577153934,0.09887209023277425,1.604646749258702,-0.7065416142712097,0.2838259565837927,-0.03119750419965544,-0.031197504199708726,0.020398368130548426,-0.003839692824577896,-0.0007199424046283379,0.003599712023036782,-11.802323170604756,-10.014962880304639,26.20440165515066,-8.926917291406982,1.8451446114176817,-4.839962204932665,1.9011732845079776,-0.460795400854602,1.3246986494349091,0.116703,0.1675939999999999,-0.9191459999999999,-0.0846380000000001,-0.049880000000000035,-0.923823,0.2013410000000001,0.21747399999999995,0.004677000000000042,0.8722179645606809,0.9911463308450532,double,-0.9191459999999999
103,0.429167,walk,-0.021358291336694278,-0.07847372210222311,-0.107991360691132,-1.169501390234231,0.8253544785466179,-0.16810674553033814,0.010799136069105207,-0.04223662107030301,0.06599472042236676,-0.009839212862960744,0.003839692824577845,-0.0021598272138217073,22.460406191256517,15.491921193465275,-49.64325676119622,10.078387393510997,-2.6491761148534194,10.942249170102707,-1.4397696276416614,1.0942249170161142,-1.3821788425386237,0.11683699999999997,0.16774499999999992,-0.918421,-0.08459000000000005,-0.04953700000000005,-0.923382,0.20142700000000002,0.21728199999999998,0.004960999999999993,0.8185667110558212,0.9820325754378056,double,-0.918421
104,0.433333,walk,-0.06481036965914361,-0.10945751320211512,-0.005280844935181583,0.09022454467639962,0.14522664319722012,0.02698188697079537,0.03792606817090527,-0.057369179068621705,0.06649063850216017,-0.005040806529029698,0.0019203072491617847,0.0002400384061452231,-10.430167624207705,-7.437299831947188,24.654468496387505,6.5115055453192605,-3.6323951028129344,0.11903938545208968,1.1518018084327997,-0.46072625430054215,0.5760599183790035,0.11726499999999995,0.16796200000000006,-0.918122,-0.084341,-0.04907300000000003,-0.923359,0.20160599999999995,0.2170350000000001,0.005237000000000047,0.7881985939699678,0.9910007826218801,double,-0.918122
105,0.4375,walk,-0.06167506599473583,-0.10583153347732835,-0.017038636909057752,0.014497428395587621,0.05165833952736636,0.032702184238909936,0.0405567554595574,-0.05687544996401346,0.07271418286537064,-0.00815934725224135,0.002159827213831727,-0.0028797696184317567,0.7524126864429556,0.870165520707174,-2.821644342182922,0.631314444120985,0.11848550626547799,1.493531164677348,-0.7483899023786106,0.057480193105338064,-0.7486940303760493,0.11769099999999999,0.16816600000000004,-0.917748,-0.08411800000000003,-0.04862299999999997,-0.9233,0.20180900000000002,0.216789,0.005552000000000001,0.7764272667765504,0.985136465741854,double,-0.917748
106,0.441667,walk,-0.05735541156707238,-0.11039116870650793,-0.014398848092140466,0.07989116667505446,-0.037077155059417485,0.10309757781657933,0.044636429085678074,-0.07103431725463778,0.07151427885769171,-0.0064794816414685385,0.0004799616030589154,0.0026397888168956385,1.0366341319086818,-1.0942249170097458,0.6334986361692587,0.9790433468012235,-3.397856321244157,-0.2879539255289022,0.4031354957458174,-0.4031354957458174,1.3245880574339877,0.118116,0.16832999999999998,-0.91739,-0.08390600000000004,-0.04816100000000001,-0.9232290000000001,0.20202200000000003,0.216491,0.005839000000000039,0.7578787869778776,0.9883116237131421,double,-0.91739
107,0.445833,walk,-0.05064810369658211,-0.08833413346133549,-0.023763802208370422,-0.15927686522375656,0.14057073844471218,0.044927961691265346,-0.010801728276515052,-0.04224675948150596,0.08041286605856979,-0.0064810369659143606,0.0033605376860464478,0.001680268843014896,1.6100114907561835,5.294535584534907,-2.2479486596807368,-13.307286932835593,6.910119484669179,2.13600268864092,-0.00037333760101346047,0.6914488917396856,-0.23032164519460918,0.118282,0.16852199999999995,-0.916956,-0.08372200000000007,-0.047779000000000016,-0.9231229999999999,0.20200400000000007,0.21630099999999997,0.0061669999999999225,0.7858714897222365,0.9875144130786186,double,-0.916956
108,0.45,walk,-0.05447564194866487,-0.10103191744660463,-0.02735781137507718,0.005617953923461956,0.02087346319929409,0.07844443379374913,-0.023758099352068754,-0.06623470122388789,0.11039116870650313,-0.00911927045835906,0.0016798656107461464,-0.0002399808015361153,-0.9185356976440429,-3.047224378514288,-0.8624932005535711,-3.109280315707608,-5.756645486532696,7.194217098136097,-0.6331253881556704,-0.4033290317495293,-0.4608230488483313,0.11841000000000002,0.168667,-0.916382,-0.08353299999999997,-0.04735100000000003,-0.92301,0.20194299999999998,0.21601800000000004,0.006627999999999967,0.7155349800218727,0.9845403183024741,double,-0.916382
109,0.454167,walk,-0.05951523878087746,-0.10535157187426943,-0.025437964962815238,0.10808985165739554,-0.06451579907941561,0.12406488898200792,-0.014398848092140466,-0.06551475881928708,0.10799136069114508,-0.003119750419949558,0.0033597312214923374,0.0038396928245745658,-1.2094064872120518,-1.0366341319090049,0.4607262808404016,2.246040619133271,0.1727723553157707,-0.575907851057851,1.4397696276480767,0.403135495739429,0.9790433467988252,0.11859799999999998,0.16883300000000012,-0.9158259999999999,-0.08329799999999998,-0.046897999999999995,-0.9228879999999999,0.20189599999999996,0.21573100000000012,0.007062000000000013,0.7174992392887054,0.9900328487366228,double,-0.9158259999999999
110,0.458333,walk,-0.05520883341336134,-0.10969755160824037,-0.020403264522323973,0.04850551192495397,-0.029130079108244687,0.13352062053775451,-0.03096495439271379,-0.08233317330772491,0.11281805088814159,-0.005520883341360118,0.0012001920307327777,0.0031204992798845687,1.0337026806327696,-1.0432020484807816,1.208521469152967,-3.9765017524179824,-4.037065407690308,1.1585910218426565,-0.5763641193976377,-0.5183723453575511,-0.1726340721771475,0.118699,0.16894700000000007,-0.915271,-0.08309100000000003,-0.04643600000000003,-0.92279,0.20179000000000002,0.2153830000000001,0.007519000000000053,0.6863805762840802,0.989242815122582,double,-0.915271
111,0.4625,walk,-0.05495560355169714,-0.10751139908807308,-0.022798176145897648,0.13307180063869506,-0.06763062072928688,0.16070351648547287,-0.031197504199655026,-0.09527237820979115,0.12455003599711895,-0.005279577633781215,0.0026397888168906074,0.0021598272138217073,0.06077030517499329,0.5246346340694179,-0.5747328110327949,-0.05580748906677054,-3.105160763634782,2.815451190059339,0.05790873711996675,0.345475590630626,-0.23054285242689082,0.11879799999999996,0.16899799999999987,-0.914657,-0.08288400000000007,-0.045977000000000046,-0.922686,0.20168200000000003,0.21497499999999992,0.008028999999999953,0.6532370402246297,0.9895241973812573,double,-0.914657
112,0.466667,walk,-0.04895608351334153,-0.10439164866812496,-0.027837772978163103,0.03539417609482059,-0.020167026173680293,0.1357013153884876,-0.01439884809216711,-0.09359251259896632,0.1317494600431975,-0.0047996160307223696,0.0064794816414685385,-0.0007199424046066903,1.4397696276351426,0.7486802063710439,-1.209406487224738,4.031354957400531,0.4031354957582994,1.727723553174612,0.1151815702085068,0.9214525616937732,-0.6910894212691179,0.11894199999999999,0.16904300000000005,-0.913992,-0.0827,-0.04551499999999997,-0.922573,0.201642,0.21455800000000003,0.00858099999999995,0.6437746535078807,0.9865073771750752,double,-0.913992
113,0.470833,walk,-0.052568410945743896,-0.10441670667305877,-0.02448391742679943,0.03498495761262566,-0.04135997500205202,0.13910561241883132,-0.05544887181948657,-0.10369659145462977,0.1567450792126741,-0.00384061449829692,0.0021603456553136702,0.003360537686029792,-0.867097319347662,-0.006014883565485286,0.8050541409898393,-9.853582267719498,-2.4253669840766774,5.9999085860481465,0.2301971993340012,-1.036758518040054,0.979471937262717,0.11892999999999998,0.16904600000000003,-0.913237,-0.08249699999999993,-0.04507099999999997,-0.922457,0.2014269999999999,0.214117,0.009220000000000006,0.5812159104255173,0.9907638051043451,double,-0.913237
114,0.475,walk,-0.03719702423806506,-0.11183105351571132,-0.022798176145897953,0.10310237838119665,-0.16089433682807572,0.1612787707945396,-0.01103911687064813,-0.12407007439407335,0.17206623470122545,-0.002159827213831727,0.002159827213805084,0.00311975041996621,3.688837702826715,-1.7793008981647682,0.4045455437728549,10.657488588634196,-4.889244765885215,3.676783174598375,0.4033566797372696,-0.0001244160087800185,-0.05778432110957121,0.119039,0.1689949999999999,-0.912425,-0.08235099999999995,-0.04459600000000008,-0.922349,0.20138999999999996,0.21359099999999998,0.009923999999999933,0.5467275368553678,0.9927232199829449,double,-0.912425
115,0.479167,walk,-0.036717062634979016,-0.10415166786658078,-0.01223902087833522,0.07015501495358663,-0.17429005758926885,0.18291842382829213,0.009599232061444612,-0.15022798176146165,0.19102471802255627,-0.003359731221518936,0.005519558435323991,0.0014398848092150266,0.11518157021503328,1.8429051233814444,2.5339945446514647,4.952807519100693,-6.277395576527024,4.549672023357494,-0.28795392553088545,0.8062709914852128,-0.4031354957406217,0.119232,0.16880299999999993,-0.911578,-0.08221200000000006,-0.04413900000000004,-0.922292,0.20144400000000007,0.21294199999999996,0.010714000000000001,0.48751023794297016,0.9889663913093759,single,-0.911578
116,0.483333,walk,-0.03312530004800081,-0.10657705232837245,-0.018722995679314076,0.11577729831009224,-0.1570965787888897,0.16579489470309833,0.002880460873742677,-0.14018242918865037,0.2021123379740763,-0.007441190590495253,0.0031204992798945625,0.001680268843014896,0.8621609666294299,-0.5821854204972783,-1.5564029767111982,-1.6127631271488072,2.4113184284232543,2.66145462110418,-0.9797070016745834,-0.5758663359168091,0.05770140033602236,0.11938199999999999,0.168663,-0.910658,-0.0821050000000001,-0.043682,-0.922207,0.20148700000000008,0.212345,0.011549000000000031,0.4745343649874375,0.986263174337175,single,-0.910658
117,0.4875,walk,-0.02711783057356141,-0.10727141828653174,-0.010079193664503655,0.2750544296813735,-0.25156380320235927,0.1435969026992732,-0.005759539236866844,-0.14254859611230786,0.2030237580993531,-0.0023998080153478634,0.001919846412288948,0.004079673626110684,1.4416773396782896,-0.16663449919829476,2.0743465358316464,-2.0734341518141512,-0.5678346349070075,0.21872333219986034,1.2098350312328816,-0.28813363753434634,0.5758110830563479,0.119471,0.168516,-0.90977,-0.08200200000000002,-0.043227000000000015,-0.922148,0.201473,0.21174300000000001,0.012378,0.46265850081613036,0.9914871623654999,single,-0.90977
118,0.491667,walk,-0.027597792176619954,-0.09047276217901555,-0.008639308855273508,0.1591466212180615,-0.23480659555132327,0.1912600038732864,-0.016318694504429198,-0.1600671946244224,0.21838252939764513,-0.004319654427636754,0.0026397888168906074,0.000959923206142796,-0.11518157020843325,4.031354957407261,0.3455447106383816,-2.5339945446513736,-4.20412731272244,3.6858102467703158,-0.4607262808468625,0.17277235531597165,-0.7486802063757773,0.11951800000000001,0.168226,-0.9088240000000001,-0.081905,-0.04283900000000007,-0.922108,0.20142300000000002,0.21106500000000006,0.013283999999999963,0.4150699901218818,0.9914123227927594,single,-0.9088240000000001
119,0.495833,walk,-0.010081613058086044,-0.1116178588574288,-0.014882381180990506,0.06178787453648175,-0.16642071476932394,0.11678471470529378,-0.0316850696111428,-0.2112337974075831,0.2448391742678827,-0.004080652904475455,0.0036005760921716838,0.0024003840614505653,4.204555717362914,-5.07563530446789,-1.4985771305129603,-3.6885201888414763,-12.281949779923348,6.3506108665956695,0.05736954468586145,0.23062584620285062,0.3457659278223159,0.11942799999999998,0.16781100000000004,-0.907742,-0.08188000000000006,-0.042359000000000036,-0.9220360000000001,0.20130800000000004,0.21017000000000008,0.014294000000000029,0.35706000000000004,0.9900868045340246,single,-0.907742
120,0.5,walk,-0.01871850251980392,-0.1070314374850156,0.0,0.17644253667024007,-0.19043542557865636,0.09610083106611775,-0.029277657787393135,-0.21190304775617283,0.24286057115431048,-0.006239500839925759,0.004319654427663454,0.0028797696184300918,-2.072687655799838,1.1006530771330014,3.5714857645765754,0.5777326190903954,-0.16060723508272776,-0.47482676111644867,-0.5180820579434405,0.1725649953184004,0.1150433302086703,0.11938399999999993,0.16737400000000013,-0.90673,-0.08182800000000001,-0.041894999999999905,-0.9220240000000001,0.20121199999999995,0.20926900000000004,0.01529400000000003,0.34706,0.9864718546313929,single,-0.90673
121,0.504167,walk,-0.012958963282936905,-0.10631149508038584,-0.00623950083995232,0.14367441450323543,-0.19964652681310419,0.1359565843757607,-0.011519078473706892,-0.2025437964962948,0.23326133909287095,-0.0035997120230350688,0.0014398848092033701,0.0021598272138233727,1.3821788425406698,0.17277235532271562,-1.497360412755525,4.261718097836839,2.246040619121178,-2.3036314042331316,0.6334986361628678,-0.6910894212767128,-0.1727723553171859,0.11939,0.16697300000000004,-0.905732,-0.081789,-0.04144599999999998,-0.921989,0.201179,0.20841900000000002,0.016256999999999966,0.33743,0.9926032949328528,single,-0.905732
122,0.508333,walk,-0.012241958713399715,-0.10537686029763967,-0.0040806529044488055,0.17888950521046368,-0.29167225137550434,0.10343281346241776,0.007921267402772374,-0.2700432069131161,0.2666826692270747,-0.0026404224675907915,0.0038406144983235695,0.0026404224675941226,0.1721086340703768,0.22434824357805483,0.5182064175476506,4.6664296390972755,-16.20245089217985,8.022402816659556,0.23026633592037363,0.5762673281613532,0.11536131871597446,0.11947399999999997,0.16628699999999996,-0.9046040000000001,-0.08174899999999996,-0.040991,-0.921961,0.20122299999999993,0.20727799999999996,0.017356999999999956,0.32643,0.9910722061112085,single,-0.9046040000000001
123,0.5125,walk,-0.005519558435324138,-0.10823134149267766,-0.007679385649155894,0.24773252230262852,-0.3039577526996206,0.057570112230333814,0.0011999040076872693,-0.23014158867289425,0.24214062874970532,-0.007919366450698677,0.002159827213831756,0.0023998080153595515,1.613247006977611,-0.6850206851543187,-0.8636267685882307,-1.6129981749664584,9.575622327867201,-5.88961854508515,-1.2668452083292503,-0.4033566797436634,-0.057742849108369486,0.119502,0.165779,-0.903563,-0.08175900000000003,-0.040530999999999984,-0.9219189999999999,0.20126100000000002,0.20631,0.018355999999999928,0.31644000000000005,0.9857463165496848,single,-0.903563
124,0.516667,walk,-0.006959443244554005,-0.09311255099593281,-0.012958963282936905,0.13614126717511066,-0.2721093171809404,0.0896555457724591,0.01223902087833522,-0.24382049436048,0.2491000719942379,-0.0009599232061444612,0.0035997120230350688,0.003359731221502284,-0.3455447106383144,3.6282194616618026,-1.2669972723256469,2.649176114866299,-3.2826747510404735,1.670132768066359,1.6701327680715532,0.34554471063194186,0.23036314042302017,0.11958200000000008,0.16515099999999994,-0.902471,-0.08173399999999997,-0.04012799999999994,-0.921851,0.20131600000000005,0.20527899999999988,0.019379999999999953,0.3062,0.991638850907784,single,-0.902471
125,0.520833,walk,-0.009121459433505152,-0.08785405664905838,-0.0007201152184290069,0.21880771552554057,-0.3429485195525503,0.09914774787528728,0.035525684109439716,-0.2798847815650503,0.23811809889582478,-0.0036005760921716838,0.004800768122904461,0.0009601536245792267,-0.5189669200554838,1.2622406017461427,2.9377935824550865,5.589693526429303,-8.656814019339961,-2.6360953188701655,-0.633858109944124,0.2882995919033585,-0.5759907817866191,0.11976799999999999,0.1643509999999999,-0.901476,-0.08171099999999998,-0.039741999999999944,-0.921844,0.20147899999999996,0.20409299999999986,0.02036799999999994,0.29632,0.9898711882691822,single,-0.901476
126,0.525,walk,0.022558195344381516,-0.14014878809695813,0.0031197504199495167,0.10769579585653992,-0.03872689456963905,0.08830236368908748,0.05327573794097763,-0.2788576913846596,0.23878089752819492,-0.0033597312214922927,0.004319654427636754,0.003359731221502284,7.602508945977064,-12.549731568970328,0.9214940336881436,4.259672145797404,0.2464819247397895,0.15905894705307017,0.057798145111444495,-0.11545805022023121,0.5758525550571247,0.119896,0.16377300000000006,-0.9004939999999999,-0.08181899999999998,-0.03913999999999995,-0.921843,0.20171499999999998,0.202913,0.021349000000000062,0.28651000000000004,0.989297585664958,single,-0.9004939999999999
127,0.529167,walk,0.028797696184307192,-0.11975041996638165,0.006479481641468453,0.2423928543089685,-0.34000991031638383,0.021646678232539962,0.07199424046075466,-0.297096232301431,0.2435805135589139,-0.0021598272138316985,0.004079673626093978,-0.0002399808015361153,1.497360412749131,4.895216733999598,0.8062709914852196,4.492081238247392,-4.37689966805166,1.1518157021163793,0.28795392552449844,-0.05759078510745732,-0.8638617765870822,0.12007599999999996,0.1630339999999999,-0.8995059999999999,-0.08194800000000002,-0.0386240000000001,-0.921871,0.20202399999999998,0.201658,0.02236500000000008,0.27635,0.9922960722005372,single,-0.8995059999999999
128,0.533333,walk,0.022563610177638246,-0.11449831973117452,0.0028804608737427535,0.22197439483804918,-0.10982871825510923,0.019678068743523444,0.12481997119541273,-0.34397503600577406,0.24315890542487428,-0.00600096015361075,0.0007201152184556757,0.0014402304368697112,-1.4964200688115958,1.260705769372843,-0.863903208767593,12.680204208991704,-11.252713323174332,-0.10120214451263596,-0.9220194286555811,-0.8064230455204966,0.40331522765383343,0.120502,0.16207799999999994,-0.898505,-0.082067,-0.038143999999999956,-0.921877,0.202569,0.2002219999999999,0.02337199999999995,0.26627999999999996,0.9896445998515587,single,-0.898505
129,0.5375,walk,0.03623710103189346,-0.11567074634028768,0.006719462443011228,0.22433980296594802,-0.2704347917153291,0.039879836961797706,0.05207583393326375,-0.3765298776097719,0.23878089752819492,-0.005039596832265082,0.0026397888168906074,0.0014398848092150266,3.281375294997627,-0.28135987739696283,0.9212866736905316,-17.457196367206247,-7.812536982000865,-1.050637844175504,0.2307087404237246,0.4606848088396729,-8.294400160418445e-05,0.12056800000000001,0.160991,-0.897538,-0.08223899999999995,-0.03765099999999999,-0.921899,0.20280699999999996,0.19864199999999999,0.024361000000000077,0.25639,0.9902191670581117,single,-0.897538
130,0.541667,walk,0.04679625629950918,-0.11687065034797492,0.006959443244554005,0.14586747281136053,-0.2203541101533418,0.06554346428584891,0.07631389488841805,-0.399568034557239,0.24214062874969722,-0.00455963522917953,0.004079673626093978,0.0038396928245745146,2.5339945446641807,-0.2879539255308933,0.05759078510745732,5.816669295693332,-5.528715370162444,0.8062709914812257,0.11518157021491443,0.3455447106319557,0.575907851058188,0.12069099999999999,0.15981299999999998,-0.8965580000000001,-0.082453,-0.03714700000000004,-0.9219120000000001,0.203144,0.19696000000000002,0.025353999999999988,0.24646000000000007,0.9879610295630179,single,-0.8965580000000001
131,0.545833,walk,0.04368698991839063,-0.11689870379261039,0.013202112337953957,0.2086511195586598,-0.27040018065103016,-0.013386725949609784,0.07465194431107777,-0.3823811809889473,0.18218915026404445,-0.002880460873742677,0.0038406144983235695,0.001680268843014896,-0.7463433464038768,-0.006733904137174129,1.4984803392702706,-0.39893196767649564,4.125504937179953,-14.390657341731332,0.4030663359185914,-0.057383372004418634,-0.5183446907248241,0.12081999999999993,0.15870700000000004,-0.8958539999999999,-0.08264700000000003,-0.03664400000000001,-0.92196,0.20346699999999995,0.19535100000000005,0.026106000000000074,0.23893999999999999,0.9915227956071228,single,-0.8958539999999999
132,0.55,walk,0.04727621790256809,-0.12143028557715445,0.0026397888169172505,0.11738729257745505,-0.06478588097384576,0.019127884211624053,0.1555075593952695,-0.4062874970002236,0.20278377729781427,-0.003839692824577845,0.0021598272138316985,0.0,0.8613458085379013,-1.087492628880256,-2.534754864659617,19.403795316580542,-5.7370568781560145,4.9423151028964885,-0.23019725242024494,-0.40335667974366646,-0.40323226374247256,0.12127100000000002,0.1575200000000001,-0.89502,-0.08286000000000004,-0.03612899999999997,-0.9219710000000001,0.20413100000000006,0.19364900000000007,0.026951000000000058,0.23048999999999997,0.9926575634946333,single,-0.89502
133,0.554167,walk,0.059035277177819326,-0.12838972882168523,0.011999040076792764,0.25901953965153496,-0.273482107006417,-0.06971866192557145,0.23278137748978495,-0.45596352291817827,0.24382049436045652,-0.004559635229179651,0.0004799616030589218,0.0026397888168940083,2.8219484701827353,-1.6701327680659737,2.246040619120636,18.544232804059735,-11.921292516907995,9.84802425309408,-0.17277235531601154,-0.40313549574581437,0.633498636163681,0.12199499999999996,0.15615500000000004,-0.894054,-0.083125,-0.03559200000000007,-0.92201,0.20511999999999997,0.1917470000000001,0.02795599999999998,0.2204399999999999,0.9911825423226002,single,-0.894054
134,0.558333,walk,0.05544887181948657,-0.12409985597695375,0.002400384061438906,0.14209000001599753,-0.13070046172052682,-0.07016845536947948,0.00816130580895091,-0.5079212674027856,0.08665386461833892,-0.005760921747485354,0.0009601536245808924,0.001920307249160119,-0.8608750260040208,1.0297342402139886,-2.3040460910594938,-53.91744399443924,-12.471854172973439,-37.72602730247659,-0.28835490117755674,0.1152645274896712,-0.17270320876953643,0.12179800000000007,0.15455600000000003,-0.893703,-0.08338000000000001,-0.035071000000000074,-0.922012,0.20517800000000008,0.1896270000000001,0.02830900000000003,0.21690999999999994,0.9897533617579793,single,-0.893703
135,0.5625,walk,0.06479481641468453,-0.13054955603551352,0.01919846412286258,0.30752044003077617,-0.2511983145248995,-0.06839926532963127,0.21430285577151784,-0.5461963042956389,0.15838732901367625,-0.004079673626093978,0.003359731221518936,-0.0014398848092150266,2.242847275065487,-1.5478041897191557,4.031216717404259,49.470014389864495,-9.185274032362127,17.214654282538223,0.40346727175218694,0.5758525550607212,-0.8063815834833501,0.122421,0.15282400000000007,-0.893123,-0.08366699999999994,-0.034513000000000016,-0.922098,0.20608799999999994,0.1873370000000001,0.028974999999999973,0.21025,0.9908705605867453,single,-0.893123
136,0.566667,walk,0.0775137988961053,-0.13294936405088797,0.022318214542838742,0.21533214806457665,-0.10911563519033803,-0.06405929442006071,0.28053755699543237,-0.6220302375810247,0.15766738660907123,-0.005519558435323991,-0.004079673626120621,0.0014398848092150266,3.052311610612112,-0.5759078510617799,0.7486802063777631,15.89505668920423,-18.198688093444975,-0.1727723553167775,-0.3455447106383495,-1.7853143382864174,0.6910894212695059,0.1232669999999999,0.15078599999999998,-0.892559,-0.084013,-0.033976000000000006,-0.922185,0.2072799999999999,0.18476199999999998,0.02962600000000004,0.20373999999999998,0.9883116237131322,single,-0.892559
137,0.570833,walk,0.07225156024963886,-0.12938070091213533,0.006961113778218132,0.2675427449450449,-0.2014219005243274,-0.14592074841386002,0.2388382141142771,-0.63970235237636,0.0760921747479591,-0.004080652904475455,0.00600096015363724,0.0002400384061452231,-1.2631393774523367,0.856616211894538,-3.6862939905474312,-10.009443802485652,-4.241986268683449,-19.581183836080672,0.3453925902180833,2.4197392654243526,-0.28800921821166653,0.12396099999999999,0.14866000000000001,-0.892271,-0.08433100000000004,-0.033412,-0.9222130000000001,0.20829200000000003,0.182072,0.029942000000000024,0.20057999999999998,0.9878984769864869,single,-0.892271
138,0.575,walk,0.08423326133909212,-0.14182865370770806,0.01775857931363304,0.3237494557734792,-0.16153276120327723,-0.1885117433289576,0.3009359251259902,-0.6810655147588606,0.09047276217902796,-0.004559635229179651,0.00023998080151613928,0.00215982721382343,2.8753782312103406,-2.987269689362363,2.5911844337449277,14.902258462134457,-9.926364862611322,3.451064898264731,-0.1149465622040329,-1.3825244425536862,0.4607124568462307,0.12486399999999998,0.1464129999999999,-0.891968,-0.08470100000000003,-0.03282000000000007,-0.9222779999999999,0.209565,0.17923299999999998,0.030309999999999948,0.19689999999999996,0.9915816473962729,single,-0.891968
139,0.579167,walk,0.08879289656826941,-0.14494840412768042,0.021838252939779833,0.22289759828261724,0.09149179831996346,-0.13830619131446326,0.3599712023037999,-0.7787377009839015,0.06527477801775676,-0.005759539236866767,-0.0019198464122622792,-0.003359731221502284,1.0942249170091816,-0.7486802063768522,0.9790433468074783,14.16733313602334,-23.4394495380466,-6.047032436110152,-0.2879539255308631,-0.5183170659415411,-1.3245880574335664,0.12599399999999994,0.143772,-0.891787,-0.08509500000000003,-0.03222399999999992,-0.922383,0.21108899999999997,0.17599599999999993,0.030595999999999957,0.19404000000000005,0.9884354593274165,single,-0.891787
140,0.583333,walk,0.10201632261161987,-0.14714354296686852,0.031204992798839027,0.297809228715402,-0.22218452736156968,-0.217049593244383,0.45199231877102203,-0.8936629860777527,0.12890062409985487,-0.002880460873742677,0.00024003840612523588,0.0021603456553053423,3.174130111221903,-0.5269176282256581,2.2483773065432517,22.088602128473845,-27.58648225968583,15.272646683172843,0.6910893814508132,0.5184553092624853,1.3250304553066783,0.127452,0.14066200000000006,-0.89138,-0.08553200000000005,-0.03161000000000003,-0.922504,0.21298400000000006,0.1722720000000001,0.03112400000000004,0.1887600000000001,0.9939857191637149,single,-0.89138
141,0.5875,walk,0.09719222462202678,-0.14326853851690763,0.016558675305971972,0.3040460267489202,0.04222250361705892,-0.23719325011321674,0.5188384929205617,-0.9800815934725091,0.12263018958483503,-0.004079673626093978,0.0014398848092300135,-0.0002399808015361153,-1.1576909022301538,0.9299266738566978,-3.5148350114871474,16.041798452013243,-20.738806670207754,-1.5047839008926782,-0.2877880375213083,0.2879401015370215,-0.5760322670605805,0.12920900000000002,0.13717500000000005,-0.890938,-0.08595399999999997,-0.031007000000000007,-0.922574,0.215163,0.16818200000000005,0.031636,0.18363999999999997,0.9927783896947342,single,-0.890938
142,0.591667,walk,0.09839212862971403,-0.14542836573073933,0.021838252939779833,0.4357885779375733,-0.09211250958914148,-0.2637196660215999,0.48020158387326717,-0.9232061435085497,-0.06167506599472169,-0.0035997120230350688,0.001199904007660594,-0.0028797696184317185,0.2879539255308933,-0.518317065954329,1.2669972723320904,-9.27211640203846,13.649016070064555,-44.22972296125637,0.11518157020852057,-0.05759078511385112,-0.6334986361640469,0.13079999999999992,0.1339339999999999,-0.891286,-0.08637899999999998,-0.03039600000000009,-0.922677,0.2171789999999999,0.16432999999999998,0.03139099999999995,0.18608999999999998,0.9920608618345521,single,-0.891286
143,0.595833,walk,0.1168987037926135,-0.15962554008642438,0.029284685549678023,0.32110163848362744,0.07357482474727986,-0.2560276287566547,0.49879980796929385,-1.012962073931829,-0.03144503120499175,-0.0024003840614656197,-0.000960153624580918,0.0021603456553053995,4.442288805304837,-3.4078671041011552,1.7874298151460353,4.464288069137582,-21.54487048086454,7.2563693686343544,0.2878847723402497,-0.5184967912245723,1.2098212370948747,0.13239099999999993,0.13037900000000002,-0.891539,-0.08687600000000006,-0.029735000000000067,-0.92279,0.219267,0.1601140000000001,0.03125100000000003,0.18748999999999993,0.9943848340343784,single,-0.891539
144,0.6,walk,0.10559155267578416,-0.15190784737220778,0.01919846412286258,0.3604078475510093,-0.05581534043089926,-0.37752017957615913,0.5749940004799727,-1.0347972162227168,-0.049676025917929245,-0.006479481641468453,-0.00023998080151613289,0.0004799616030722306,-2.7134991881039725,1.852098083565285,-2.42049950247549,18.285143391091506,-5.24001494861714,-4.375088724007044,-0.9789051067921289,0.17282765132344122,-0.403259911743018,0.134347,0.12669999999999992,-0.891826,-0.08734300000000006,-0.02910299999999999,-0.9228679999999999,0.22169000000000005,0.1558029999999999,0.031041999999999903,0.18958000000000008,0.989163893141235,single,-0.891826
145,0.604167,walk,0.10967122630187814,-0.15310775137989502,0.023038156947467067,0.5046397376620049,-0.07196643125033578,-0.4014890536697047,0.6184305255579363,-1.0760739140868487,-0.0933525317974556,-0.005759539236866767,-0.0007199424046016851,-0.0007199424046083459,0.9790433467948061,-0.2879539255308933,0.921452561700134,10.42393210414285,-9.905615038188527,-10.481522889255105,0.172772355315978,-0.11518157021491446,-0.28795392552929383,0.136467,0.12285400000000002,-0.8923110000000001,-0.08782400000000001,-0.028467999999999938,-0.9229670000000001,0.22429100000000002,0.15132199999999996,0.030656000000000017,0.19344000000000006,0.9902519337597278,single,-0.8923110000000001
146,0.608333,walk,0.1149783965434486,-0.16610657705233448,0.02112337974075298,0.5704772351433282,-0.04642175089320655,-0.4612807997033542,0.7198751800287978,-1.1027364378300488,0.010561689870379823,-0.0033605376860197985,-0.0009601536245808924,0.0004800768122904462,1.2739246859266573,-3.1202173961688544,-0.459620068822392,24.350613171114116,-6.40002970312052,24.943404144943674,0.5758525086046488,-0.05765991838195082,0.2880507001677367,0.13898699999999997,0.11895200000000006,-0.892355,-0.08831699999999998,-0.027779999999999916,-0.923053,0.22730399999999995,0.14673199999999997,0.030698000000000003,0.19302000000000008,0.9941202838627536,single,-0.892355
147,0.6125,walk,0.12119030477561167,-0.16558675305974638,0.01223902087833522,0.2830612353166483,0.021057927114386584,-0.4526981058535575,0.7074634029277752,-1.1281497480201657,-0.13942884569234312,-0.005999520038409543,-0.0007199424046283283,-0.000959923206142796,1.4907387166217954,0.12474777839887057,-2.1320755609353714,-2.9785882171880242,-6.098706549104065,-35.99484894713746,-0.6333051001655207,0.05764608110212675,-0.3455723586352847,0.14143000000000006,0.11494099999999996,-0.8929870000000001,-0.08884700000000001,-0.027093000000000034,-0.923108,0.23027700000000006,0.142034,0.030120999999999953,0.19879000000000008,0.9898027767506499,single,-0.8929870000000001
148,0.616667,walk,0.13438924886009493,-0.16390688744900458,0.01295896328293725,0.2648268682622332,-0.09791460737999187,-0.4408858508965084,0.712023038156947,-1.1579073674105949,-0.1355891528677722,-0.003839692824551304,0.0011999040076872693,0.001439884809215065,3.1674931808215763,0.4031354957383789,0.17277235531606525,1.094224917007892,-7.141257353114895,0.9214525616921023,0.5183170659607105,0.46072628085328393,0.575907851057813,0.143837,0.11079900000000009,-0.893606,-0.08942299999999992,-0.026405000000000012,-0.9231560000000001,0.2332599999999999,0.1372040000000001,0.029550000000000076,0.20450000000000002,0.9928787721723507,single,-0.893606
149,0.620833,walk,0.1255400864138384,-0.15362457993278286,-0.007441190590495253,0.24839582236124844,0.19867856975086914,-0.40428059245146974,0.7594815170427397,-1.1737878060489817,-0.15122419587134064,-0.0002400384061518855,-0.0009601536245808924,-0.0007201152184356692,-2.1241388493174553,2.4681487076864412,-4.89682042089114,11.391857629811007,-3.8119151796415816,-3.753010802584836,0.8640553092653422,-0.5184967912309554,-0.5184829639104015,0.146478,0.106549,-0.894205,-0.089947,-0.025769000000000042,-0.9231280000000001,0.236425,0.13231800000000005,0.028923000000000032,0.21077000000000007,0.9979600658050876,single,-0.894205
150,0.625,walk,0.14470842332613765,-0.1648668106551447,-0.005279577633807858,0.0038669717522548746,0.1341066857294505,-0.3513918276056542,0.8461723062155033,-1.1852651787856945,-0.1593472522198207,-0.0028797696184333834,-0.0011999040076872372,-0.0021598272138233727,4.600032856323278,-2.697919539803634,0.5187456099561742,20.804125071457396,-2.7543491088823373,-1.949377573429327,-0.6334848121625817,-0.05753548910639382,-0.3455032386339555,0.149401,0.10229699999999997,-0.894847,-0.09056200000000003,-0.02508700000000008,-0.9231149999999999,0.23996300000000004,0.12738400000000005,0.02826799999999996,0.21732,0.9936759506036068,single,-0.894847
151,0.629167,walk,0.1353491720662358,-0.15982721382290627,-0.011999040076792443,-0.07105750313771586,0.32200282956317555,-0.37075606140252454,0.8672906167506548,-1.2315814734820916,-0.14518838492920322,-0.0014398848092033701,0.0019198464122889224,-0.0011999040076789112,-2.246040619126893,1.209406487218235,-1.6125419829576515,5.067989089309165,-11.115021525413184,3.397856321242473,0.34554471063834946,0.7486802063777624,0.23036314042343511,0.152451,0.09783100000000011,-0.8954019999999999,-0.09113199999999999,-0.024413000000000018,-0.92307,0.243583,0.12224400000000013,0.027668000000000026,0.22331999999999996,0.9955282217872661,single,-0.8954019999999999
152,0.633333,walk,0.1349015842534688,-0.16130580892943,-0.0007201152184290069,0.3735119999440768,-0.05405221180217896,-0.37741452675406534,0.941190590494467,-1.2066730676908572,-0.15650504080652888,-0.002640422467617441,-0.0026404224675907915,-0.0004800768122904462,-0.10743826518651448,-0.35491961270372835,2.707375146030588,17.73883191162077,5.978974025740351,-2.7164320396845074,-0.2881751460427437,-1.0946396735188935,0.17278617268086044,0.15581,0.093476,-0.8960509999999999,-0.09170500000000004,-0.023751999999999995,-0.923069,0.24751500000000004,0.117228,0.027018000000000097,0.22981999999999997,0.9937252411820241,single,-0.8960509999999999
153,0.6375,walk,0.16750659947203977,-0.17422606191505116,0.012479001679878329,0.39959639008317355,-0.10904776920536184,-0.3183915395416132,1.222222222222249,-1.2723782097432517,-0.011759059275259972,-0.0035997120230351646,0.001679865610746191,-0.006239500839932503,7.824577686242285,-3.1006126675357346,3.167534652821595,67.44219623896984,-15.767972654762579,34.73625666697184,-0.23021107641414487,1.0367861959052231,-1.382151194538557,0.16020500000000004,0.08889999999999998,-0.8961520000000001,-0.092418,-0.02301900000000001,-0.923147,0.25262300000000004,0.11191899999999999,0.02699499999999999,0.23005000000000003,0.9876721582214091,single,-0.8961520000000001
154,0.641667,walk,0.16006719462444902,-0.17422606191504653,0.019438444924405357,0.38739616609166455,-0.23274527342785095,-0.3900655306644175,1.013198944084453,-1.2407007439404771,-0.13606911447084083,0.0,-0.0023998080153478313,-0.0019198464122872573,-1.7853143382747063,1.112354482315813e-12,1.6701327680650289,-50.16157382716445,7.601983633975111,-29.832026684804394,0.863861776586306,-0.9790433467948144,1.0366341319042987,0.1637599999999999,0.08445599999999998,-0.8968,-0.09308500000000008,-0.022302999999999962,-0.9232360000000001,0.256845,0.10675899999999994,0.026436000000000015,0.23564000000000002,0.9948779103772376,single,-0.8968
155,0.645833,walk,0.15722515602495457,-0.1797887662025922,0.012962073931828721,0.5640237148308601,-0.2543546552507234,-0.3577257206482464,1.1867498799808103,-1.303888622179546,-0.0024003840614488996,0.000480076812303771,0.0,-0.0002400384061435575,-0.6821984156251664,-1.335262671038329,-1.5545777706616974,41.6588900375317,-15.167517580189356,32.08562899889386,0.11523687285256136,0.5760460910580484,0.40321843642431554,0.168049,0.07977299999999998,-0.896864,-0.09373799999999999,-0.021553999999999962,-0.9232910000000001,0.261787,0.10132699999999994,0.02642700000000009,0.23573000000000005,0.9991054296777291,single,-0.896864
156,0.65,walk,0.17542596592273377,-0.19150467962562018,0.03095752339811225,0.5287427950717803,-0.30371976808974493,-0.2630581260521753,1.0283177345812216,-1.2135829133669163,-0.14206863450924037,-0.0016798656107461464,0.000479961603058909,-0.002639788816895603,4.367844947871144,-2.8115942939831724,4.318562386917061,-38.02067324204164,21.67163638412025,-33.51769869157437,-0.5183447139548598,0.1151815702085206,-0.5758940270583219,0.17160299999999995,0.07551399999999997,-0.897585,-0.094476,-0.02075400000000005,-0.923431,0.26607899999999995,0.09626800000000002,0.025846000000000036,0.2415400000000001,0.9947240596919218,single,-0.897585
157,0.654167,walk,0.17806575473959774,-0.20206383489320925,0.03287736981042781,0.6861267591971959,-0.3200450933566923,-0.2709357107358821,1.059995200383962,-1.2378209743220439,-0.13294936405087465,-0.0002399808015427761,0.0009599232061444612,-0.0019198464122872573,0.6334986361564553,-2.5339945446577863,0.46072628085326334,7.601983633966958,-5.816669295686923,2.1884498340210343,0.3455447106319557,0.11518157021491446,0.17277235531757623,0.17527800000000004,0.07119799999999998,-0.8982760000000001,-0.09521899999999994,-0.019908000000000037,-0.9235760000000001,0.270497,0.09110600000000002,0.02529999999999999,0.24700000000000005,0.9964002879769596,single,-0.8982760000000001
158,0.658333,walk,0.18338934229476878,-0.1901104176668352,0.02544407105135435,0.6102716154226235,-0.3211083354383034,-0.38041386788965453,1.0633701392223138,-1.2397983677388644,-0.10513682189150392,-0.0007201152184290261,-0.0007201152184290261,-0.0028804608737394224,1.2778654717165572,2.8692792190048877,-1.7842771865275215,0.8101149395947679,-0.47465036409520484,6.676078290775673,-0.11525070016472934,-0.4032737456969589,-0.2305843642468051,0.1789440000000001,0.06682500000000002,-0.89882,-0.0959859999999999,-0.019118999999999997,-0.923694,0.27493,0.08594400000000002,0.024874000000000063,0.25126000000000004,0.9949080164580955,single,-0.89882
159,0.6625,walk,0.16726661867051917,-0.17614590832733545,0.005759539236866767,0.22884693620604027,0.06793160230836874,-0.15392823876691208,1.1331893448523775,-1.2416606671466217,-0.12886969042476404,0.00023998080151613289,-0.000479961603058909,-0.0019198464122872573,-3.869144138288812,3.351214144348366,-4.723909722699168,16.75526892970079,-0.4469161045733789,-5.695432813357317,0.23040461241784296,0.05763225710825899,0.2305290284262438,0.18296899999999994,0.062385000000000024,-0.899381,-0.09668200000000005,-0.01838699999999993,-0.923726,0.279651,0.08077199999999995,0.02434500000000006,0.25654999999999994,0.9966776162455419,single,-0.899381
160,0.666667,walk,0.16390688744900023,-0.17302615790735928,-0.013918886489081366,0.23788302092962502,0.14844660653237532,-0.21118922858237069,1.142068634509247,-1.2325413966882626,-0.11183105351571983,-0.0023998080153478313,-0.012718982481420772,-0.008159347252219595,-0.8062709914852223,0.7486802063777648,-4.722444378677222,2.1308590489247403,2.1884498340194556,4.088945742511179,-0.6334986361564541,-2.9371300404035923,-1.4973604127507296,0.18704500000000002,0.057969999999999966,-0.899789,-0.09737499999999999,-0.01771900000000004,-0.923702,0.28442,0.075689,0.023913000000000073,0.26087000000000005,0.974499099065179,single,-0.899789
161,0.670833,walk,0.18194911185790588,-0.19323091694669806,-0.004320691310600691,0.23411722841491975,0.11040554404797853,-0.1536510378907361,1.1656265002400308,-1.2268362938070025,-0.09841574651944153,-0.0016802688430098993,-0.030724915986535255,-0.0074411905904935875,4.330826790423822,-4.849918156346317,2.303935472510962,5.654792542194854,1.369443802510807,3.220188909332282,0.17271703608687747,-4.322115579720228,0.17238518044311257,0.19114299999999995,0.053663999999999934,-0.900181,-0.09814,-0.017042,-0.9237150000000001,0.28928299999999996,0.07070599999999994,0.023534000000000055,0.26466,0.9472370320529717,single,-0.900181
162,0.675,walk,0.16942644588432423,-0.17638588912887823,-0.023038156947440425,0.1667511399392113,0.05937688000843877,-0.2637854900446817,1.176145908327322,-1.162706983441313,-0.09791216702663846,0.000479961603058909,-0.0019198464122889224,-0.001679865610751142,-3.005199417706156,4.042483277614518,-4.491832406249003,2.5244559844711203,15.389803303501076,0.12084941031990938,0.518413833949794,6.912663684724289,1.3826073865472526,0.19533799999999996,0.04955399999999999,-0.900493,-0.09884400000000004,-0.01631499999999997,-0.9236260000000001,0.294182,0.06586899999999996,0.02313300000000007,0.2686700000000001,0.9956736845746789,single,-0.900493
163,0.679167,walk,0.18526517878569945,-0.19462443004560154,-0.011039116870648276,0.28275371345924505,0.15498899135064254,-0.19481716911679786,1.1845452363811244,-1.2015838732901558,-0.0777537796976235,0.008399328053757598,0.04751619870408549,0.012479001679865006,3.800991816984766,-4.376899668040234,2.8795392552897474,2.015677478714315,-9.329707187147465,4.837625948887773,1.900495908495042,11.86370173179154,3.397856321242241,0.199502,0.04535800000000001,-0.900771,-0.09958100000000003,-0.015306000000000042,-0.923528,0.29908300000000004,0.06066400000000005,0.022757000000000027,0.27242999999999995,0.916932702417343,single,-0.900771
164,0.683333,walk,0.18843014882382023,-0.1850696111377738,-0.026884301488238335,0.07993024330393377,0.03403998458942557,-0.17680245924156887,1.20955352856456,-1.16130580892943,-0.09577532405185074,0.000480076812303771,0.0021603456553136702,-0.0021603456553053423,0.7597143634471366,2.2935235016389206,-3.8034528606793203,6.002950596119915,9.668282371753689,-4.325862783059825,-1.900924445860255,-10.887146675173256,-3.514005601337095,0.20375599999999994,0.04129099999999997,-0.901058,-0.10036400000000001,-0.014526000000000039,-0.923425,0.30411999999999995,0.055817000000000005,0.022367000000000026,0.27633,0.9948455357950228,single,-0.901058
165,0.6875,walk,0.1975041996640031,-0.1999040076794042,-0.023038156947467067,0.2175098168169964,0.17012222920564665,-0.1905601100744985,1.225341972642179,-1.1852651787856945,-0.0350371970242362,-0.0026397888169172505,0.0033597312214922927,-0.005759539236860106,2.1775979938043672,-3.5599703723614815,0.9230008497171197,3.788923464751359,-5.74978878240086,14.575984407874747,-0.7487078543846887,0.28782950952210545,-0.8637373605842901,0.20803900000000003,0.037185000000000024,-0.9011079999999999,-0.10119800000000001,-0.013678999999999997,-0.923353,0.30923700000000004,0.05086400000000002,0.02224500000000007,0.27754999999999996,0.9880477139448924,single,-0.9011079999999999
166,0.691667,walk,0.1895848332133579,-0.15598752099830177,0.010319174466046297,0.21290360297356264,0.6723257966645708,-0.3525278939725182,1.2049436045116293,-1.1708663306935276,-0.08183345332373539,0.0028797696184333834,0.0028797696184333834,-0.0004799616030722306,-1.9004959084821547,10.539113674370553,8.005119129712769,-4.8952167339931805,3.4554471063515093,-11.230203095632067,1.3245880574395468,-0.11518157020852068,1.2669972723272944,0.21226999999999996,0.032955999999999985,-0.901492,-0.10197600000000007,-0.013017000000000056,-0.9233979999999999,0.314246,0.04597300000000004,0.02190599999999998,0.2809400000000001,0.9931653437762371,single,-0.901492
167,0.695833,walk,0.20571291406624964,-0.2112337974075831,-0.02136341814690487,0.28002267495215605,0.30737935160972935,-0.18513205634533814,1.2407585213634256,-1.1457033125300105,-0.04416706673067441,0.0033605376860464478,0.005520883341333468,-0.0024003840614488996,3.8713588221055533,-13.26122813472907,-7.60503903335361,8.596955557320271,6.040090773767922,9.041379403039114,0.1154028006752434,0.6339687284925787,-0.4609751460337656,0.216582,0.02906299999999995,-0.9015869999999999,-0.102819,-0.01211400000000007,-0.923319,0.319401,0.04117700000000002,0.021732000000000085,0.28268,0.9885090361526969,single,-0.9015869999999999
168,0.7,walk,0.21190304775617566,-0.19462443004560154,-0.035277177825776586,-0.03801821051094966,0.14660276288809143,-0.14967316762612262,1.2742980561555273,-1.2272618190544875,-0.12886969042477078,-0.0002399808015427825,0.00287976961843346,-0.006719462443004746,1.485513244522711,3.98592929253225,-3.3390352001132664,8.048844442549157,-19.57247576781344,-20.32700352630141,-0.864055312596424,-0.6338165881689605,-1.0364958919020706,0.221009,0.024760000000000004,-0.9019769999999999,-0.10370299999999999,-0.011291000000000051,-0.9231999999999999,0.324712,0.036051000000000055,0.021222999999999992,0.2877700000000001,0.9878091747427155,single,-0.9019769999999999
169,0.704167,walk,0.20422366210704096,-0.1929445644348502,-0.053995680345552674,0.01346651264056938,0.17405041133837437,-0.11861022177565643,1.2164626829853495,-1.1286297096232245,-0.030237580993520554,-0.0002399808015427761,-0.000479961603058909,0.0004799616030705654,-1.8429051233824436,0.4031354957406595,-4.4920812382471675,-13.879379210505709,23.669812678488658,23.669812678485595,1.5351074676420512e-15,-0.8062709914788441,1.7277235531738075,0.22522699999999996,0.02086100000000002,-0.9018780000000001,-0.10455500000000006,-0.01048899999999997,-0.922973,0.329782,0.03134999999999999,0.021094999999999975,0.28905000000000003,0.9988000959923324,single,-0.9018780000000001
170,0.708333,walk,0.21771483437349748,-0.2095535285645732,-0.03744599135862815,0.06342385826745603,0.08013124351303595,-0.12662400841857366,1.2621219395103171,-1.121219395103211,-0.01848295727316219,-0.0007201152184290069,0.0026404224675907915,-0.004080652904463795,3.238399487867621,-3.9867892774179072,3.9725609666165407,10.959975162018141,1.7787600864170667,2.8215611426688327,-0.11525070016472166,0.7490120188789482,-1.0947226374302348,0.22957799999999995,0.01706300000000005,-0.901799,-0.10546500000000003,-0.009604999999999975,-0.9228339999999999,0.335043,0.026668000000000025,0.021034999999999915,0.28965,0.9918108939468544,single,-0.901799
171,0.7125,walk,0.2215022798176146,-0.20878329733622047,-0.0607151427885639,0.12205020984314785,0.11339301476237329,-0.15156570656642043,1.2330213582913347,-1.129589632829369,-0.015838732901366958,0.0004799616030855522,0.0009599232061444612,-0.0028797696184317185,0.9089141934526286,0.18484070754805132,-5.58414961121564,-6.983580806091236,-2.0086963585692383,0.6345630841841158,0.28799539753168946,-0.4032875597423368,0.28818893353301356,0.23379299999999997,0.013226000000000071,-0.9016120000000001,-0.10638599999999998,-0.008730999999999933,-0.922593,0.34017899999999995,0.021957000000000004,0.020980999999999916,0.29018999999999995,0.9948779103772176,single,-0.9016120000000001
172,0.716667,walk,0.2330213582913215,-0.21094312455002553,-0.04439644828413471,0.06723027117009772,0.1128924781098176,-0.07546794499060042,1.2843772498199968,-1.1161507079433732,0.022078233741299295,-0.0026397888169172505,0.0028797696184333834,-0.001679865610751142,2.764357685074828,-0.5183170659479346,3.9161733871920013,12.324428012637785,3.225083965921706,9.099344046716093,-0.7486802063841562,0.46072628084687006,0.28795392552929383,0.238174,0.009453999999999962,-0.901335,-0.10736800000000002,-0.007839999999999958,-0.9224150000000001,0.345542,0.01729399999999992,0.0210800000000001,0.2892,0.9929125489373907,single,-0.901335
173,0.720833,walk,0.22515602496399872,-0.2143542966874834,-0.059049447911686474,0.01211002132023095,0.18707439696893818,-0.15983973894051007,1.1949111857897665,-1.1399423907825554,0.015362457993281361,-0.0012001920307061602,-0.00048007681230378377,-0.002160345655303734,-1.887982075689627,-0.8188123229615836,-3.51728267584065,-21.475291413882044,-5.710917628224393,-1.612044106581399,0.3455585180535592,-0.8064921821260811,-0.11533366407887774,0.24221400000000004,0.005597999999999992,-0.901025,-0.10831099999999994,-0.006948999999999983,-0.9221779999999999,0.350525,0.012546999999999975,0.021152999999999977,0.28846999999999995,0.9958040932622534,single,-0.901025
174,0.725,walk,0.23326133909289093,-0.217422606191494,-0.057115430765528837,-0.12226642072070852,0.14913133323706837,-0.1473729751960718,1.215742740580748,-1.1204703623709833,-0.003119750419969499,-0.0023998080153744745,0.004079673626120621,-0.007439404847612913,1.9451197813516061,-0.7363353741326083,0.464126984919036,4.9991732159782245,4.672912985738419,-4.43537518916504,-0.28788480553595036,1.0942525650166475,-1.2668728563256872,0.24630799999999997,0.001835000000000031,-0.9008,-0.10929300000000008,-0.006025999999999976,-0.921971,0.35560100000000006,0.007861000000000007,0.02117099999999994,0.28829000000000005,0.9853042372043082,single,-0.9008
175,0.729167,walk,0.24430045596351227,-0.22294216462681798,-0.0731941444684419,0.04980257299858934,0.18317252921738844,-0.20816936336928113,1.237580993520501,-1.1286297096232245,0.01223902087833189,0.003359731221518936,0.0033597312214922927,-0.000959923206142796,2.649176114859913,-1.3245880574331501,-3.858582602090938,5.24076144462515,-1.9580866936023875,3.6858102467725633,1.3821788425470043,-0.17277235532237176,1.5549511978569877,0.250447,-0.001939000000000024,-0.900444,-0.11029699999999998,-0.00508300000000006,-0.92167,0.36074399999999995,0.0031440000000000357,0.021225999999999967,0.28774,0.9919210423659136,single,-0.900444
176,0.733333,walk,0.2469995199231747,-0.23403744599137263,-0.05952952472396202,0.07554611832616721,0.04126053692742195,-0.16997517994072417,1.2301968314930358,-1.1044167066730588,0.032405184829571804,0.009361497839657038,0.006961113778218132,-0.0050408065290446875,0.6478790109607375,-2.66329365447783,3.280033544042215,-1.772482483789072,5.8120506361415485,4.840653852914042,1.4406544930720349,0.8644701288348143,-0.9795687284930121,0.254543,-0.005564999999999931,-0.900061,-0.11128699999999991,-0.004078999999999944,-0.921443,0.36582999999999993,0.0014859999999999873,0.021382000000000012,0.28618,0.978819264695217,single,-0.900061
177,0.7375,walk,0.2550995920326441,-0.23638108951284045,-0.0710343172546102,0.08108123184107645,0.1566341691534694,-0.16848637983879067,1.1809455243580445,-1.0959923206143662,0.03215742740580615,0.0033597312214922927,-0.0026397888168906074,-0.0019198464122872573,1.9438617973288528,-0.5624294507962088,-2.760929333008899,-11.819368162944803,2.021690918812693,-0.059457025141745584,-1.4403087636584353,-2.3040323002420604,0.748970510380947,0.258401,-0.009147000000000016,-0.8996310000000001,-0.11233599999999999,-0.0031049999999999134,-0.9211550000000001,0.370737,0.006042000000000103,0.021523999999999988,0.28476000000000007,0.9921929360467545,single,-0.8996310000000001
178,0.741667,walk,0.257259419246456,-0.2241420686345112,-0.06791456683466249,-0.020224747459664252,0.03672483633225467,-0.2575696412973726,1.200863930885554,-1.1063114950804154,0.022078233741303212,-0.00407967362612073,0.004079673626094086,-0.003599712023038495,0.5183170659495937,2.9371300403958465,0.748680206370954,4.780035163789276,-2.4764037595510744,-2.4188129744427953,-1.785314338280097,1.6125419829577203,-0.40313549574064544,0.26233300000000004,-0.012823000000000029,-0.8992559999999999,-0.113425,-0.0021539999999999893,-0.920887,0.37575800000000004,0.01066900000000004,0.021631000000000067,0.28369,0.9886660048673714,single,-0.8992559999999999
179,0.745833,walk,0.25564090254440275,-0.23979836773883134,-0.08377340374460956,-0.03384547060563922,0.27853722364011574,-0.2177783757986608,1.1886701872299588,-1.1757081132981166,0.005520883341333468,-0.005040806529029698,0.0016802688430098993,-0.0031204992798845687,-0.38850616947989963,-3.7581130831301337,-3.806729935176924,-2.9269667920295763,-16.657853628828903,-3.9743999999927344,-0.2307088101077694,-0.5759492998281769,0.11502946307103355,0.26622000000000007,-0.016722000000000015,-0.8988839999999999,-0.11451099999999992,-0.0011480000000000379,-0.9205509999999999,0.380731,0.015573999999999977,0.021666999999999992,0.28333,0.9897299586710154,single,-0.8988839999999999
180,0.75,walk,0.26685865130789377,-0.2399808015358755,-0.07775377969762143,-0.009448925112478957,0.1761024383224582,-0.2637311987160727,1.1593472522198074,-1.0907127429805583,0.04319654427645746,-0.0023998080153744745,0.0011999040076872372,-0.0031197504199661683,2.692044339690649,-0.04378060884189132,1.4445942037408426,-7.0369414471205065,20.397257095646193,9.041435309604921,0.6337889401620358,-0.11527833821038116,0.00017971200345582862,0.26993900000000004,-0.020267000000000035,-0.89838,-0.11563299999999999,-0.00014300000000000423,-0.92024,0.385572,0.02012400000000003,0.02185999999999999,0.28140000000000004,0.9931419773619994,single,-0.89838
181,0.754167,walk,0.27693784497242396,-0.24982001439883625,-0.07607391408684863,0.06468859737003207,0.21531349801950478,-0.2376272772730366,1.1432685385169077,-1.0885529157667266,0.050395968322534256,-0.00911927045835906,-0.0009599232061444612,-0.003599712023038399,2.4188129744492723,-2.3612221893354137,0.4031354957458083,-3.8585826020877327,0.5183170659543224,1.7277235531741644,-1.6125419829576515,-0.5183170659543274,-0.11518157021171756,0.27354899999999993,-0.02376200000000006,-0.897853,-0.11682500000000007,0.0008939999999999504,-0.919938,0.390374,0.02465600000000001,0.02208500000000002,0.27915,0.983581812853559,single,-0.897853
