frame_id,timestamp,gait_type,root_linear_velocity_x,root_linear_velocity_y,root_linear_velocity_z,root_angular_velocity_x,root_angular_velocity_y,root_angular_velocity_z,left_linear_velocity_x,left_linear_velocity_y,left_linear_velocity_z,right_linear_velocity_x,right_linear_velocity_y,right_linear_velocity_z,root_acceleration_x,root_acceleration_y,root_acceleration_z,left_acceleration_x,left_acceleration_y,left_acceleration_z,right_acceleration_x,right_acceleration_y,right_acceleration_z,left_pos_rel_x,left_pos_rel_y,left_pos_rel_z,right_pos_rel_x,right_pos_rel_y,right_pos_rel_z,step_length,step_width,step_height,left_contact_prob,right_contact_prob,support_type,max_foot_height
1,0.004167,stand,0.008639308855273574,0.011039116870648067,-0.011759059275249758,-0.037477298481310636,-0.13601407855999403,0.0005980802382368071,-0.0028797696184067628,-0.0052795776337812555,-0.0011999040076793369,-0.0019198464122889372,-0.0038396928245778743,0.0014398848092150376,0.0,0.0,0.0,0.0,0.0,0.0,0.0,0.0,0.0,-0.09769099999999997,-0.09316399999999991,-0.924882,0.13280800000000004,0.12261,-0.916601,0.230499,0.2157739999999999,0.008280999999999983,0.9897792717869427,0.9096434188208424,double,-0.916601
2,0.008333,stand,0.0016802688429832506,0.010321651464237937,-0.009121459433505157,-0.08294363767828508,-0.09411512897199056,-0.005066752142082926,-0.0009601536246075425,-0.004560729716779228,-0.0021603456553049272,-0.0009601536246075425,-0.0026404224675907932,0.0014402304368696737,-1.6704368728493335,-0.17221925261885018,0.6331252620606337,0.46078156356198274,0.17255110825780776,-0.23054288229130826,0.23036312714387772,0.2878709450281039,8.296391133847022e-05,-0.09770199999999996,-0.09322600000000003,-0.924853,0.13279700000000005,0.122556,-0.916557,0.230499,0.21578200000000003,0.008296000000000081,0.9914382562973496,0.9117779795015257,double,-0.916557
3,0.0125,stand,0.000719942404654977,0.01247900167987809,-0.00503959683226512,-0.10929327305095156,-0.03437302462770325,-0.01887751662908417,-0.002879769618406762,-0.005759539236840167,-0.0021598272138229724,-0.002879769618406762,-0.003359731221492318,0.004559635229182062,-0.23045990840611316,0.5177226339429211,0.9795686588049044,-0.460670984833026,-0.2876912695130643,0.0001244160023889751,-0.460670984833026,-0.17262029131306084,0.748597262373983,-0.09771700000000005,-0.093302,-0.9248409999999999,0.13278199999999996,0.12248999999999999,-0.9165169999999999,0.230499,0.21579199999999998,0.008323999999999998,0.9886801282313198,0.9061702853413001,double,-0.9165169999999999
4,0.016667,stand,-0.0028797696184600483,0.013678905687538693,-0.001439884809203381,-0.09412755315654002,-0.014045856670134194,-0.038472556138696934,-0.0023998080153744927,-0.004799616030722342,-0.003359731221502309,-0.0023998080153744927,-0.0009599232061444684,0.0023998080153586733,-0.8638617766054775,0.2879539255245027,0.8638617765926898,0.11518157020212842,0.23036314041704475,-0.28795392552899846,0.11518157020212842,0.5759078510553993,-0.518317065952337,-0.097715,-0.09337899999999999,-0.924849,0.132784,0.12242900000000001,-0.916501,0.230499,0.215808,0.008348000000000022,0.9894481193838149,0.9106416948817118,double,-0.916501
5,0.020833,stand,-0.006000960153610595,0.012722035525676847,0.0009601536245808931,-0.11876080656555496,0.052099644132685856,-0.04439427341406679,-0.003360537686019801,-0.004800768122904466,-0.0014402304368700905,-0.0019203072491617863,-0.004080652904475458,0.0031204992798845714,-0.7492056013323445,-0.22968558854100948,0.5761014003322791,-0.2306120188778945,-0.00027654637112910164,0.46075390893716245,0.11509859966699629,-0.749094982796685,0.17299358245940905,-0.09770400000000001,-0.09345199999999998,-0.924859,0.13280099999999995,0.122359,-0.916492,0.23050499999999996,0.21581099999999998,0.008367000000000013,0.9899425467354992,0.9071896098105188,double,-0.916492
6,0.025,stand,-0.005279577633781255,0.017038636909057655,0.001439884809203381,-0.11262019309931777,0.07831449922045024,-0.04514763348559479,-0.012479001679851446,-0.005999520038382945,0.003359731221502309,-0.0011999040076872464,-0.0011999040076606032,0.005759539236860982,0.17311795532261592,1.0359014598946021,0.11512627420746047,-2.1882562980157534,-0.2876774455191934,1.1518986461176863,0.1728829473181041,0.6913244292812226,0.6333189241604057,-0.09773399999999999,-0.09354799999999996,-0.924851,0.13281799999999988,0.12228300000000003,-0.916474,0.23055199999999987,0.215831,0.008376999999999968,0.9762532155687091,0.9062228037731445,double,-0.916474
7,0.029167,stand,-0.005759539236866815,0.017998560115175494,-0.005279577633781259,-0.11533351345283918,0.03013737896467666,-0.048453228758012334,0.02759779217659354,0.00767938564912911,-0.0182385409167266,-0.004319654427610147,-0.0019198464122889385,0.0033597312215023116,-0.11518157021491747,0.23036314041704828,-1.6125419829576781,9.61766111265779,3.282674751022814,-5.1831706595221805,-0.7486802063649874,-0.1727723553223748,-0.5759078510579967,-0.0975950000000001,-0.09359099999999998,-0.924905,0.13282400000000005,0.12220000000000009,-0.916438,0.23041900000000015,0.21579100000000007,0.008467000000000002,0.9434006411564189,0.9056643364742496,double,-0.916438
8,0.033333,stand,-0.0028804608737693265,0.02112337974077963,-0.005520883341333468,-0.07590661749117417,-0.014085241860688045,-0.05628194774790019,-0.0040806529044488055,-0.0033605376860197985,-0.0019203072491597026,-0.0016802688430365487,-0.0021603456553136702,0.004320691310609852,0.6910893814444279,0.7500767224205792,-0.057922637434519725,-7.604043466404782,-2.6500056013319493,3.917002800664158,0.6335539089230907,-0.05772905497473154,0.2306673281583148,-0.09759999999999991,-0.09369300000000003,-0.92489,0.13282900000000009,0.12210299999999996,-0.916397,0.230429,0.215796,0.008492999999999973,0.9906262005810342,0.9065457258150471,double,-0.916397
9,0.0375,stand,0.0009599232061711124,0.02327813774895675,-0.015118790496768729,-0.09611885942705245,-0.012758320925214475,-0.044239210231867804,-0.0021598272138050735,-0.006479481641468506,-0.002399808015358675,-0.0026397888168906295,-0.0033597312214923205,0.004319654427645948,0.9216184497097292,0.5171005539181961,-2.303313452228286,0.4609612888513879,-0.7484866703740605,-0.1150709782094967,-0.23026637241518633,-0.2878295095221145,-0.0002488320047764934,-0.09761299999999995,-0.09381699999999993,-0.9248369999999999,0.132814,0.1219920000000001,-0.9163159999999999,0.23042699999999994,0.21580900000000003,0.008521,0.9879344827381915,0.9046636189895549,double,-0.9163159999999999
10,0.041667,stand,0.008639308855273566,0.02711783057356123,-0.01439884809214037,-0.09165300682439083,-0.05333542126119608,0.01448671552400841,-0.0016798656107728006,-0.006479481641468495,-0.003839692824574124,-0.0019198464122889352,-0.0038396928245778704,0.006479481641468495,1.842905123374717,0.9214525617001376,0.17277235532237997,0.11518157020212921,2.705952146352108e-15,-0.3455447106348566,0.17277235531598117,-0.11518157021491468,0.5183170659521346,-0.09765599999999997,-0.09395699999999996,-0.924793,0.13277000000000005,0.12186300000000005,-0.916229,0.23042600000000002,0.21582,0.008564000000000016,0.9871386807528812,0.901405728549151,double,-0.916229
11,0.045833,stand,0.0060009601536105996,0.027364378300542152,-0.016082573211723312,-0.04428264719452571,-0.07386207548523427,-0.029554970285509446,-0.003360537686019804,-0.006000960153637249,-0.0024003840614497366,-0.002640422467590796,-0.004080652904475461,0.005520883341335143,-0.6333050172018647,0.05918092342316931,-0.40415869409096083,-0.40342584619467237,0.11486353524513834,0.3454893814508854,-0.17296592782089806,-0.057839673523185565,-0.23010040809730026,-0.09769499999999987,-0.09409600000000007,-0.924736,0.13273400000000013,0.12173199999999995,-0.9161389999999999,0.230429,0.21582800000000002,0.008597000000000077,0.9878588646939466,0.9017707957704795,double,-0.9161389999999999
12,0.05,stand,0.007439404847639606,0.02735781137507736,-0.018718502519803795,-0.07153424633754756,-0.06907379774057706,-0.006013828351271331,-0.003359731221492315,-0.005519558435324028,-0.003359731221502306,-0.0031197504199761807,-0.0014398848092033799,0.0038396928245737075,0.3451991106381102,-0.0015759360366669347,-0.6325724281450638,0.0001935360037171316,0.11552717022155536,-0.2302249004205828,-0.11502950621199529,0.633733644173765,-0.40345344774692443,-0.09773999999999994,-0.09423300000000001,-0.9246719999999999,0.13268999999999997,0.12161200000000005,-0.916045,0.2304299999999999,0.21584500000000006,0.00862699999999994,0.9878617783333477,0.9051423227927391,double,-0.916045
13,0.054167,stand,0.009359251259875271,0.02999760019199468,-0.0172786177105738,-0.07865968563649456,-0.0763426649126217,-0.015578631418199575,-0.0014398848092566686,-0.008159347252214667,0.000479961603071402,-0.0014398848092033823,-0.0023998080153744944,0.006239500839933221,0.4607262808340932,0.6334986361692635,0.34554471063834785,0.4607262808340887,-0.6334986361628607,0.9214525616927551,0.40313549574581226,-0.23036314042983327,0.5759078510581991,-0.09778500000000001,-0.09439200000000003,-0.924598,0.13264500000000012,0.12147699999999995,-0.915947,0.23043000000000013,0.21586899999999998,0.008651000000000075,0.9861678134022919,0.9020926663076697,double,-0.915947
14,0.058333,stand,0.009121459433505152,0.03096495439268714,-0.01848295727316219,-0.06650261282220246,-0.10115006040117232,-0.013261097695756669,-0.0026404224675907915,-0.006721075372066247,-0.0038406144983194053,-0.00216034565534032,-0.0019203072491617847,0.0028804608737393457,-0.05707917099618797,0.23220216051187195,-0.2890877490610626,-0.28817514602355304,0.34524048971397475,-1.0371042010059541,-0.17293827319657637,0.11509859966699697,-0.8062985996624755,-0.09783399999999998,-0.094549,-0.9245369999999999,0.132598,0.12134,-0.915858,0.23043199999999997,0.215889,0.008678999999999992,0.9863684389202998,0.9064089118258599,double,-0.915858
15,0.0625,stand,0.007439404847639618,0.03191744660428362,-0.015358771298284864,-0.07949988278774417,-0.06280660094638175,-0.014024572690457164,0.003119750419976186,-0.005039596832238481,0.00479961603071735,-0.0009599232061178259,-0.0026397888168906295,0.004319654427645948,-0.4036608077431089,0.2285798443956035,0.7497446543982066,1.382330906543552,0.40352256775324385,2.0734894478129977,0.28807834154607503,-0.17266176331385774,0.34537882263177433,-0.09785200000000005,-0.09470299999999998,-0.9244530000000001,0.132563,0.12119599999999997,-0.915776,0.23041500000000004,0.21589899999999995,0.008677000000000046,0.9872888180289111,0.9046423227927542,double,-0.915776
16,0.066667,stand,0.01127909767216419,0.03407727381808864,-0.015598752099854259,-0.09637226642836741,-0.0594173599603981,-0.004073405538484657,-0.0011999040076872453,-0.005039596832265116,-0.000959923206143635,-0.0021598272138050696,-0.002639788816890625,0.003119750419966189,0.921452561680962,0.518317065947928,-0.057590785113845626,-1.0366341319086698,-6.391875270013888e-12,-1.3821788425392318,-0.2879539255308957,1.0407508255200416e-15,-0.2879539255290996,-0.09790399999999999,-0.094866,-0.924392,0.13250700000000015,0.12104300000000001,-0.9156979999999999,0.23041100000000014,0.21590900000000002,0.00869400000000009,0.9912189031276881,0.9053560722005386,double,-0.9156979999999999
17,0.070833,stand,0.015362457993294328,0.034805568891037475,-0.012722035525676878,-0.07510243166632881,-0.05936770982435604,0.03859849536990922,-0.002160345655287028,-0.006240998559762496,-0.0014402304368696776,-0.0009601536246075451,-0.003840614498323582,0.0024003840614497405,0.9801633031997475,0.17481878851388385,0.6905224613963966,-0.23054288228511405,-0.28838255580830136,-0.11529218212339026,0.2879677362452059,-0.2882442826291311,-0.17267555413260935,-0.09797699999999998,-0.09503700000000004,-0.924345,0.13243899999999997,0.12088199999999993,-0.915635,0.23041599999999995,0.21591899999999997,0.008709999999999996,0.9887340951829867,0.9051838448063599,double,-0.915635
18,0.075,stand,0.009599232061444677,0.03479721622269032,-0.013438924885995903,-0.1120199484572101,-0.0245749706790943,0.010440400600535015,-0.0028797696184067597,-0.003359731221492315,0.001679865610751153,-0.0014398848092033799,-0.003119750419949537,0.003119750419967022,-1.3830635785576304,-0.0020044800449127874,-0.1720396833019016,-0.17264793931359038,0.6914488452772206,0.7487631503769685,-0.11512627420106415,0.1729935393266245,0.17263411531492215,-0.09802899999999992,-0.09519599999999995,-0.924282,0.13239299999999998,0.12072400000000005,-0.915566,0.2304219999999999,0.21592,0.008716000000000057,0.992111397918876,0.9051049869587422,double,-0.915566
19,0.079167,stand,0.010799136069131922,0.03791696664266651,-0.010319174466046365,-0.08709446893140961,-0.03520163127755685,0.0035486208326396835,0.0007199424046016899,-0.006959443244554051,-0.0014398848092154525,-0.0016798656107728006,-0.003599712023061736,0.0016798656107503205,0.287953925530896,0.748680206377773,0.7486802063713787,0.8638617765799007,-0.8638617765926884,-0.7486802063754745,-0.057590785113851815,-0.11518157022130988,-0.3455447106351571,-0.09807100000000002,-0.095383,-0.924245,0.13234099999999982,0.12055099999999996,-0.915516,0.23041199999999984,0.21593399999999996,0.008728999999999987,0.988094651574943,0.9055216947621281,double,-0.915516
20,0.083333,stand,0.013202112337953957,0.03432549207873359,-0.011761881901095944,-0.125682762810242,-0.042730746998023914,0.039403597021392345,0.00024003840612523588,-0.004560729716752576,-0.00024003840614480668,-0.0009601536245542427,-0.0028804608737160275,0.0021603456553053423,0.5768065935722596,-0.8620918300367056,-0.34630519324281767,-0.11519539089689239,0.5757833720118753,0.28800921821186865,0.17275851805534262,0.17264789950689097,0.11533366407945785,-0.09812500000000002,-0.09554499999999999,-0.924197,0.132282,0.12039600000000006,-0.9154580000000001,0.23040700000000003,0.21594100000000005,0.008738999999999941,0.9923777568878043,0.9063993364153636,double,-0.9154580000000001
21,0.0875,stand,0.012239020878335342,0.03503719702423322,-0.009119270458385793,-0.11327088366048466,-0.0283444643767889,0.029030645831666646,0.0,-0.004559635229179576,0.0011999040076793395,-0.002399808015374499,-0.0033597312215189693,0.0026397888168947967,-0.23112346043163362,0.17079552327804948,0.6341760121694642,-0.05760460910132864,0.000262656005039669,0.3455585346350251,-0.3454894146436908,-0.11501568221812886,0.11505715420913261,-0.09817600000000004,-0.09570999999999996,-0.9241539999999999,0.13222099999999992,0.12023600000000001,-0.9154089999999999,0.23039699999999996,0.21594599999999997,0.008745000000000003,0.9921418755682025,0.904382422263522,double,-0.9154089999999999
22,0.091667,stand,0.02183825293977998,0.04391648668107609,-0.013918886489081458,-0.11516004420964315,-0.06371682159201165,0.0710377601421204,-0.00023998080151613449,-0.00527957763378125,-0.003599712023038007,-0.0009599232061178244,-0.002879769618433403,0.0014398848092150361,2.303631404234372,2.1308590489183734,-1.1518157021107895,-0.057590785101064135,-0.17277235531597646,-1.1518157021159927,0.34554471064474995,0.11518157021491864,-0.28795392552909993,-0.09826800000000002,-0.09591499999999997,-0.9241109999999999,0.13212599999999997,0.12004099999999995,-0.915345,0.230394,0.21595599999999993,0.00876599999999994,0.9893425225226313,0.9067404479641712,double,-0.915345
23,0.095833,stand,0.019203072491564548,0.03816610657705716,-0.011281805088792172,-0.1261248676138232,-0.03103303162235059,0.05659134836524002,-0.0002400384061785351,-0.0009601536245808924,0.0007201152184348364,-0.000960153624607542,-0.0021603456552870205,0.0014402304368696728,-0.632544514694054,-1.380312074896526,0.63300081620002,-1.382733134916236e-05,1.0368276546328263,1.0369244458648201,-5.5309287018130686e-05,0.17268938145616464,8.296391133862632e-05,-0.09834900000000002,-0.096078,-0.924061,0.132042,0.11987300000000001,-0.915292,0.230391,0.215951,0.008769000000000027,0.9979600658050796,0.9076962367600208,double,-0.915292
24,0.1,stand,0.006959443244554051,0.036957043436522036,-0.0566354691624703,0.19494397476213202,-0.38554344057591655,0.011154695534631128,0.0014398848092033799,-0.0021598272138317128,-0.0004799616030718175,-0.0028797696184067597,-0.0031197504199761807,0.002159827213823387,-2.938235960405684,-0.29015194157310303,-10.884008656990181,0.40314931974607954,-0.28789862952983425,-0.2879953975297943,-0.46067098483302515,-0.23023872442744403,0.17268941131598595,-0.09837200000000013,-0.09624100000000002,-0.9238270000000001,0.13200100000000003,0.11970599999999998,-0.915047,0.23037300000000016,0.215947,0.00878000000000001,0.995600351971841,0.9042608618345545,double,-0.915047
25,0.104167,walk,0.027597792176646874,0.04895608351331472,-0.01151907847373365,-0.10609974724621464,0.006962731874164578,0.09750725799309135,-0.0007199424046016923,-0.005519558435324046,-0.0004799616030718191,-0.0021598272138583633,-0.002399808015347855,0.0009599232061436382,4.9528075191007614,2.8795392552898282,10.82706759988883,-0.5183170659479427,-0.8062709914788435,-3.772721742510164e-16,0.1727723553031913,0.17277235532237276,-0.28795392552909804,-0.09849000000000019,-0.096468,-0.923781,0.1318769999999998,0.11949200000000004,-0.914995,0.230367,0.21596000000000004,0.00878599999999996,0.9906883875475411,0.9065261815664023,double,-0.914995
26,0.108333,walk,0.023763802208317125,0.0475276044167142,-0.01032165146423793,-0.10192603424566886,-0.013934072720157575,0.08153279945870621,0.0007201152184290069,-0.0014402304368580138,0.0,-0.0019203072491617847,-0.0014402304368846632,0.0019203072491592863,-0.9203048411737269,-0.34288984555941465,0.28742847083430595,0.3456691365892219,0.97919539089439,0.11520921821215044,0.057493990565669326,0.23033547250676698,0.230529054972551,-0.09858600000000006,-0.09667199999999998,-0.923738,0.13176999999999994,0.11928799999999995,-0.914944,0.230356,0.21595999999999993,0.008793999999999969,0.9973162890332677,0.9069366808789814,double,-0.914944
27,0.1125,walk,0.02711783057356123,0.04943604511637347,-0.00839932805375743,-0.08447183172432964,0.003709005682295193,0.10423158205974686,0.0,-0.0002399808015427777,-0.0026397888168943717,-0.0035997120230084494,-0.0023998080153478474,0.0014398848092150361,0.804902415465347,0.45798912878792186,0.46132071285829096,-0.17281382731677614,0.28803686952609425,-0.6334986361637555,-0.40302490373090066,-0.23028019641545072,-0.11529216221364284,-0.09869900000000009,-0.09687899999999994,-0.9237139999999999,0.13164200000000004,0.11907200000000007,-0.914903,0.23034100000000013,0.215951,0.008810999999999902,0.9955822090164033,0.9042906079514127,double,-0.914903
28,0.116667,walk,0.03023758099353741,0.06047516198704817,-0.010799136069105278,-0.11810606825959395,-0.009274606081391698,0.12436079759290133,0.0,-0.001439884809230023,0.0002399808015357006,-0.0023998080153744905,-0.0021598272138317128,0.001199904007679752,0.7486802063777722,2.649176114872736,-0.5759078510553984,0.0,-0.2879539255308961,0.6910894212695151,0.2879539255181084,0.05759078510106416,-0.0575907851056597,-0.09882500000000016,-0.09713700000000003,-0.923668,0.1315059999999999,0.118811,-0.914853,0.23033100000000006,0.21594800000000003,0.008815000000000017,0.9975670896206869,0.9061093792118724,double,-0.914853
29,0.120833,walk,0.028324531925069795,0.056168987037915764,-0.008881421027353297,-0.10827506629184142,-0.005801058460673524,0.1051676559361004,-0.0007201152184290093,-0.0012001920307061322,-0.0009601536245800627,-0.0024003840614122644,-0.0012001920307327819,0.0019203072491601255,-0.459205249272112,-1.0336473713711998,0.46032526206240654,-0.17285530927244627,0.05753547252133737,-0.2880783548045527,-0.0001382731727733598,0.2303492998317171,0.17292444586662878,-0.09894599999999998,-0.09737599999999991,-0.9236350000000001,0.13137800000000022,0.11857200000000001,-0.9148080000000001,0.2303240000000002,0.21594799999999992,0.00882700000000003,0.9971711202545208,0.9062300291707608,double,-0.9148080000000001
30,0.125,walk,0.03239740820734248,0.05783537317015755,-0.011519078473733612,-0.10872974949940765,0.010111783550029878,0.12798928126309314,0.0023998080153744905,0.0007199424046016899,-0.0014398848092150361,-0.0016798656107728006,-0.0023998080153478474,0.0007199424046075181,0.9774121147762611,0.3999006796836535,-0.6329871481594221,0.748721678378569,0.46079540084180953,-0.11512627421045667,0.17291059530584665,-0.2878848055231736,-0.288064517531223,-0.09907099999999991,-0.09761399999999998,-0.923593,0.13123600000000013,0.11832100000000001,-0.914757,0.23030700000000004,0.215935,0.008835999999999955,0.9951837474686664,0.9066124801655906,double,-0.914757
31,0.129167,walk,0.06551475881933994,0.07031437485000898,-0.03839692824575206,0.0012508600069518338,-0.3753413671229257,0.17866880238393518,-0.0011999040076872453,0.0007199424046016899,-0.0007199424046075181,-0.0019198464122889352,-0.0016798656107461574,0.0011999040076789193,7.947528344611813,2.9947208254983,-6.450167931849874,-0.8638617765926884,0.0,0.17277235531737878,-0.05759078510106416,0.17277235531598015,0.11518157021151926,-0.09934900000000013,-0.09790399999999999,-0.9234359999999999,0.13095499999999993,0.11802100000000004,-0.914592,0.23030400000000006,0.21592500000000003,0.008843999999999963,0.9973772344115209,0.9068614398350281,double,-0.914592
32,0.133333,walk,0.03528564570328783,0.060249639942391034,-0.0072011521843433676,-0.1265727954866426,-0.011708681463932457,0.15197686727474927,-0.003600576092145034,-0.0002400384061518855,-0.0038406144983198216,-0.004560729716752576,-0.0024003840614655555,0.0009601536245800595,-7.256148131553549,-2.4159229254963845,7.488184364236359,-0.5762535008300017,-0.2304322637430568,-0.7490811554758284,-0.6339134192183483,-0.1729521005087368,-0.057549299831699374,-0.0995109999999999,-0.09815600000000002,-0.923422,0.13078900000000004,0.11775999999999998,-0.914558,0.23029999999999995,0.215916,0.008863999999999983,0.9912167953272455,0.902622470128075,double,-0.914558
33,0.1375,walk,0.041036717062616045,0.06575473962082942,0.0002399808015427777,-0.1315757207621249,-0.01491758148479392,0.18332601741760352,0.00023998080151613449,0.0,-0.0004799616030718175,-0.0023998080153744905,-0.0009599232061444676,0.001199904007679752,1.3801467145016104,1.3211182333665425,1.78572905828801,0.9216599216849448,0.057604609107723845,0.8064921754854814,0.5185797219529837,0.3456829506410095,0.05753548910479774,-0.09968099999999991,-0.09843000000000002,-0.923425,0.13060800000000006,0.11748199999999998,-0.914554,0.23028899999999997,0.215912,0.008871000000000073,0.9991056443574662,0.9065406431137129,double,-0.914554
34,0.141667,walk,0.05543556515481007,0.07607391408687629,-0.0023998080153478634,-0.19762730610363574,0.021626274286091037,0.27848021500531217,0.0,-0.0004799616030589154,-0.0011999040076793436,-0.0026397888168906425,-0.0026397888168906425,0.0002399808015361185,3.4554471063580765,2.4764037595504984,-0.6334986361628645,-0.057590785101064516,-0.11518157020852367,-0.17277235531738186,-0.05759078510106871,-0.40313549573942514,-0.23036314042323947,-0.099912,-0.09874899999999998,-0.92342,0.13036599999999998,0.11715399999999998,-0.9145430000000001,0.23027799999999998,0.21590299999999996,0.008876999999999913,0.9978461063886431,0.9049951158834908,double,-0.9145430000000001
35,0.145833,walk,0.040806529044647946,0.0664906385021535,-0.002880460873742677,-0.11343341660963663,-0.012994694090598809,0.17421865470604667,-0.0007201152184290069,0.0009601536245808924,0.0,-0.0021603456552870205,-0.002400384061438906,0.0012001920307244498,-3.511530511320718,-2.300354197004988,-0.11537514603812123,-0.1728553092724451,0.3456829639077788,0.2880230455303271,0.11508477234844494,0.057466335922164304,0.23048757301688205,-0.10008499999999998,-0.09902199999999994,-0.923408,0.13018700000000005,0.11686700000000005,-0.9145260000000001,0.23027200000000003,0.215889,0.008881999999999945,0.9979996799487965,0.9054380012424674,double,-0.9145260000000001
36,0.15,walk,0.036717062635005904,0.06719462443005944,-0.0021598272138317128,-0.14993754356974467,-0.0021677079857316236,0.1630762086466555,0.0,0.0,0.0,-0.002159827213858356,-0.002879769618433403,-0.0011999040076789193,-0.981393426839942,0.16894310724884476,0.17293824331916566,0.17281382731677614,-0.2304184364245,0.0,0.00012441598960033295,-0.11504333021226221,-0.5759769710591233,-0.10023800000000005,-0.099302,-0.923399,0.13002499999999984,0.11657499999999998,-0.9145220000000001,0.23026299999999988,0.21587699999999999,0.008876999999999913,1.0,0.9049059506035779,double,-0.9145220000000001
37,0.154167,walk,0.0455963522917956,0.0794336453083681,-0.0016798656107461574,-0.09608871092890016,-0.008068499681873623,0.20696929594440883,0.0004799616030855554,0.0011999040076872453,-0.0011999040076793356,-0.0019198464122889352,-0.002639788816890625,0.0004799616030714012,2.130859048905613,2.9371300403908456,0.11518157021491597,0.11518157021491598,0.2879539255308961,-0.28795392552899796,0.057590785113851815,0.05759078510745801,0.4031354957404173,-0.1004259999999999,-0.09962799999999994,-0.923397,0.12982699999999991,0.11623300000000003,-0.914513,0.23025299999999982,0.21586099999999997,0.008884000000000003,0.9970608474408498,0.905661349058132,double,-0.914513
38,0.158333,walk,0.04560729716757906,0.07777244359097232,-0.0016802688430098993,-0.10254893289918933,0.015984823224530962,0.19457877339064455,0.00024003840612523588,-0.000480076812303771,0.0014402304368696728,-0.0028804608737160275,-0.004800768122904461,0.0,0.002627190538516197,-0.3987522125289922,-9.679122989482113e-05,-0.057590781795563935,-0.4032599183847852,0.633733664078014,-0.23058436424078052,-0.5187180283278527,-0.11520921821205013,-0.10061500000000012,-0.09995399999999999,-0.9233840000000001,0.12962499999999988,0.11588900000000002,-0.914506,0.23024,0.215843,0.008878000000000053,0.9974383404394955,0.901888984005702,double,-0.914506
39,0.1625,walk,0.051355891528662406,0.07703383729302025,-0.0011999040076872453,0.01700199793787932,0.13466547740603624,0.20018162138413487,-0.0004799616030855554,0.0002399808015427777,-0.0011999040076793356,-0.0011999040076872453,-0.0035997120230350926,0.0002399808015361169,1.3795522824774036,-0.17725133140198412,0.11527833821038001,-0.17278617931624443,0.17280000332290568,-0.6335815801653482,0.40330138373620844,0.2882304055362053,0.057590785105859535,-0.10083100000000011,-0.10027399999999997,-0.923384,0.1294059999999999,0.11555300000000002,-0.9145,0.23023700000000002,0.215827,0.008884000000000003,0.9978092850271667,0.9048233151276885,double,-0.9145
40,0.166667,walk,0.0455963522917956,0.08759299256058276,0.0011999040076872453,-0.09212907430805704,0.008950275565129102,0.1693618250135456,0.00023998080156942094,-0.0023998080153744905,0.0004799616030718175,-0.0009599232061178244,-0.0019198464122889352,-0.0002399808015361169,-1.3821788425406285,2.5339945446514256,0.5759078510617922,0.17277235532876783,-0.6334986361692503,0.40313549574061713,0.05759078511385184,0.40313549573941826,-0.11518157021171907,-0.10101999999999989,-0.10064899999999999,-0.9233870000000001,0.1292120000000001,0.11518000000000006,-0.914506,0.230232,0.21582900000000005,0.008881000000000028,0.9959015475697796,0.9075902879769779,double,-0.914506
41,0.170833,walk,0.05496879500720945,0.08953432549209492,0.00048007681227712134,-0.07189904203238912,0.09854830341685615,0.23611869287061507,-0.000960153624607542,0.002640422467617441,0.00048007681229002974,-0.000480076812303771,-0.0031204992798945625,-0.0024003840614497322,2.249746211093097,0.4659944626769471,-0.1727861726860594,-0.288078354819242,1.2098488917407413,2.7654637112871103e-05,0.11518156356554322,-0.2882028006734581,-0.5185797551400897,-0.10125300000000004,-0.10101099999999996,-0.923387,0.128981,0.11479399999999995,-0.9145179999999999,0.23023400000000005,0.2158049999999999,0.008869000000000016,0.9952495030856281,0.9046998577204765,double,-0.9145179999999999
42,0.175,walk,0.04607631389488147,0.08975281977441507,0.002159827213831727,-0.0752119287434357,0.06729064701713001,0.15661000906372427,-0.0004799616030855586,-0.002159827213831727,-0.0004799616030718207,-0.0007199424046016947,-0.0011999040076606101,0.0,-2.134024744979129,0.05243443300219684,0.4031078477452881,0.11523686621597938,-1.1519677661265169,-0.23039078842377153,-0.05756313710053398,0.4609059928567227,0.5760460910606542,-0.10144700000000006,-0.10139399999999998,-0.923398,0.12878600000000007,0.11441500000000004,-0.914527,0.23023300000000013,0.21580900000000003,0.008871000000000073,0.9962267094104056,0.9089578058176284,double,-0.914527
43,0.179167,walk,0.04391648668107609,0.09503239740819572,-0.0019198464122889352,-0.12782836320114616,-0.015855849770095166,0.14547318333024067,0.0004799616030855554,0.0007199424046016899,-0.0007199424046075181,-0.0007199424046016899,-0.0023998080153744905,-0.001199904007679752,-0.5183170659480146,1.2669972723255678,-0.9790433468012139,0.23036314042983275,0.6910894212703178,-0.057590785105758845,1.1448259080720459e-15,-0.28795392553728805,-0.2879539255290979,-0.10162800000000005,-0.10178699999999996,-0.923393,0.12860000000000005,0.11400900000000003,-0.914524,0.2302280000000001,0.215796,0.008869000000000016,0.9981239837773651,0.9066800356360127,double,-0.914524
44,0.183333,walk,0.0640902544407146,0.10441670667308543,-0.0026404224675907915,-0.02142181719285268,0.08220677295524453,0.24229596168592069,-0.0014402304368580138,-0.0007201152184290069,0.00048007681229002974,-0.0019203072491617847,-0.00048007681227712134,-0.002160345655304509,4.842479058962674,2.2525946387157245,-0.17296592782089673,-0.46091983676033793,-0.3456691365892212,0.28805070016743806,-0.2881336640806755,0.4608092182182832,-0.23054288229110814,-0.10190100000000002,-0.10222500000000001,-0.9233800000000001,0.12832500000000002,0.113572,-0.9145220000000001,0.23022600000000004,0.21579700000000002,0.008858000000000033,0.9971995519283297,0.9065365964091339,double,-0.9145220000000001
45,0.1875,walk,0.047276217902568404,0.09935205183585914,-0.007199424046096829,-0.07300539968222407,-0.007767237240948346,0.12965059351861138,-0.00023998080151613449,-0.0002399808015427777,-0.0004799616030718175,-0.00023998080156942094,-0.0007199424046283331,0.0002399808015361169,-4.035045965477845,-1.2154199273401212,-1.094072853013207,0.2880368695324882,0.11522304220931816,-0.2303907884237692,0.4032460877351481,-0.057563137113321707,0.5760322670603849,-0.10209899999999994,-0.10264000000000006,-0.923352,0.12812699999999988,0.1131549999999999,-0.9144909999999999,0.23022599999999982,0.21579499999999996,0.008861000000000008,0.999020282480297,0.9100634562073131,double,-0.9144909999999999
46,0.191667,walk,0.044876409887193915,0.10271178305735146,-0.0028797696184067597,-0.0919079383477769,-0.08688111518436778,0.12660712702795784,0.0009599232061178244,0.0011999040076872453,-0.0004799616030718175,-0.0009599232061178244,-0.0014398848092033799,-0.002879769618430905,-0.575907851061792,0.8062709914788366,1.0366341319150625,0.2879539255181084,0.3455447106383541,0.0,-0.1727723553031924,-0.1727723553095863,-0.7486802063755744,-0.10228199999999998,-0.10306300000000002,-0.923342,0.12793600000000005,0.11272099999999996,-0.914491,0.23021800000000003,0.21578399999999998,0.008850999999999942,0.9973169330723701,0.905890447964183,double,-0.914491
47,0.195833,walk,0.06769083053291293,0.11113778204512503,-0.0009601536245808924,-0.031671025718013744,0.026960536673463223,0.2516346136893443,-0.0007201152184290069,0.0012001920307327777,0.0012001920307248661,0.0009601536245542427,-0.002880460873742677,0.0007201152184348364,5.476337168919587,2.0225633672044094,0.4607815635683788,-0.4032737456905497,6.91365927826397e-05,0.40330140033525747,0.4608921821104334,-0.34579358246262504,0.8641106185467448,-0.10256700000000007,-0.10352099999999997,-0.9233330000000001,0.12765799999999983,0.11224599999999996,-0.9144840000000001,0.2302249999999999,0.21576699999999993,0.008848999999999996,0.9969270500288525,0.9063091678668675,double,-0.9144840000000001
48,0.2,walk,0.04799616030717009,0.11567074634028846,0.004799616030695695,-0.10472574765962071,-0.010437421689897051,0.1481048645008976,0.0007199424046016899,-0.0019198464122889352,-0.002399808015358671,-0.0009599232061178244,-0.0007199424046016899,-0.0007199424046075181,-4.726342746758536,1.0878244048868293,1.3822341385352968,0.34558618263275626,-0.7487493263791001,-0.863930896588321,-0.46078157683514887,0.5184829539575196,-0.3455861826355539,-0.10276400000000008,-0.10401099999999996,-0.9233629999999999,0.12745399999999996,0.111761,-0.914507,0.23021800000000003,0.21577199999999996,0.008855999999999975,0.9947392422854313,0.9091078058176311,double,-0.914507
49,0.204167,walk,0.02807775377967924,0.18238540916726356,0.029277657787393135,0.4355740944576985,-0.5164746353928308,0.8455001299714385,-0.0014398848092033894,-0.0004799616030855586,0.0004799616030718207,0.0,-0.0035997120230351165,-0.0007199424046075229,-4.780035163784729,16.010238259413363,5.874260080800955,-0.5183170659479461,0.3455447106319618,0.6910894212696205,0.2303631404170458,-0.6910894212703247,-1.1708446787100547e-15,-0.10288699999999995,-0.104773,-0.923483,0.12733700000000003,0.11098600000000003,-0.914632,0.23022399999999998,0.21575900000000003,0.008851000000000053,0.9973469124147334,0.9053716660504096,double,-0.914632
50,0.208333,walk,0.05352856457035143,0.130100816130591,-0.03144503120499091,0.21429604200725624,-0.21885014837177297,0.17305993479669285,0.0007201152184290069,0.0019203072491617847,-0.00048007681229002974,0.0016802688430365487,-0.0019203072491617847,-0.0014402304368696728,6.109172057290489,-12.550310378461962,-14.575777482569372,0.5184829639059997,0.5761567096129001,-0.23044609106141378,0.4033290549775678,0.40312164519283017,-0.17289679122951257,-0.10310700000000006,-0.10530700000000004,-0.923354,0.12712100000000004,0.11043599999999998,-0.9145070000000001,0.2302280000000001,0.21574300000000002,0.008846999999999938,0.9964894525574528,0.9066465964091094,double,-0.9145070000000001
51,0.2125,walk,0.0626349892008266,0.12263018958481586,-0.007199424046070185,-0.0785719346937218,0.02080989969512801,0.2172963059104165,0.0,-0.0002399808015427777,0.0007199424046075181,0.0019198464122356488,-0.0023998080153744905,0.0004799616030714012,2.1853670819474806,-1.7928069464303145,5.818480239721791,-0.17281382731677614,-0.518427657956458,0.2879815735295288,0.057494017086417055,-0.11507097821279226,0.4608092248478695,-0.1033679999999999,-0.105819,-0.9233210000000001,0.12686799999999998,0.10991499999999998,-0.914475,0.23023599999999989,0.21573399999999998,0.00884600000000002,0.9987351901207195,0.9063558221755323,double,-0.914475
52,0.216667,walk,0.059755219582473124,0.12790976721862377,-0.004559635229206204,-0.01277689706031667,-0.01860731929687417,0.20405270340762552,0.0011999040076872453,-0.0004799616030589122,-0.000959923206143635,0.0023998080153744905,-0.0016798656107461574,-0.00191984641228727,-0.691089421251132,1.2669972723321088,0.6334986361564624,0.2879539255308961,-0.05759078510106414,-0.40313549574061713,0.11518157022770369,0.17277235532237398,-0.5759078510579959,-0.10361200000000004,-0.10635399999999995,-0.923306,0.12662899999999988,0.109375,-0.9144639999999999,0.23024099999999992,0.21572899999999995,0.008842000000000017,0.997316933072351,0.9057426591795208,double,-0.9144639999999999
53,0.220833,walk,0.05712914066249647,0.1317810849736009,-0.005040806529029698,-0.06869520162784919,-0.01784963841793899,0.1368143827855769,-0.0012001920307327777,0.0,0.0,0.0024003840614655555,-0.0014402304368580138,0.0014402304368705057,-0.6303597983621345,0.9292649435854822,-0.11549959189234126,-0.5761152276572303,0.11520921820905229,0.23041843642430013,0.0001382731855652794,0.05752164519638586,0.8065474913964891,-0.10385500000000003,-0.10690299999999997,-0.923285,0.12640099999999999,0.10882000000000003,-0.914437,0.23025600000000002,0.215723,0.008847999999999967,0.9979996799487787,0.9062732096940981,double,-0.914437
54,0.225,walk,0.058795296376302014,0.13150947924165884,0.0019198464122889352,-0.04348735473336426,0.07796929923792478,0.13908353664651193,0.0007199424046016899,0.0021598272138050696,0.0007199424046079344,0.002639788816890625,-0.0019198464122889352,0.0002399808015352843,0.3998453836826358,-0.06518016125318997,1.6704230720707045,0.4607954008482039,0.5183170659479404,0.1727723553174787,0.05745254509840878,-0.11509862621332397,-0.2880368695308904,-0.1040970000000001,-0.10744200000000004,-0.92329,0.12616699999999992,0.10826400000000003,-0.914444,0.23026400000000002,0.21570600000000006,0.00884600000000002,0.9960203686221134,0.9060851637081127,double,-0.914444
55,0.229167,walk,0.059035277177818146,0.14590832733382586,0.003119750419949537,-0.1765405820503316,-0.030630531634795757,0.11274323109547928,-0.0004799616030855554,0.0004799616030855554,-0.0014398848092154525,0.002639788816890625,-0.0016798656107461574,0.0007199424046083507,0.05759078510106354,3.4554471063515724,0.2879539255245022,-0.2879539255308961,-0.4031354957330244,-0.5183170659523362,0.0,0.05759078510745801,0.11518157021191887,-0.10434500000000013,-0.10804800000000003,-0.9233089999999999,0.12593199999999993,0.107649,-0.914454,0.23027700000000006,0.21569700000000003,0.008854999999999946,0.9973469124147083,0.9060987928324791,double,-0.914454
56,0.233333,walk,0.06889102256359242,0.14450312049927772,0.004800768122904461,-0.013917563336641844,-0.02518556519618948,0.19408786379818585,0.0002400384061785351,0.0,0.00024003840614480668,0.0038406144983235695,-0.0002400384061518855,0.00048007681228961336,2.365757413772027,-0.3373036088689736,0.4035088101188005,0.1728276546481253,-0.11520921821544768,0.40324609106103165,0.2882442826291271,0.3456138273149954,-0.057576954469212,-0.10463099999999992,-0.10865000000000002,-0.9233279999999999,0.12566100000000002,0.10704599999999997,-0.914472,0.23029199999999994,0.215696,0.008855999999999975,0.9994342240508596,0.9049767681143299,double,-0.914472
57,0.2375,walk,0.06671466282697433,0.1437485001199951,0.002879769618433422,-0.07086744902375638,-0.03208521653757729,0.14314926569746278,0.00047996160303227217,0.0011999040076872533,0.0004799616030718207,0.0033597312214923374,-0.000959923206144474,-0.0002399808015361185,-0.5222845540240223,-0.181094403475551,-0.4610027608521839,0.057576961088010185,0.28795392553089993,0.05757696110559525,-0.11540275421915883,-0.17275853131571697,-0.1728000033179112,-0.10490700000000008,-0.10924400000000001,-0.923338,0.12539699999999998,0.10644299999999995,-0.914485,0.23030400000000006,0.21568699999999996,0.008853,0.9977023587526961,0.9056326591795505,double,-0.914485
58,0.241667,walk,0.07391408687304407,0.15118790496758047,0.0035997120230350926,-0.0535496427488889,-0.07542690892485886,0.1959920303731998,0.00023998080156942094,0.0009599232061444676,0.0,0.003599712023061736,-0.0011999040076872453,0.0014398848092150361,1.7277235531724824,1.785314338273426,0.1727723553159755,-0.057590785088277176,-0.057590785107459914,-0.11518157021161993,0.05759078511384646,-0.05759078510745645,0.40313549574061747,-0.10521399999999992,-0.10986999999999991,-0.923353,0.1251040000000001,0.10580800000000001,-0.9144939999999999,0.23031800000000002,0.21567799999999993,0.008859000000000061,0.9983508896785636,0.9046459273156611,double,-0.9144939999999999
59,0.245833,walk,0.06433029284683983,0.14114258281325792,-0.00048007681227712134,0.030713865466083234,-0.26510697105836634,0.07610002954432145,0.0012001920307327777,0.0016802688430098993,0.00048007681229002974,0.004800768122877812,-0.0019203072491617847,0.0004800768122904462,-2.3004786428718753,-2.411263119136472,-0.9793060094364405,0.2304875730108872,0.17291061854667095,0.11523687284926294,0.2882995918905605,-0.1729244458652278,-0.23039078178698735,-0.10547699999999982,-0.11045099999999997,-0.923349,0.12485600000000008,0.10521199999999997,-0.91449,0.2303329999999999,0.21566299999999994,0.00885899999999995,0.9964667303303208,0.9027552921856685,double,-0.91449
60,0.25,walk,0.07463402927769905,0.16366690664745853,0.0038396928245778704,-0.20978971038500632,0.024361067531684235,0.15873328204991743,-0.0007199424046016899,-0.0007199424046016899,0.0002399808015361169,0.005039596832265116,-0.0004799616030589122,-0.0002399808015361169,2.4726989274920106,5.405405287785118,1.0366617799028048,-0.4607954008482039,-0.5760046190572563,-0.05761843310629052,0.05731430510854424,0.34565530264047784,-0.17280000331810952,-0.10579099999999997,-0.1111359999999999,-0.9233640000000001,0.12456599999999995,0.10452800000000007,-0.9145070000000001,0.23035699999999992,0.21566399999999997,0.008857000000000004,0.9982565798962055,0.9029831909119326,double,-0.9145070000000001
61,0.254167,walk,0.07439404847613013,0.15406767458604154,0.011519078473707044,-0.007404827491095288,-0.005164265009089125,0.12021597358571194,0.001919846412288948,-0.0004799616030855586,0.0019198464122868665,0.0050395968322651495,-0.0014398848092300326,0.0014398848092150459,-0.05759078511373277,-2.3036314042277537,1.8429051233811418,0.6334986361628637,0.05759078510106377,0.403135495740523,8.117856439056379e-15,-0.23036314042983583,0.40313549574062213,-0.10609299999999999,-0.11177999999999999,-0.923404,0.12427699999999997,0.10387999999999997,-0.914549,0.23036999999999996,0.21565999999999996,0.008855000000000057,0.9954047175053631,0.9023909234037784,double,-0.914549
62,0.258333,walk,0.07825252040322281,0.12866058569370634,0.012722035525676837,0.03221081869223644,-0.21612208831665036,0.050597718242253405,-0.00216034565534032,-0.0009601536245808924,-0.0014402304368700894,0.0040806529044488055,0.0,-0.0007201152184348364,0.9261814515344887,-6.098677122500043,0.28875589341569646,-0.9794028006791323,-0.11526452748327735,-0.8065474913962922,-0.23018337201544486,0.34562765463995,-0.518482963910197,-0.10642799999999997,-0.11231999999999998,-0.9234629999999999,0.12396800000000008,0.10334399999999999,-0.914605,0.23039600000000005,0.21566399999999997,0.008857999999999921,0.9953862367599664,0.9045138244112791,double,-0.914605
63,0.2625,walk,0.08927285817135497,0.1459083273338249,-0.0021598272138050553,-0.2189919165964776,0.0016964766284286745,0.13094284159147793,0.0,0.0009599232061444612,0.0007199424046079296,0.00455963522917953,-0.0007199424046016851,-0.0009599232061436286,2.644669490792435,4.139126863479342,-3.5713613485677413,0.5184414819631158,0.4607815768479335,0.5184000099539243,0.11494656221039612,-0.17277235531597782,-0.05754931310506129,-0.1068,-0.11292400000000002,-0.923451,0.12361500000000003,0.10273299999999996,-0.9146000000000001,0.23041500000000004,0.215657,0.008850999999999942,0.9980001599871995,0.903631875568204,double,-0.9146000000000001
64,0.266667,walk,0.074154067674614,0.16606671466283415,0.014878809695226026,0.08946254571376573,-0.26637866386612413,0.1458680451457496,-0.00023998080151613608,-0.0007199424046016947,0.0,0.00599952003838298,0.0011999040076872533,-0.0002399808015352859,-3.6282194616609216,4.83762594888634,4.088945742508082,-0.057590785101064905,-0.40313549573942054,-0.1727723553174787,0.34554471063197956,0.4607262808468801,0.17277235531757784,-0.10711000000000004,-0.11361900000000003,-0.923513,0.12333099999999986,0.10204599999999997,-0.914663,0.2304409999999999,0.215665,0.008850000000000025,0.9987351901207429,0.901294935747422,double,-0.914663
65,0.270833,walk,0.07585213634181054,0.19563130100816362,0.006961113778191482,-0.0077683250585479985,-0.06621524395591365,0.1515136045908935,0.00024003840612523588,-0.0002400384061518855,0.0,0.0050408065290563474,-0.0009601536245808924,0.0002400384061443903,0.4076016963985943,7.096636184668613,-1.9005511082656117,0.11522304552121258,0.1151953908904966,0.0,-0.23012806272842828,-0.5184967912309516,0.11522304553040706,-0.1074250000000001,-0.11443500000000006,-0.923542,0.12303599999999992,0.10122699999999996,-0.9146909999999999,0.23046100000000003,0.21566200000000002,0.008851000000000053,0.999434224050914,0.9029282562973752,double,-0.9146909999999999
66,0.275,walk,0.07799376049913756,0.1941444684425108,-0.006719462443011228,-0.22446265307582894,-0.02079815900840579,0.13758889595013524,-0.0007199424046016851,-0.0021598272138316985,0.000239980801535699,0.004799616030695663,0.0002399808015427761,-0.0019198464122864246,0.513948681863932,-0.3568112708550065,-3.2830756470368625,-0.2303769644173059,-0.4607124568466039,0.05759078510575886,-0.05788108911943436,0.2880092215319557,-0.5183308899521955,-0.10775299999999999,-0.11525300000000005,-0.9235129999999999,0.12273099999999992,0.10041900000000004,-0.9146709999999999,0.2304839999999999,0.21567200000000009,0.008842000000000017,0.996184548430447,0.9029551465271723,double,-0.9146709999999999
67,0.279167,walk,0.06599472042237264,0.15670746340293218,-0.013678905687538772,0.41342479890874656,-0.36797723967645696,0.03808531529019502,0.0004799616030855586,-0.0033597312214923374,-0.0016798656107511643,0.0069594432445540975,0.000959923206144474,-0.0016798656107511643,-2.8795392552831736,-8.984162476500797,-1.670132768065175,0.2879539255308976,-0.28795392552451304,-0.4607262808463821,0.5183170659607504,0.17277235531598323,0.05759078510565436,-0.10802599999999996,-0.11592000000000002,-0.9234629999999999,0.12248499999999996,0.09977000000000003,-0.914621,0.2305109999999999,0.21569000000000005,0.008841999999999905,0.9936886113758778,0.8995410295629789,double,-0.914621
68,0.283333,walk,0.07729236677866856,0.1857897263562028,-0.006721075372066247,-0.1774618561056251,-0.012238606230070892,0.12568159949609034,-0.000960153624607542,-0.0014402304368580138,0.002160345655304926,0.005760921747485354,-0.0014402304368846632,0.0014402304368696728,2.711869024554947,6.980860046392368,1.6701464991532695,-0.3456829639205712,0.4607539089376674,0.9217981915641111,-0.28769118988688025,-0.5761290549757886,0.7489428822901668,-0.108352,-0.11669999999999991,-0.923426,0.12218700000000005,0.09899000000000002,-0.9145869999999999,0.23053900000000005,0.21568999999999994,0.008839000000000041,0.9953862367600075,0.9014260329161656,double,-0.9145869999999999
69,0.2875,walk,0.07991360691148083,0.1790256779457712,0.00935925125990196,-0.005707785605025137,-0.10016466210884808,0.038432012258624484,-0.00023998080151613608,-0.003839692824577896,0.0004799616030718207,0.007919366450671927,0.0014398848092300326,-0.0019198464122872829,0.6290473080903016,-1.6232417591628603,3.8589696740984634,0.172827651329832,-0.5758249070602102,-0.4032599117430081,0.5179852899415853,0.6911723652783087,-0.8063539354828353,-0.10868600000000006,-0.11746199999999996,-0.9234629999999999,0.12188699999999986,0.09825000000000006,-0.914634,0.23057299999999992,0.21571200000000001,0.008828999999999976,0.993538319165901,0.8979183516122324,double,-0.914634
70,0.291667,walk,0.08399328053752046,0.18094552435805775,0.003359731221518936,-0.06722564571163266,-0.05350191137885527,0.09871014560078128,-0.0016798656107727896,0.0,0.0004799616030718143,0.0071994240460701376,0.0007199424046016851,-0.002639788816893938,0.9790433467817609,0.46072628084629863,-1.4397696276417034,-0.3455447106447426,0.9214525616937526,-1.5351074676420512e-15,-0.172772355316003,-0.1727723553223763,-0.17277235531717056,-0.109043,-0.11821599999999999,-0.923475,0.12156699999999998,0.097499,-0.914659,0.23060999999999998,0.215715,0.008816000000000046,0.9970881889891339,0.8990035816847712,double,-0.914659
71,0.295833,walk,0.08449351896306523,0.19227076332211715,-0.009121459433505152,-0.160465458691802,0.00649369660590946,0.0725154519938802,-0.0016802688429832496,-0.0012001920307327777,0.001680268843014896,0.0074411905905219025,0.0009601536245808924,-0.0014402304368705057,0.12007643436024143,2.7184923101438776,-2.9959651116236388,-9.679121710513925e-05,-0.2880921821250064,0.288119836760221,0.058033255989381846,0.05765991838195082,0.2879400816186825,-0.109402,-0.11902199999999996,-0.9234300000000001,0.12124599999999996,0.09670200000000007,-0.9146270000000001,0.23064799999999996,0.21572400000000003,0.008803000000000005,0.9955630754895419,0.8992368983334168,double,-0.9146270000000001
72,0.3,walk,0.0895128389728723,0.1917446604271655,0.01535877129828494,-0.017140625128339904,-0.13025893787614637,0.15495816632916493,-0.0014398848092033894,-0.002879769618433422,-0.0007199424046079392,0.00815934725224135,0.0007199424046016947,-0.0019198464122864502,1.2045404391185732,-0.12625459442084092,5.874785392798231,0.05768755310291853,-0.4030663757380979,-0.5760046190599589,0.1723438113077638,-0.057646081108519084,-0.11509862620973055,-0.1097809999999999,-0.11983299999999997,-0.923497,0.1209070000000001,0.09590600000000005,-0.914699,0.230688,0.21573900000000001,0.008797999999999973,0.9945013490581327,0.897998283222942,double,-0.914699
73,0.304167,walk,0.11351091912645599,0.2387808975282149,-0.0002399808015427761,-0.2673450949322736,-0.030236566661522347,0.15858068621332239,-0.0007199424046549715,-0.0031197504199495167,0.0026397888168947707,0.010079193664476878,-0.0019198464122889224,-0.001679865610751142,5.7590785105791955,11.28779388074131,-3.7434010318760733,0.1727723553031947,-0.057590785101054205,0.8062709914813256,0.4607262808340565,-0.6334986361628503,0.05759078510566509,-0.11025700000000005,-0.12084099999999998,-0.923485,0.12047600000000003,0.09490299999999996,-0.914705,0.23073300000000008,0.21574399999999994,0.00878000000000001,0.993083906701155,0.8948716430506563,double,-0.914705
74,0.308333,walk,0.09409505520882085,0.20595295247240153,0.010801728276541701,0.0067067777983145695,-0.21726283186484208,0.11156112473750869,-0.0007201152184290069,-0.002640422467617441,0.001680268843014896,0.009361497839683687,0.0002400384061518855,-0.002880460873740179,-4.6605530287170245,-7.879967608212519,2.650434248219988,-4.1481942879345e-05,0.1150571176985298,-0.23032164519440088,-0.1722745618802666,0.5184553092752776,-0.2881889733531051,-0.11065199999999997,-0.1217100000000001,-0.9235230000000001,0.1201230000000002,0.09404599999999996,-0.9147620000000001,0.23077500000000017,0.21575600000000006,0.008761000000000019,0.9946475083372013,0.8960607220099076,double,-0.9147620000000001
75,0.3125,walk,0.08879289656832388,0.2143028557715207,0.01751859851211667,-0.2728203171996546,0.07514395471839291,0.06402094559833883,-0.002159827213805084,-0.002879769618406779,0.001439884809215462,0.008399328053757487,-0.0004799616030855586,-0.0019198464122872829,-1.2724162804168448,2.0038164864696935,1.6119199029457656,-0.34550323863116994,-0.05743872109175401,-0.057687553107615856,-0.23090227644017403,-0.17278617932264176,0.23052902842642223,-0.1110310000000001,-0.12261499999999992,-0.92359,0.119788,0.09315099999999998,-0.9148430000000001,0.2308190000000001,0.2157659999999999,0.00874699999999995,0.9935383191659511,0.8981478268967518,double,-0.9148430000000001
76,0.316667,walk,0.09239260859127907,0.20566354691624708,0.006239500839925759,0.023627384144124967,-0.23349358133806314,0.09155186637901523,-0.0016798656107728119,-0.0033597312215189806,0.0028797696184305077,0.010319174465993149,-0.0007199424046016947,-0.0033597312215023285,0.8638617765671238,-2.0732682638045747,-2.7067668999738355,0.11518157020212977,-0.11518157022131138,0.34554471063476216,0.46072628083409467,-0.05759078510106491,-0.34554471063476216,-0.11142300000000005,-0.12348599999999998,-0.923604,0.11944599999999994,0.09229100000000001,-0.914883,0.230869,0.215777,0.008720999999999979,0.9921113979188075,0.8946630194487237,double,-0.914883
77,0.320833,walk,0.09361497839657038,0.22419587133941185,0.00048007681227712134,-0.24729816029218749,-0.055343777853858515,0.06309594369091703,-0.0028804608737160275,-0.0021603456553136702,0.002640422467594539,0.01032165146423793,-0.0009601536245808924,-0.0031204992798845687,0.29341569978187854,4.448469616698214,-1.3824829639098977,-0.2881889733421063,0.2878985996652207,-0.05745250860200877,0.0005945747107012706,-0.05765991838194851,0.057424853964896695,-0.11182500000000006,-0.12442900000000001,-0.9235949999999999,0.11909899999999984,0.09135300000000002,-0.914898,0.2309239999999999,0.21578200000000003,0.008696999999999955,0.9925583792456028,0.8949871574911452,double,-0.914898
78,0.325,walk,0.09575233981282341,0.22030237580995402,0.008879289656842928,-0.07497074598282699,-0.07451528108386962,0.03267513673725294,0.00023998080151613289,-0.0026397888168906074,0.0007199424046079296,0.011279097672217402,-0.001199904007660594,-0.003599712023038399,0.5129257058442572,-0.9343641779356385,2.015649830709321,0.7488460943681633,-0.11505715420612754,-0.4608783448491948,0.22976870841839786,-0.05753548909999997,-0.11500185820826173,-0.11222300000000018,-0.12535800000000008,-0.923629,0.11874699999999994,0.09043000000000001,-0.91495,0.23097000000000012,0.2157880000000001,0.008678999999999992,0.9954221569705477,0.8933762646696324,double,-0.91495
79,0.329167,walk,0.1051115910727,0.17854571634268565,0.027357811375077545,-0.12694080325693868,-0.17438286639223372,0.004104744489269663,-0.001919846412288948,-0.0035997120230351165,0.00311975041996621,0.008399328053757487,-0.0014398848092300326,-0.0011999040076789273,2.246040619120865,-10.020796608415791,4.434490453140082,-0.5183170659479466,-0.23036314042344963,0.575907851057906,-0.6910894212766813,-0.057590785113856464,0.5759078510581919,-0.11266900000000013,-0.12611700000000003,-0.9237299999999999,0.118344,0.08967999999999998,-0.9150689999999999,0.23101300000000013,0.21579700000000002,0.00866100000000003,0.9914403109515133,0.8990468105935128,double,-0.9150689999999999
80,0.333333,walk,0.10801728276525711,0.2145943350936029,0.02064330292847586,-0.06695795325227924,-0.0630473279367615,0.1615728347210672,-0.0021603456552870205,-0.0026404224675907915,0.004080652904464629,0.008881421027326617,-0.0014402304368580138,-0.003600576092175015,0.6974776026301269,8.653052988698326,-1.611739905569294,-0.0577290549683323,0.2302663359203851,0.23065350083975472,0.11572082898922934,-8.2963904940272e-05,-0.5762535008391949,-0.11312800000000012,-0.12702199999999997,-0.923799,0.11793099999999979,0.08878000000000008,-0.91517,0.2310589999999999,0.21580200000000005,0.008628999999999998,0.9911351737053442,0.8975581123074805,double,-0.91517
81,0.3375,walk,0.10319174466040969,0.18094552435805775,-0.01679865610751475,0.40039436749134183,-0.18091330837241726,0.11512022287658544,-0.0014398848092033701,-0.0009599232061444612,0.004319654427645913,0.008639308855326794,-0.0014398848092300135,-0.0014398848092150266,-1.158036502243194,-8.075068571045092,-8.985351340530435,0.1728967713183693,0.4032875597423368,0.05735577710133958,-0.0581022730981093,8.294399520044462e-05,0.5185244259563166,-0.113564,-0.12778,-0.923711,0.117537,0.08801999999999999,-0.915106,0.231101,0.2158,0.008604999999999974,0.9922443326815249,0.8991565898656242,double,-0.915106
82,0.341667,walk,0.11423086153105919,0.20254379649627086,0.008639308855300266,-0.1533973705923942,-0.1942252302137932,0.004475842501171656,-0.004079673626094032,-0.004079673626120675,0.0019198464122868665,0.008639308855273623,-0.005039596832238506,0.0016798656107511643,2.6491761148667052,5.183170659518415,6.104623221217941,-0.6334986361628696,-0.7486802063777853,-0.5759078510580897,-1.2760021421206004e-11,-0.8638617765799167,0.74868020637538,-0.11405699999999985,-0.128641,-0.923739,0.117097,0.0871550000000001,-0.915135,0.23115399999999986,0.2157960000000001,0.008603999999999945,0.9898657231746959,0.8970569149595486,double,-0.915135
83,0.345833,walk,0.11881901104179882,0.19443110897745747,0.00864138262122803,-0.22179687638223194,-0.21749503470264353,-0.01918090293312628,-0.0067210753720928955,0.0012001920307327777,-0.002160345655304926,0.010081613058112695,-0.0021603456553136702,-0.0014402304368696728,1.1013320957128248,-1.9473565815682627,0.0004977834680182249,-0.6340378650981424,1.2673705369307366,-0.9794028006701366,0.34620840202570113,0.6911308634001041,-0.7489428822901668,-0.11458000000000013,-0.12944600000000006,-0.923784,0.11664399999999997,0.08633599999999997,-0.915177,0.2312240000000001,0.21578200000000003,0.008607000000000031,0.9880649432787292,0.8965790250902126,double,-0.915177
84,0.35,walk,0.10799136069110679,0.21142308615308728,0.019438444924405617,-0.04351677053746939,-0.13172358810626164,0.10850090647773278,0.0,-0.0033597312214923374,0.010799136069114508,0.009839212862960876,-0.003119750419976201,-0.0009599232061436414,-2.598428209909308,4.077748302286994,2.5910876657493755,1.6129290549779058,-1.094294037011073,3.110026811715745,-0.05817139312498679,-0.23023872442105503,0.11526451421311114,-0.11502999999999997,-0.13034099999999993,-0.9238200000000001,0.11623500000000009,0.08544200000000002,-0.915262,0.23126500000000005,0.21578299999999995,0.008558000000000066,0.9811505132902245,0.897142493347379,double,-0.915262
85,0.354167,walk,0.10607151427886971,0.23398128149749262,0.025437964962788256,-0.13332037879845254,-0.06743861515867884,0.12152286873668745,-0.00767938564915569,0.0016798656107461464,0.0,0.010799136069131849,-0.0021598272138050553,-0.0021598272138233727,-0.46072628083442907,5.413533799953244,1.439769627641611,-1.8429051233874805,1.2094064872182493,-2.5915853297610814,0.23036314042979722,0.23036314042983885,-0.287953925529091,-0.11550400000000005,-0.131309,-0.923926,0.11583800000000011,0.08445800000000003,-0.915377,0.23134200000000016,0.21576700000000004,0.008549000000000029,0.9868983766465302,0.8958053476504219,double,-0.915377
86,0.358333,walk,0.12770043206912543,0.32093134901585013,0.05208833413346677,-0.5527078089726705,0.07724250919183631,0.32086444842886175,-0.0024003840614122566,-0.006240998559762475,0.012001920307249494,0.011041766682666937,-0.0036005760921716838,-0.00048007681228961336,5.191770953013851,20.8713556213052,6.397112138905064,1.2671631271587684,-1.9013116107797923,2.8809218212312735,0.058240665754941856,-0.34583506441829753,0.4032046091055588,-0.11604599999999987,-0.132672,-0.924093,0.11535200000000012,0.08310600000000001,-0.915596,0.231398,0.21577800000000003,0.008497000000000088,0.9771017954532817,0.8956568202707633,double,-0.915596
87,0.3625,walk,0.10943124550036346,0.26397888168946393,0.023038156947440734,-0.05880195562794909,-0.0663509711081709,0.22534813614999324,-0.004079673626147319,0.00023998080151613608,0.00743940484761218,0.008159347252188065,-0.003119750419976201,-0.0021598272138225686,-4.384254036180004,-13.667498758432092,-6.97148480586182,-0.40299725575595674,1.555310621857127,-1.0949161170235997,-0.6917253252889101,0.1153889302124995,-0.40310784774009234,-0.11651900000000004,-0.13377100000000008,-0.924158,0.11492999999999998,0.08199299999999998,-0.915701,0.23144900000000002,0.21576400000000007,0.008457000000000048,0.9858533403856782,0.9004325331899852,double,-0.915701
88,0.366667,walk,0.10583153347730029,0.23158147348211813,0.01823854091671812,-0.10771839850658187,-0.04620566264384706,0.10747023581476907,-0.041756659467217454,-0.0038396928245512016,0.011999040076793692,0.008879289656842928,-0.010799136069105207,-0.0009599232061436286,-0.8638617765930261,-7.774755989283789,-1.1518157021172495,-9.041753261595835,-0.9790433467884104,1.0942249170101936,0.17277235532873947,-1.842905123381077,0.28795392552890103,-0.11713399999999985,-0.13475199999999998,-0.924184,0.11452600000000013,0.08098300000000003,-0.915781,0.23165999999999998,0.215735,0.00840300000000005,0.92730698463912,0.8926137863840345,double,-0.915781
89,0.370833,walk,0.12097935669708583,0.2321171387421842,0.008401344215076146,-0.08244088177466301,0.009914688861814779,0.18356221733261469,0.007681228996647139,0.005760921747458705,0.0036005760921745985,0.01032165146423793,-0.00600096015363724,-0.0024003840614497322,3.636059342243286,0.12858023525349738,-2.3613050171968233,11.8669919500395,2.304516219877556,-2.0159539089340104,0.3462222293314935,1.1517464991521755,-0.34576592782191606,-0.11760599999999988,-0.135695,-0.9242039999999999,0.11406500000000008,0.07999100000000003,-0.9158259999999999,0.23167099999999996,0.21568600000000004,0.008377999999999997,0.9829092579906535,0.8959229110354048,double,-0.9158259999999999
90,0.375,walk,0.11423086153111248,0.12766978641710847,-0.030237580993510964,0.6146001429120656,-0.13363106162862448,0.03552949516520254,-0.006719462443037961,0.003119750419976201,0.010079193664506986,0.007919366450671927,-0.002879769618433422,-0.0021598272138234013,-1.6195092790912866,-25.065359329271978,-9.272600242041596,-3.4558894743664945,-0.6338304121628314,1.5547438378527536,-0.5765022830731982,0.7490258063844097,0.05772902510831109,-0.11811000000000016,-0.13621400000000006,-0.924036,0.11362199999999989,0.07944699999999993,-0.915709,0.23173200000000005,0.215661,0.008326999999999973,0.9791517278138653,0.9022315047113261,double,-0.915709
91,0.379167,walk,0.10991120710339573,0.22222222222221927,0.027837772978163103,0.003833546878234165,0.08269684877947865,0.11673159747452383,-0.005759539236866844,0.0064794816414685385,0.010799136069114508,0.007439404847639656,-0.004079673626094032,-0.0004799616030714044,-1.0366341319214705,22.690769331680187,13.936969995602208,0.23036314042983505,0.8062709914788473,0.17277235531738094,-0.11518157020212971,-0.28795392552450616,0.4031354957408223,-0.11859200000000003,-0.13711300000000004,-0.924107,0.11319500000000016,0.07850400000000002,-0.9158270000000001,0.2317870000000002,0.21561700000000006,0.008279999999999954,0.9769193855751444,0.9030363881212223,double,-0.9158270000000001
92,0.383333,walk,0.14594335093618904,0.18915026404224924,0.007921267402772374,-0.1557569780218771,-0.10045243672178045,0.06944359413635091,-0.0072011521843433676,0.005520883341333468,0.00984157465194457,0.009601536245755623,-0.007441190590495253,-0.0031204992798845687,8.649098375610485,-7.938540129613538,-4.780726254294459,-0.3460424741902358,-0.23010040809771232,-0.22985151636340317,0.5189945746797806,-0.8068931743641906,-0.6338304553080082,-0.11923000000000017,-0.13787800000000006,-0.924099,0.11262699999999981,0.077685,-0.9158729999999999,0.23185699999999998,0.21556300000000006,0.008226000000000067,0.9776894807271644,0.8968368947390324,double,-0.9158729999999999
93,0.3875,walk,0.15526757859367343,0.18742500599949957,-0.01511879049674196,-0.4079271287446126,-0.16908725847054315,0.0046327391081712735,-0.006959443244500718,0.00911927045835906,0.01319894408447302,0.008879289656842928,-0.005039596832265082,-0.0014398848092158593,2.237635626946081,-0.41402880795528174,-5.529171562158425,0.058005505121825625,0.8635438245801689,0.8057042074702241,-0.17332531531382053,0.5763363950636315,0.4033152077438677,-0.11990599999999985,-0.138621,-0.923981,0.11201700000000003,0.07688300000000003,-0.9158160000000001,0.23192299999999988,0.21550400000000003,0.008164999999999978,0.9708544329218178,0.9011653339261014,double,-0.9158160000000001
94,0.391667,walk,0.12550995920327673,0.231821454283664,0.018718502519777278,-0.13730497170712694,-0.10378954619808319,0.09991613721153315,-0.017278617710600533,0.019198464122889478,0.013438924886009314,0.010319174466046434,-0.006959443244527454,-0.0021598272138225686,-7.141257353107,10.654295244579956,8.12030069990867,-2.4764037595632047,2.4188129744493585,0.05759078510590258,0.34554471063199305,-0.46072628084050465,-0.17277235531718585,-0.12050099999999997,-0.13950699999999994,-0.9240029999999999,0.111537,0.07588800000000007,-0.9159029999999999,0.23203799999999997,0.215395,0.008099999999999996,0.9514734792796891,0.8979455688532958,double,-0.9159029999999999
95,0.395833,walk,0.13082093134901998,0.22299567930867906,0.018722995679314076,-0.176092789753473,-0.07722992842914536,0.15537930015733808,-0.0040806529044488055,0.012962073931828721,0.019683149303888304,0.00984157465193416,-0.0038406144983235695,0.0,1.2748372889446098,-2.1185249579896612,0.0010785308537681734,3.1680184364262405,-1.4969731615604303,1.498853676879257,-0.11464229815465055,0.7486386812779362,0.5184414819545288,-0.12106299999999992,-0.1403819999999999,-0.923999,0.11103299999999994,0.07494300000000009,-0.9159809999999999,0.23209599999999986,0.215325,0.00801800000000008,0.9601358746887234,0.9022126379543538,double,-0.9159809999999999
96,0.4,walk,0.14830813534917273,0.29589632829374374,0.04343652507799024,-0.5026976103046177,0.010438945347843601,0.3509186223750614,-0.007919366450725109,0.016558675305971972,0.022798176145908056,0.010079193664530164,-0.005279577633807858,-0.001679865610751142,4.196593232578021,17.494756175921317,5.930772593874725,-0.9212175537020096,0.8631152805719279,0.7475466383536666,0.057024001102952235,-0.345323526634096,-0.40313549574061175,-0.1217140000000001,-0.14154599999999995,-0.9240849999999999,0.11045700000000003,0.07368799999999998,-0.916169,0.23217100000000013,0.21523399999999993,0.007915999999999923,0.9512186588366763,0.9016707223960452,double,-0.916169
97,0.404167,walk,0.14566834653228405,0.20566354691624708,0.0023998080153745066,-0.29170591106531846,-0.1905898091870143,0.06366242367342853,-0.002159827213805084,0.0215982721382107,0.025917926565874987,0.009359251259875318,-0.005519558435324065,-0.002399808015358687,-0.6334986361623919,-21.654135199783337,-9.848024253087587,1.3821788425534094,1.2094064872183246,0.7486802063755574,-0.1727723553287376,-0.05759078510108182,-0.17277235531738647,-0.12233000000000005,-0.14231300000000002,-0.923987,0.1098889999999999,0.07280799999999998,-0.916189,0.23221899999999995,0.215121,0.007797999999999972,0.9436555945194647,0.9034742466693095,double,-0.916189
98,0.408333,walk,0.12650024003839266,0.13370139222276267,-0.007921267402799024,0.7808574935793624,-0.38176721961502336,0.19250916745709662,-0.013682189150257729,0.026884301488238335,0.03624579932789246,0.008641382621254681,-0.005040806529029698,-0.0007201152184348364,-4.601081731610988,-17.273680915382705,-2.4774544930805384,-2.765809394251713,1.2688500600162336,2.4790861166628573,-0.17231604383596658,0.11491884452577215,0.4031907817868098,-0.12291399999999997,-0.14275800000000005,-0.9238029999999999,0.1093980000000001,0.07223000000000002,-0.916159,0.23231200000000007,0.21498800000000007,0.007643999999999984,0.9214060022193564,0.9068432593888431,double,-0.916159
99,0.4125,walk,0.13702903767701044,0.2325413966882657,0.01631869450445606,-0.15075115805539369,-0.49975516056288316,0.36313131559296014,-0.015118790496742161,0.024718022558213544,0.054955603551716185,0.010319174465993149,-0.005279577633807929,-0.004079673626109851,2.5267092965245586,23.719703495441227,5.817125487702237,-0.34475674261685635,-0.5198653539776344,4.489993814212583,0.4026378317106978,-0.05730048110828706,-0.8062295194804497,-0.12354799999999999,-0.14362399999999997,-0.9236420000000001,0.1088699999999998,0.07123899999999994,-0.9162440000000001,0.2324179999999998,0.21486299999999992,0.007398000000000016,0.8964561710218253,0.9055394510607838,double,-0.9162440000000001
100,0.416667,walk,0.1463882889368838,0.2015838732901237,0.01583873290137029,0.020611411956092323,0.21057946181754084,0.1569989419731264,-0.006719462443037872,0.04199664026876023,0.04967602591792633,0.007919366450725109,-0.005519558435323991,-0.0007199424046083459,2.246040619120059,-7.429211278651732,-0.11518157021496668,2.015677478690719,4.146536527608965,-1.2669972723277692,-0.5759078510362423,-0.0575907851010465,0.8062709914810366,-0.12418600000000013,-0.144289,-0.923501,0.10829299999999997,0.070376,-0.916313,0.2324790000000001,0.214665,0.007187999999999972,0.8910074350091111,0.9119868554274317,double,-0.916313
101,0.420833,walk,0.13730196831493435,0.21171387421988688,0.005760921747458705,-0.08342245797151905,-0.0024393342086782193,0.22033834811986772,-0.006961113778218132,0.054248679788780445,0.05808929428708569,0.011281805088792172,-0.004560729716752576,-0.003360537686029792,-2.1810659198150355,2.4315892774275505,-2.4190617268150687,-0.05800560133947671,2.940960038410995,2.019507529803013,0.8071144114419253,0.23015571737191898,-0.6338442826263668,-0.1247870000000002,-0.144945,-0.923283,0.10776799999999986,0.06947499999999995,-0.9163509999999999,0.23255500000000007,0.21441999999999994,0.006932000000000049,0.8670239947017322,0.9096395234560994,double,-0.9163509999999999
102,0.425,walk,0.10703143748498896,0.23038156947443397,0.026397888168959712,0.17985206135809909,0.04605287678065036,0.36461855493930956,-0.025917926565874154,0.04799616030717041,0.05063594912407063,0.010799136069131993,-0.00599952003838298,-0.0016798656107511643,-7.264346251486817,4.479888470013726,4.9524757431008215,-4.549271127347283,-1.5004846368154716,-1.7886597463439171,-0.11583129821458658,-0.34528205462692885,0.4033290317443334,-0.12534100000000015,-0.14570499999999997,-0.9231820000000001,0.10736699999999999,0.06849000000000005,-0.9164680000000001,0.23270800000000014,0.21419500000000002,0.006713999999999998,0.8759550970033531,0.9120809019952494,double,-0.9164680000000001
103,0.429167,walk,0.15358771298295393,0.20278377729781094,-0.031197504199655026,-0.23203204337443648,-0.15980268558278385,0.1368335661842508,-0.02591792656587381,0.0568754499640127,0.07439404847612123,0.008879289656842928,-0.005519558435323991,-0.00431965442764508,11.172612310526665,-6.622940287166504,-13.8217884253934,8.242746538118674e-14,2.1308590489182193,5.701487725474063,-0.46072628084690437,0.11518157020853984,-0.6334986361636419,-0.12608900000000012,-0.14631299999999992,-0.9227420000000001,0.10676400000000008,0.06762200000000007,-0.9163560000000001,0.2328530000000002,0.213935,0.006386000000000003,0.8380583937996441,0.917286270299329,double,-0.9163560000000001
104,0.433333,walk,0.13922227556409614,0.21939510321653402,-0.018242918867036953,0.004539452651769142,-0.04359588524969109,0.2865716618509139,0.009841574651987458,0.05376860297647667,0.06313010081613038,0.008641382621201382,-0.0031204992798945625,-0.0007201152184348364,-3.448256701598123,3.9873561974851337,3.109598015510817,8.583653676874999,-0.7457625990244903,-2.703780043204715,-0.057106825646074375,0.5758663359168091,0.8640276546351995,-0.12662799999999996,-0.147003,-0.922403,0.10621999999999998,0.06669499999999995,-0.916283,0.23284799999999994,0.21369799999999994,0.006120000000000014,0.8608225664172269,0.9234404594171675,double,-0.916283
105,0.4375,walk,0.13006959443245633,0.2128629709623173,-0.022558195344355172,-0.020180641859027414,-0.04910538855876675,0.2799305236186061,0.0031197504199229147,0.06119510439165027,0.09263258939284891,0.007679385649155792,-0.005279577633781285,-0.0016798656107511643,-2.196467754173232,-1.567586334105295,-1.0355835078757485,-1.6131087669941397,1.7822177622206963,7.0800308559440115,-0.23086080442658868,-0.5181373539445008,-0.2303216684224462,-0.1271570000000002,-0.14763499999999996,-0.921923,0.10570999999999997,0.06578600000000001,-0.916196,0.23286700000000016,0.21342099999999997,0.005727000000000038,0.8148921465903689,0.9269477268562893,double,-0.916196
106,0.441667,walk,0.11231101511877024,0.2534197264218747,0.000959923206144474,0.14869423269892448,0.08475924659833846,0.5729260210949103,0.0011999040076872533,0.055915526757842345,0.09311255099592156,0.0064794816414685385,-0.0033597312215189806,-0.0014398848092158783,-4.261718097836859,9.732842682879205,5.643896940364718,-0.4607262808340946,-1.2669972723321223,0.11518157021181931,-0.2879539255309,0.46072628084048844,0.0575907851056605,-0.12762000000000007,-0.14845799999999998,-0.921539,0.10526900000000006,0.064716,-0.9162060000000001,0.23288900000000012,0.21317399999999997,0.005332999999999921,0.8189695156487393,0.9342709919206338,double,-0.9162060000000001
107,0.445833,walk,0.13514162265964733,0.20619299087855342,-0.02232357177148576,-0.03785981436758524,-0.023420654958052973,0.3700511414269723,0.0026404224675907915,0.04776764282286608,0.09865578492558759,0.006721075372039597,-0.0040806529044488055,-0.002160345655304509,5.4802226454337655,-11.336230327249464,-5.588933023915079,0.34577975513767095,-1.955805073206015,1.3305890373658256,0.05799177402089735,-0.173048891725834,-0.17293827318498087,-0.12817200000000017,-0.14911799999999997,-0.921035,0.10473399999999988,0.06384000000000001,-0.916122,0.23290600000000006,0.21295799999999998,0.004913000000000056,0.8172609371646125,0.9372795953341237,double,-0.916122
108,0.45,walk,0.13198944084469025,0.19534437245019803,-0.028557715382764418,0.038201305369268745,0.02610578285956891,0.22940741423362776,0.013198944084506324,0.053995680345552674,0.10655147588192862,0.006479481641468453,-0.004079673626120621,-0.0009599232061436286,-0.7564631185402098,-2.6034601459935924,-1.4960747807244084,2.533842480661256,1.494609436689836,1.8948142443822824,-0.05797785710850553,0.0002350079981243551,0.2880783415312866,-0.12866699999999986,-0.14970700000000003,-0.9204720000000001,0.10421100000000005,0.06300899999999998,-0.916007,0.23287799999999992,0.21271600000000002,0.004465000000000052,0.799701870581055,0.9424886807528798,double,-0.916007
109,0.454167,walk,0.14734821214305685,0.16294696424285793,-0.038636909047295095,-0.09812034065531915,-0.04078855272182321,0.09535626813711319,-0.005519558435350708,0.05471562275018173,0.11927045836333183,0.001919846412288948,-0.0026397888168906425,0.0009599232061436414,3.6858102467882623,-7.774755989282527,-2.4188129744494202,-4.4920812382666515,0.17277235532254806,3.0523116106079398,-1.0942249170097265,0.3455447106383458,0.4607262808464797,-0.12930400000000009,-0.150158,-0.919814,0.10360499999999995,0.06231900000000001,-0.9158419999999999,0.23290900000000003,0.21247700000000003,0.003972000000000087,0.7811030992525583,0.954609474890509,double,-0.9158419999999999
110,0.458333,walk,0.12361977916467663,0.2112337974075831,-0.022563610177610997,0.01625074881781971,0.07432022586093635,0.3812626537602303,0.0067210753720928955,0.060489678348542915,0.13514162265962568,0.0007201152184290069,-0.0038406144983235695,0.0028804608737393457,-5.69573523244844,11.590694470649339,3.858209042170928,2.9382222293431575,1.3859951028231356,3.809688981347535,-0.2879815635765579,-0.28824428262912294,0.4610028006710761,-0.129791,-0.15078599999999998,-0.919157,0.10309299999999988,0.061423000000000005,-0.9157360000000001,0.23288399999999987,0.21220899999999998,0.0034209999999998963,0.7529764281606117,0.9576992061065113,double,-0.9157360000000001
111,0.4625,walk,0.10823134149267477,0.23590112790978154,-0.014158867290624141,0.07145533381557348,0.1482612700249211,0.4490957287296349,-0.006479481641468453,0.06383489320854006,0.14878809695224246,0.007439404847639557,-0.0031197504199495167,-0.0040796736261097975,-3.6929296069118656,5.919685745667926,2.0169769347220523,-3.1678802528344727,0.8027873434118367,3.2748918388808925,1.612500510969642,0.17299353932662523,-1.6702986560712958,-0.13026899999999997,-0.15150300000000005,-0.918478,0.10267300000000001,0.06042700000000001,-0.915694,0.23294199999999998,0.21193000000000006,0.0027840000000000087,0.7299445783837564,0.9570933587698008,double,-0.915694
112,0.466667,walk,0.13798896088312826,0.19126469882407995,-0.02687784977201863,-0.1277247610936189,0.029989605721813754,0.28000341470678414,-0.004799616030749013,0.07607391408687629,0.1612670986321101,0.011759059275249823,-0.009119270458385825,-0.009119270458363344,7.141257353120628,-10.711886029686069,-3.052311610605846,0.4031354957330091,2.9371300403974794,2.9947208255022133,1.0366341318959182,-1.4397696276545096,-1.2094064872218804,-0.1308640000000001,-0.15198299999999998,-0.917694,0.10214699999999999,0.05959199999999998,-0.91562,0.23301100000000008,0.21157499999999996,0.0020740000000000203,0.7027096732347,0.9501721224932673,double,-0.91562
113,0.470833,walk,0.11425828132499294,0.18506961113780043,-0.010081613058086044,-0.0009818476055318633,0.11015001195321687,0.3753957237927247,0.011761881901095944,0.09193470955353383,0.1555448871819488,0.007441190590468603,-0.005280844935181583,-0.0038406144983194053,-5.696274497872133,-1.487058974142947,4.031741890046225,3.975395566933496,3.807200064008049,-1.3735505161212909,-1.0364543170382183,0.9213695446961687,1.2670801632366622,-0.13129100000000005,-0.15237100000000003,-0.917004,0.10170199999999996,0.058798999999999935,-0.915594,0.232993,0.21116999999999997,0.0014100000000000223,0.6982249521811121,0.9694000875122006,double,-0.915594
114,0.475,walk,0.1221502279817844,0.18550515958721311,-0.018478521718261143,-0.034755177937082084,0.20408719576900095,0.3548620406456269,-0.023518118550499647,0.09287257019439127,0.1737461003119766,0.003119750419976201,-0.0047996160307223696,-0.0019198464122872829,1.8939156843752125,0.10452326599776435,-2.0150968706923797,-8.466522786560066,0.22506854832192,4.367941715869424,-1.0370626759041102,0.11548569821435474,0.46094746485052396,-0.13189800000000007,-0.15275699999999992,-0.916203,0.10120599999999991,0.058006,-0.915525,0.23310399999999998,0.21076299999999992,0.0006779999999999564,0.6693183657273336,0.9831570085389746,double,-0.915525
115,0.479167,walk,0.1523878089752667,0.11783057355411938,-0.03407727381811505,-0.19989217817237043,0.03290640114383192,-0.024082614682112483,-0.0026397888168906074,0.10655147588192862,0.18982481401487736,0.0026397888168906074,-0.0021598272138050553,-0.0014398848092150266,7.256438923321826,-16.240601399830386,-3.7434010318823594,5.010398304201795,3.282674751028857,3.858582602087986,-0.11518157021492442,0.6334986361692571,0.11518157021172369,-0.132544,-0.15280399999999994,-0.9152699999999999,0.10058199999999995,0.05750600000000006,-0.9153889999999999,0.23312599999999994,0.21031,0.00011899999999998023,0.6359753058002944,0.993829594184271,double,-0.9152699999999999
116,0.483333,walk,0.130100816130591,0.17522803648583962,-0.029284685549677242,-0.11015258569868437,-0.019385869750111473,0.3060623085035583,0.010561689870363166,0.11185789726355404,0.21051368218914995,0.0028804608737693265,-0.0026404224675907915,-0.003600576092175015,-5.349734240200595,13.77759551889587,1.1504052492649561,3.1688619028453586,1.2737449307790238,4.966122941496058,0.05777053693680243,-0.11536131871957174,-0.518648891733074,-0.1330420000000001,-0.15306799999999998,-0.914271,0.10005200000000003,0.056765000000000065,-0.915282,0.23309400000000013,0.20983300000000005,0.0010110000000000952,0.592189146265633,0.9911442056244049,double,-0.914271
117,0.4875,walk,0.08327333813291989,0.24166066714662487,0.0026397888168906425,-0.10482225177876715,0.10191106803952804,0.6394483300715055,-0.01199904007676596,0.12263018958484331,0.2325413966882657,0.002879769618406779,-0.004079673626120675,-0.0009599232061436414,-11.237695703784826,15.942555954112223,7.661260947100567,-5.414142055946545,2.5851433456417894,5.28622858150129,-0.0001658880159701618,-0.34539264663544317,0.6337059961678398,-0.13343899999999986,-0.15356399999999992,-0.9133129999999999,0.09971700000000006,0.05574100000000004,-0.915297,0.23315599999999992,0.20930499999999996,0.001984000000000097,0.5415458898818417,0.9915248299734433,double,-0.9133129999999999
118,0.491667,walk,0.11495080393571264,0.16174706023519517,-0.03191744660425671,-0.07022138131342494,0.06190531510566934,0.3522672955220053,-0.003839692824577845,0.12718982481399457,0.2435805135589139,-0.00023998080151613289,-0.00455963522917953,-0.002879769618430053,7.601983633979484,-19.177731440227767,-8.293073055230883,1.9580866935896455,1.0942249170029337,2.64917611486636,-0.7486802063649839,-0.11518157020850757,-0.4607262808462676,-0.133934,-0.15370800000000007,-0.912165,0.09923700000000002,0.055047999999999986,-0.915176,0.23317100000000002,0.20875600000000005,0.003010999999999986,0.5118644628576736,0.9910029422612624,double,-0.912165
119,0.495833,walk,0.10969755160824037,0.17042726836293517,-0.010081613058086044,-0.02662565621398607,0.00819622181738231,0.4010978920031613,-0.01848295727318884,0.14090254440710603,0.26020163226116116,0.0007201152184290069,-0.005520883341333468,-0.001920307249160119,-1.2609823157638664,2.083583323989439,5.241438681269958,-3.5149458590040767,3.291579355043555,3.9897068416339985,0.23045991837377316,-0.2307364647513053,0.23030781787564414,-0.13446800000000003,-0.15383100000000005,-0.911039,0.09878300000000007,0.054315,-0.915142,0.2332510000000001,0.20814600000000005,0.004102999999999968,0.4648376623466038,0.9901841541475582,single,-0.911039
120,0.5,walk,0.12455003599710562,0.1646268298536041,-0.026397888168959712,-0.11131461457412695,0.0736565940391212,0.2566134687665039,-0.008879289656789758,0.16918646508281035,0.2831773458123367,0.0009599232061178308,-0.005279577633807929,-0.0033597312215023285,3.564311108439007,-1.391993882728846,-3.915592779187368,2.3046958522676113,6.787597954332728,5.513730153869856,0.05754931310027005,0.05790873710716129,-0.3454341186326417,-0.1350239999999998,-0.15381199999999995,-0.909749,0.09826800000000002,0.05360699999999996,-0.915046,0.23329199999999983,0.2074189999999999,0.005296999999999996,0.44703,0.9894481193838115,single,-0.909749
121,0.504167,walk,0.17590592752581932,0.10919126469881923,-0.06455483561314175,-0.39765440052462525,0.030654961250611294,-0.14405619611828285,-0.025437964962841543,0.19366450683945188,0.29925605951523687,-0.0019198464122889224,-0.0028797696184067402,-0.002399808015358655,12.324428012650182,-13.303471359439513,-9.156934831817074,-3.973764172318612,5.87426008078746,3.8585826020878393,-0.6910894212639144,0.5759078510681953,0.23036314042324602,-0.13586300000000007,-0.15345999999999993,-0.9082330000000001,0.09752699999999992,0.053140000000000076,-0.914787,0.23339,0.2066,0.006553999999999949,0.43446,0.9929805900429086,single,-0.9082330000000001
122,0.508333,walk,0.11041766682666937,0.16610657705233448,-0.01464234277486527,-0.11022605946933813,-0.0730693102461387,0.3357674228086648,-0.023043686989888117,0.20691310609695576,0.29020643302928406,-0.0028804608737160275,-0.005520883341333468,-0.0024003840614497322,-15.719697719431085,13.66186086258166,11.980915227622766,0.5747186684957812,3.180172649424837,-2.172257917895536,-0.23058436424078357,-0.6339687284989741,-0.0001382731855681942,-0.13641899999999985,-0.15329000000000004,-0.906963,0.09705500000000011,0.052425000000000055,-0.914736,0.23347399999999996,0.2057150000000001,0.00777300000000003,0.42227000000000003,0.9888770693115423,single,-0.906963
123,0.5125,walk,0.1051115910727547,0.15766738660907875,-0.02519798416124615,-0.0639907233161284,-0.013763945421419744,0.3489960506494766,-0.029517638588936308,0.227741780657573,0.32301415886729673,-0.0011999040076872693,-0.003839692824577947,-0.0023998080153587193,-1.2733563124345513,-2.025243686886461,-2.5331512806290095,-1.553624093844088,4.998482015986953,7.873224343175736,0.4033013837362107,0.4034534477455131,0.00013824000264289025,-0.1369800000000001,-0.15299799999999997,-0.905512,0.09661199999999992,0.05175200000000002,-0.914641,0.23359200000000002,0.20475,0.009129000000000054,0.40871,0.9921929360467303,single,-0.905512
124,0.516667,walk,0.058795296376248335,0.23422126229900875,0.025437964962788256,0.05075874750435182,-0.017882590342737842,0.7085476747324088,-0.023998080153584886,0.228461723062142,0.3148548116150694,-0.008159347252241243,-0.005039596832265082,0.002399808015358655,-11.115021525439406,18.371460448747158,12.15165565731558,1.3245880574397362,0.1727723553081318,-1.9580866935990573,-1.6701327680714952,-0.2879539255308677,1.1518157021159918,-0.13732499999999992,-0.153022,-0.9043059999999999,0.096333,0.050754999999999995,-0.914737,0.23365799999999992,0.20377699999999999,0.010431000000000079,0.39569,0.9835234541843891,single,-0.9043059999999999
125,0.520833,walk,0.11209793566970593,0.16706673067691535,-0.01944311089774308,-0.06496090886168235,0.1712103691888361,0.17269242921299638,-0.030004800768106247,0.23307729236679176,0.31781084973595725,-0.005040806529003048,-0.0040806529044488055,-0.003360537686029792,12.794680579322504,-16.11966673598016,-10.773181915634014,-1.4418436424679204,1.1079138993398367,0.70956267904173,0.7485695447043188,0.23018337201542863,-1.3827042010053872,-0.13791699999999985,-0.15274699999999997,-0.902901,0.09584500000000018,0.05004200000000003,-0.91467,0.23376200000000003,0.202789,0.01176900000000003,0.38231,0.9878259529087656,single,-0.902901
126,0.525,walk,0.10991120710344755,0.17182625389967204,-0.008399328053757375,-0.09081434509928306,0.23732557650525066,0.2631308155740197,-0.03695704343652179,0.2531797456203285,0.32613390928725433,-0.003359731221545579,-0.005039596832265082,-0.00215982721382254,-0.5247728740720796,1.1421941979257628,2.650295858887838,-1.6684047680382752,4.824202844621218,1.9973745023510971,0.4034257997258114,-0.23012813242531055,0.2881474615328156,-0.1385289999999999,-0.152408,-0.901507,0.09537299999999993,0.04930500000000004,-0.914644,0.23390199999999983,0.20171300000000003,0.013137000000000065,0.36863,0.9892826485824813,single,-0.901507
127,0.529167,walk,0.08543316534677711,0.17830573554116716,-0.01607871370288642,0.01363822321061866,0.07160792695484487,0.37327571244735563,-0.04031677465806737,0.27669786417088116,0.34053275737940625,-0.0028797696184067402,-0.005279577633781215,-0.002879769618430886,-5.874260080794397,1.554951197862987,-1.8429051233810865,-0.8062709914916133,5.643896940377359,3.455447106347926,0.11518157022770224,-0.057590785101063365,-0.1727723553175763,-0.1390530000000001,-0.15199799999999997,-0.9000210000000001,0.095005,0.04854000000000003,-0.9145890000000001,0.2340580000000001,0.200538,0.014568000000000025,0.35432,0.9888869338537594,single,-0.9000210000000001
128,0.533333,walk,0.1063370139222234,0.136581853096509,-0.0434469515122399,-0.21657471156001976,0.06163896405505464,0.02046883340096631,-0.045127220355223194,0.2902064330292693,0.36053768602977493,-0.0026404224675908618,-0.005520883341333616,-0.003120499279884652,5.017726494346335,-10.01533424019665,-6.569428182754246,-1.1546917179923062,3.2425753380673275,4.801951188278732,0.05745250859718787,-0.057922637434567284,-0.05778436424718493,-0.13968399999999992,-0.1513580000000001,-0.8983380000000001,0.09455100000000005,0.04794799999999999,-0.914421,0.23423499999999997,0.1993060000000001,0.01608299999999996,0.33916999999999997,0.9885508977266368,single,-0.8983380000000001
129,0.5375,walk,0.04895608351334088,0.2359011279097549,0.02831773458122164,0.10528138934348534,0.21330982088049857,0.6176243132823155,-0.05567554595632546,0.3285337173026288,0.3710103191744629,-0.004079673626093978,-0.005519558435323991,-0.0031197504199661683,-13.770321672397909,23.834719177644622,17.222146890679383,-2.531395632613916,9.197812400614165,2.5132308962533987,-0.34539264662901487,0.0003179520061493997,0.00017971200347581103,-0.14012000000000002,-0.150972,-0.89691,0.09433000000000002,0.04694200000000004,-0.914552,0.23445000000000005,0.19791400000000003,0.017642000000000047,0.32358000000000003,0.9874343827914687,single,-0.89691
130,0.541667,walk,0.07967362610991036,0.1905447564194757,0.0011999040076872372,-0.14677304997552193,0.41514033492648195,0.1619261214605162,-0.04679625629948254,0.34101271898248015,0.36069114470841995,-0.002879769618460027,-0.005039596832265082,-0.004319654427645913,7.371620493537135,-10.884658384996122,-6.507758716950851,2.1308590489183725,2.994720825498257,-2.4764037595495294,0.2879539255181045,0.11518157020852068,-0.2879539255290941,-0.14064699999999997,-0.15034499999999995,-0.8954120000000001,0.0939859999999999,0.04612700000000003,-0.914575,0.23463299999999987,0.19647199999999998,0.01916299999999993,0.30837000000000003,0.9879411139655044,single,-0.8954120000000001
131,0.545833,walk,-0.0014402304368580138,0.23523763802207878,0.06769083053288628,0.03370246673440133,-1.1163020773065169,0.459042214750727,-0.048247719635169856,0.365578492558795,0.3588574171867504,-0.004800768122877812,-0.0031204992798945625,-0.0004800768122904462,-19.470440841759075,10.728008065915276,15.960376026211952,-0.34840694567626435,5.8967291349771545,-0.44016503160574816,-0.46111341920734117,0.4606571177077576,0.9216460910598808,-0.14084200000000013,-0.149802,-0.8941990000000001,0.09397199999999994,0.04513400000000001,-0.9148590000000001,0.23481400000000008,0.194936,0.02066000000000001,0.2934,0.9904235003972164,single,-0.8941990000000001
132,0.55,walk,0.042956563474904695,0.20638348932087267,0.01967842572592149,-0.12892051141701988,0.14686656696486977,0.1937178530092223,-0.057595392368614384,0.38540916726661484,0.3474922006239469,-0.0004799616030855522,-0.006479481641468453,0.0007199424046075133,10.654378188567884,-6.924441732950779,-11.522055389240323,-2.2432619950670643,4.758981211379817,-2.727433780370385,1.0369106119011824,-0.8060912794753694,0.2879815735296257,-0.14126100000000008,-0.14905600000000008,-0.892833,0.09379099999999996,0.044246999999999925,-0.9149379999999999,0.23505200000000004,0.193303,0.02210499999999993,0.27895000000000003,0.9891050008224319,single,-0.892833
133,0.554167,walk,0.049916006719460025,0.20038396928244182,0.016078713702913493,-0.1790595920341894,0.17235228036620964,0.025456209412964108,-0.0664746820254058,0.40820734341255,0.3352531797456273,0.000479961603085565,-0.009119270458359302,0.004799616030718271,1.6701327680718652,-1.439769627653219,-0.8638617765798091,-2.130859048906067,5.471124585057737,-2.9371300403935354,0.23036314042983813,-0.633498636162923,0.9790433467988565,-0.14174599999999993,-0.14818999999999993,-0.891503,0.09358500000000003,0.043374000000000024,-0.914985,0.23533099999999996,0.19156399999999996,0.023482000000000003,0.26518,0.9828060273096557,single,-0.891503
134,0.558333,walk,0.04104656745077319,0.19611137782046736,0.013442150744132493,-0.10210971859738996,0.1871456887127633,-0.01749784142714516,-0.06240998559773135,0.42534805568890893,0.32333173307729235,-0.000480076812303771,-0.0038406144983235695,0.0,-2.1290060654553122,-1.02558604464101,-0.6328763703266916,0.9756832519621799,4.114429255006943,-2.8616050572095384,-0.23044609106801134,1.2670801632346926,-1.1520921821215238,-0.142177,-0.147235,-0.890212,0.09341200000000005,0.04254099999999994,-0.9150410000000001,0.23558900000000005,0.18977599999999994,0.0248290000000001,0.25171,0.9935491616672187,single,-0.890212
135,0.5625,walk,0.038876889848810714,0.19318454523636633,0.006239500839925676,0.004378715175327668,0.09843548886175328,-0.15940625440991346,-0.07703383729301974,0.4588432925365995,0.3177345812334986,-0.00023998080151613289,-0.0026397888168906074,-0.003119750419967001,-0.5206809699933905,-0.7023836294938837,-1.7284976971938475,-3.5094436513770764,8.038213786342768,-1.34320898579162,0.05761843311438355,0.2881751095351459,-0.7486802063755644,-0.14266,-0.14612799999999992,-0.888914,0.09324900000000014,0.04172500000000001,-0.91508,0.23590900000000015,0.18785299999999994,0.026166000000000023,0.23834,0.9931770569917534,single,-0.888914
136,0.566667,walk,0.02783777297816273,0.20398368130549818,0.014398848092140275,-0.17674029926814452,0.18409693540706862,-0.17384516965493213,-0.06839452843769295,0.484041276697845,0.31821454283657086,-0.00023998080156941934,-0.0031197504199495167,-0.0014398848092150266,-2.6491761148663064,2.591585329765244,1.958086693596001,2.0732682638173094,6.047032436103991,0.11518157021171786,-1.2787724907242645e-11,-0.11518157020852068,0.40313549574081153,-0.14306099999999988,-0.144961,-0.887648,0.09313199999999999,0.040862000000000065,-0.915146,0.23619299999999988,0.18582300000000007,0.027498000000000022,0.22502,0.9942593792119219,single,-0.887648
137,0.570833,walk,0.021843494959208638,0.22083533365339203,0.017762842054733184,-0.24469054727274706,0.1690697596254919,0.039185989378263654,-0.09169467114740859,0.5132021123379673,0.31012962073931843,0.0007201152184290069,-0.0016802688430365487,-0.0012001920307244498,-1.438856941659647,4.0450437704978,0.8074877490621475,-5.592929118990789,6.999720508910769,-1.940691814030825,0.23045991838656396,0.34553086339725564,0.05753547251334053,-0.14353400000000005,-0.14374300000000007,-0.8864299999999999,0.0930439999999999,0.03993499999999994,-0.915225,0.23657799999999995,0.183678,0.028795000000000015,0.21205000000000002,0.9963552434072633,single,-0.8864299999999999
138,0.575,walk,0.010559155267562712,0.2056635469162498,0.0019198464122889736,-0.11067145257030538,0.20756903143789115,-0.14144203449026224,-0.10223182145429459,0.5752339812815308,0.309095272378215,0.0011999040076872693,-0.0011999040076606262,-0.0011999040076797758,-2.7080248840043533,-3.6409375419108514,-3.802014793003243,-2.5287137765505636,14.886457629845134,-0.2482237487649299,0.11514009821412804,0.11527833822316576,6.9120001121673e-05,-0.14400400000000002,-0.14220299999999997,-0.88515,0.093005,0.039073000000000024,-0.915238,0.23700900000000003,0.181276,0.030088000000000004,0.19912000000000002,0.9965361754908331,single,-0.88515
139,0.579167,walk,0.003599712023061712,0.21574274058074785,0.016078713702913066,0.013903748444486013,0.18223553466799808,-0.10931833937541655,-0.11375089992797212,0.6484281257499308,0.3136549076073896,0.0026397888168906074,-0.0009599232061444612,-0.0007199424046075133,-1.6701327680587825,2.418812974441559,3.3978563212440567,-2.7643576850677807,17.565189457259287,1.094224917008542,0.3455447106319479,0.05759078510107107,0.11518157021172518,-0.14449299999999998,-0.14039999999999997,-0.8839100000000001,0.09300099999999989,0.03817000000000004,-0.915308,0.23749399999999987,0.17857,0.031397999999999926,0.18602000000000002,0.9951671682371088,single,-0.8839100000000001
140,0.583333,walk,0.018242918867010304,0.23667786845896344,0.014642342774838621,-0.4844662384507195,0.4856109696935681,-0.15272674357269797,-0.13802208353336337,0.6963514162265793,0.30220835333653273,0.001440230436911313,-0.0007201152184290069,-0.0014402304368696728,3.514932031672727,5.025234728328268,-0.34478418820797974,-5.826016227890359,11.503430263237737,-2.7476126430285364,-0.28794008160808776,0.05756312715205333,-0.1728967912295149,-0.14514399999999994,-0.13848500000000008,-0.882712,0.0929310000000001,0.03718100000000002,-0.915375,0.23807500000000004,0.1756660000000001,0.032663,0.17337000000000002,0.9963994239077828,single,-0.882712
141,0.5875,walk,0.011999040076819087,0.25197984161266795,0.004319654427636754,-0.42232588408427224,0.48767187311739907,-0.1517751894673312,-0.14422846172307874,0.7595392368610656,0.2882169426445864,0.0033597312214922927,-0.0016798656107727896,0.000959923206142796,-1.4984110367629397,3.672179782506456,-2.477247023566544,-1.4894116126026684,15.163863843169157,-3.3576699524708924,0.46064333683248504,-0.23032166842903176,0.5759907950593833,-0.14579500000000012,-0.13637,-0.881529,0.09289499999999995,0.036123999999999934,-0.915389,0.23869000000000007,0.17249399999999993,0.03386,0.1614,0.9935383191659044,single,-0.881529
142,0.591667,walk,-0.012718982481420772,0.248620110391149,0.02687784977201827,-0.37581417119381505,0.5761693222436319,-0.18456916930919753,-0.2023038156947254,0.8696904247660027,0.32109431245500086,0.0028797696184067402,-0.0016798656107461464,-0.000959923206142796,-5.931850865908247,-0.8062709914852223,5.413533799947527,-13.936969995595442,26.434170363555605,7.889937559494648,-0.11518157021491453,6.393852696582333e-12,-0.46072628084607087,-0.14658499999999997,-0.13378199999999996,-0.880303,0.09295999999999993,0.03508100000000003,-0.915505,0.2395449999999999,0.16886299999999999,0.03520200000000007,0.14798000000000006,0.9942177296637438,single,-0.880303
143,0.595833,walk,0.04128660585695282,0.2352376380221117,0.008641382621228261,-0.9306856895794893,0.8562822208589413,-0.49419288035971465,-0.16202592414786335,0.8660585693711351,0.25132021123380377,0.004800768122931239,-0.0007201152184290261,-0.0012001920307253145,12.963415347665624,-3.2123073377430758,-4.377452508591091,9.668240889789505,-0.8717847803330866,-16.74846404733531,0.461113419232969,0.23037695446882986,-0.057673745699117804,-0.147432,-0.131154,-0.879292,0.092808,0.03409799999999996,-0.915546,0.24024,0.16525199999999995,0.03625400000000001,0.13746000000000008,0.9916655998335242,single,-0.879292
144,0.6,walk,0.023038156947413783,0.20182385409166648,0.036237101031920106,-0.41499607698643454,0.9331424086371545,-0.7549374495819353,-0.19510439164870855,0.9464842812574796,0.24550035997120118,0.004079673626093978,0.0007199424046016851,0.0002399808015361153,-4.379277396097647,-8.018666649974794,6.62244262315614,-7.938197144431233,19.30062680257833,-1.3966525708189463,-0.17304883533411475,0.34558618263275737,0.34561383063628964,-0.14834100000000006,-0.12805100000000003,-0.87842,0.09272900000000006,0.033259999999999956,-0.9156960000000001,0.24107000000000012,0.16131099999999998,0.03727600000000009,0.12723999999999996,0.9930839067011754,single,-0.87842
145,0.604167,walk,-0.08039356851451203,0.27645788336931176,0.011759059275249667,-0.05940216815669799,0.42513147727564693,-1.3947409058069815,-0.22342212622985025,1.0304775617950532,0.2433405327573778,0.004079673626093978,0.0004799616030855522,0.0002399808015352827,-24.821628380591555,17.9107341679013,-5.874260080794397,-6.79571264246256,20.156774787034546,-0.5183170659523307,0.0,-0.057590785101063365,-1.9981114911452766e-13,-0.14893699999999988,-0.12490899999999994,-0.877455,0.09308099999999997,0.03211000000000008,-0.915744,0.24201799999999984,0.15701900000000002,0.03828900000000002,0.11710999999999999,0.9931419773620418,single,-0.877455
146,0.608333,walk,-0.0499279884781531,0.23499759961595354,0.02232357177148576,0.1959760822583813,0.5226697931887119,-0.4387975219786436,-0.20283245319256027,0.9887181949111812,0.1641862698031677,-0.004800768122877812,0.01248199711952495,0.0014402304368705057,7.3129092742100115,-9.952060430474843,2.5358887412952678,4.942312298917418,-10.023851868428233,-19.00006311910947,-2.1316470832865537,2.8809494758615912,0.288106009441964,-0.1495740000000001,-0.12176900000000002,-0.876864,0.09326900000000005,0.03118299999999996,-0.915831,0.24284300000000014,0.15295199999999998,0.038966999999999974,0.11032999999999998,0.9775821319793565,single,-0.876864
147,0.6125,walk,-0.045356371490279164,0.24118070554356275,0.026637868970475494,-0.2595234023586282,0.3990703836873996,-0.4135305370591082,-0.24478041756654453,1.0494360451163731,0.15046796256299444,0.000959923206117818,0.0011999040076872372,0.002399808015358655,1.097100309065011,1.483826716488879,1.0353484998775377,-10.066706113267085,14.571118359777172,-3.292130367212179,1.382455322533138,-2.707485747981192,0.23028019642144038,-0.1504049999999999,-0.11840100000000009,-0.876348,0.09346199999999993,0.03018299999999996,-0.915932,0.24386699999999983,0.14858400000000005,0.03958399999999995,0.10416000000000003,0.9952506431137449,single,-0.876348
148,0.616667,walk,-0.05519558435324138,0.2702183825293933,0.06335493160548285,-0.24620676292694063,0.36881014191285477,-0.22707330141252147,-0.2562994960403382,1.0770338372930484,0.11639068874490245,0.005519558435350781,0.0011999040076872693,-0.0004799616030722434,-2.36122218933583,6.968484997799639,8.811390121192238,-2.764357685095723,6.622940287179209,-8.17789148502343,1.0942249170225702,7.701556108848462e-15,-0.6910894212697272,-0.15124300000000002,-0.115039,-0.876127,0.09371499999999999,0.029062000000000032,-0.9161980000000001,0.244958,0.14410100000000003,0.04007100000000008,0.09928999999999999,0.9905519463954298,single,-0.876127
149,0.620833,walk,-0.04440710513684628,0.2779644743158885,0.07657225156023956,-0.6612639475346171,0.3151425518294986,-0.23331564360797555,-0.29380700912148655,1.1524243879020502,0.10945751320211179,0.00600096015361059,0.0007201152184290069,-0.0024003840614497322,2.5896493558317553,1.859359526283055,3.1726644154480796,-9.003243658460953,18.09662760657747,-1.6642284068148474,0.11555490116654063,-0.11516773625978448,-0.46097514603396245,-0.15228200000000003,-0.11139600000000005,-0.8759899999999999,0.09392500000000004,0.027907000000000015,-0.916527,0.24620700000000006,0.13930300000000007,0.040537000000000045,0.09462999999999999,0.9891612920594369,single,-0.8759899999999999
150,0.625,walk,-0.05543556515475605,0.2745380369570495,0.054715622750181,-0.38778829427363226,0.12611832037734974,-0.12198731917041393,-0.28893688504918974,1.1319894408447435,0.047036237101031976,0.00623950083995232,0.0014398848092033701,0.0019198464122872573,-2.6466186748043397,-0.8222791837866552,-5.245171300709957,1.1687362784489497,-4.903994974155624,-14.979907871629312,0.05724518510720612,0.17273088331518063,1.036772371907117,-0.15325500000000014,-0.107823,-0.876022,0.09418199999999999,0.026768999999999932,-0.916747,0.24743700000000013,0.13459199999999993,0.04072500000000001,0.09275000000000005,0.9888581807237686,single,-0.876022
151,0.629167,walk,-0.04967602591794256,0.2817374610031196,0.0568754499640127,-0.43469382943197854,0.5188991903522598,-0.0968467291310565,-0.3088552915766807,1.1804655627549723,0.024958003359731012,0.04631629469639698,-0.033117350611943944,-0.0206383489320851,1.382178842527824,1.7277235531725574,0.5183170659543274,-4.780035163784686,11.633338591367504,-5.298352229733812,9.617661112657634,-8.293073055230874,-5.413533799945329,-0.1543350000000001,-0.104078,-0.876155,0.09458199999999994,0.025456999999999952,-0.91707,0.24891700000000005,0.12953499999999996,0.040915000000000035,0.09085000000000004,0.8990613564722442,single,-0.876155
152,0.633333,walk,-0.07993278924625935,0.2870859337493937,0.05760921747480024,-0.351027952500088,0.2539632135724567,-0.25286981838836314,-0.31036965914546033,1.1673067690830405,-0.024963994239078215,0.005280844935181583,-0.00864138262122803,-0.015122419587134063,-7.2627852444351335,1.283838873325513,0.17613238377041285,-0.36350637752752035,-3.158615859801182,-11.983196735191836,-9.850083956124669,5.87517234534707,1.3240348883703872,-0.15529500000000018,-0.10041100000000003,-0.876499,0.09493699999999983,0.02422499999999994,-0.917373,0.250232,0.12463599999999997,0.040873999999999966,0.09126000000000001,0.9696662824655635,single,-0.876499
153,0.6375,walk,-0.051835853131749,0.29469642428606435,0.058555315574733764,-0.3571362383104269,0.4178017629193564,-0.18518647544918582,-0.34917206623470404,1.237580993520534,-0.01799856011519081,-0.0014398848092034085,0.014878809695226224,0.003599712023038495,6.742725249462655,1.8263716190714716,0.2270453803536223,-9.311832754798283,16.86446470782212,1.6715704640958817,-1.6128461109635515,5.644394604380778,4.492952150269478,-0.15653400000000017,-0.09648200000000007,-0.876818,0.09514699999999987,0.02305899999999994,-0.9176019999999999,0.25168100000000004,0.11954100000000001,0.04078399999999993,0.09216000000000002,0.9743739405173313,single,-0.876818
154,0.641667,walk,-0.06983441324694961,0.2985361171106344,0.044396448284161345,-0.34826221863799106,0.19182459024697399,-0.28365994484661394,-0.37269018478519406,1.2824574034077212,-0.025197984161267128,0.007919366450671823,0.0016798656107461464,0.00479961603071731,-4.319308882937478,0.9214525616918646,-3.397856321231656,-5.643896940362333,10.769476814779669,-1.7277235531740496,2.246040619120509,-3.1674931808207285,0.28795392552887117,-0.15779600000000005,-0.09238200000000008,-0.877108,0.09547099999999986,0.021821999999999897,-0.917767,0.2532669999999999,0.11420399999999997,0.040659,0.09340999999999999,0.9843143176137075,single,-0.877108
155,0.645833,walk,-0.07561209793568531,0.306769083053262,0.055208833413334685,-0.43692459189407784,0.4636175402331144,-0.3773994808426319,-0.3927028324531852,1.3084493518962985,-0.03864618338934261,0.005520883341360118,0.0007201152184556565,0.0007201152184348364,-1.3868662238923894,1.9762280227142626,2.595387693032485,-4.803804048965708,6.239065887800603,-3.2280843082274293,-0.5757280627248449,-0.2303769544624314,-0.9792368728474485,-0.15911699999999995,-0.08820899999999998,-0.877499,0.09580900000000003,0.020547000000000093,-0.917994,0.254926,0.10875600000000007,0.04049499999999995,0.09504999999999997,0.9906432904756086,single,-0.877499
156,0.65,walk,-0.07247420206384021,0.26589872810177595,0.022078233741295965,-0.14137706996867053,0.19446831546885324,-0.32327048391800195,-0.41852651787855877,1.3333333333333244,-0.06551475881929454,0.00767938564915569,-0.005279577633807858,0.000479961603071398,0.7530347664615008,-9.808100540313353,-7.9507078646600595,-6.197188726991446,5.9716778106613075,-6.44794226780699,0.5179991139418179,-1.4398110996552602,-0.05763225710665625,-0.1605589999999999,-0.08376100000000009,-0.877864,0.09614300000000009,0.019416999999999907,-0.918084,0.256702,0.10317799999999999,0.040220000000000034,0.09780000000000005,0.9844474665264711,single,-0.877864
157,0.654167,walk,-0.07727381809453587,0.2675785937124955,0.011519078473733534,-0.14570153017630472,0.11241866941386995,-0.4798980432758185,-0.43820494360453355,1.3657307415406668,-0.07559395248379971,0.003839692824577845,0.00455963522917953,0.0014398848092158593,-1.1518157021107809,0.4031354957330262,-2.533994544651392,-4.722444378683616,7.77475598928297,-2.418812974443268,-0.9214525616937402,2.3612221893418077,0.23036314042343506,-0.16206300000000007,-0.07918500000000006,-0.8782270000000001,0.09648100000000004,0.01832099999999992,-0.918126,0.2585440000000001,0.09750599999999998,0.03989899999999991,0.10100999999999999,0.9897792717869109,single,-0.8782270000000001
158,0.658333,walk,-0.058569371099409344,0.2724435909745623,0.034805568891011635,-0.42694848132880964,0.5213089794597922,-0.5264946357982815,-0.4603936629860571,1.397503600576127,-0.09865578492559104,0.005760921747485507,-0.003840614498297022,-0.0108017282765245,4.489785644533609,1.1677861886862508,5.589652044474005,-5.326144834739351,7.6267064415413,-5.535725502110401,0.46116872849441,-2.0163825558033532,-2.9384572937447615,-0.1637369999999998,-0.07449800000000006,-0.878783,0.0967490000000002,0.01717000000000002,-0.918316,0.260486,0.09166800000000008,0.03953300000000004,0.10467000000000004,0.9786162137703813,single,-0.878783
159,0.6625,walk,-0.07295416366687248,0.277657787376999,0.046556275497966405,-0.5525781685716374,0.1727244792638657,-0.31522678108693053,-0.4797216222702349,1.4079673626109963,-0.11855051595872274,0.007919366450671823,-0.0023998080153744745,-0.0007199424046075133,-3.452074050267104,1.2513070320222366,2.8199439901499117,-4.638339161069751,2.5111020002086004,-4.774353499671595,0.5179852899415166,0.3457658946298384,2.4194350544557017,-0.16543200000000002,-0.06978799999999996,-0.879471,0.097086,0.01600299999999999,-0.918513,0.26251800000000003,0.08579099999999995,0.03904200000000002,0.10958000000000007,0.9861562528598815,single,-0.879471
160,0.666667,walk,-0.06911447084234792,0.28053755699543237,0.0395968322534124,-0.6098694528041665,0.28010073685903336,-0.5071458331974223,-0.5027597792176487,1.4281257499399767,-0.13246940244780242,0.004799616030695663,0.003359731221518936,-0.0014398848092158593,0.9214525616809509,0.6910894212703071,-1.6701327680715026,-5.528715370149656,4.837625948879335,-3.340265536136208,-0.7486802063777627,1.3821788425470043,-0.17277235531757631,-0.16723899999999992,-0.06500600000000001,-0.880188,0.09739399999999998,0.014848000000000083,-0.918684,0.2646329999999999,0.07985400000000009,0.038495999999999975,0.11503999999999998,0.9899449603312056,single,-0.880188
161,0.670833,walk,-0.05832933269322925,0.27292366778685884,0.04896783485357221,-0.7817294253290392,0.4183849958521096,-0.4982342486126783,-0.5151224195871291,1.4563130100816226,-0.14450312049927938,0.01848295727318884,-0.004560729716779226,0.004560729716755075,2.588847371367899,-1.8276258301904769,2.2494005281228517,-2.9675084900337056,6.766024997994705,-2.8885545010746405,3.284527422585974,-1.9012148195626875,1.440377946704496,-0.1691419999999999,-0.06007600000000002,-0.8809939999999999,0.09771400000000008,0.013691999999999926,-0.9188689999999999,0.266856,0.07376799999999994,0.03787499999999999,0.12124999999999997,0.9673733144044918,single,-0.8809939999999999
162,0.675,walk,-0.0904727621790422,0.40052795776338346,0.22366210703144632,-2.395344134583635,0.9167580933264622,-0.7141322764212004,-0.5836333093352463,1.4598032157427174,-0.12910967122630182,0.0019198464122889224,-0.011039116870647982,0.01055915526757825,-7.713805972117279,30.622579787982637,41.92327146097259,-16.441298235689136,0.837582352074583,3.694132294930992,-3.974828620326324,-1.5546885418451422,1.4395069716398199,-0.17119699999999982,-0.0556620000000001,-0.882464,0.09809900000000016,0.011976999999999904,-0.919757,0.269296,0.067639,0.03729300000000002,0.12707000000000002,0.9743396289379351,single,-0.882464
163,0.679167,walk,-0.07439404847607783,0.27213822894168227,0.012718982481394468,-0.49518776396451486,0.09109197623210791,-0.5054726165417897,-0.5560355171586677,1.4859611231102001,-0.1742260619150495,-0.03407727381811596,0.04175665946724521,-0.009119270458363466,3.858582602103352,-30.81107003160634,-50.622300108004765,6.622940287156003,6.277395576549841,-10.827067599891658,-8.638617765876067,12.669972723276745,-4.7224443786758075,-0.17320400000000014,-0.05060399999999998,-0.883243,0.09826699999999988,0.011016999999999944,-0.919848,0.271471,0.061620999999999926,0.036605,0.13395,0.9088950499205707,single,-0.883243
164,0.683333,walk,-0.06385021603458936,0.25900144023042254,0.015122419587142392,-0.4937199568606837,0.03840430136162353,-0.38261275862598293,-0.5760921747479492,1.5110417666826537,-0.1807489198271731,-0.00024003840612523588,0.012241958713399715,0.003600576092175015,2.530924733914658,-3.1533338241141906,0.5769172121334427,-4.814368120326793,6.020317708222161,-1.5657364167363388,8.122236056646832,-7.084661726799201,3.0532516924000173,-0.175338,-0.045387999999999984,-0.884059,0.09853200000000006,0.009989000000000026,-0.919896,0.27387000000000006,0.05537700000000001,0.03583700000000001,0.1416300000000001,0.978728780543985,single,-0.884059
165,0.6875,walk,-0.22174226061913074,0.4398848092152797,0.059275257979360535,-0.39079695580371304,-0.9430836111133147,0.8155063293145122,-0.589392848572113,1.5315574754019559,-0.19006479481641347,0.005279577633781215,-0.0002399808015427761,-0.0019198464122872573,-37.8910594155364,43.40853587349552,10.595833547448478,-3.1919063652900856,4.923376222534686,-2.2356311469259214,1.3246018814270237,-2.9954258495182136,-1.3247954174375403,-0.17687000000000008,-0.04083900000000007,-0.885098,0.09947799999999996,0.008154999999999912,-0.920151,0.27634800000000004,0.04899399999999998,0.035053,0.14947,0.990628450112915,single,-0.885098
166,0.691667,walk,-0.08639308855294822,0.2841372690184674,0.014878809695225826,-0.4458388302601007,0.1346980513031263,-0.4862282784330786,-0.5994720422365899,1.5505159587233024,-0.18790496760259012,0.005519558435297348,-0.0021598272138050553,-0.0002399808015361153,32.481202799659584,-37.37641953367198,-10.654295244572683,-2.41881297443647,4.549672023361264,0.5183170659523241,0.057590785101063365,-0.4607262808404763,0.40313549574061175,-0.17900799999999983,-0.03556199999999998,-0.885943,0.09986099999999998,0.006962000000000024,-0.920214,0.2788689999999998,0.042524000000000006,0.03427099999999994,0.15729000000000004,0.9901134252505873,single,-0.885943
167,0.695833,walk,-0.13058089294284145,0.31925108017281356,0.010801728276515052,-0.3741790651452847,0.16072263181928503,-0.46747099945982606,-0.6267402784445845,1.5674507921267211,-0.19539126260201506,0.004560729716752576,-0.0031204992798945625,-0.0007201152184348364,-10.606770136796253,8.428663263165173,-0.9786561254706604,-6.5454239577519315,4.065010418487449,-1.7969983195931183,-0.23015571736552348,-0.2305981915721331,-0.11525070016771982,-0.1810750000000001,-0.030362,-0.886802,0.10042399999999985,0.005619000000000041,-0.920262,0.28149899999999994,0.03598100000000004,0.033460000000000045,0.1654,0.9907119645013189,single,-0.886802
168,0.7,walk,-0.13006959443245805,0.3170146388289037,0.013918886489081737,-0.39820255058550424,0.09061142349623977,-0.25160721510279477,-0.6340292776578074,1.5965922726182258,-0.194864410847136,0.0059995200384363465,-0.0002399808015427825,-0.002639788816894841,0.12270182634590959,-0.5367029862994771,0.7480581263659093,-1.749219873583643,6.9933958462935495,0.12643430642646528,0.3452820546397403,0.6912691332737785,-0.4606848088457022,-0.1831750000000001,-0.025029999999999997,-0.887672,0.10099100000000005,0.004296999999999995,-0.920331,0.28416600000000014,0.029326999999999992,0.032658999999999994,0.17340999999999995,0.9890683542366272,single,-0.887672
169,0.704167,walk,-0.1187904967602372,0.30669546436284895,-0.020158387329007044,-0.1922804717907077,0.1374401186689882,-0.23778811605151662,-0.6081113510919167,1.646028317734583,-0.21910247180225512,0.005759539236866767,-0.0021598272138050553,0.0004799616030722306,2.706766899980985,-2.476403759552354,-8.177891485022444,6.219804791430394,11.863701731787078,-5.816669295684892,-0.05759078511388958,-0.4607262808404747,0.7486802063755814,-0.1852140000000002,-0.01944899999999994,-0.888501,0.10150999999999999,0.003010000000000068,-0.920245,0.2867240000000002,0.022459000000000007,0.031743999999999994,0.18256000000000006,0.9897168545458919,single,-0.888501
170,0.708333,walk,-0.20955352856459986,0.3091694671147542,-0.2465194431108976,2.012486746462562,-1.1648379198010352,-0.7609519858187406,-0.6865098415746185,1.598175708113283,-0.18698991838694223,0.00384061449827027,-0.0014402304368846632,0.0009601536245800595,-21.786613491205614,0.5938556773656346,-54.335347043180604,-18.81864869964035,-11.486464143374905,7.708246139057335,-0.46061563576488124,0.17273086339903782,0.11526452748627665,-0.18720099999999995,-0.014079000000000064,-0.888253,0.1023989999999999,0.0017159999999999398,-0.919214,0.28959999999999986,0.015795000000000003,0.030961000000000016,0.19039000000000006,0.9929789051149713,single,-0.888253
171,0.7125,walk,-0.12718982481399457,0.2680585553155544,-0.03983681305495518,0.17848692278498415,0.18231906779255277,-0.34999918066738034,-0.6539476841852814,1.620590352771768,-0.20134389248859924,0.002639788816943894,-0.004079673626093978,-0.004319654427645913,19.765707643533634,-9.865829565442638,49.59986322436785,7.814292630030441,5.3790843912850494,-3.4446782101408444,-0.28817510950956726,-0.6334156921548583,-1.2670525683287575,-0.18939600000000012,-0.008442999999999978,-0.888926,0.10294000000000003,0.0005820000000000825,-0.919066,0.29233600000000015,0.00902500000000006,0.030140000000000056,0.19860000000000005,0.9891638931412167,single,-0.888926
172,0.716667,walk,-0.1583873290137029,0.34533237341014356,-0.007919366450698465,-0.3673914960217925,0.3247832119630375,-0.2676738539221572,-0.6796256299495859,1.691864650827921,-0.20206383489320592,0.0059995200383829005,-0.0014398848092300135,-0.0014398848092150266,-7.486802063764839,18.54423280407693,7.659574419068028,-6.162214006312525,17.10446317642246,-0.17277235531717716,0.8062709914660381,0.6334986361564541,0.6910894212697059,-0.19156799999999996,-0.0028320000000000567,-0.8897349999999999,0.10362500000000008,-0.0008630000000000582,-0.9190389999999999,0.29519300000000004,0.0019689999999999985,0.029303999999999997,0.20696000000000003,0.9894405417307229,single,-0.8897349999999999
173,0.720833,walk,-0.16442630820932896,0.30796927508400296,-0.0672107537205843,0.2771134897686633,-0.019514663195009534,-0.14977333345538482,-0.70211233797411,1.6385021603456975,-0.19275084013442773,0.009361497839630637,0.007921267402799236,0.00696111377820416,-1.4495869408608324,-8.968578570845311,-14.232210098388713,-5.397673553654515,-12.809047163280075,2.235476418333759,0.8070037929063428,2.247036056656143,2.016562310950409,-0.19380799999999998,0.002711000000000019,-0.890258,0.10434900000000003,-0.0021129999999999205,-0.91873,0.298157,0.0048239999999999394,0.028472000000000053,0.21528000000000003,0.9764981546764017,single,-0.890258
174,0.725,walk,-0.15454763618907175,0.3186945044396414,-0.021358291336694278,-0.1963368218403845,0.20027209417968309,-0.31019520689008184,-0.7127429805615297,1.6565874730021455,-0.19318454523637799,0.0,-0.012958963282936905,0.0002399808015361153,2.370691629531352,2.5738491374222185,11.003710675279498,-2.551150128970402,4.340127827321294,-0.10408089799622197,-2.2465797551309254,-5.010854496216938,-1.6129428789700009,-0.19613400000000003,0.008286000000000016,-0.890974,0.10499299999999989,-0.003494999999999915,-0.91864,0.3011269999999999,0.01178099999999993,0.02766599999999997,0.22333999999999998,0.9783980247717938,single,-0.890974
175,0.729167,walk,-0.14950803935685997,0.33309335253180833,-0.016318694504429198,-0.3450300391131324,0.35277743522597566,-0.2522817850529514,-0.7290616750660123,1.6793856491480696,-0.18358531317494503,0.006479481641468453,-0.007919366450698465,0.005519558435324824,1.2094064872118409,3.4554471063515226,1.209406487224632,-3.9161733872048017,5.4711245850549535,2.3036314042315533,1.5549511978565882,1.2094064872182388,1.2669972723274943,-0.1985490000000001,0.01389600000000002,-0.891671,0.10564299999999993,-0.0049160000000000315,-0.9185490000000001,0.304192,0.01881200000000005,0.02687800000000007,0.23121999999999998,0.9806232117209834,single,-0.891671
176,0.733333,walk,-0.159145463274143,0.31493038886221286,-0.0448871819491234,-0.049552170255736674,0.0972217987119012,-0.3230680124595435,-0.7225156024963886,1.6910705712913976,-0.18626980316850655,0.01032165146423793,0.006240998559762475,-0.012001920307248662,-2.313351876448158,-4.359808850118928,-6.857534192197356,1.5713088261218653,2.8048300872126593,-0.6443806993666638,0.9222683203959373,3.39903144754223,-4.205827830670541,-0.20089599999999996,0.019629000000000008,-0.8922599999999999,0.10634900000000003,-0.006202000000000041,-0.918412,0.307245,0.02583100000000005,0.026152000000000064,0.23848000000000003,0.9716405687334829,single,-0.8922599999999999
177,0.7375,walk,-0.1567074634029301,0.33981281497479293,-0.03743700503960734,-0.22436326710989574,-0.028388446250324474,-0.2683128193959075,-0.7391408687304891,1.695464362850956,-0.17182625389968703,0.003839692824577845,-0.004319654427636754,-0.001199904007679744,0.5850731632380334,5.971304562654159,1.787899426329735,-3.9897447166067717,1.054425620244397,3.4661745305542144,-1.5555456298680193,-2.5343539686583028,2.5922765297741384,-0.20332299999999992,0.025278000000000023,-0.89282,0.10701800000000006,-0.007635999999999976,-0.918261,0.310341,0.032914,0.025441000000000047,0.24558999999999997,0.9901620879319731,single,-0.89282
178,0.741667,walk,-0.17590592752577072,0.3218142548596261,-0.03527717782574994,-0.27579164843274556,-0.25306037660601405,-0.2760891345499372,-0.7197024238061029,1.7278617710583444,-0.17302615790737055,0.009119270458359302,-0.010559155267589354,-0.0045596352291813165,-4.607262808457161,-4.319308882929484,0.5183170659605091,4.664853593565287,7.774755989294207,-0.28795392553000837,1.2669972723257878,-1.497360412755632,-0.8062709914810743,-0.20558900000000002,0.03113699999999997,-0.893394,0.10778899999999991,-0.009021000000000057,-0.9181330000000001,0.31337799999999993,0.04015800000000003,0.024739000000000066,0.25261,0.9755364711888994,single,-0.893394
179,0.745833,walk,-0.1785885741718861,0.3305328852616324,-0.04608737397985618,-0.12720701343356206,0.031243228935250285,-0.522603411571699,-0.7530004800767987,1.7093134901584346,-0.14594335093615074,0.0031204992798945625,0.0038406144983235695,0.007201152184349197,-0.6439382251837169,2.0928061454647766,-2.5948622549462876,-7.992812354943755,-4.452299783943777,6.50091381930384,-1.4399354725071376,3.4564977834644535,2.823040665753842,-0.2079819999999999,0.03688100000000005,-0.89381,0.10854600000000003,-0.010382000000000002,-0.9179109999999999,0.3165279999999999,0.047263000000000055,0.024100999999999928,0.25899000000000005,0.9854374502134648,single,-0.89381
180,0.75,walk,-0.18886489080870295,0.3666906647468378,-0.016558675305971972,-0.4544014167528813,0.16324269595185925,-0.45146090722371,-0.7748980081593769,1.711543076553869,-0.13390928725701745,0.0023998080153744745,0.0002399808015427761,-0.000479961603071398,-2.4661187033397596,8.677172902617029,7.086320776070071,-5.254986340911474,0.5350579302698468,2.8879442474521713,-0.17295206731943424,-0.8640829605905366,-1.8433198433934572,-0.21042400000000017,0.042484999999999995,-0.894299,0.10934299999999997,-0.011909000000000058,-0.917844,0.31976700000000013,0.05439400000000005,0.023545000000000038,0.26455,0.9959015475697841,single,-0.894299
181,0.754167,walk,-0.17254619630432702,0.32325413966882094,-0.06719462443003235,-0.0818947610099048,-0.2006622222577151,-0.3364740329373434,-0.7045836333092885,1.7549796016318329,-0.16126709863210795,0.004079673626093978,-0.005519558435323991,-0.006239500839933169,3.9161733871792177,-10.423932104155638,-12.151655657321813,16.874100036018206,10.423932104142903,-6.565349502061504,0.40313549573301904,-1.3821788425406105,-1.3821788425394115,-0.21264099999999986,0.04845099999999991,-0.894691,0.11007900000000004,-0.01327900000000004,-0.91759,0.3227199999999999,0.06172999999999995,0.022899000000000003,0.27101,0.9845403183024781,single,-0.894691
