frame_id,timestamp,gait_type,root_linear_velocity_x,root_linear_velocity_y,root_linear_velocity_z,root_angular_velocity_x,root_angular_velocity_y,root_angular_velocity_z,left_linear_velocity_x,left_linear_velocity_y,left_linear_velocity_z,right_linear_velocity_x,right_linear_velocity_y,right_linear_velocity_z,root_acceleration_x,root_acceleration_y,root_acceleration_z,left_acceleration_x,left_acceleration_y,left_acceleration_z,right_acceleration_x,right_acceleration_y,right_acceleration_z,left_pos_rel_x,left_pos_rel_y,left_pos_rel_z,right_pos_rel_x,right_pos_rel_y,right_pos_rel_z,step_length,step_width,step_height,left_contact_prob,right_contact_prob,support_type,max_foot_height
1,0.004167,stand,0.01583873290137041,0.009359251259898577,0.0,0.000860106061505157,0.07928329065411825,-0.031365858526308084,0.0007199424046016907,0.001439884809216703,-0.0007199424046075188,-0.0004799616030589127,-0.0009599232061378078,0.000959923206143636,0.0,0.0,0.0,0.0,0.0,0.0,0.0,0.0,0.0,-0.008372000000000046,0.16404000000000002,-0.92113,-0.001906999999999992,-0.12815,-0.923606,0.006465000000000054,0.29219,0.0024760000000000337,0.9723008474408671,0.9976001919846545,double,-0.92113
2,0.008333,stand,0.020163226116172103,0.008641382621221374,-0.0038406144983235717,-0.014987745832118378,0.08296997008252405,-0.017422438225187787,-0.00048007681227712167,0.0016802688430132314,0.0014402304368705066,-0.0024003840614655572,-0.0016802688430165625,-0.0007201152184348369,1.0380444586657926,-0.17231604384954466,-0.9218949827949043,-0.288050700162941,0.05770140033522046,0.5185244458660646,-0.4609751460409612,-0.1729106185498691,-0.40327374569814517,-0.008457999999999966,0.164011,-0.921108,-0.0020010000000000305,-0.128193,-0.923593,0.006456999999999935,0.292204,0.0024849999999999595,0.9713758036757714,0.9949712733677258,double,-0.921108
3,0.0125,stand,0.014158867290624247,0.009119270458362458,0.005519558435324033,0.00882635807649008,0.15696123597216852,-0.08580957369193232,0.0011999040076872464,0.0,-0.0002399808015361171,0.0007199424046283338,-0.0009599232061444684,0.0,-1.440930843663992,0.11468390620136396,2.246261803131174,0.4031631437399491,-0.4032322637420761,-0.40321843974241023,0.7488184463868228,0.17286912331943702,0.17281382731817538,-0.008511999999999964,0.16397299999999998,-0.9211320000000001,-0.0020569999999999755,-0.128235,-0.923616,0.0064549999999999885,0.292208,0.0024839999999999307,0.973120555350122,0.9980001599871791,double,-0.9211320000000001
4,0.016667,stand,0.01463882889368316,0.008639308855290224,-0.0007199424046016905,-0.013786975291457972,0.08592183347804373,-0.047225182994504705,0.00023998080151613468,-0.0016798656107494894,-0.0004799616030722342,-0.00047996160308555583,0.0004799616030722342,0.0002399808015361171,0.11518157020852238,-0.11518157021171915,-1.4973604127491533,-0.23036314042983239,-0.4031354957402182,-0.057590785105859625,-0.2879539255372905,0.34554471063515774,0.057590785105859625,-0.008572000000000024,0.16393000000000002,-0.921131,-0.0021200000000000108,-0.128269,-0.9236120000000001,0.006452000000000013,0.292199,0.0024810000000000665,0.9722508474408718,0.9988000959923047,double,-0.921131
5,0.020833,stand,0.015602496399419526,0.007201152184350036,-0.0024003840614655577,-0.02827483475866855,0.09148940487427104,-0.039058626136938696,-0.059529524723935426,0.019443110897743098,-0.043446951512241275,-0.0014402304368580148,-0.00048007681229044656,0.0009601536245792276,0.2313172121306687,-0.34521283507925793,-0.40337053693323743,-14.34697684240316,5.070325614136483,-10.313727774644514,-0.2305014003294429,-0.23044609106161326,0.1728691365922013,-0.00888499999999992,0.163981,-0.921302,-0.002190999999999943,-0.128301,-0.923598,0.006693999999999978,0.292282,0.0022960000000000758,0.850007234421952,0.9970061950818102,double,-0.921302
6,0.025,stand,0.015358771298311494,0.007919366450685203,-0.0035997120230350957,0.009493204813309553,0.02059885119157977,-0.018600249069307597,0.04199664026876054,-0.016558675305975427,0.027357811375089875,-0.00047996160308555583,-0.0004799616030722342,-0.0002399808015352845,-0.05848934511831817,0.1723576353096154,-0.28781568552184733,24.364330451810883,-8.639737509891653,16.99178375025945,0.23044608441863665,2.7648000530929616e-05,-0.28800922152976044,-0.00877400000000006,0.163879,-0.921173,-0.0022570000000000645,-0.128336,-0.923584,0.006516999999999995,0.292215,0.002410999999999941,0.8879134032858201,0.9988000959923051,double,-0.921173
7,0.029167,stand,0.0172786177105738,0.009359251259898584,-0.00047996160305891297,-0.05071041142110221,0.09720022464183692,-0.07306238529205247,0.01775857931365936,-0.001919846412285608,0.01943844492440552,0.0002399808015427781,0.0007199424046083519,-0.0007199424046075193,0.4607262808404868,0.34554471063436093,0.7486802063777742,-5.816669295680634,3.5130378914542426,-1.9004959084915671,0.17277235532237448,0.28795392552929855,-0.11518157021171947,-0.008772000000000002,0.163832,-0.9210900000000001,-0.0023279999999999967,-0.12837199999999999,-0.9235850000000001,0.006444000000000005,0.292204,0.002495000000000025,0.9310517017196043,0.9982565798961887,double,-0.9210900000000001
8,0.033333,stand,0.013442150744132493,0.005040806529043022,-0.0036005760921983335,-0.02648175361884099,0.07716831764893471,-0.035984390249030204,-0.06192990878540093,0.018242918867016965,-0.04680748919827103,-0.0016802688430098993,-0.0002400384061452231,0.0007201152184348364,-0.9208994158524495,-1.0365925902197692,-0.749067328165967,-19.12829767140188,4.839838041119193,-15.901568440392825,-0.46093366407889486,-0.23043226374305673,0.34566913659201987,-0.009086000000000038,0.163887,-0.9212699999999999,-0.002391000000000032,-0.128394,-0.9235669999999999,0.0066950000000000065,0.292281,0.0022969999999999935,0.8441238223992109,0.9969270500288647,double,-0.9212699999999999
9,0.0375,stand,0.011759059275249764,0.0009599232061444692,-0.001199904007660604,-0.01594881792256387,0.09944821603973308,-0.037806846511312435,0.043436525077990604,-0.01655867530597544,0.02615790736741014,-0.0011999040076872472,0.0009599232061444692,0.0007199424046075193,-0.40390963976067434,-0.9793336508035891,0.5761152110721698,25.285921253513706,-8.351714464361034,17.510294352215315,0.11527833821037974,0.287967749529564,-4.147200079605621e-05,-0.008954000000000018,0.16381400000000002,-0.9211560000000001,-0.0024450000000000305,-0.128394,-0.923559,0.006508999999999987,0.292208,0.002402999999999933,0.8870699694322381,0.9971717991313132,double,-0.9211560000000001
10,0.041667,stand,0.01295896328293699,0.003119750419966189,-0.0021598272138317128,-0.033751643006258554,0.10448098289330034,-0.027191068778945712,0.017998560115202105,-0.0026397888168939554,0.020158387329013837,0.0007199424046016899,-0.0002399808015361169,-0.0002399808015361169,0.28795392553089144,0.5183170659519362,-0.2303631404298315,-6.104623221211537,3.340265536136662,-1.4397696276449001,0.4607262808468767,-0.28795392552929805,-0.23036314042323858,-0.008932999999999969,0.16379,-0.921063,-0.0024960000000000537,-0.128408,-0.923551,0.006436999999999915,0.292198,0.0024880000000000457,0.9298652509881593,0.99867345620737,double,-0.921063
11,0.045833,stand,0.010321651464237948,-0.00024003840614522347,-0.001680268843009902,-0.003102224917614821,0.08545740620803144,-0.030504525580581036,0.0009601536245808939,-0.0012001920307261175,0.007681228996639656,0.0004800768123037718,0.0,0.00024003840614522347,-0.6330561254678456,-0.8064783548035084,0.11511242698555237,-4.089871937259057,0.34555851804316834,-2.9949971993216975,-0.05757695446421468,0.05760460910612509,0.11522304553080673,-0.00897199999999998,0.163786,-0.9210240000000001,-0.0025370000000000115,-0.128407,-0.923543,0.0064349999999999685,0.292193,0.002518999999999938,0.96175417597049,0.9991054296777278,double,-0.9210240000000001
12,0.05,stand,0.0105591552675625,-0.0009599232061411372,-0.0007199424046016899,-0.013448664860299506,0.10172092186089036,-0.017212530024414942,0.0009599232061444676,-0.0007199424046083507,-0.001199904007679752,-0.0023998080153744905,-0.0009599232061444676,0.0021598272138225543,0.05699635308964543,-0.17275853131651378,0.23045990842529668,-5.529600106222345e-05,0.11525069021304687,-2.131301416923302,-0.6911170692772401,-0.23036314042343814,0.46071245684601125,-0.009011999999999909,0.163787,-0.921026,-0.00259100000000001,-0.128407,-0.923531,0.006420999999999899,0.292194,0.0025049999999999795,0.9721217991313215,0.9943861815664086,double,-0.921026
13,0.054167,stand,0.007439404847612976,-0.0009599232061444692,-0.0033597312215189637,-0.04288525324587107,0.1198703123048457,-0.04508476557129341,-0.0033597312215189637,0.0009599232061444692,-0.005039596832253468,-0.0002399808015161349,0.0009599232061444692,-0.0009599232061436366,-0.7486802063713768,-7.996348780176873e-13,-0.6334986361692526,-1.0366341319086716,0.40313549574101776,-0.9214525616927571,0.5183170659607288,0.4607262808468774,-0.7486802063753762,-0.009056999999999982,0.163795,-0.921033,-0.002622999999999931,-0.12839899999999999,-0.9235209999999999,0.006434000000000051,0.292194,0.0024879999999999347,0.9648992717868969,0.997702358752689,double,-0.921033
14,0.058333,stand,0.01032165146423793,-0.0009601536245808924,-0.0016802688430098993,-0.012115310808408395,0.10557446747397568,-0.02016891758834948,-0.0014402304368580138,0.0007201152184356692,-0.0031204992798845687,0.0009601536245808924,0.0,0.0012001920307252827,0.6918498839714241,-5.53092742254299e-05,0.40313547251777804,0.4607539089440587,-0.05756312715045604,0.4606571177073686,0.28807835480005434,-0.23041843642450036,0.5185106185475078,-0.009105999999999947,0.163802,-0.9210389999999999,-0.002661999999999942,-0.12839499999999998,-0.923509,0.006444000000000005,0.292197,0.0024700000000000832,0.9694475680755692,0.9974383404394958,double,-0.9210389999999999
15,0.0625,stand,0.006719462443011285,-0.0038396928245745462,-0.0007199424046016911,-0.01665504954703252,0.10653271153734335,-0.04462902324003189,0.00047996160305891297,0.0002399808015361173,0.0009599232061436366,-0.0009599232061444692,0.0004799616030722346,-0.000479961603071402,-0.8644562085977078,-0.691034125268456,0.2304599084252961,0.46080922484207537,-0.11522304221251553,0.979223058802066,-0.46078157684793924,0.11518157021171944,-0.4032046157419452,-0.009132000000000029,0.163819,-0.9210320000000001,-0.002693999999999974,-0.128377,-0.923508,0.006438000000000055,0.292196,0.0024759999999999227,0.9734071163527185,0.9980405649605752,double,-0.9210320000000001
16,0.066667,stand,0.008159347252214653,-0.00383969282457454,-0.001439884809230023,0.00283376721701596,0.10300714400211473,-0.01976800192021577,-0.0011999040076872453,0.0004799616030722338,-0.0004799616030722338,-0.001439884809230023,0.0002399808015361169,-0.0007199424046083507,0.34554471063195746,1.4570511557280583e-15,-0.1727723553223737,-0.4031354957394184,0.05759078510585943,-0.34554471063495773,-0.11518157021491561,-0.05759078510585973,-0.05759078510605915,-0.00917100000000004,0.163837,-0.921028,-0.002734000000000014,-0.12835999999999997,-0.9235049999999999,0.006437000000000026,0.292197,0.0024769999999999515,0.9729323587526726,0.9972872850239256,double,-0.921028
17,0.070833,stand,0.009601536245808956,-0.003120499279884579,-0.004320691310600705,-0.029930511881242725,0.07449493211554269,-0.04981343914661495,-0.00048007681227712297,0.00048007681229044776,0.0009601536245800627,-0.00048007681227712297,-0.0007201152184356717,0.0007201152184356717,0.3461807473822147,0.17263407217713944,-0.6915042010011255,0.17278617268605956,2.7654637113287593e-05,0.3456829639107778,0.2303907817937836,-0.2304599183801707,0.34566913659242104,-0.009213000000000027,0.163852,-0.921006,-0.0027760000000000007,-0.12835,-0.923484,0.006437000000000026,0.292202,0.0024779999999999802,0.9732600946209211,0.998123533461432,double,-0.921006
18,0.075,stand,0.006719462443011273,-0.005039596832251794,-0.005039596832265116,-0.030797893714397232,0.07859288577748975,-0.029688041978357307,0.0002399808015427777,-0.0007199424046083507,0.001199904007679752,-0.0011999040076872453,0.0004799616030722338,-0.000959923206143635,-0.6916423812809406,-0.4605465688426237,-0.17252352331759307,0.1728000033165107,-0.28798157352982895,0.057535489104796965,-0.17274470732184344,0.2879953975300946,-0.4031769677416139,-0.009240000000000026,0.16387000000000002,-0.9209799999999999,-0.0028090000000000614,-0.128327,-0.9234669999999999,0.0064309999999999645,0.292197,0.002487000000000017,0.9727637573861663,0.9973169330723444,double,-0.9209799999999999
19,0.079167,stand,0.011039116870648055,-0.004319654427646774,-0.004079673626094005,-0.014782031942098641,0.044695158788822846,-0.04038094804970714,0.0016798656107461574,0.0009599232061411372,0.0,-0.0007199424046016899,0.0,0.000959923206143635,1.0366341319022745,0.17277235531677929,0.23036314042983205,0.34554471063196024,0.4031354957402175,-0.2879539255290979,0.11518157021491597,-0.11518157021171907,0.46072628084647665,-0.009279000000000037,0.16389199999999998,-0.920963,-0.002858000000000027,-0.128309,-0.923446,0.00642100000000001,0.292201,0.002483000000000013,0.9719453548722999,0.9980001599872068,double,-0.920963
20,0.083333,stand,0.0072011521843433676,-0.006721075372059584,0.002400384061438906,-0.03407917239808674,0.1491399825376824,-0.06239888206759841,-0.000480076812303771,0.0,-0.0007201152184348364,-0.0016802688430098993,-0.0002400384061452231,-0.0004800768122904462,-0.921258926141307,-0.5764332559800307,1.5554627190429442,-0.5184691365938374,-0.23041843642370055,-0.17285530927384443,-0.23051522765439478,-0.05761843642468145,-0.345655309273663,-0.00931100000000007,0.16392,-0.920976,-0.002894999999999981,-0.128282,-0.923458,0.006416000000000088,0.29220199999999996,0.0024819999999999842,0.9737375486975934,0.9970601419313768,double,-0.920976
21,0.0875,stand,0.005519558435324046,-0.008159347252218011,-0.00023998080151613527,0.006141786753445198,0.0974807855349991,-0.040867511790266126,0.0007199424046283355,-0.0002399808015327873,0.0002399808015352851,0.0004799616030589138,-0.0004799616030722354,-0.0002399808015361177,-0.40355021574737837,-0.34515763862693327,-0.6336368761591187,0.2879815735378232,-0.05759078510506068,0.2304046124238358,0.5184138339498003,-0.05757696110559463,0.05761843310639046,-0.009330999999999978,0.16395300000000002,-0.9209740000000001,-0.0029160000000000297,-0.12825,-0.923458,0.0064149999999999485,0.292203,0.0024839999999999307,0.9738334562073319,0.9988000959923342,double,-0.9209740000000001
22,0.091667,stand,0.0105591552675625,-0.009119270458365782,-0.0007199424046283331,-0.012387560065587676,0.07579136930242493,-0.01924558386858305,-0.0004799616030855554,0.0007199424046050203,0.0014398848092158688,0.0,-0.0004799616030722338,0.0007199424046083507,1.2094064872182504,-0.23036314042423073,-0.11518157022130968,-0.28795392553729054,0.23036314042183983,0.2879539255292975,-0.11518157020852252,3.772721742510151e-16,0.2303631404234383,-0.009376999999999969,0.163994,-0.9209649999999999,-0.0029599999999999627,-0.128214,-0.9234519999999999,0.006417000000000006,0.292208,0.002487000000000017,0.9723302239820759,0.9985578948582243,double,-0.9209649999999999
23,0.095833,stand,0.0038406144983235695,-0.00888142102736326,-0.0021603456552870205,-0.008106614951229477,0.07485808526349527,-0.025036581909706368,0.0007201152184290069,0.0007201152184356692,-0.0004800768122904462,-0.0014402304368580138,0.0007201152184356692,-0.0004800768122904462,-1.6127078178682013,0.05709299832033647,-0.34575210049416377,0.2880645274878928,4.148195646877563e-05,-0.460864527485913,-0.3457106185448902,0.2880645274862943,-0.2880507001677379,-0.00939000000000001,0.164034,-0.920958,-0.002981999999999929,-0.128174,-0.9234450000000001,0.00640800000000008,0.292208,0.002487000000000017,0.9732535334614296,0.9971995519283248,double,-0.920958
24,0.1,stand,0.005759539236866806,-0.009119270458362451,-0.0004799616030855554,-0.007007375928865114,0.06811795957818398,-0.026390385371472667,-0.0019198464122889352,0.0016798656107528183,-0.000959923206143635,0.0,-0.0007199424046083507,0.0002399808015361169,0.46050509684262886,-0.05707929709603816,0.4032599117354124,-0.6335401081636524,0.23032166842264176,-0.11515392221098833,0.3456276546335523,-0.34558618263595353,0.17280000331810952,-0.009422000000000041,0.164079,-0.92096,-0.003005999999999953,-0.128139,-0.923442,0.006416000000000088,0.292218,0.0024819999999999842,0.9706372367444163,0.9987351901207218,double,-0.92096
25,0.104167,stand,0.006239500839925739,-0.01127909767218754,-0.0014398848092033846,0.004088924042502109,0.06747156107474453,-0.02167842398883248,0.0002399808015427785,-0.0002399808015361177,0.0009599232061436382,-0.0011999040076872494,-0.0004799616030722354,0.001439884809215041,0.11518157020852746,-0.5183170659527464,-0.23036314041704622,0.5183170659543361,-0.460726280846878,0.46072628084647893,-0.28795392553089805,0.057590785105859355,0.28795392552890015,-0.009446999999999983,0.16412500000000002,-0.92095,-0.0030369999999999564,-0.12809399999999999,-0.92343,0.006410000000000027,0.292219,0.0024799999999999267,0.973503079478791,0.9967753548722827,double,-0.92095
26,0.108333,stand,0.0043206913106273405,-0.012722035525683498,-0.0016802688430098993,-0.013895506042401126,0.05706834275514878,-0.017990596991048595,-0.0014402304368580138,0.0002400384061452231,-0.0012001920307244498,-0.0016802688430098993,-0.0014402304368713384,-0.0009601536245800595,-0.4605879811085926,-0.3463605025194328,-0.05770140033761748,-0.40331522765261424,0.11522304553080664,-0.5185106185473083,-0.11530600943894612,-0.2305014003358383,-0.5761014003348772,-0.009471000000000007,0.16417900000000002,-0.9209480000000001,-0.003062000000000009,-0.12804700000000002,-0.923427,0.006408999999999998,0.292226,0.002478999999999898,0.9720598928332641,0.995979406456589,double,-0.9209480000000001
27,0.1125,stand,0.005039596832238472,-0.01751859851211988,-0.005279577633807893,0.03537123098851804,0.02482179607167546,0.036240576380788446,0.0009599232061444676,-0.0004799616030722338,-0.0002399808015361169,0.0004799616030589122,0.0004799616030722338,-0.0007199424046075181,0.17252352330480702,-1.1510830301023227,-0.8637650085908304,0.5759907950569905,-0.17278617931784407,0.23043226042436574,0.5184138339497983,0.460809224848469,0.057646081106921335,-0.009487999999999941,0.16425,-0.9209269999999999,-0.0030810000000000004,-0.127972,-0.923408,0.0064069999999999405,0.292222,0.0024810000000000665,0.9733571163527076,0.9983508896785888,double,-0.9209269999999999
28,0.116667,stand,0.00455963522917956,-0.013438924886009224,-0.0016798656107461574,-0.003337241070775529,0.06272911643143171,-0.006653331665159958,0.00023998080151613449,0.0007199424046083507,0.002639788816894788,-0.0016798656107461574,-0.0014398848092167015,0.001679865610751153,-0.11518157020852207,0.9790433467988129,0.8638617765926883,-0.17277235532237398,0.28795392552929766,0.691089421269715,-0.5183170659479404,-0.4607262808468763,0.5759078510579959,-0.009506000000000014,0.164309,-0.920909,-0.003106999999999971,-0.127922,-0.923394,0.0063990000000000435,0.292231,0.0024850000000000705,0.9705721569705408,0.9953700356360368,double,-0.920909
29,0.120833,stand,0.003360537686046459,-0.014402304368696777,-0.001920307249161791,0.0011992663034303198,0.030669187030672253,-0.00623138477839246,0.0,0.00048007681228711655,0.0,-0.00048007681227712297,-0.00048007681228378533,-0.0007201152184348388,-0.2878294630660356,-0.23124807553709936,-0.057715227656177204,-0.05760460910132864,-0.05757695446981152,-0.6336507001667775,0.2879953908951122,0.2303907817889867,-0.5760875730163222,-0.009520000000000084,0.164371,-0.920901,-0.003122999999999987,-0.12786399999999998,-0.923389,0.006397000000000097,0.29223499999999997,0.0024880000000000457,0.9743198719795214,0.998350493828781,double,-0.920901
30,0.125,stand,0.0023998080153478474,-0.01679865610751153,0.00455963522917956,-0.03014701629326962,0.12651580199946696,-0.005383310110645897,-0.002639788816890625,0.0,-0.0014398848092150361,-0.0007199424046283331,-0.002399808015361169,0.0004799616030714012,-0.2305566764335519,-0.5750784110426566,1.5550617898587342,-0.6334986361628564,-0.11520921821145094,-0.34554471063475756,-0.05756313711332132,-0.4606986328479439,0.28799539752969494,-0.009541000000000022,0.164441,-0.920926,-0.0031360000000000277,-0.127804,-0.923406,0.006404999999999994,0.292245,0.0024799999999999267,0.9701884152923259,0.9957482818123478,double,-0.920926
31,0.129167,stand,0.004319654427636783,-0.018238540916728233,0.005039596832265116,-0.008014542624764615,0.1565570659860449,0.01361160851720566,0.0009599232061444676,0.0007199424046083507,0.0,-0.0004799616030589122,-0.0004799616030722338,-0.0002399808015352843,0.4607262808468763,-0.34554471063515757,0.11518157021491603,0.8638617765862945,0.1727723553175786,0.34554471063475756,0.05759078511385186,0.4607262808468763,-0.17277235531717897,-0.00955499999999998,0.16452,-0.9209470000000001,-0.0031559999999999366,-0.12773,-0.923428,0.0063990000000000435,0.29225,0.0024809999999999555,0.973190159987199,0.9988000959923347,double,-0.9209470000000001
32,0.133333,stand,0.004080652904475455,-0.016322611617858515,0.0040806529044488055,0.03664328669586481,0.09083749013141539,0.01602214475238748,0.0016802688430098993,0.0014402304368713384,0.001680268843014896,0.0002400384061518855,-0.0007201152184356692,0.00048007681228961336,-0.05736954468586832,0.4598966151871618,-0.23018337201543676,0.17291061854667095,0.17289679122971366,0.4033290549723703,0.17282765463533295,-0.05764609106179434,0.17284148195508814,-0.009565000000000046,0.16459400000000002,-0.9209569999999999,-0.0031719999999999526,-0.127665,-0.923443,0.006393000000000093,0.292259,0.0024860000000000992,0.9705089242667704,0.9985030975408933,double,-0.9209569999999999
33,0.1375,stand,0.0004799616030855554,-0.02087832973362219,0.005519558435324028,0.06274621340024579,0.11850991992353678,-5.024960102648666e-05,-0.001919846412262292,0.0002399808015361169,0.0011999040076789193,0.00023998080151613449,-0.0011999040076805846,-0.0002399808015361169,-0.8640967845908079,-1.0932848849924812,0.34530970263384225,-0.8639585445817586,-0.2880368695308904,-0.1152783382135772,-1.3824006659707774e-05,-0.1151400982109227,-0.17280000331790965,-0.009575,0.164682,-0.920975,-0.0031730000000000924,-0.127583,-0.9234669999999999,0.006401999999999908,0.292265,0.0024919999999999387,0.9712855703622041,0.9979217052944982,double,-0.920975
34,0.141667,stand,0.002159827213805084,-0.018238540916725023,0.002879769618433422,0.02625994028383962,0.10204094946176087,0.011171588147326331,0.0014398848092033894,0.0011999040076772622,-0.0014398848092150459,-0.0035997120230351165,-0.0011999040076805924,0.0002399808015361185,0.4031354957330305,0.63349863616443,-0.633498636162856,0.8062709914724503,0.23036314042264236,-0.6334986361636622,-0.9214525616873706,-1.8733514859360873e-15,0.11518157021172021,-0.009577999999999975,0.164763,-0.920993,-0.0031970000000000054,-0.12751200000000001,-0.923478,0.00638099999999997,0.292275,0.0024850000000000705,0.9712107720175343,0.9936633151276919,double,-0.920993
35,0.145833,stand,0.0016802688430098993,-0.021603456553050092,0.005760921747485354,0.053613367518853754,0.10164839849623021,0.007977608541824907,0.0,-0.0007201152184323381,0.0,0.0014402304368846632,-0.0019203072491551223,-0.0014402304368696728,-0.1151124269791609,-0.8077089861558008,0.6915871649188501,-0.34562765463355455,-0.4608783548030722,0.3456276546363526,1.209779755141569,-0.17292444586522548,-0.4033152276538142,-0.009584999999999955,0.16485,-0.921017,-0.003197999999999923,-0.12743,-0.923508,0.0063870000000000315,0.29228,0.002491000000000021,0.9738898079692795,0.9953344920028372,double,-0.921017
36,0.15,stand,-0.002639788816890625,-0.022798176145907793,0.004799616030722338,0.0495729793178256,0.07834255333727679,0.03093114208210447,-0.05855531557475924,0.01703863690904432,-0.036477081833453134,-0.0009599232061444676,-0.0009599232061444676,0.0007199424046075181,-1.0367308999041325,-0.2867097655046075,-0.23069491642980905,-14.052151565816938,4.261759569828807,-8.753799336081856,-0.5759907950633858,0.230473732423963,0.518400009953729,-0.009817999999999993,0.165016,-0.921189,-0.003190999999999944,-0.12733899999999998,-0.923525,0.0066270000000000495,0.292355,0.0023360000000000047,0.8582055639785089,0.9974389551886098,double,-0.921189
37,0.154167,stand,0.0035997120230350926,-0.023278137748980028,0.0004799616030589122,0.015790253596688092,0.045525363962587974,0.037086469707490084,0.04631629469642393,-0.01295896328293699,0.023278137748980028,0.0009599232061444676,-0.0011999040076805846,-0.0004799616030714012,1.4973604127491509,-0.11518157021171947,-1.0366341319086687,25.167173091236634,-7.19884813822445,14.340105491344637,0.4607262808468763,-0.05759078510585955,-0.28795392552889804,-0.009639999999999982,0.165059,-0.921094,-0.003201999999999927,-0.127247,-0.9235289999999999,0.006438000000000055,0.292306,0.002434999999999965,0.8865962462448945,0.9973169330723521,double,-0.921094
38,0.158333,stand,0.0043206913106273405,-0.02088334133461442,-0.008641382621201382,0.009907134491620602,-0.014610936951116971,0.03802880627321588,0.0141622659625615,-0.0019203072491584534,0.016562650024003738,0.00024003840612523588,-0.0012001920307261153,0.0,0.1730627190571885,0.5748431143460411,-2.1894729294911874,-7.718201808416325,2.6497014003309,-1.6119749699895067,-0.17280000000461623,-6.91365927822233e-05,0.11520921821205013,-0.009599000000000024,0.165138,-0.9209890000000001,-0.003219000000000083,-0.127165,-0.923493,0.006379999999999941,0.292303,0.0025039999999999507,0.9384992626338073,0.9979600658050962,double,-0.9209890000000001
39,0.1625,stand,0.00527957763378125,-0.02159827213822721,-0.005519558435324028,-0.03282964075431924,0.036915278181283664,0.012362892559878113,-0.05759539236861477,0.014638828893686479,-0.0388768898488118,0.0002399808015427777,-0.0011999040076805846,-0.000959923206143635,0.23011430841226516,-0.17156966729368592,0.7491778703809338,-17.220460362653277,3.9738747643016357,-13.30442521545848,-1.3823993870454265e-05,6.912000132727194e-05,-0.23036314042323833,-0.009861000000000009,0.165289,-0.9211280000000001,-0.0032400000000000206,-0.12708000000000003,-0.923474,0.006620999999999988,0.292369,0.0023459999999999592,0.8581839329608654,0.9974079110877464,double,-0.9211280000000001
40,0.166667,stand,0.011999040076792523,-0.022318214542835557,0.0035997120230350926,-0.04294282235399794,0.23349387930376173,0.007749979499149243,0.04175665946724438,-0.011999040076792523,0.02111831053515664,0.0002399808015427777,-0.0009599232061378068,0.0002399808015352843,1.6125419829640668,-0.17277235531757795,2.1884498340194654,23.84258503380347,-6.392577146743215,14.397696276450295,0.0,0.05759078510745801,0.28795392552889804,-0.009736999999999996,0.16533199999999998,-0.9210550000000001,-0.0032889999999999864,-0.126991,-0.923488,0.006448000000000009,0.292323,0.0024329999999999075,0.8951581200538428,0.9983030794788005,double,-0.9210550000000001
41,0.170833,stand,0.00864138262122803,-0.026164186269805996,-0.004080652904475455,-0.029621153680398582,0.02019247537900907,0.04666774957396176,-0.04224675948150596,0.011761881901105938,-0.018722995679308244,0.0002400384061518855,-0.0007201152184356692,0.0,-0.80596674401452,-0.9231809234206519,-1.84358255581146,-20.164046795187296,5.703533840110044,-9.563443642454358,1.382731855683894e-05,0.0575631271488568,-0.05760460910592514,-0.009948999999999986,0.16549000000000003,-0.9211159999999999,-0.0033239999999999936,-0.12688499999999997,-0.9234709999999999,0.006624999999999992,0.292375,0.002354999999999996,0.8969781125919505,0.9987348865177708,double,-0.9211159999999999
42,0.175,stand,0.00935925125990196,-0.023998080153585205,-0.01055915526756257,-0.02594494011980256,-0.04281578496245204,0.0004739231687913218,0.04607631389488147,-0.011279097672187578,0.02303815694744406,0.0007199424046016947,-0.000479961603072237,-0.0002399808015352859,0.1722746913064396,0.5198238819824342,-1.5547161898457287,21.195841942977665,-5.529392746170782,10.021874880430175,0.1151677462082582,0.057632257106655524,-0.057590785105660486,-0.009796000000000027,0.165543,-0.920976,-0.0033600000000000296,-0.12678699999999998,-0.923428,0.006435999999999997,0.29233,0.0024520000000000097,0.8875879983734227,0.9985034567687567,double,-0.920976
43,0.179167,stand,0.005759539236840162,-0.028077753779699035,-0.0019198464122889352,-0.02009289340530354,0.07773784293303145,0.02697710215842303,-0.04391648668107609,0.01223902087832864,-0.02231821454283639,0.0002399808015427777,0.0,0.0002399808015352843,-0.8638617765927032,-0.9790433467995743,2.073268263804566,-21.596544414676618,5.643896940368658,-10.884658384996497,-0.11518157020852329,0.11518157021171983,0.11518157021131982,-0.010002999999999984,0.165711,-0.921061,-0.003382999999999914,-0.12667,-0.923419,0.00662000000000007,0.292381,0.0023579999999999712,0.8918203852312196,0.9994343598262572,double,-0.921061
44,0.183333,stand,0.011521843494970707,-0.02904464714354201,-0.008881421027379916,0.03479795212682448,0.03939220778956938,0.04700629814898696,0.0448871819491234,-0.012722035525683498,0.021123379740757977,0.0007201152184290069,0.0002400384061452231,-0.001680268843014896,1.3831743298441048,-0.23209154196902923,-1.671045274865813,21.316291077820313,-5.9916121949140955,10.427651052230999,0.11525070016472128,0.05761843642468145,-0.46093366407829545,-0.009863999999999984,0.165779,-0.920936,-0.0034279999999999866,-0.126548,-0.923389,0.006435999999999997,0.292327,0.0024530000000000385,0.8901128017921367,0.996927050028861,double,-0.920936
45,0.1875,stand,0.005519558435324028,-0.028557715382771267,-0.006479481641468495,-0.024136781447420947,0.06072959765877342,0.019596708332698082,0.012718982481394213,-0.0011999040076805846,0.017998560115191284,0.0004799616030589122,-0.0002399808015361169,0.000959923206143635,-1.4404331796608287,0.11685427424303912,0.5764193390716148,-7.71975029223162,2.765090357092129,-0.7498967183985338,-0.057632257108254,-0.11519539421198453,0.6335954041657136,-0.00983400000000001,0.165893,-0.9208339999999999,-0.0034490000000000354,-0.12643,-0.923358,0.006384999999999974,0.292323,0.0025240000000000817,0.9379738140658369,0.9981671163527186,double,-0.9208339999999999
46,0.191667,stand,0.007919366450671875,-0.030237580993520755,-0.0019198464122889352,0.010351007210444078,0.06684238227113308,0.023866679430927847,-0.060235181185505395,0.014158867290617575,-0.038396928245740404,-0.001199904007660602,0.0004799616030722338,-0.000959923206143635,0.5759078510553984,-0.40313549574021756,1.0942249170097327,-17.507598672162114,3.6858102467718132,-13.533834499863604,-0.4031354957330244,0.1727723553175786,-0.46072628084647665,-0.01011799999999996,0.166078,-0.920986,-0.003486999999999907,-0.12630199999999997,-0.923354,0.0066310000000000535,0.29238,0.0023680000000000367,0.8549496453673884,0.9973169330723775,double,-0.920986
47,0.195833,stand,0.00816130580895091,-0.03528564570331115,0.0012001920307327777,-0.0017861001160660395,0.13574030253236213,0.056645095279558286,0.0,0.0002400384061452231,-0.0002400384061452231,0.0009601536245808924,0.0,0.0002400384061452231,0.058074737945039555,-1.2117294070548226,0.7489290549740064,14.458756885622984,-3.3410535008334956,9.159119020546123,0.5184967912245542,-0.11520921821224998,0.28803687284898155,-0.01015200000000005,0.16622599999999998,-0.920992,-0.0035169999999999924,-0.126155,-0.923358,0.0066350000000000575,0.292381,0.0023659999999999792,0.9757742240508983,0.998350493828764,double,-0.920992
48,0.2,stand,0.0074394048476129635,-0.029757619390448523,-0.0038396928245778704,-0.02268052941317659,0.0563560347711887,0.013894219974698323,-0.0021598272138317128,0.0009599232061444676,0.0007199424046075181,-0.0002399808015427777,0.0,-0.0004799616030714012,-0.17324237133140058,1.3266201854721913,-1.2094756072259765,-0.5183170659543342,0.17275853131731314,0.23037696442350378,-0.28800922153195796,0.0,-0.17278617931764423,-0.01019200000000009,0.166354,-0.9209729999999999,-0.0035490000000000244,-0.126031,-0.9233439999999999,0.0066430000000000655,0.292385,0.002371000000000012,0.9721720773774016,0.9991056443574469,double,-0.9209729999999999
49,0.204167,stand,0.008159347252214707,-0.029037676985840366,-0.005759539236866844,-0.007281720270506677,0.016477560302247504,0.02147050282902012,0.0007199424046283379,-0.0002399808015361185,0.0009599232061436414,0.0004799616030589154,0.0002399808015361185,0.0011999040076789273,0.17277235531599403,0.17277235531753332,-0.46072628084688855,0.6910894212767139,-0.28795392552929994,0.05759078510586147,0.17277235531598203,0.0575907851058603,0.40313549574042185,-0.010222999999999982,0.166474,-0.9209449999999999,-0.0035810000000000564,-0.125909,-0.923315,0.006641999999999926,0.292383,0.0023700000000000943,0.9742605553501142,0.9978092850271856,double,-0.9209449999999999
50,0.208333,stand,0.0064810369659143606,-0.034805568891024034,0.0021603456553136702,-0.02407547754782987,0.12965359324581943,0.06808636162052391,0.048007681228991315,-0.013442150744119167,0.024003840614498156,-0.00048007681227712134,0.0004800768122904462,0.0,-0.4028589261402652,-1.3845155797368374,1.9010765463707413,11.350873457600322,-3.1690278306728374,5.531425206038046,-0.23044609105521746,0.05763226374323752,-0.2880230455302272,-0.010050000000000003,0.16656300000000002,-0.920854,-0.003610000000000002,-0.12576199999999998,-0.923324,0.006440000000000001,0.292325,0.0024700000000000832,0.8830802558219062,0.9988684481018124,double,-0.920854
51,0.2125,stand,0.007199424046070185,-0.03383729301655918,-0.0009599232061444676,0.013532739219395086,0.05645031538769033,0.06332926583143753,-0.04823614110871287,0.01295896328293699,-0.023278137748980028,0.0009599232061444676,0.0011999040076739237,-0.0004799616030714012,0.17239910730881305,0.23236762046192738,-0.7488046223801619,-23.096669627478782,6.3357605056530195,-11.346767065869482,0.3455723586324904,0.17274470731544922,-0.11518157021151926,-0.010280999999999985,0.16675800000000002,-0.920947,-0.0036359999999999726,-0.125616,-0.923322,0.006645000000000012,0.292374,0.002375000000000016,0.8844087762692734,0.9973169330723605,double,-0.920947
52,0.216667,stand,0.00863930885530021,-0.03839692824573874,-0.0035997120230350926,0.052181803960270876,0.03155879964654528,0.0741992876877979,0.044636429085677776,-0.01295896328293699,0.02255819534437251,-0.0016798656107461574,0.0,0.0007199424046075181,0.34554471063835435,-1.0942249170097318,-0.6334986361628564,22.287633835946856,-6.219804791426435,10.999839955208182,-0.6334986361628564,-0.28795392552769916,0.28795392552889804,-0.010131000000000001,0.166864,-0.920838,-0.003678999999999988,-0.125456,-0.923304,0.006452000000000013,0.29232,0.0024659999999999682,0.889232546004617,0.9969539344429067,double,-0.920838
53,0.220833,walk,-0.056649063850219346,-0.07345175228036498,-0.0033605376860197985,0.018960455963791048,-0.08853498030718922,0.5893835968333534,-0.04512722035527529,0.013442150744119167,-0.0213634181469032,-0.0002400384061518855,-0.0002400384061452231,-0.0014402304368696728,-15.671716924032527,-8.414504088964526,0.05741102664793422,-21.54672334156337,6.337281331506515,-10.542874097761805,0.3456138273149954,-0.05761843642468145,-0.518524445865864,-0.010083000000000064,0.16722599999999999,-0.9209130000000001,-0.0034440000000000026,-0.125151,-0.923296,0.0066390000000000615,0.292377,0.002382999999999913,0.8899926462375309,0.997533839813181,double,-0.9209130000000001
54,0.225,stand,0.0011999040076872453,-0.04007679385649156,-0.0002399808015427777,-0.01657654438876584,0.10811812845986667,0.06589510888012354,-0.0009599232061178244,-0.0004799616030722338,0.000959923206143635,0.0004799616030589122,0.0002399808015361169,0.0004799616030714012,13.882641674563605,8.00934927378771,0.7488737423750942,10.599303371528059,-3.3410396801515208,5.3571733508631665,0.17278617931624596,0.11519539421198453,0.4608092248478695,-0.01009199999999999,0.167391,-0.9209080000000001,-0.003447000000000089,-0.12498300000000001,-0.923293,0.006644999999999901,0.292374,0.0023849999999999705,0.9737501919846694,0.9988000959923351,double,-0.9209080000000001
55,0.229167,stand,0.0023998080153478474,-0.04367650587952998,0.0002399808015427777,-0.01948297831277777,0.10949451243015441,0.0663945281828521,0.04583633309333838,-0.013438924886009224,0.02495800335973118,-0.0019198464122889352,0.0,0.001679865610751153,0.2879539255245023,-0.8638617765870938,0.11518157021491598,11.230203095621828,-3.1099023957132177,5.759078510580158,-0.5759078510553983,-0.057590785105859535,0.2879539255290978,-0.009911000000000003,0.167517,-0.9208050000000001,-0.0034650000000000514,-0.12480100000000001,-0.9232870000000001,0.006445999999999952,0.292318,0.0024819999999999842,0.8853580145503894,0.9957482818123587,double,-0.9208050000000001
56,0.233333,stand,0.002400384061438906,-0.04416706673067774,0.00024003840612523588,0.004611825354229477,0.09841137311727542,0.08737253148698022,0.013202112337980607,-0.0009601536245808924,0.016562650024003738,-0.0012001920307061283,0.0,0.0002400384061452231,0.00013827318556371788,-0.11775344482663395,1.382731215990949e-05,-7.833466335899603,2.995384364241076,-2.015207233731981,0.1727446907303904,0.0,-0.3456138273177938,-0.00986599999999993,0.16769699999999998,-0.9207369999999999,-0.0034799999999999276,-0.124617,-0.923287,0.006386000000000003,0.292314,0.0025500000000000522,0.9391627737606372,0.9979600658051223,double,-0.9207369999999999
57,0.2375,stand,0.0050395968322651495,-0.04535637149027977,0.0016798656107728119,0.019207015708854875,0.10435218582900375,0.11009241565877985,-0.060475161987048574,0.014398848092153789,-0.039836813054955705,-0.000959923206144474,-0.0007199424046083555,-0.0007199424046075229,0.6333603961666088,-0.2854103094797303,0.34553088664448867,-17.681131347499306,3.6858655427729228,-13.534788355881874,0.057659905102389164,-0.1727723553175809,-0.23037696442350647,-0.010139000000000009,0.16794599999999998,-0.92091,-0.0035049999999999804,-0.12443100000000001,-0.923297,0.006634000000000029,0.292377,0.002387000000000028,0.8530723834345588,0.9976678058175948,double,-0.92091
58,0.241667,stand,-0.0007199424046016899,-0.04319654427645775,0.001199904007660602,0.010182991573188409,0.08847682850547323,0.09028903688933343,-0.0011999040076872453,0.0002399808015361169,-0.0007199424046075181,-0.0004799616030855554,-0.0007199424046016899,0.0011999040076789193,-1.382178842540637,0.5183170659520078,-0.11518157022131253,14.224923921133014,-3.3978563212425383,9.387297972245777,0.11518157020852367,1.599608000053666e-12,0.460726280846278,-0.010141000000000067,0.168127,-0.920918,-0.0035040000000000626,-0.12425399999999999,-0.9232969999999999,0.006637000000000004,0.292381,0.002378999999999909,0.9738437573861582,0.9975344316442789,double,-0.920918
59,0.245833,stand,0.006721075372066247,-0.0482477196351432,-0.0009601536245808924,0.05040081303926362,0.07903426340545384,0.1302005446622318,0.049207873259724096,-0.014162265962554836,0.025204032645222606,-0.0019203072491617847,-0.0002400384061452231,-0.0002400384061443903,1.7861300472078567,-1.2124760822576695,-0.5184967912245542,12.099802512580727,-3.457092358159132,6.22274965190353,-0.34573827318200395,0.1151953908920947,-0.3456414819547068,-0.009964000000000084,0.168269,-0.920809,-0.0035400000000000986,-0.12405399999999998,-0.923294,0.006423999999999985,0.292323,0.0024849999999999595,0.8800297861545622,0.9967498646164812,double,-0.920809
60,0.25,stand,0.00527957763378125,-0.047756179505637306,0.005039596832265116,0.025478998605813197,0.15577067348566934,0.13520127750916014,-0.04895608351331456,0.01463882889368981,-0.024718022558195062,0.0,0.0,-0.0004799616030722338,-0.34593178264578717,0.11796019426587406,1.4398249236491485,-23.557465028326988,6.911709828712411,-11.980334822034465,0.460836872849,0.057604609106125,-0.057576961105793925,-0.010190000000000032,0.16852899999999998,-0.920933,-0.003562000000000065,-0.12385499999999999,-0.923317,0.006627999999999967,0.292384,0.0023840000000000527,0.881555941132282,0.9992000639948796,double,-0.920933
61,0.254167,stand,0.0023998080153478634,-0.04463642908567474,0.0,0.04968893181226391,0.0778359350295583,0.08168990138579013,0.0016798656107461687,-0.0007199424046083555,0.0019198464122872829,-0.001919846412288948,-0.0007199424046083555,-0.0009599232061436414,-0.6910894212703151,0.7486802063745093,-1.2094064872246566,12.15165565732206,-3.6858102467718385,6.39257714674406,-0.4607262808468824,-0.1727723553175809,-0.11518157021152156,-0.010193000000000008,0.168712,-0.920925,-0.0035800000000000276,-0.12367199999999999,-0.9233210000000001,0.00661299999999998,0.292384,0.0023960000000000647,0.9716222090164084,0.9962267094104214,double,-0.920925
62,0.258333,stand,0.007681228996647139,-0.04872779644743032,-0.0007201152184290069,0.04887675746084879,0.13705371487419724,0.12601859879595953,-0.0026404224675907915,0.0012001920307261153,-0.0002400384061452231,-0.0016802688430098993,-0.0004800768122904462,0.0012001920307252827,1.2677438745317502,-0.9820853004694124,-0.1728553092724451,-1.0370350644111754,0.46090600944178334,-0.5184553092732849,0.05750781787783211,0.05757695446901324,0.518510618547509,-0.010236000000000023,0.16892000000000001,-0.920923,-0.003619000000000039,-0.123471,-0.923313,0.006616999999999984,0.292391,0.0023900000000000032,0.9712494816558773,0.9964667303303278,double,-0.920923
63,0.2625,stand,-0.0019198464122889224,-0.0475161987041042,0.0021598272138050553,0.034398666475760044,0.12037046131548465,0.09524643366144528,0.048476121910255326,-0.011999040076795774,0.025677945764338527,-0.0009599232061444612,-0.0011999040076805766,0.0,-2.3040737722428575,0.2907601975824594,0.6911308932647084,12.266989291539652,-3.1675623008211633,6.219818615426818,0.17286912331783838,-0.1727447073170446,-0.2880230455304232,-0.01002599999999998,0.169068,-0.920825,-0.003615000000000035,-0.123278,-0.923322,0.0064109999999999445,0.292346,0.0024969999999999715,0.8814400513335671,0.9974389551886093,double,-0.920825
64,0.266667,walk,0.003839692824577896,-0.05087592992560717,-0.0026397888168906425,0.04207483997382225,0.03763486268682028,0.13951004095887398,-0.04775617950565428,0.011999040076795933,-0.025197984161267464,-0.0011999040076606101,-0.001439884809216711,-0.000479961603072237,1.3821788425406412,-0.806270991481398,-1.151815702110805,-23.09390482743224,5.759078510581196,-12.209246442430114,-0.05759078510106798,-0.05759078510586412,-0.1151815702117206,-0.010241000000000056,0.16933,-0.920919,-0.0036359999999999726,-0.123072,-0.9233129999999999,0.006605000000000083,0.292402,0.002393999999999896,0.883871062824275,0.9967753548723082,double,-0.920919
65,0.270833,walk,-0.007681228996647139,-0.05352856457033145,0.0031204992798945625,0.02766394537094104,0.14438826938804653,0.1056249597053741,-0.002400384061438906,0.0007201152184323381,0.0002400384061452231,-0.0009601536245808924,-0.0009601536245808924,0.0007201152184356692,-2.7654637112878127,-0.6367341922045799,1.3826903736882383,10.88713284786734,-2.7073751460306257,6.1061023925618505,0.05754929982710455,0.11515390893802648,0.2880645274862951,-0.010218999999999978,0.16955599999999998,-0.920931,-0.0036079999999999446,-0.122853,-0.923323,0.0066110000000000335,0.29240900000000003,0.0023919999999999497,0.9718840932622599,0.9974383404394946,double,-0.920931
66,0.275,walk,0.005519558435323991,-0.0551955843532499,0.0028797696184333834,0.024803670699140433,0.19309272297691138,0.12802290733135435,0.000479961603058909,0.0014398848092166917,0.0009599232061436286,-0.0009599232061444612,-0.0007199424046083459,0.000959923206142796,3.1679355488291407,-0.40005274368093074,-0.057770497110913664,0.691227661266569,0.17273088331757813,0.17275853131711066,5.529600106339393e-05,0.057646081106922174,0.05754931310466162,-0.010240000000000027,0.169792,-0.9209390000000001,-0.003634999999999944,-0.12262600000000001,-0.923331,0.006605000000000083,0.292418,0.0023919999999999497,0.9730869135375015,0.9974389551886109,double,-0.9209390000000001
67,0.279167,stand,0.009599232061444739,-0.048236141108713194,-0.0047996160307223696,0.02318167759485209,0.09334672705314633,0.0718044659746425,-0.0004799616030589154,-0.0002399808015361185,-0.0007199424046075229,-0.0016798656107728119,-0.0016798656107461687,-0.0019198464122864502,0.9790433468012409,1.6701327680673737,-1.8429051233875202,-0.2303631404170458,-0.4031354957410175,-0.4031354957406194,-0.17277235532237936,-0.23036314042184505,-0.6910894212693215,-0.010282000000000013,0.169992,-0.920922,-0.003682000000000074,-0.12243199999999999,-0.923319,0.006599999999999939,0.292424,0.0023969999999999825,0.9745334567687605,0.9949092384363672,double,-0.920922
68,0.283333,walk,0.003120499279867913,-0.051608257321169665,-0.0064810369659143606,0.004700795134572662,0.012621236842303929,0.07035683007055583,0.0,0.0009601536245808924,0.0,-0.0021603456552870205,-0.0021603456553070076,0.0012001920307244498,-1.555144690728954,-0.8094374009737081,-0.4036056013422923,0.11520921820905307,0.28807835480485117,0.1728138273181763,-0.11533366406966114,-0.11533366408085419,0.7489290549714108,-0.010294999999999943,0.170211,-0.920895,-0.0037039999999999296,-0.122226,-0.923287,0.0065910000000000135,0.292437,0.0023919999999999497,0.9744797439590318,0.994529206940657,double,-0.920895
69,0.2875,walk,0.0035997120230617597,-0.05543556515478676,-0.004319654427663454,0.013673928679615777,0.08021403598531217,0.11344694494485402,-0.0035997120230351165,0.0002399808015361185,0.0009599232061436414,-0.002159827213831727,-0.001439884809216711,-0.0002399808015352859,0.11500185821786647,-0.9184804016359769,0.5186903139551041,-0.8638617765863059,-0.17282765131864122,0.2303631404232414,0.00012441599599075198,0.17289677131996656,-0.3456138306358877,-0.010325000000000029,0.170443,-0.9208729999999999,-0.0037280000000000646,-0.12200100000000001,-0.9232699999999999,0.006596999999999964,0.29244400000000004,0.0023969999999999825,0.9698079580889161,0.9956552353846757,double,-0.9208729999999999
70,0.291667,walk,0.0059995200383829005,-0.05399568034557266,-0.012479001679851352,-0.004134671796104482,-0.011652428182584372,0.10397155034022633,0.0007199424046016851,0.0004799616030722306,-0.0002399808015361153,-0.000479961603058909,-0.0023998080153544922,0.000479961603071398,0.5759078510489855,0.3455447106345308,-1.9580866935895935,1.0366341319022723,0.057590785105857994,-0.2879539255290971,0.40313549574581364,-0.23036314042183198,0.17277235531717744,-0.010346999999999995,0.17067,-0.920822,-0.003754999999999953,-0.12178599999999999,-0.923216,0.006592000000000042,0.292456,0.0023940000000000072,0.9745634567687563,0.9958434105889986,double,-0.920822
71,0.295833,stand,0.008401344215076146,-0.04848775804128842,0.002400384061438906,-0.05465558433389718,0.17676900551065758,0.0398237431764607,-0.0031204992798945625,0.0012001920307227842,0.0026404224675949557,-0.0024003840614655555,-0.0016802688430165617,-0.001680268843014896,0.5765300472139328,1.32211289109079,3.5716240377557003,-0.921853500839233,0.1728829639103584,0.6914074097770209,-0.4609751460409614,0.1727170360868771,-0.5185382731844196,-0.010395000000000043,0.170877,-0.920821,-0.0038000000000000256,-0.12159099999999999,-0.923233,0.0065950000000000175,0.292468,0.0024119999999999697,0.9687795681911799,0.9943706003842534,double,-0.920821
72,0.3,walk,0.013198944084479856,-0.05639548836093123,-0.011519078473707044,0.022050314971672154,-0.022029021487555447,0.09932843363180738,0.0014398848092300326,0.0002399808015361185,0.0011999040076789273,-0.0014398848092033894,-0.0007199424046083555,0.00119990400767976,1.1513318621079283,-1.8977034604374494,-3.3404037761329564,1.0944046290195877,-0.23043226042396717,-0.3456967746378778,0.23050138043248658,0.23045990842529676,0.6911861892715796,-0.010444000000000009,0.17111300000000002,-0.920768,-0.0038610000000000033,-0.121359,-0.92318,0.0065830000000000055,0.292472,0.0024119999999999697,0.972730648798473,0.9966536276036688,double,-0.920768
73,0.304167,walk,0.008639308855273508,-0.06311495080393505,0.008159347252214599,0.005194070737460808,0.199225360001939,0.12204243987254625,0.047756179505626994,-0.013918886489081366,0.0237580993520521,-0.0009599232061444612,-0.001679865610752807,0.0002399808015352827,-1.0942249170161538,-1.6125419829622667,4.722444378670864,11.115021525413153,-3.397856321242471,5.413533799945524,0.11518157020852521,-0.23036314042343276,-0.23036314042343892,-0.010280999999999985,0.171318,-0.920703,-0.0039009999999999323,-0.121103,-0.923213,0.006380000000000052,0.292421,0.002509999999999901,0.8830239457068567,0.9967506445865757,double,-0.920703
74,0.308333,walk,0.01032165146423793,-0.05472875660105423,-0.004560729716752576,-0.05793267181783498,0.15505679817204518,0.0411795019999866,-0.05016802688430499,0.015602496399426175,-0.023763802208353765,-0.0024003840614655555,-0.0021603456553003454,0.0004800768122904462,0.40382683844561235,2.0130086900818074,-3.0533070016723873,-23.505570424851637,7.086265695753125,-11.407081507538607,-0.34576592782551446,-0.11533366407766155,0.05763226374343815,-0.010533000000000015,0.171611,-0.920783,-0.003954000000000013,-0.12088399999999999,-0.923192,0.0065790000000000015,0.292495,0.0024089999999999945,0.8798054979844536,0.9945585411630775,double,-0.920783
75,0.3125,walk,0.010319174466046434,-0.06119510439165027,-0.001919846412288948,-0.0035620257792221086,0.11445851143793837,0.08779944911353324,-0.0004799616030589154,-0.0007199424046083555,0.0016798656107511643,-0.0011999040076606101,-0.0026397888168973034,0.0,-0.00059443201139813,-1.551799325796994,0.6337612921679009,11.924181732960488,-3.917071947212533,6.105991797241439,0.2880921655399453,-0.1150571542109337,-0.11520921821225076,-0.010577999999999976,0.171863,-0.920768,-0.00400199999999995,-0.12064,-0.923184,0.006576000000000026,0.292503,0.0024159999999999737,0.9726906487984963,0.9951671682371122,double,-0.920768
76,0.316667,walk,-0.0047996160307223696,-0.06239500839932753,-0.003839692824577896,-0.04878363978036983,0.18181159390576604,0.0843559610531779,-0.0014398848092033894,0.002159827213821736,0.000479961603072237,-0.0007199424046016947,-0.001919846412288948,0.0002399808015352859,-3.6282194616676002,-0.2879539255285025,-0.4607262808468824,-0.2303631404234412,0.6910894212695243,-0.28795392552890187,0.11518157020852367,0.17277235531758087,0.057590785105660486,-0.010563999999999907,0.172132,-0.92075,-0.003984999999999905,-0.12038800000000001,-0.923167,0.0065790000000000015,0.29252,0.0024170000000000025,0.9714303519718545,0.9965593451455719,double,-0.92075
77,0.320833,walk,0.006240998559789125,-0.0633701392222756,-0.007441190590495253,0.01581473470429929,0.03146771809139029,0.12224471304730053,0.0,0.0004800768122904462,-0.0009601536245800595,-0.002880460873742677,-0.0012001920307261153,-0.0002400384061443903,2.6501715291674235,-0.23406884852330165,-0.8644977834655195,0.34562765463355455,-0.403204609104966,-0.34568296391077663,-0.5186074097794001,0.1727446907255958,-0.11522304553040706,-0.010589999999999988,0.172398,-0.920723,-0.004022999999999999,-0.12012900000000001,-0.923137,0.0065669999999999895,0.292527,0.0024140000000000272,0.9740708593554965,0.9947838034843903,double,-0.920723
78,0.325,walk,0.004799616030695663,-0.0638348932085434,0.005519558435323991,-0.028929785145935357,0.2024318490048883,0.07601981892679574,-0.003359731221518936,0.0,0.0009599232061436286,-0.0007199424046283283,-0.0004799616030722306,0.000479961603071398,-0.3459041346516562,-0.11153203414153694,3.110330939721417,-0.8062709914852196,-0.11520921821224922,0.46078157684753385,0.5184829539511235,0.1728414753189055,0.17278617931744247,-0.010623999999999967,0.17266399999999998,-0.920742,-0.004045999999999994,-0.11986500000000001,-0.9231579999999999,0.006577999999999973,0.29252900000000004,0.0024159999999999737,0.9700163779783106,0.9983508896785535,double,-0.920742
79,0.329167,walk,0.0069594432445540975,-0.06479481641468872,0.0004799616030855586,-0.04121264803141101,0.23387456283133945,0.08396678972439675,-0.0004799616030589154,0.0002399808015361185,0.0016798656107511643,-0.0007199424046016947,-0.0009599232061378132,-0.0004799616030714044,0.5183170659607504,-0.23036314042364528,-1.2094064872182533,0.6910894212767067,0.0575907851058603,0.17277235531738414,6.391563044766274e-12,-0.11518157021012367,-0.23036314042304004,-0.01065499999999997,0.172935,-0.920737,-0.004078000000000026,-0.11959899999999998,-0.923162,0.006576999999999944,0.29253399999999996,0.0024250000000000105,0.9728108474408707,0.9978461063886479,double,-0.920737
80,0.333333,walk,0.006240998559762475,-0.0705712914066223,-0.01968314930389497,0.08221366732895614,-0.17198367776313106,0.13627295053548674,0.0012001920307061283,0.0,0.0012001920307244498,-0.002880460873742677,-0.0014402304368713384,-0.0004800768122904462,-0.17245431704071573,-1.3865758502000904,-4.839921005036128,0.4033014003276626,-0.05760460910612538,-0.11514008161947051,-0.5186074097794001,-0.115292182125186,-2.7654637312001512e-05,-0.010676000000000019,0.173229,-0.92065,-0.0041160000000000085,-0.119311,-0.923082,0.00656000000000001,0.29254,0.0024319999999999897,0.9728511202545171,0.9945732677363321,double,-0.92065
81,0.3375,walk,0.003839692824577845,-0.06887449004079849,0.0002399808015427761,0.009413900520272415,0.05951796584509354,0.08063902044645177,-0.000479961603058909,0.0009599232061444612,0.0004799616030722306,-0.0007199424046016851,-0.0011999040076805766,-0.0007199424046075133,-0.5762672750623019,0.40719975181756674,4.781168731806478,-0.40320461573434707,0.23036314042343506,-0.1728414753185058,0.5184829539575175,0.0576737291074538,-0.057563137105127254,-0.010693999999999981,0.17352,-0.920649,-0.004135,-0.119029,-0.9230860000000001,0.0065589999999999815,0.292549,0.0024370000000000225,0.9736705649605837,0.9973772344115294,double,-0.920649
82,0.341667,walk,0.011519078473733688,-0.07367410607151512,0.003839692824577896,-0.03845005681801423,0.20197655234391024,0.1343584903718437,-0.0004799616030855586,-0.000959923206144474,0.0009599232061436414,-0.002159827213831727,-0.0007199424046083555,0.0,1.8429051233875418,-1.1518157021158286,0.8638617765863068,-6.395387804050061e-12,-0.46072628084687933,0.11518157021152234,-0.345544710638361,0.11518157021171678,0.17277235531737878,-0.010744000000000087,0.173823,-0.9206610000000001,-0.0041920000000000845,-0.118725,-0.9231020000000001,0.006552000000000002,0.29254800000000003,0.0024410000000000265,0.9731901919846323,0.9962055703621546,double,-0.9206610000000001
83,0.345833,walk,0.017042726836277527,-0.0705712914066223,-0.004800768122904461,0.004014760876171357,0.12254185740056106,0.09669588583914794,-0.0012001920307061283,0.0004800768122904462,0.0009601536245792267,-0.00024003840612523588,-0.0004800768122904462,0.0002400384061452231,1.3258877490503687,0.7447946867241514,-2.074042474191635,-0.1728829639031611,0.3456553092738644,5.5309274024308576e-05,0.46082304553684345,0.05757695446901324,0.05761843642468145,-0.01081999999999994,0.174119,-0.920637,-0.0042639999999999345,-0.11843300000000001,-0.923081,0.006556000000000006,0.29255200000000003,0.0024440000000000017,0.9728762890332694,0.999020047310469,double,-0.920637
84,0.35,walk,0.008639308855300266,-0.06911447084233552,-0.007679385649155792,-0.08939495786923184,0.18303705234847328,0.05787022287285588,-0.004319654427663454,0.0007199424046083555,0.0002399808015361185,-0.0011999040076872533,-0.001439884809216711,-0.000479961603072237,-2.0166589827159367,0.34960896671149266,-0.6908129412650221,-0.7486110863828519,0.057563137105330134,-0.1728276513182415,-0.23034931642957113,-0.23033549242291104,-0.17278617931784598,-0.01087400000000005,0.17441,-0.920604,-0.004305000000000003,-0.118151,-0.923051,0.006569000000000047,0.292561,0.002446999999999977,0.9682203180215303,0.9967753548722806,double,-0.920604
85,0.354167,walk,0.008399328053757375,-0.07991360691144647,-0.0026397888168906074,0.06082201345042307,0.07533141546958863,0.10189805606895488,-0.000479961603058909,0.0004799616030722306,0.0004799616030722306,-0.0011999040076872372,0.0002399808015361153,-0.0002399808015352827,-0.057590785107485006,-2.5915853297602283,1.209406487224657,0.9214525617001478,-0.05759078510586107,0.057590785105857994,3.8507780544241286e-15,0.403135495741016,0.05759078510606011,-0.010911000000000004,0.174745,-0.920591,-0.004345000000000043,-0.117817,-0.923041,0.006565999999999961,0.292562,0.002449999999999952,0.9741144701963407,0.9979217052944813,double,-0.920591
86,0.358333,walk,0.0072011521843433676,-0.078492558809408,0.003120499279867913,-0.04535467431018377,0.16603879812731254,0.05050913002212287,-0.0007201152184290069,0.00024003840614189188,0.0026404224675941226,-0.00024003840612523588,-0.00096015362457423,-0.0009601536245800595,-0.28760822597551755,0.3411061214686673,1.382690373681833,-0.05764609106339359,-0.05759078178836739,0.518593582458447,0.23040460911233812,-0.28807835480325117,-0.1728691365926011,-0.010943999999999954,0.17507299999999998,-0.920593,-0.0043759999999999355,-0.11749399999999999,-0.9230579999999999,0.006568000000000018,0.29256699999999997,0.0024649999999999395,0.9707710581123983,0.9977018072305539,double,-0.920593
87,0.3625,walk,0.02087832973363565,-0.07703383729301744,-0.0023998080153478634,-0.002915812926928958,0.07752868963084882,0.08831000284051393,0.0014398848092033894,0.000479961603072237,0.0021598272138234013,-0.002639788816917286,-0.001919846412288948,-0.00119990400767976,3.2822600310276844,0.35006515872104,-1.3247677694302393,0.5183585379487422,0.057576961106394646,-0.11533363421423665,-0.5758940270679299,-0.23030784442397972,-0.05753548910480005,-0.011025000000000063,0.175396,-0.920574,-0.004474000000000089,-0.117181,-0.923053,0.0065509999999999735,0.292577,0.002479000000000009,0.9708103519718522,0.9942039129884546,double,-0.920574
88,0.366667,walk,0.016318694504429198,-0.08087353011759092,0.0021598272138316985,0.012421124272916384,0.047106336579445456,0.04279023993101087,-0.0026397888168906074,-0.0011999040076772461,0.0014398848092150266,-0.001199904007660594,0.0004799616030722306,-0.0007199424046075133,-1.0942249170161789,-0.9214525616926939,1.0942249170097258,-0.9790433467948082,-0.4031354957402137,-0.1727723553175832,0.3455447106447519,0.5759078510585938,0.11518157021172137,-0.011104000000000003,0.175728,-0.920577,-0.004546999999999968,-0.11684199999999999,-0.923065,0.006557000000000035,0.29257,0.0024880000000000457,0.9697241366437827,0.9975344316443061,double,-0.920577
89,0.370833,walk,0.017282765242429412,-0.08209313490158301,-0.007201152184370017,-0.00660939529421853,0.140007518823645,0.09619052264307465,-0.002400384061438906,-0.0007201152184356692,-0.0002400384061452231,-0.0016802688430365487,-0.0009601536245808924,-0.0007201152184348364,0.23141400336058887,-0.2927519884762582,-2.2469945747003623,0.05746633592215587,0.1151677362557793,-0.4032460910610294,-0.11530600945174131,-0.345682963910975,-4.148195567045826e-05,-0.011185999999999918,0.176067,-0.9205479999999999,-0.004626000000000019,-0.116504,-0.9230379999999999,0.006559999999999899,0.292571,0.0024899999999999922,0.9709040932622583,0.9965585192562338,double,-0.9205479999999999
90,0.375,walk,0.017278617710600533,-0.08495320374370269,0.00815934725224135,0.034180342543727094,0.24278271112921118,0.10920128925721301,0.0,-0.0007199424046083555,0.003599712023038447,-0.0016798656107461687,-0.0002399808015361185,0.0,-0.0009953280126899578,-0.686361613179671,3.686224966789406,0.576046091058056,4.147200079522382e-05,0.9214663856932307,9.676800825054579e-05,0.17282765131864122,0.17281382731817627,-0.01125799999999999,0.17641800000000002,-0.920567,-0.00470500000000007,-0.11615099999999999,-0.923072,0.00655299999999992,0.29256899999999997,0.0025049999999999795,0.9688316660504039,0.9971717991313315,double,-0.920567
91,0.379167,walk,0.015118790496742161,-0.07967362610991141,0.000959923206144474,-0.0199295177990891,0.17464103573407191,0.06380863225662207,-0.0004799616030855586,-0.0019198464122856175,0.003839692824573733,-0.001919846412288948,-0.0016798656107528294,-0.0007199424046075229,-0.5183170659607352,1.2669972723281275,-1.7277235531790056,-0.11518157021491753,-0.28795392552850224,0.0575907851056605,-0.05759078510745876,-0.34554471063516173,-0.1727723553173811,-0.011322999999999972,0.176742,-0.920555,-0.0047760000000000025,-0.115826,-0.923079,0.0065469999999999695,0.292568,0.0025239999999999707,0.9675605759539226,0.9955822090163997,double,-0.920555
92,0.383333,walk,0.02064330292847586,-0.08977436389822349,-0.0033605376860464478,0.10099417163275227,-0.0037500571216507574,0.19044342918459253,0.0016802688430098993,-0.0014402304368713384,0.003600576092175015,-0.0033605376860197985,-0.0009601536245808924,0.0,1.3260951588415015,-2.424564999594833,-1.03707654637324,0.5185382731866194,0.11512625430011493,-0.05739719932758475,-0.3458212370933388,0.17275851804415182,0.1728138273181763,-0.011402000000000023,0.17711,-0.920526,-0.0048759999999999915,-0.115456,-0.923065,0.006526000000000032,0.292566,0.002539000000000069,0.9675661462387366,0.9941749800854047,double,-0.920526
93,0.3875,walk,0.012958963282936905,-0.07463402927765526,0.0028797696184333834,-0.07112211959254428,0.2492399441744059,0.05436723946205654,-0.00023998080151613289,-0.0023998080153578225,0.005039596832253425,0.0,-0.001439884809210031,-0.001679865610751142,-1.8440939874103426,3.6333896377653256,1.4975539487592473,-0.4608230488423368,-0.23028019642104072,0.3453373506307654,0.8064645274825469,-0.11512627420905568,-0.40313549574061175,-0.01145699999999994,0.17741099999999999,-0.920517,-0.00492999999999999,-0.11515099999999999,-0.923084,0.0065269999999999495,0.292562,0.002566999999999986,0.96501838754754,0.996312477218911,double,-0.920517
94,0.391667,walk,0.008159347252214707,-0.08111351091912812,-0.0002399808015427793,0.07082483944074554,0.07680214569267196,0.07414604643107338,0.0007199424046016947,-0.001919846412288948,0.003599712023038447,0.0004799616030589154,-0.0011999040076805924,-0.003839692824573733,-1.1518157021171649,-1.5549511978576658,-0.748680206377773,0.23036314041704656,0.11518157021091366,-0.34554471063474596,0.11518157020852367,0.057590785104257254,-0.5183170659521487,-0.011487999999999943,0.17774099999999998,-0.9205009999999999,-0.004962000000000022,-0.11481799999999999,-0.923099,0.006525999999999921,0.292559,0.0025980000000001002,0.9671154817608061,0.9932477629725109,double,-0.9205009999999999
95,0.395833,walk,0.0031204992798945625,-0.08041286605856979,0.00864138262122803,0.06029226537800841,0.13579589724848753,0.05391156683165858,0.00024003840612523588,0.0,0.006000960153623914,-0.0033605376860197985,-0.0019203072491617847,-0.001680268843014896,-1.2095170360826069,0.16818167560209618,2.131868320396256,-0.11519539089689353,0.46083687284900304,0.5763917740243556,-0.9218673281513949,-0.17292444586682473,0.5183446907246365,-0.011500000000000066,0.178076,-0.920512,-0.004989000000000021,-0.114491,-0.923142,0.0065110000000000445,0.292567,0.002630000000000021,0.9636904016617109,0.9929675164701481,double,-0.920512
96,0.4,walk,0.017518598512116436,-0.08879289656827274,0.008879289656842928,0.14892621551832427,0.10451563184701836,0.12381215990408939,-0.0026397888168906074,-0.0021598272138217073,0.003599712023038399,-0.0021598272138316985,-0.0035997120230350688,-0.0007199424046083459,3.455267394341676,-2.0110464386136053,0.057093121097887056,-0.691103245264176,-0.5183170659519296,-0.5762534510644342,0.2881474615282196,-0.4030249037372861,0.23045990842489628,-0.011584000000000039,0.178437,-0.9205340000000001,-0.005071000000000048,-0.11413599999999999,-0.9231820000000001,0.006512999999999991,0.29257299999999997,0.0026479999999999837,0.9652550698665061,0.9929012721585044,double,-0.9205340000000001
97,0.404167,walk,0.0067194624430113176,-0.0868730501559883,0.0045596352291795905,0.1049932669314954,0.17693205386500413,0.11332977378859505,0.0,0.000479961603072237,0.0038396928245745658,-0.001919846412288948,-0.004319654427650133,-0.0016798656107511643,-2.5915853297588622,0.46072628084580186,-1.036634131908654,0.6334986361628564,0.6334986361636572,0.05759078510587188,0.057590785107451845,-0.1727723553191909,-0.2303631404230439,-0.011612000000000067,0.178801,-0.920537,-0.005107000000000084,-0.113792,-0.923208,0.006504999999999983,0.292593,0.002670999999999979,0.9668407097445806,0.9916388509077732,double,-0.920537
98,0.408333,walk,0.011521843494944058,-0.07657225156024955,0.002400384061438906,0.05989388438687877,0.09309909202136428,0.06027999251303043,-0.002400384061438906,-0.0002400384061452231,0.004080652904464629,-0.001920307249135135,-0.0028804608737360146,-0.0014402304368696728,1.152755893406802,2.4725872769416086,-0.5183032087711673,-0.576184364243616,-0.1728276546369322,0.057839673521378504,-0.00011061854205162063,0.3454617268156787,0.05752164519478907,-0.011669999999999958,0.179119,-0.92053,-0.005162999999999918,-0.11348499999999999,-0.923224,0.0065070000000000405,0.292604,0.002694000000000085,0.9651593688357705,0.9937508003873627,double,-0.92053
99,0.4125,walk,0.0158387329013705,-0.08063354931605589,0.0023998080153478634,0.0924999050591778,0.05140676089287909,0.06097747256918304,0.0002399808015427793,-0.0011999040076805924,0.004799616030717374,-0.0035997120230617597,-0.005999520038396301,0.000479961603072237,1.0359705798959602,-0.9746334907142699,-0.0001382400026499655,0.6336368761655149,-0.2303493164231761,0.1725373473128749,-0.4030249037500922,-0.7485143183730032,0.46080922484807313,-0.01173499999999994,0.17945,-0.92052,-0.005244000000000026,-0.11317399999999998,-0.9232319999999999,0.0064909999999999135,0.292624,0.0027119999999999367,0.9646247534435037,0.9883116237131216,double,-0.92052
100,0.416667,walk,0.01871850251980367,-0.07655387568994418,0.009119270458385703,0.06123649184490168,0.12090378500696841,0.016180296802270556,-0.0023998080153744745,-0.0002399808015361153,0.00479961603071731,-0.0026397888168906074,-0.005039596832258421,-0.0002399808015361153,0.691089421270254,0.979043346799059,1.6125419829704315,-0.6334986361692426,0.23036314042343886,-1.5403112217696514e-14,0.2303631404298404,0.23036314042185566,-0.17277235531757784,-0.011823000000000028,0.17976799999999998,-0.9205380000000001,-0.005333000000000032,-0.112876,-0.9232710000000001,0.006489999999999996,0.292644,0.0027329999999999854,0.9637175044853901,0.9905097108089673,double,-0.9205380000000001
101,0.420833,walk,0.01944311089774308,-0.07681228996639478,0.006961113778191482,0.086452796155767,0.06742439763650201,0.05036208028786744,-0.002400384061438906,-0.0002400384061452231,0.0014402304368696728,-0.0038406144983235695,-0.004800768122897799,-0.0009601536245800595,0.1739338401198776,-0.06202935104431032,-0.5180404897249686,-0.00013827317917218212,-1.382731855683894e-05,-0.8063815635736041,-0.2882442826291314,0.05732806273658716,-0.17286913659240127,-0.01191399999999998,0.180087,-0.920561,-0.005430000000000046,-0.112576,-0.923304,0.006483999999999934,0.292663,0.002743000000000051,0.9678873708150583,0.9896291555474335,double,-0.920561
102,0.425,walk,0.02327813774898351,-0.07895368370530306,-0.007199424046070233,-0.022968331411213728,0.18078420317669328,0.150109994215124,0.0002399808015427793,0.0007199424046083555,0.00431965442764597,-0.003839692824551253,-0.0057595392368601835,-0.0002399808015361185,0.9203328176722948,-0.5138933858671224,-3.3982572172454515,0.6336368761655149,0.23037696442370628,0.6910064772681337,0.00022118401063515048,-0.23008666041814013,0.17282765131844136,-0.012009999999999965,0.180419,-0.920513,-0.005542999999999965,-0.112271,-0.9232750000000001,0.0064670000000000005,0.29269,0.002762000000000042,0.9650703180215583,0.9884562277500728,double,-0.920513
103,0.429167,walk,-0.010559155267589073,-0.06983441324693962,-0.04799616030716977,-0.4099429006331583,0.07606412896099557,0.3451492043083136,-0.0004799616030855522,-0.0004799616030722306,0.005039596832253425,-0.003359731221518936,-0.006239500839932337,-0.000959923206142796,-8.120300699921364,2.188449834020488,-9.790433467986375,-0.17277235532237245,-0.2879539255292961,0.17277235531736262,0.11518157020213901,-0.11518157021169892,-0.1727723553171759,-0.011967999999999979,0.18070799999999998,-0.920292,-0.00551299999999999,-0.112006,-0.923079,0.0064549999999999885,0.292714,0.002786999999999984,0.9636548299734331,0.9880812219616297,double,-0.920292
104,0.433333,walk,0.015602496399419514,-0.07705232837253999,0.00048007681227712134,0.017127075487023677,0.024729348865885733,0.007895192604769953,-0.0026404224675907915,0.0014402304368713384,0.004080652904464629,0.0002400384061518855,-0.0038406144983235695,-0.0052808449351899114,6.27980116826898,-1.7325768424388774,11.636158694058295,-0.5185935824544498,0.46091983676033793,-0.23018337200883243,0.864082963915223,0.5758248539627377,-1.0371871649176938,-0.012043999999999944,0.181035,-0.920277,-0.005576999999999943,-0.11170100000000001,-0.923103,0.0064670000000000005,0.292736,0.002825999999999995,0.9632911633533623,0.9891097314859802,double,-0.920277
105,0.4375,walk,0.012718982481420942,-0.0813534917206609,0.005759539236866844,0.014840899214795178,0.08975447210669035,0.06280457678220686,-0.0023998080153478634,0.000479961603072237,0.002399808015358687,-0.0033597312214923374,-0.005039596832251828,-0.000479961603072237,-0.6919879812811587,-1.0321966278188006,1.266969624331594,0.05774284911037424,-0.23044608442503164,-0.4033705037451287,-0.8638756005865715,-0.28773274152346173,1.1521198301218387,-0.012106999999999979,0.18137599999999998,-0.920291,-0.005643999999999982,-0.11138300000000001,-0.923129,0.0064629999999999965,0.292759,0.002838000000000007,0.9659073142720367,0.9898736189895544,double,-0.920291
106,0.441667,walk,0.01535877129828494,-0.08231341492680871,0.0,0.11330375962669684,0.0570540171797785,0.13038807957972479,-0.0004799616030855586,0.0002399808015361185,0.00431965442764597,-0.0033597312215189806,-0.004079673626107353,0.0007199424046083555,0.6334986361564708,-0.23036314042424144,-1.3821788425406472,0.46072628084048856,-0.0575907851058603,0.46072628084648276,-6.393852696582419e-12,0.2303631404234413,0.28795392552930155,-0.01217299999999999,0.18172,-0.920273,-0.005722000000000005,-0.11105699999999999,-0.923126,0.0064509999999999845,0.292777,0.0028529999999999944,0.9642152375221085,0.9911102668702788,double,-0.920273
107,0.445833,walk,0.013922227556409613,-0.08209313490158301,0.007681228996647139,0.12273095774622428,0.09398939111713353,0.13499626009460886,0.0,-0.0002400384061452231,0.0052808449351899114,-0.002400384061438906,-0.005280844935188245,-0.001680268843014896,-0.3448256701573034,0.05287566616075363,1.8437899655898065,0.11520921821544845,-0.11522304553080683,0.23072263743253502,0.23028016324533704,-0.2883272465388601,-0.5761428822907465,-0.012230999999999992,0.182061,-0.9202830000000001,-0.005789999999999962,-0.11073699999999999,-0.923165,0.00644100000000003,0.292798,0.00288199999999994,0.9623695041024378,0.9899345930345675,double,-0.9202830000000001
108,0.45,walk,0.016078713702913066,-0.0731941444684419,0.005519558435323991,0.11464990358847306,0.016467733910025338,0.07130056291646741,-0.0021598272138316985,-0.0002399808015361153,0.0014398848092150266,-0.0026397888168906074,-0.005519558435330652,-0.0007199424046083459,0.5175152739389096,2.135586857005291,-0.5187594339628345,-0.5183170659543274,1.3824000265848482e-05,-0.9217566896987894,-0.05745254510479955,-0.057286657101608976,0.23045990842489628,-0.012307000000000068,0.182365,-0.9203,-0.005867999999999984,-0.11045500000000001,-0.9231910000000001,0.0064390000000000835,0.29282,0.002891000000000088,0.9667452353846772,0.9897324232837371,double,-0.9203
109,0.454167,walk,0.013438924885995993,-0.07679385649148132,0.016318694504429413,0.14554916762756323,0.09637975071711852,0.07428573391096599,-0.00023998080151613608,0.0002399808015361185,0.00431965442764597,-0.0045596352291795905,-0.005519558435324065,-0.0007199424046075229,-0.6334986361692075,-0.8638617765873393,2.591585329758935,0.46072628085326933,0.11518157021171983,0.6910894212697288,-0.4607262808468908,1.5806923537998498e-12,1.9748246914242921e-13,-0.01236399999999993,0.18268600000000002,-0.92035,-0.005942999999999921,-0.110158,-0.923262,0.00642100000000001,0.292844,0.0029120000000000257,0.9636583896947188,0.9880076279093188,double,-0.92035
110,0.458333,walk,0.010081613058086044,-0.07753240518483044,0.011761881901095944,0.11723349429884926,0.1387067163774568,0.07695282106423043,-0.0012001920307327777,-0.0004800768122904462,0.004320691310609852,-0.0024003840614655555,-0.003840614498316907,-0.0002400384061443903,-0.8058837801032037,-0.17728005121198254,-1.0938100344055366,-0.23048757302367762,-0.1728414819554883,0.00024889173400911244,0.5183032087647704,0.403011026645981,0.11519539089369474,-0.01241099999999995,0.183007,-0.920381,-0.005994999999999973,-0.10985099999999999,-0.9233119999999999,0.006415999999999977,0.292858,0.002930999999999906,0.9631734796655202,0.9924410131110115,double,-0.920381
111,0.4625,walk,0.014398848092166919,-0.0717542596592252,0.010319174466046297,0.11771996772667694,0.02574787185338784,0.035030656904976185,-0.0023998080153478313,0.001919846412285592,0.0026397888168947707,-0.0026397888168906074,-0.003839692824577845,-0.0004799616030722306,1.0360535238974902,1.3866439946256766,-0.34622208664498105,-0.2878848055231688,0.5759354990583201,-0.4033843277453968,-0.05745254509840413,0.00022118400265467021,-0.05757696110579277,-0.012480999999999964,0.18331399999999998,-0.9204129999999999,-0.006066000000000016,-0.10956800000000001,-0.923357,0.0064149999999999485,0.292882,0.0029440000000000577,0.9638077629725204,0.9921929360467375,double,-0.9204129999999999
112,0.466667,walk,0.014878809695226026,-0.08303335733141375,0.013678905687538772,0.15181012836487542,0.06380693668986151,0.10382464353006997,0.0,0.0,0.0035997120230376145,-0.00935925125990196,-0.005999520038396301,-0.003599712023038447,0.11518157020856967,-2.706766899973268,0.8062709914788803,0.5759078510553983,-0.46072628084607703,0.23036314042304998,-1.6125419829640966,-0.5183170659511565,-0.7486802063753861,-0.01254299999999997,0.18366,-0.9204549999999999,-0.0061670000000000336,-0.10924700000000001,-0.9234289999999999,0.006375999999999937,0.29290700000000003,0.002974000000000032,0.9642604799616039,0.9805243919303386,double,-0.9204549999999999
113,0.470833,walk,0.015362457993267627,-0.0840134421507448,0.000480076812303771,0.23146100844450132,-0.09948706809061969,0.11277646983474497,-0.0016802688430365487,-0.0016802688430132304,0.0026404224675949557,-0.0031204992798945625,-0.00408065290446213,-0.0002400384061443903,0.11609416659663975,-0.23525799791911972,-3.1682258461917887,-0.4033290549775678,-0.4033290549719705,-0.23026633591998513,1.4975400816148325,0.46060180843355014,0.8064507001665997,-0.012614000000000014,0.184003,-0.920446,-0.006244000000000027,-0.108914,-0.923432,0.006369999999999987,0.292917,0.002986000000000044,0.9642195933001325,0.991428914512064,double,-0.920446
114,0.475,walk,0.026157907367416935,-0.08327333813294986,0.005279577633781285,0.20772179671214544,0.0017213880534143336,0.17326150385539474,-0.00023998080151613608,-0.000479961603072237,0.005039596832253493,-0.002159827213805084,-0.0026397888168973034,0.0016798656107511643,2.5907005937483487,0.17761075541035318,1.1517880541102812,0.34564147864660927,0.2880506935303576,0.5757557870550878,0.23054285243328151,0.3457797186380693,0.460740104846548,-0.012723999999999958,0.184348,-0.920447,-0.006361999999999979,-0.10857800000000001,-0.923447,0.006361999999999979,0.292926,0.0030000000000000027,0.9615531909119512,0.9936633151277017,double,-0.920447
115,0.479167,walk,0.01679865610751475,-0.06623470122390121,0.0009599232061444612,0.08287215458137641,0.10850031163357574,0.06827833930027442,-0.0023998080153744745,-0.0002399808015361153,0.0026397888168947707,-0.003359731221518936,-0.004319654427643415,-0.0014398848092158593,-2.246040619126977,4.088945742512244,-1.0366341319022776,-0.5183170659607205,0.0575907851058603,-0.5759078510580043,-0.28795392553727933,-0.4031354957394045,-0.7486802063755699,-0.012804000000000038,0.18462299999999998,-0.9204399999999999,-0.006446000000000063,-0.10832,-0.923457,0.006357999999999975,0.292943,0.0030170000000000474,0.9638706109808033,0.9905688935904577,double,-0.9204399999999999
116,0.483333,walk,0.02016322611617209,-0.0643302928468565,-0.0040806529044488055,0.019575777094005625,0.07264850852616436,0.07753236710554079,-0.0007201152184290069,0.0002400384061452231,0.002160345655304509,-0.0033605376860197985,-0.002880460873742677,-0.0002400384061443903,0.8076260222413195,0.45713115147496636,-1.2099318556392855,0.40319078179199863,0.11522304553080606,-0.11508477234523792,-0.0001935824533995639,0.34546172681246684,0.2880092182120663,-0.012890999999999986,0.184892,-0.9204140000000001,-0.006543999999999994,-0.10806400000000001,-0.9234410000000001,0.0063469999999999915,0.292956,0.003027000000000002,0.965913632575548,0.9926123438499778,double,-0.9204140000000001
117,0.4875,walk,0.01415886729062433,-0.07703383729301744,0.0,0.17529251180190716,-0.08237207292196928,0.19032666317017424,0.005519558435324065,0.005279577633787946,0.016558675305975525,-0.0026397888168906425,-0.00143988480921005,-0.0002399808015361185,-1.440930843663977,-3.0486067785363598,0.9792783547993349,1.4974018847499657,1.2093926632212029,3.4553226903458354,0.17296589131969287,0.3457105986399412,1.3824000065224429e-05,-0.012927000000000022,0.18523499999999998,-0.9203450000000001,-0.006614000000000009,-0.10774899999999998,-0.9234420000000001,0.006313000000000013,0.29298399999999997,0.0030970000000000164,0.9386376949979808,0.9949724801656061,double,-0.9203450000000001
118,0.491667,walk,0.003839692824577845,-0.07631389488840806,0.0071994240460701376,0.1815577229586775,0.0033577930363648217,0.09318332419429773,0.0007199424046016851,-0.0004799616030689002,0.007199424046076798,-0.0028797696184333834,-0.0021598272138250376,0.001679865610751142,-2.476403759550374,0.17277235531782326,1.727723553172566,-1.151815702117193,-1.3821788425382295,-2.246040619126147,-0.057590785107448784,-0.17277235531917015,0.4607262808464713,-0.012940000000000063,0.18555100000000002,-0.920345,-0.006642000000000037,-0.10744,-0.923465,0.006298000000000026,0.292991,0.0031200000000000117,0.956714610887339,0.9933793515089752,double,-0.920345
119,0.495833,walk,0.031204992798839027,-0.07489198271723298,-0.010081613058086044,0.1493816232649,0.15737098445118242,0.23821564247855997,0.000480076812303771,-0.0004800768122904462,0.0019203072491592863,-0.0021603456553136702,-0.0019203072491617847,-0.0009601536245800595,6.568722989500999,0.34131353124701974,-4.1481126030139635,-0.05757695446421361,-2.765463791310131e-05,-1.2671907817852874,0.172689381449763,0.057493990557669857,-0.6337060094409984,-0.013067999999999969,0.185861,-0.9202950000000001,-0.006781000000000037,-0.10713600000000001,-0.923427,0.0062869999999999315,0.292997,0.0031319999999999126,0.9652853443053887,0.9949237567848932,double,-0.9202950000000001
120,0.5,walk,0.018478521718261143,-0.0662347012239021,-0.002879769618433422,0.01629341638373979,0.1352990730016233,0.11841156492709534,0.0016798656107461687,0.0002399808015361185,0.007199424046076894,-0.003839692824577896,-0.0021598272138250666,0.0002399808015361185,-3.0541087306402583,2.0775813518912716,1.7283041611837446,0.28792627752397515,0.17280000331811107,1.266886680325807,-0.40301107973703754,-0.057480193103739675,0.28800922153016195,-0.013137999999999983,0.186138,-0.920253,-0.006874000000000047,-0.10686900000000002,-0.9234140000000001,0.006263999999999936,0.293007,0.0031610000000000804,0.9560621582214053,0.9926466777414331,double,-0.920253
121,0.504167,walk,0.013438924886022456,-0.06791456683465402,-0.008399328053757375,0.05157506645854229,0.020599988860679774,0.14209835702709087,0.003839692824577845,-0.0009599232061444612,0.005999520038397054,-0.0028797696184067402,-0.0023998080153544922,0.0,-1.2094064872182981,-0.4031354957407994,-1.324588057433144,0.5183170659543219,-0.28795392552929455,-0.28795392552911714,0.23036314042984124,-0.05759078510425337,-0.057590785105859535,-0.013178000000000023,0.186417,-0.920193,-0.006942000000000004,-0.106596,-0.9233790000000001,0.006236000000000019,0.29301299999999997,0.003186000000000022,0.9561609750164973,0.9937523000753037,double,-0.920193
122,0.508333,walk,-0.0064810369659143606,-0.09481517042726985,0.031204992798839027,0.3182011665239391,0.1358016673686158,0.21221139383423923,0.003120499279867913,-0.0002400384061452231,0.007921267402784034,-0.002880460873742677,-0.0004800768122904462,-0.0002400384061452231,-4.781555893407778,-6.457178010709507,9.506558053911755,-0.17263407218193266,0.172799999999817,0.46129317436077266,-0.0001659278290774287,0.46080921821028437,-0.05761843642468145,-0.013138000000000094,0.186811,-0.9202899999999999,-0.0069270000000000165,-0.10620299999999999,-0.9235099999999999,0.006211000000000078,0.293014,0.0032200000000000006,0.9536047727642851,0.9951165964091271,double,-0.9202899999999999
123,0.5125,walk,0.014638828893683441,-0.060235181185506595,-0.011519078473707199,0.024923595271420698,0.03707968249479765,0.12104627984472004,0.004559635229179651,0.001679865610752852,0.0057595392368610925,-0.002639788816890678,-0.0011999040076806084,0.0007199424046075325,5.068362337316583,8.298533535340512,-10.25295686886178,0.345364998634933,0.460740104847159,-0.518773257960879,0.05775667311063194,-0.17274470731705688,0.23037696442351183,-0.01318000000000008,0.187069,-0.9202180000000001,-0.0069989999999999775,-0.105957,-0.923459,0.006181000000000103,0.293026,0.0032409999999999384,0.9550307499655181,0.9950204385257275,double,-0.9202180000000001
124,0.516667,walk,0.025437964962788256,-0.06719462443004234,-0.0172786177106003,0.10493134011973065,-0.038595383720833966,0.23244017441759185,0.009119270458385703,0.0007199424046050155,0.010799136069114364,-0.0021598272138316985,-0.0014398848092166917,0.0007199424046075133,2.591585329758755,-1.6701327680671216,-1.3821788425469301,1.094224917016083,-0.23036314042424505,1.2094064872217982,0.11518157020853755,-0.057590785105851076,-4.605322402926153e-15,-0.013247999999999927,0.187352,-0.920101,-0.007113999999999954,-0.10568300000000001,-0.923384,0.006133999999999973,0.293035,0.003283000000000036,0.94358205871882,0.9955103703062338,double,-0.920101
125,0.520833,walk,0.016562650024000404,-0.06865098415746718,-0.010801728276515052,0.08505015481363153,-0.05079243310561664,0.18989781350908766,0.0072011521843433676,0.0009601536245808924,0.007201152184349197,-0.004560729716752576,-0.0021603456553003454,0.0,-2.1304164519413935,-0.34958226774479884,1.554702216535104,-0.460422053298688,0.05765991838115139,-0.863654317034365,-0.576308810110628,-0.17293827318378616,-0.17281382731817396,-0.013286999999999938,0.187642,-0.920026,-0.007201999999999931,-0.10540599999999999,-0.923339,0.006085000000000007,0.293048,0.0033130000000000104,0.9498214516301382,0.9915891358450901,double,-0.920026
126,0.525,walk,0.005759539236866767,-0.07559395248379971,0.00311975041997616,0.13147087965799753,0.10653922736291897,0.2209332726052568,0.011999040076792443,0.0045596352291828604,0.010799136069115197,-0.0023998080153744745,0.0,-0.0007199424046075133,-2.592539185777191,-1.666179103991477,3.340887616148574,1.1514009821092006,0.8638064805860189,0.8634470565793071,0.5185797219529842,0.5184414819535227,-0.17277235531737647,-0.013260999999999967,0.187976,-0.9199940000000001,-0.00723600000000002,-0.10509099999999999,-0.923355,0.006024999999999947,0.29306699999999997,0.0033609999999999474,0.9384322652310998,0.995824211459494,double,-0.9199940000000001
127,0.529167,walk,0.0026397888168906074,-0.08471322294216545,0.007919366450671823,0.08768820390329889,0.1521147749312677,0.25158597389360526,0.014398848092140275,0.004799616030715645,0.011999040076793276,-0.0026397888168906074,0.0002399808015361153,0.0004799616030722306,-0.7486802063777623,-2.1884498340210374,1.1518157021107815,0.5759078510553909,0.05759078510505943,0.28795392552869437,-0.057590785101063365,0.057590785105858765,0.287953925529094,-0.013212000000000002,0.188349,-0.919977,-0.007257999999999987,-0.10473699999999998,-0.923386,0.005954000000000015,0.29308599999999996,0.0034089999999999954,0.9336635487229247,0.9955103703062531,double,-0.919977
128,0.533333,walk,-0.004080652904448914,-0.07489198271723498,-0.00240038406143897,0.16256120547040545,-0.024386595296588993,0.21055882086194977,0.016562650024000848,0.004560729716756029,0.01464234277484484,-0.003360537686019888,-0.0007201152184356884,-0.0002400384061452295,-1.6131641193806279,2.357474849959368,-2.4771364647410135,0.519395566937261,-0.05734189005271774,0.6344941665990478,-0.17300740977659607,-0.23045991838017968,-0.1728276546369368,-0.013126000000000082,0.18868000000000001,-0.919906,-0.0072550000000000114,-0.10442799999999999,-0.923377,0.005871000000000071,0.293108,0.003471000000000002,0.9276690899859427,0.9942580012424516,double,-0.919906
129,0.5375,walk,0.01511879049674196,-0.07079433645308407,-0.019678425725948134,0.10201000435187575,0.005429163884430813,0.2917380403947003,0.025917926565900452,0.006479481641468453,0.017278617710582818,-0.010319174466046297,-0.0021598272138250376,-0.000479961603071398,4.607497816460458,0.9833564348814194,-4.146398287619158,2.2450867631148386,0.46046362484099085,0.632655372147338,-1.6699392320677602,-0.34550323863435045,-0.057576961105391566,-0.013080999999999898,0.189002,-0.919752,-0.007360999999999951,-0.104142,-0.923297,0.005719999999999947,0.293144,0.0035450000000000204,0.9115229306599502,0.9824105004181232,double,-0.919752
130,0.541667,walk,-0.0026397888168906074,-0.06887449004079516,-0.006719462443011228,-0.0030875608183185705,0.09254339903811754,0.25605463496845277,0.03047756179505334,0.005039596832251761,0.014878809695224161,-0.004319654427636754,-0.0011999040076805766,0.0007199424046075133,-4.261718097823958,0.4607262808468681,3.109902395713177,1.0942249170033242,-0.3455447106351526,-0.5759078510579886,1.4397696276480676,0.230363140423435,0.2879539255288942,-0.012942999999999927,0.18930999999999998,-0.919662,-0.00736799999999993,-0.10386000000000001,-0.923266,0.005574999999999997,0.29317,0.0036040000000000516,0.9068135437292517,0.9924322502486241,double,-0.919662
131,0.545833,walk,-0.006961113778191482,-0.07249159865578408,-0.0012001920307327777,0.0009225287594714211,0.10979783788719508,0.2885727301934544,0.03816610657703051,0.002880460873742677,-0.007921267402784867,-0.0043206913106273405,-0.0009601536245808924,0.0007201152184348364,-1.0372839561451925,-0.8682449867952294,1.3248368728464825,1.8455460350401265,-0.5182755541308407,-5.472894166588817,-0.000248891740419178,0.057549299831897265,4.148195567045826e-05,-0.012755000000000072,0.18962400000000001,-0.91969,-0.007357000000000058,-0.10356200000000002,-0.9232579999999999,0.005398000000000014,0.293186,0.0035679999999999046,0.8991770967589793,0.9925261875130658,double,-0.91969
132,0.55,walk,-0.012958963282936905,-0.06791456683465402,-0.016558675305971972,0.11726184525262022,-0.0993796803252024,0.30984537912719196,0.0335973122150295,0.0021598272138217073,0.025197984161267128,-0.0028797696184333834,-0.0026397888168906074,-0.0004799616030722306,-1.4393687316403594,1.0983997650899993,-3.685741126767237,-1.0964229330455912,-0.17293824332156563,7.947984536609489,0.3457935426431356,-0.40308019973834947,-0.2879953975298915,-0.012561000000000044,0.189916,-0.919516,-0.0073150000000000714,-0.10328999999999999,-0.923191,0.005245999999999973,0.29320599999999997,0.003674999999999984,0.8931630966533688,0.9934400370102974,double,-0.919516
133,0.554167,walk,-0.012718982481394468,-0.06479481641468958,-0.005519558435324138,-0.05633921204782361,0.17400568157504404,0.2887148887226498,0.037197024238065556,0.005519558435324138,0.029757619390449117,-0.004079673626094086,-0.00143988480921673,0.0014398848092158976,0.05759078510737747,0.7486802063749705,2.649176114866341,0.8638617765865432,0.8062709914812801,1.0942249170103373,-0.28795392552453214,0.28795392552769383,0.4607262808466918,-0.012353000000000058,0.19020900000000002,-0.919369,-0.0072790000000000354,-0.10302599999999999,-0.9231619999999999,0.005074000000000023,0.293235,0.0037929999999999353,0.8821464245378572,0.9924006079513864,double,-0.919369
134,0.558333,walk,0.003120499279867913,-0.06745079212673773,-0.0158425348055714,0.07135894604148892,0.11767774763781712,0.4159071926366045,0.04176668266922884,0.003360537686029792,0.03456553048487798,-0.0064810369659143606,-0.0036005760921716838,0.0019203072491592863,3.8020839561359505,-0.6375361766798238,-2.4779107945864745,1.096893526443418,-0.5182478994945617,1.1540833159934858,-0.5764194286654519,-0.5186488917318657,0.11531983676029485,-0.01219199999999998,0.190504,-0.919159,-0.007318999999999964,-0.10275999999999999,-0.9230879999999999,0.004873000000000016,0.29326399999999997,0.00392899999999996,0.8701787762206946,0.9872355127752119,double,-0.919159
135,0.5625,walk,-0.010079193664503522,-0.0712742980561563,-0.0033597312214922927,0.1382966920409791,0.10690890979491403,0.36976140348516884,0.055435565154782686,0.011279097672187427,0.04679625629949586,-0.003839692824577845,-0.0028797696184333834,0.0002399808015361153,-3.1676728928176945,-0.9175680176190414,2.995633209522201,3.2802693749828995,1.9003023724880188,2.9351393843575195,0.6338718841700254,0.17297971531996517,-0.40324608774253856,-0.011919000000000013,0.19084800000000002,-0.91895,-0.007292999999999994,-0.102475,-0.923073,0.004626000000000019,0.293323,0.004122999999999988,0.8364065893925325,0.9919906469904325,double,-0.91895
136,0.566667,walk,-0.014158867290624141,-0.057595392368611054,-0.011759059275249667,0.02822156289152676,0.16442694656783055,0.31151086160361235,0.03863690904726794,-0.005279577633791206,0.04871610271178228,-0.008399328053757375,-0.005039596832251761,-0.000479961603071398,-0.9790433468011971,3.282674751030752,-2.0156774787034584,-4.031354957406917,-3.9737641723010575,0.4607262808462703,-1.094224917009718,-0.5183170659511306,-0.17277235531737647,-0.011699000000000015,0.191066,-0.918698,-0.00726899999999997,-0.10225599999999999,-0.923026,0.004430000000000045,0.29332199999999997,0.0043279999999999985,0.8527175515226391,0.9836550542023008,double,-0.918698
137,0.570833,walk,-0.018963034085439312,-0.06216994719154949,-0.006961113778218132,0.009808885113357329,0.15573895646784133,0.3588074920321177,0.03528564570331448,-0.01368218915026106,0.048727796447431984,-0.0033605376860197985,-0.0062409985597691375,0.0007201152184348364,-1.1531845402820853,-1.0980688485209869,1.151691189877948,-0.8044319116546936,-2.0169494758689024,0.002806945667234995,1.2095032087704207,-0.28838255581310024,0.2880645274858938,-0.011473000000000066,0.191268,-0.918466,-0.007203999999999988,-0.10202299999999999,-0.922994,0.004269000000000078,0.29329099999999997,0.0045279999999999765,0.8518895402985829,0.9881254424070689,double,-0.918466
138,0.575,walk,-0.008879289656843163,-0.05567554595632362,-0.021118310535152066,0.0325585930404687,0.061096028106450345,0.4240978736179647,0.023998080153585528,-0.021838252939767093,0.04967602591792723,-0.003839692824577947,-0.005279577633794677,0.0,2.419905070457485,1.5585316139251246,-3.3974554252301905,-2.708799028012759,-1.9572987255834386,0.22755686836939448,-0.11498803421122097,0.2307225644287206,-0.17281382731817857,-0.011336000000000013,0.191409,-0.918171,-0.007182999999999939,-0.10181300000000001,-0.922906,0.004153000000000073,0.293222,0.004735000000000045,0.853759984023808,0.9891196940174791,double,-0.918171
139,0.579167,walk,-0.015598752099827513,-0.06815454763619014,-0.010079193664503522,0.06622283616252927,0.11859147669707054,0.43764851026107426,0.051115910727145934,-0.017518598512119767,0.07175425965922687,-0.00311975041997616,-0.0026397888168906074,0.001679865610751142,-1.6125419829575949,-2.994720825501902,2.649176114866441,6.507758716957091,1.036634131904798,5.298352229733493,0.17277235531600235,0.6334986361660786,0.40313549574061175,-0.011058000000000012,0.19162,-0.91783,-0.0071309999999999985,-0.10153999999999999,-0.922857,0.003927000000000014,0.29316,0.005027000000000004,0.8000227727331132,0.9926358080795374,double,-0.91783
140,0.583333,walk,-0.017042726836277527,-0.049447911665865985,-0.01848295727316219,0.05352742138436071,0.10791413531078044,0.36416789473535127,0.07057129140662896,-0.003360537686029792,0.07801248199711922,-0.005040806529029698,-0.0038406144983235695,0.0007201152184348364,-0.3466093942510834,4.490311082651018,-2.0172260222416374,4.670038569247002,3.398478354798359,1.5022137152886084,-0.4611272465322939,-0.2882442826291314,-0.23037695446862813,-0.010693000000000064,0.19181199999999998,-0.917428,-0.007081000000000004,-0.10135000000000001,-0.9227770000000001,0.0036120000000000596,0.29316200000000003,0.005349000000000048,0.7710934502637807,0.989370035001147,double,-0.917428
141,0.5875,walk,-0.019198464122889225,-0.05135589152867539,-0.01775857931365921,0.0840324460687256,0.07189043076708508,0.3595564216947253,0.06455483561314175,-0.01631869450443919,0.08183345332373372,-0.003839692824577845,-0.005039596832251761,-0.0007199424046075133,-0.5173355619418482,-0.45787853679131024,0.17383680333644666,-1.4438338837262215,-3.109708859709455,0.9169597616065458,0.2882442295300801,-0.28773274152344186,-0.34558618263555047,-0.01034400000000002,0.191958,-0.917013,-0.00701699999999994,-0.10115700000000001,-0.922706,0.00332700000000008,0.293115,0.005693000000000059,0.7672359504417694,0.9893725859886502,double,-0.917013
142,0.591667,walk,-0.021358291336694278,-0.05063594912407037,-0.023278137748983203,0.07317987581875142,0.0005746782357557535,0.42188362010677305,0.06479481641471117,-0.03263738900887838,0.09407247420206312,-0.00455963522917953,-0.003839692824571184,0.0011999040076789112,-0.5183170659479329,0.1727723553167775,-1.3245880574331534,0.0575907851138519,-3.9161733871944002,2.9371300403958016,-0.1727723553159778,0.28795392552929394,0.46072628084627065,-0.00998499999999991,0.192033,-0.916524,-0.0069469999999999255,-0.100962,-0.922604,0.003037999999999985,0.292995,0.006079999999999974,0.7412016989548843,0.9898657231746959,double,-0.916524
143,0.595833,stand,-0.009361497839657288,-0.04392702832453369,-0.017522803648581765,0.09625197295581003,0.11299133221327046,0.4389251553596578,0.08497359577531796,-0.011041766682670562,0.108017282765245,-0.0031204992798946458,-0.00480076812290459,0.003600576092175111,2.879691189879333,1.6103986556737528,1.3815012242922677,4.8436820356714625,5.183778762892074,3.347289621503178,0.34544789949229987,-0.23069498279727094,0.5762535008392372,-0.009591999999999934,0.19217,-0.916001,-0.006920999999999955,-0.10079900000000001,-0.922516,0.002670999999999979,0.29296900000000003,0.0065150000000000485,0.7050544026238357,0.9887269940761542,double,-0.916001
144,0.6,walk,-0.01919846412286258,-0.05207583393328374,-0.0023998080153478313,-0.002371887212440107,0.20421931154928713,0.40614347118741934,0.06527477801774344,-0.030237580993520554,0.10343172546196246,-0.0011999040076872372,-0.003359731221498953,0.0007199424046075133,-2.360683053324986,-1.9555569015478722,3.6292286136870215,-4.727338074771868,-4.606626904451606,-1.1004457171304312,0.4609059928503465,0.34582119064209876,-0.6912967812737163,-0.009240000000000026,0.192261,-0.91556,-0.006846000000000019,-0.100596,-0.9225030000000001,0.0023940000000000072,0.292857,0.0069430000000000325,0.7205883223492784,0.9939341849099668,double,-0.91556
145,0.604167,walk,-0.018478521718260896,-0.051115910727142604,-0.011039116870674626,0.1775181882116165,0.059223513954077954,0.43665610595850896,0.05543556515480933,-0.026157907367409923,0.12191024718022418,-0.0026397888168906074,-0.003359731221505614,0.0040796736261097975,0.17277235531597737,0.23036314042263645,-2.0732682638173094,-2.361222189329021,0.9790433467988001,4.434490453146529,-0.34554471063195563,-1.5984891929162213e-12,0.8062709914812236,-0.00893199999999994,0.192365,-0.915006,-0.006780000000000008,-0.10039700000000001,-0.9224399999999999,0.0021519999999999317,0.292762,0.007433999999999941,0.6982381796759692,0.9901539607830644,double,-0.915006
146,0.608333,stand,-0.017762842054733184,-0.03792606817090861,-0.014162265962534849,-0.005273567044001698,0.05901853594272963,0.37214551934517437,0.08593374939989659,-0.01944311089774308,0.14018242918867038,-0.0016802688430098993,-0.0021603456553003454,0.004560729716755075,0.17179060574356977,3.166068784501677,-0.749675730163279,7.3207355365067786,1.6118090421667877,4.3860254460984605,0.2303216451946009,0.2878985996652107,0.11547193726482886,-0.008499999999999952,0.192442,-0.914363,-0.006712999999999969,-0.10024799999999999,-0.922362,0.001786999999999983,0.29269,0.007998999999999978,0.6440583269939445,0.9911351737053338,double,-0.914363
147,0.6125,walk,-0.022558195344354874,-0.045356371490279164,0.01319894408447968,0.015518961335603746,0.32223545764493855,0.36421175874339445,0.07415406767458636,-0.04007679385649129,0.13342932565394688,-0.0035997120230350688,-0.0004799616030722306,0.006479481641468453,-1.1507927260911095,-1.783130146237221,6.56616511807399,-2.826897462277451,-4.9516877750775254,-1.6206151991176978,-0.4606295128450096,0.4032599117418051,0.46046362484121983,-0.00809700000000002,0.192464,-0.9138620000000001,-0.006634000000000029,-0.100061,-0.92239,0.001462999999999992,0.292525,0.00852799999999998,0.651680289737621,0.9876203603387419,double,-0.9138620000000001
148,0.616667,stand,-0.018958483321346954,-0.03599712023038162,-0.005999520038409703,0.057285792874717134,0.0642825209957889,0.3455810319511491,0.05327573794095241,-0.05471562275017913,0.1315094792416623,-0.002159827213831756,-0.0004799616030722434,0.004079673626109906,0.8638617765797908,2.2460406191259237,-4.607262808468862,-5.010398304207907,-3.5130378914538336,-0.460726280845838,0.345544710631951,-3.070214935284184e-15,-0.5759078510579775,-0.007796000000000025,0.192386,-0.913289,-0.006564000000000014,-0.099913,-0.922348,0.0012320000000000109,0.292299,0.009058999999999928,0.6559514412763008,0.9922649869587108,double,-0.913289
149,0.620833,stand,-0.0026404224675907915,-0.04632741238598142,-0.013202112337980607,0.34668319207032977,0.015741494825587336,0.5100403396984083,0.07705232837254332,-0.04632741238598142,0.16298607777244492,-0.002400384061438906,-0.0002400384061452231,0.00840134421507448,3.91696131871247,-2.4796668640421973,-1.728898775701128,5.707294870761136,2.013492646230847,7.555592542194571,-0.05774288228688178,0.05759078178757084,1.0373669200587066,-0.007464000000000026,0.192386,-0.912555,-0.0065629999999999855,-0.099721,-0.922258,0.0009010000000000407,0.292107,0.009703000000000017,0.5927382228753237,0.9854319559481302,double,-0.912555
150,0.625,stand,-0.020638348932092595,-0.037676985841133465,-0.0007199424046016851,0.23841914431657799,0.056218924707701415,0.3264914495008437,0.08471322294217543,-0.053515718742500426,0.1852651787856945,-0.0026397888168906074,0.0011999040076805766,0.009839212862970736,-4.319156818934885,2.075936295859824,2.995481145519277,1.8384676193021474,-1.7250555211228586,5.346556518658368,-0.05745254510479955,0.34555853463541847,0.34506087062544877,-0.007024999999999948,0.19232,-0.91178,-0.006487999999999938,-0.099559,-0.922214,0.0005370000000000097,0.291879,0.010433999999999943,0.5446161250741168,0.982903999461515,double,-0.91178
151,0.629167,stand,-0.018478521718260896,-0.036957043436525124,0.011279097672190758,0.10951256239857998,0.20733474582667025,0.3025615357017778,0.08519318454523434,-0.06839452843772625,0.170386369090472,-0.0016798656107727896,0.0009599232061444612,0.012958963282937738,0.5183170659543274,0.17277235531757512,2.879539255289741,0.11518157020852068,-3.570628676560047,-3.5706286765592505,0.23036314041704115,-0.05759078510585878,0.7486802063755645,-0.00659299999999996,0.192189,-0.9111170000000001,-0.006418000000000035,-0.09940099999999999,-0.922207,0.00017499999999992522,0.29159,0.011089999999999933,0.5517607173407861,0.9781623331017966,double,-0.9111170000000001
152,0.633333,stand,-0.01944311089774308,-0.03744599135861816,0.005520883341333468,0.1871123844944857,0.08121660651231923,0.32810666300477354,0.09529524723955363,-0.06721075372059584,0.17954872779644698,-0.001920307249135135,0.004800768122897799,0.009601536245798929,-0.2315384492276005,-0.11736627990711401,-1.3821925902201837,2.4248830279210956,0.28415139633471154,2.199317980310844,-0.05771522764338582,0.9219502920675312,-0.8059114347428724,-0.0061149999999999816,0.19206499999999999,-0.910392,-0.006344999999999934,-0.099225,-0.9221900000000001,0.00022999999999995246,0.29129,0.011798000000000086,0.525196766391331,0.9818245852270846,double,-0.910392
153,0.6375,stand,-0.01871850251980417,-0.03263738900887925,0.003359731221492382,0.1833213274262198,0.042351128971638424,0.2888552785371305,0.10127189824815011,-0.07055435565154984,0.19294456443484867,-0.0023998080153745387,0.00143988480921673,0.006239500839933336,0.17389209933739494,1.1539722461576687,-0.5186350179604338,1.43428149954322,-0.8024002714072618,3.214743613727368,-0.11507097821920152,-0.8065474714857531,-0.8068239514916383,-0.005614999999999926,0.191907,-0.909602,-0.006276999999999977,-0.09908299999999999,-0.9221779999999999,0.0006620000000000514,0.29098999999999997,0.01257599999999992,0.4924986702536559,0.9886026663076648,single,-0.909602
154,0.641667,stand,-0.011759059275249667,-0.034317254619631185,0.006719462443011228,0.3364144295349687,0.04975483074795852,0.3060309180633918,0.11135109191262428,-0.05639548836093048,0.19606431485481138,-0.00455963522917953,0.002879769618426723,0.0059995200383962215,1.6701327680716223,-0.4031354957408027,0.8062709914851981,2.4188129744358275,3.397856321242921,0.7486802063745343,-0.518317065947918,0.34554471063354497,-0.05759078510609852,-0.005102000000000051,0.191815,-0.908813,-0.0062470000000000026,-0.098928,-0.922181,0.0011449999999999516,0.290743,0.013368000000000047,0.478947324369355,0.9865548865579032,single,-0.908813
155,0.645833,stand,-0.006240998559762475,-0.033365338454152696,0.010561689870389815,0.25070439979467896,0.09213050357682971,0.29289942677337366,0.11569851176190425,-0.06697071531444729,0.2102736437830039,-0.0038406144983235695,0.0036005760921783464,0.0052808449351899114,1.3245464991567901,0.22849643914510043,0.9222821477144945,1.0435477314642265,-2.538460622543639,3.4107846683131315,0.17259259021986553,0.17302123709832523,-0.17250962630972383,-0.004593999999999987,0.191675,-0.907981,-0.006237000000000048,-0.09877399999999999,-0.922203,0.001643000000000061,0.290449,0.014221999999999957,0.44249486501096535,0.9875722319034907,single,-0.907981
156,0.65,stand,-0.011039116870647982,-0.042476601871849116,0.03335733141348672,0.25055794406178716,0.32407781538090996,0.3169251347069472,0.1365490760738964,-0.06839452843772625,0.22750179985601085,-0.0028797696184333834,0.003119750419962838,0.002879769618430886,-1.1514562781102642,-2.1865282979832856,5.470516329036893,5.003735136067194,-0.3416878145617844,4.134426703385367,0.2305843244276887,-0.11538893021730375,-0.5762119790638366,-0.003979000000000066,0.191567,-0.9071720000000001,-0.00620300000000007,-0.098584,-0.9223300000000001,0.0022240000000000038,0.290151,0.015158000000000005,0.39173955423896817,0.9914496606965721,single,-0.9071720000000001
157,0.654167,stand,-0.012718982481420772,-0.029277657787379424,0.010799136069105207,0.1519862403451083,0.10657021428565511,0.22817816735054883,0.1360691144708375,-0.07799376049916087,0.22558195344372192,-0.0067194624429845855,0.003119750419969499,0.0031197504199661683,-0.40313549574580665,3.1674931808182367,-5.413533799947526,-0.11518157020852068,-2.303631404231953,-0.46072628084687145,-0.9214525616873465,1.5984891929162213e-12,0.057590785105658904,-0.003359000000000001,0.191364,-0.906277,-0.006177999999999906,-0.09844899999999998,-0.922362,0.002818999999999905,0.289813,0.016085000000000016,0.38124095908938704,0.9866025644153174,single,-0.906277
158,0.658333,stand,-0.021363418146905438,-0.029524723955829914,0.01896303408543982,0.09787067480722579,0.23643388843830365,0.17740489003267784,0.13922227556409986,-0.06745079212673953,0.2357177148343805,-0.0026404224676175115,0.002400384061445632,0.0038406144983195076,-2.0749965591658404,-0.059305369287205166,1.959649067771201,0.7568797631450886,2.5307173241530525,2.4329720092796077,0.9791262542888094,-0.172675554134394,0.17303506441511235,-0.00268999999999997,0.191206,-0.9053739999999999,-0.006099999999999994,-0.09831600000000001,-0.9224249999999999,0.003410000000000024,0.289522,0.01705100000000004,0.3595748408178311,0.9912624701280683,single,-0.9053739999999999
159,0.6625,stand,-0.01463882889368305,-0.02375809935205543,0.01847852171828754,0.14398088188213892,0.23355523834107206,0.18450739303911298,0.15646748260138732,-0.07247420206383355,0.23902087832973104,-0.004799616030695663,0.002399808015361153,0.005279577633789541,1.6137723189878415,1.3838791945702997,-0.11627366622324851,4.138518607460362,-1.2055219431471038,0.7926958232182651,-0.5181650019385973,-0.00013824000107489137,0.345323526630675,-0.0019770000000000065,0.19100300000000003,-0.904455,-0.0060589999999999256,-0.09820699999999999,-0.9224800000000001,0.004081999999999919,0.28921,0.01802500000000007,0.32853392581403723,0.9874534940074147,single,-0.904455
160,0.666667,stand,-0.0021598272138050553,-0.02591792656587381,0.016558675305971972,0.21161646535707432,0.14117161479683157,0.2169100342151922,0.16462682985362856,-0.08087353011759092,0.24190064794816277,-0.005039596832265082,0.0026397888168972683,0.003359731221502284,2.994720825504656,-0.518317065951131,-0.46072628085326417,1.9580866936023942,-2.0156774787034575,0.6910894212699076,-0.057590785113851066,0.05759078510585872,-0.46072628084647055,-0.0012820000000000054,0.190774,-0.903516,-0.006071000000000049,-0.09808799999999998,-0.922535,0.004789000000000043,0.288862,0.019019000000000008,0.30981000000000003,0.9889881610287521,single,-0.903516
161,0.670833,stand,-0.0021603456553136702,-0.014402304368693398,0.008641382621201382,0.14428375195835097,0.08054418880669242,0.16009602833560854,0.18410945751319288,-0.0988958233317353,0.25972155544887154,-0.004080652904475455,0.0009601536245808924,0.004560729716754241,-0.00012444587340733478,2.7641915979789737,-1.900454317035666,4.67657889091798,-4.32604253820076,4.277702232527307,0.2301833720090317,-0.40317695446864493,0.28828576458280286,-0.0005060000000000064,0.19042199999999998,-0.90247,-0.006079000000000057,-0.098024,-0.9225519999999999,0.00557300000000005,0.288446,0.020081999999999933,0.29918,0.9896755577687804,single,-0.90247
162,0.675,stand,0.00863930885530015,-0.01991840652747759,0.019438444924405357,0.2616217857460159,0.11986708857990282,0.19015808459061473,0.20614350851930324,-0.09263258939284726,0.2666186705063577,-0.0035997120230350688,0.0035997120230350688,0.006479481641469285,2.591709745767636,-1.3237586174188023,2.591087665755674,5.287749221528724,1.5030559008610502,1.6551751997806776,0.1154165782194343,0.6334433401617846,0.4604636248416197,0.0003169999999999007,0.19011899999999998,-0.9014399999999999,-0.00613000000000008,-0.09792600000000001,-0.9226059999999999,0.0064469999999999805,0.288045,0.021166000000000018,0.28834000000000004,0.9862664709116193,single,-0.9014399999999999
163,0.679167,stand,0.002879769618406817,-0.017758579313659685,0.022318214542839335,0.1345769094771426,0.2762518946224508,0.13697058270680756,0.21550275977923747,-0.09479241660667148,0.26853851691865044,-0.006959443244527547,0.0038396928245712863,0.0023998080153587193,-1.3821788425470225,0.5183170659510307,0.6910894212704664,2.246040619134726,-0.5183170659525477,0.4607262808478029,-0.8062709914788917,0.05759078510588482,-0.9790433467988106,0.0012030000000000651,0.18979800000000002,-0.9004139999999999,-0.0061709999999999265,-0.097836,-0.922689,0.007373999999999992,0.287634,0.022275000000000045,0.27725000000000005,0.9861620319238613,single,-0.9004139999999999
164,0.683333,stand,0.021843494959208638,-0.025444071051366996,0.0158425348055714,0.38370551376540785,0.12734607482544097,0.2758378814914491,0.24339894383100302,-0.09265482477196284,0.267402784445512,-0.002880460873742677,0.0026404224675974537,0.0031204992798845687,4.552022405377294,-1.8448131871596989,-1.5544118428391578,6.696155557312898,0.5131041369919929,-0.27261941265924555,0.9791124269766843,-0.2878709450249236,0.17299358245939725,0.0021259999999999613,0.18951800000000002,-0.899366,-0.006274000000000002,-0.097719,-0.922742,0.008399999999999963,0.287237,0.023375999999999952,0.26624000000000003,0.9916655998335686,single,-0.899366
165,0.6875,stand,0.015598752099827513,-0.010799136069111866,0.027357811375103822,0.13249930503527405,0.31462213857955623,0.13975518315924884,0.23902087832973104,-0.08231341492680762,0.2502999760019185,-0.005519558435323991,0.002399808015361153,0.004559635229182028,-1.4986183967797162,3.5145032354823655,2.7634453010636753,-1.050651668171814,2.4817398236513415,-4.104345678808109,-0.6333327481596579,-0.057742849108783,0.345364998631497,0.0030569999999999764,0.18922,-0.898437,-0.006361999999999979,-0.097664,-0.922837,0.009418999999999955,0.286884,0.024399999999999977,0.256,0.9874153005979102,single,-0.898437
166,0.691667,stand,0.011519078473733534,-0.01319894408447302,0.01607871370288642,0.20274058263144135,0.2274420906986599,0.08599480207544083,0.30213582913366943,-0.09215262778977502,0.2668586513078921,-0.005039596832265082,0.0040796736261072995,0.005279577633788709,-0.979043346794804,-0.5759078510585877,-2.7067668999801575,15.146376482826472,-2.3612221893370124,3.9737641722998505,0.11518157020852068,0.4031354957394129,0.17277235531717675,0.0042679999999999385,0.18889099999999998,-0.897392,-0.0064310000000000755,-0.09759200000000001,-0.922882,0.010699000000000014,0.286483,0.025490000000000013,0.24510000000000004,0.9860641137587429,single,-0.897392
167,0.695833,stand,0.020403264522323973,-0.0007201152184356692,0.015602496399419514,0.02959755975350434,0.2468498664839503,0.07222336989087641,0.2916466634661729,-0.10321651464234266,0.2465194431108976,-0.0014402304368580138,0.00408065290446213,0.004320691310609852,2.1325458589991437,2.9953981915596115,-0.11431044250285809,-2.517802608616543,-2.6557577658587683,-4.882191117857534,0.8639861726853253,0.00023506441546577398,-0.2301695446900759,0.005398000000000014,0.188464,-0.89643,-0.006522000000000028,-0.09757200000000002,-0.922929,0.011920000000000042,0.286036,0.02649900000000005,0.23501000000000005,0.9898081779461931,single,-0.89643
168,0.7,stand,0.029757619390452447,-0.015598752099834589,0.029997600191995228,0.2411369366965962,0.35737343440926406,0.17243765328242638,0.34197264218860707,-0.09479241660667315,0.25629949604032154,-0.0035997120230351646,-0.000959923206137826,0.007199424046076157,2.244865579104548,-3.570587204559444,3.4545485463345305,12.077268711887477,2.0216217988168164,2.3470249410665045,-0.5182341219527697,-1.2096414952243946,0.6908405892647852,0.0066989999999998995,0.188134,-0.895487,-0.006661000000000028,-0.09751099999999999,-0.923024,0.013359999999999927,0.285645,0.027536999999999923,0.22463000000000005,0.9864896042284217,single,-0.895487
169,0.704167,stand,0.04031677465801409,-0.0011999040076805766,0.015118790496768604,0.1668598017014226,0.14509313141399133,0.12408795699130701,0.3604511639068855,-0.08927285817134664,0.2373410127189816,-0.004319654427663397,0.0009599232061378004,0.006239500839933169,2.533994544651202,3.4554471063484287,-3.5706286765602377,4.434490453150532,1.3245880574337563,-4.549672023359685,-0.17277235532234864,0.46072628084367934,-0.23036314042308145,0.008032999999999957,0.18776700000000002,-0.894561,-0.0068470000000000475,-0.097502,-0.923061,0.014880000000000004,0.285269,0.02849999999999997,0.21500000000000002,0.9872511179501408,single,-0.894561
170,0.708333,stand,0.037205952952476265,0.0024003840614522307,0.020403264522323973,0.11849123926863514,0.2218933747984372,0.10121285982028053,0.38262121939512583,-0.0751320211233782,0.21579452712433903,-0.0040806529044488055,0.0004800768122904462,0.004080652904464629,-0.7467166839985165,0.8642074097774375,1.268476722408873,5.321664783543049,3.394343986550271,-5.171984060163838,0.057369544698653685,-0.11518156357353669,-0.5182064175392557,0.009472000000000036,0.187444,-0.8937470000000001,-0.0070189999999999975,-0.09751000000000001,-0.923129,0.016491000000000033,0.28495400000000004,0.029381999999999908,0.20618000000000003,0.9903485853082161,single,-0.8937470000000001
171,0.7125,stand,0.03767698584112348,0.006719462443004568,0.020398368130549818,0.0949892621754158,0.2363677378785793,0.04246460325597691,0.42356611471079725,-0.07727381809455253,0.21118310535156998,-0.009839212862987388,-0.0019198464122822615,0.008159347252219595,0.11303885016731724,1.0364958919012008,-0.0011750400225955142,9.825988796657333,-0.513990153869524,-1.106652693249103,-1.381943834542486,-0.5759354990575208,0.9788083387940809,0.011079999999999979,0.18709399999999998,-0.8929520000000001,-0.007217000000000029,-0.097546,-0.92318,0.018297000000000008,0.28464,0.03022799999999992,0.19772000000000006,0.9784573505967404,single,-0.8929520000000001
172,0.716667,walk,0.05447564194863823,0.007199424046076798,0.01823854091671812,0.22823449923990924,0.16981389973354485,0.03554025436527542,0.4535637149028183,-0.06431485481161396,0.1888648908087346,-0.0033597312214922927,0.0011999040076739157,0.004319654427645913,4.031354957406917,0.11518157021171745,-0.5183170659543274,7.198848138233945,3.1099023957135747,-5.355943014839266,1.554951197862982,0.748680206372967,-0.9214525616927414,0.01274300000000006,0.186796,-0.892241,-0.007457999999999965,-0.09757100000000002,-0.923238,0.020201000000000024,0.28436700000000004,0.030997000000000052,0.19003000000000003,0.9906626529638316,single,-0.892241
173,0.720833,walk,0.061449831973125445,0.016082573211710388,0.017762842054733656,0.06174602339483652,0.17618885358111955,-0.024789254788535636,0.5177628420547337,-0.06745079212674286,0.1881901104176717,-0.003840614498323672,0.002400384061452295,0.004560729716755196,1.674073457630196,2.1322969672668797,-0.11418599663573581,15.410256157445271,-0.7527453948941387,-0.16197320956862885,-0.11543045531238395,0.2881613187178133,0.057867328158734986,0.01464399999999999,0.186448,-0.891531,-0.007730000000000015,-0.09762799999999999,-0.923293,0.022374000000000005,0.284076,0.03176200000000007,0.18238000000000004,0.989287543735795,single,-0.891531
174,0.725,walk,0.06407487401008284,0.01319894408447302,0.02639788816893272,0.08512026651648869,0.28489917132214987,0.021525954780439286,0.5610751139908914,-0.06143508519318391,0.17422606191504486,-0.0014398848092033701,0.0004799616030722306,0.0074394048476120805,0.6299596920944028,-0.6920156292866203,2.0722452877847366,10.394113735578927,1.4436541717204006,-3.351103552346227,0.5761290350660627,-0.46086452084954393,0.6908267652644258,0.016715000000000035,0.186137,-0.8909149999999999,-0.008002999999999982,-0.09768099999999999,-0.923372,0.024718000000000018,0.283818,0.03245700000000007,0.17543000000000003,0.9873455787380597,single,-0.8909149999999999
175,0.729167,walk,0.06719462443003235,0.010079193664510181,0.024958003359729346,0.1704542205038819,0.273233821613094,0.04062500489161537,0.6081113510918901,-0.06983441324693962,0.15598752099832008,-0.0009599232061444612,0.003119750419969499,0.0019198464122864246,0.748680206371367,-0.7486802063745654,-0.3455447106319564,11.287793880729142,-2.0156774787030596,-4.37689966804047,0.11518157020852057,0.6334986361644463,-1.3245880574335527,0.018969000000000014,0.185804,-0.890369,-0.008286999999999933,-0.09770999999999999,-0.923468,0.027255999999999947,0.283514,0.03309899999999999,0.16901,0.993688611375862,single,-0.890369
176,0.733333,walk,0.079932789246286,0.024483917426786104,0.012481997119551601,0.03949482764933081,0.14491325245857264,-0.030705046251711283,0.6749879980797011,-0.05976956313010059,0.154824771963514,-0.006721075372066247,0.00048007681228378376,-0.0009601536245800595,3.0576487797056253,3.457686932855476,-2.9947206529471284,16.05296375127484,2.4159505801341874,-0.279104425061472,-1.382897783466582,-0.6336230455318562,-0.6913106185469232,0.021448000000000023,0.185453,-0.889776,-0.008647999999999989,-0.09781000000000001,-0.923524,0.03009600000000001,0.28326300000000004,0.033748,0.16252,0.9886562274933823,single,-0.889776
177,0.7375,walk,0.07079433645309406,0.017038636909050865,0.036477081833462884,0.25135682174025037,0.3888015115946316,-0.10846249191464923,0.7405807535397191,-0.07343412526997802,0.13006959443244462,-0.006479481641468453,0.0004799616030722306,0.001679865610751142,-2.193053226107959,-1.7867243863055393,5.758359662565659,15.741002030241773,-3.2792325749645603,-5.9407673460689185,0.057977857114900944,-2.7647998932843505e-05,0.6335539321649103,0.02423900000000001,0.185076,-0.889386,-0.008970000000000034,-0.09787900000000002,-0.9236690000000001,0.033209000000000044,0.282955,0.03428300000000006,0.15716999999999992,0.9888151896215429,single,-0.889386
178,0.741667,walk,0.08231341492680315,0.01895848332133363,0.023278137748983824,0.21939442769390363,0.21612854938274048,-0.09220903520711965,0.7861771058315353,-0.06503479721622403,0.1113510919126489,-0.010319174466046572,0.0021598272138250952,0.0004799616030722434,2.7643576850754275,0.46072628084540507,-3.167493180820569,10.942249170102498,2.0156774787026985,-4.4920812382519975,-0.9214525616938306,0.40313549574103585,-0.2879539255288988,0.027171999999999974,0.184726,-0.889019,-0.009356000000000031,-0.09794900000000001,-0.923764,0.036528000000000005,0.282675,0.034745000000000026,0.15255000000000002,0.9824105004181227,single,-0.889019
179,0.745833,walk,0.09241478636581095,0.02496399423907655,0.017762842054706535,0.2546530082404868,0.18413319625368374,-0.13051259750752864,0.859097455592894,-0.05160825732117133,0.11857897263562028,-0.014402304368686735,0.0019203072491617847,0.0002400384061452231,2.4247171000978858,1.4415532687813044,-1.3238827878726078,17.50368453225122,3.2228852364504776,1.7349689685480985,-0.9801079939126646,-0.05749399055768371,-0.05759078178757084,0.030366000000000004,0.184407,-0.8885989999999999,-0.009800999999999949,-0.098045,-0.9238369999999999,0.04016699999999995,0.282452,0.03523799999999999,0.14762000000000008,0.9757804274801521,single,-0.8885989999999999
180,0.75,walk,0.10655147588192862,0.024238060955121002,0.023518118550525977,0.4349856872054383,0.22790492356820144,-0.12200994767682657,0.9104871610271023,-0.06143508519318391,0.07031437485001185,0.000479961603058909,0.003359731221498953,0.004559635229181195,3.3925340811417235,-0.1742100513452226,1.3811558665273331,12.332542700793832,-2.358250029280658,-11.582576862396943,3.5714581165696018,0.34543411863142726,1.036620307903993,0.03371599999999997,0.18405000000000002,-0.888404,-0.010243000000000002,-0.098132,-0.923916,0.04395899999999997,0.282182,0.03551199999999999,0.14488,0.9905265824475483,single,-0.888404
181,0.754167,walk,0.10319174466043633,0.028557715382771076,0.02735781137507718,0.20032129665372803,0.2897052259299919,-0.17537936502169543,0.9584833213342987,-0.06167506599472002,0.024958003359731012,-0.0026397888168906074,0.0021598272138250376,0.007199424046075965,-0.8062709914788245,1.0366341319054575,0.9214525616873469,11.518157021165365,-0.05759078510585893,-10.884658384996518,-0.7486802063713685,-0.28795392552769533,0.6334986361638469,0.03727999999999998,0.183674,-0.8884139999999999,-0.010684000000000027,-0.098242,-0.9239999999999999,0.04796400000000001,0.281916,0.035586000000000007,0.14414000000000005,0.9867225080611987,single,-0.8884139999999999
182,0.758333,walk,0.17522803648583962,0.06529044647143406,0.2414786365818679,2.804222991430323,0.7631325554156679,-0.38806999645200074,0.9791166586653989,-0.020643302928469196,0.03120499279884902,0.0021603456553136702,0.002880460873742677,0.0,17.291476674364674,8.81726622387493,51.39722160508656,4.952793406409064,9.84919900774143,1.499517388170428,1.152216627989504,0.17297975514105585,-1.7281382731819395,0.040629000000000026,0.183316,-0.88929,-0.011404999999999998,-0.09850199999999998,-0.925006,0.052034000000000025,0.281818,0.03571599999999997,0.14283999999999997,0.9939990398463627,single,-0.88929
183,0.7625,walk,0.12694984401248183,0.0343172546196321,0.09551235901128319,0.8899591899037915,0.7611910729733353,-0.2963144149196761,1.0371970242380655,-0.024718022558195555,-0.01007919366450712,0.0014398848092034085,0.0014398848092100694,0.000719942404608365,-11.585839326459974,-7.432971406720074,-35.029104288597914,13.93817268362556,-0.9778544827757226,-9.907412158233003,-0.1728967713247601,-0.34571059863994114,0.1727723553175855,0.04442199999999996,0.18307,-0.88973,-0.01192800000000005,-0.098639,-0.925401,0.05635000000000001,0.281709,0.03567100000000001,0.14329000000000003,0.9964002879769804,single,-0.88973
