frame_id,timestamp,gait_type,root_linear_velocity_x,root_linear_velocity_y,root_linear_velocity_z,root_angular_velocity_x,root_angular_velocity_y,root_angular_velocity_z,left_linear_velocity_x,left_linear_velocity_y,left_linear_velocity_z,right_linear_velocity_x,right_linear_velocity_y,right_linear_velocity_z,root_acceleration_x,root_acceleration_y,root_acceleration_z,left_acceleration_x,left_acceleration_y,left_acceleration_z,right_acceleration_x,right_acceleration_y,right_acceleration_z,left_pos_rel_x,left_pos_rel_y,left_pos_rel_z,right_pos_rel_x,right_pos_rel_y,right_pos_rel_z,step_length,step_width,step_height,left_contact_prob,right_contact_prob,support_type,max_foot_height
1,0.004167,stand,0.021838252939833287,0.02015838732902052,0.0026397888168906277,-0.0063267607840877226,-0.05234445096557742,0.2025045682440069,0.00023998080156942118,-0.0016798656107461592,0.0007199424046083515,-0.003359731221545605,-0.0004799616030722343,0.0,0.0,0.0,0.0,0.0,0.0,0.0,0.0,0.0,0.0,0.007540000000000102,-0.09722599999999998,-0.92869,0.006974999999999731,0.184577,-0.919085,0.0005650000000003708,0.28180299999999997,0.009604999999999975,0.9969277874778542,0.898293598262575,double,-0.919085
2,0.008333,stand,0.021603456552976817,0.020163226116172103,0.0031204992798945642,-0.03193813294567811,-0.050233281161395096,0.18015634777524453,0.0009601536245009441,0.0019203072491617858,-0.0019203072491601203,0.00024003840617853526,0.000720115218442332,0.0007201152184356697,-0.056360150469627786,0.0011614947555409413,0.11538897335668181,0.17286913656541594,0.8641797551387288,-0.6337613187154276,0.8640829639280221,0.28806452748789396,0.17285530927404458,0.007454000000000072,-0.09730199999999994,-0.9287110000000001,0.00688600000000017,0.18449600000000005,-0.919095,0.0005679999999999019,0.281798,0.009616000000000069,0.9951992318771419,0.9020961614083869,double,-0.919095
3,0.0125,stand,0.02111831053523159,0.020638348932092748,0.0045596352291795645,-0.03269231602234794,-0.05225394676497062,0.20069266052833207,-0.0007199424046016905,-0.001679865610746159,0.0014398848092150374,-0.00023998080156942112,-0.0011999040076872464,0.0,-0.1164257302004386,0.11402035419261937,0.3453649986285097,-0.4031907917212946,-0.8639723685884195,0.8063815834833591,-0.11519539422797127,-0.4607677528508707,-0.17281382731837525,0.007362999999999786,-0.09739499999999995,-0.928724,0.00679699999999972,0.18440499999999999,-0.919114,0.0005660000000000664,0.28179999999999994,0.009610000000000007,0.9961221663407689,0.9018605553501111,double,-0.919114
4,0.016667,stand,0.019678425725921638,0.02231821454283891,0.005999520038382945,-0.026335500764972174,-0.04863653244121003,0.1917633731974627,-0.0007199424046016905,-0.0021598272138317145,0.0007199424046075187,0.0,0.0009599232061444684,-0.0011999040076789203,-0.34554471065753567,0.4031354957394195,0.3455447106319607,0.0,-0.11518157021491612,-0.17277235531737908,0.057590785113851954,0.5183170659543351,-0.28795392552889854,0.007277999999999896,-0.097497,-0.928746,0.0067149999999998045,0.18431599999999998,-0.919144,0.0005630000000000912,0.281813,0.009602,0.9960203686220734,0.9014189551886114,double,-0.919144
5,0.020833,stand,0.02112337974072635,0.017522803648581314,0.0,0.007213892742414679,-0.06656647229084191,0.1961077184544774,-0.001920307249108487,0.0,0.0012001920307252835,-0.0012001920306794797,-0.0002400384061385609,-0.0007201152184356698,0.3468444586665174,-1.1510827878678818,-1.4401152276483307,-0.2881336640678821,0.5184414819567246,0.11527835480503237,-0.2880921821122131,-0.28803687284758267,0.11516773625618112,0.007182000000000244,-0.09756999999999999,-0.9287409999999999,0.006622000000000128,0.18424200000000002,-0.9191469999999999,0.000560000000000116,0.281812,0.009593999999999991,0.9962258036758378,0.901693189397129,double,-0.9191469999999999
6,0.025,stand,0.018958483321319948,0.02279817614591114,0.005279577633807897,-0.018034456463323127,-0.04985990510715807,0.1832014742634118,0.00023998080146284825,-0.0007199424046016905,-0.0004799616030722342,0.0016798656107728021,-0.0011999040076872464,-0.0002399808015361171,-0.5195335779712986,1.2659881203095336,1.2669972723321086,0.5184276579244865,-0.17277235531598042,-0.40320461574214483,0.6911585412652463,-0.23034931642637038,0.11522304221251564,0.007103999999999999,-0.09766799999999998,-0.9287650000000001,0.006550000000000278,0.18414199999999997,-0.91917,0.0005539999999997214,0.28180999999999995,0.00959500000000002,0.9985034567687889,0.9005861754907862,double,-0.91917
7,0.029167,stand,0.02111831053523161,0.02135829133669446,0.0023998080153478513,0.007055313183144004,-0.06493430561552294,0.2071516763998809,0.00047996160313884263,-0.0011999040076872472,-0.000479961603071402,-0.0016798656107728034,0.0014398848092167038,0.0016798656107511558,0.5183170659735215,-0.34554471063515313,-0.6910894212767094,0.05759078513942754,-0.11518157021491651,1.9970707403197731e-13,-0.8062709914916266,0.6334986361660553,0.4607262808464781,0.007017999999999969,-0.09776200000000002,-0.928777,0.0064549999999998775,0.18405899999999997,-0.919173,0.0005630000000000912,0.281821,0.009603999999999946,0.9977023587526345,0.89933003563601,double,-0.919173
8,0.033333,stand,0.017762842054653234,0.018963034085452635,0.0016802688430098993,-0.01217894468534435,-0.04775536468265195,0.17618436531507428,-0.0014402304368580138,0.00048007681227712134,-0.0007201152184348364,0.0016802688430365487,-0.0026404224675907915,-0.0002400384061452231,-0.8054413059477613,-0.5749537328953005,-0.17271703608688227,-0.46091983677312887,0.4032599183783887,-0.05764609106179411,0.80656131872524,-0.9794304553066472,-0.46085070016715735,0.006938000000000333,-0.09783900000000006,-0.928787,0.006388000000000282,0.183969,-0.919181,0.0005500000000000504,0.28180800000000006,0.009606000000000003,0.9971995519283317,0.8987084842252135,double,-0.919181
9,0.0375,stand,0.017998560115255424,0.02375809935204231,0.006239500839925728,-0.022901142158161875,-0.04039158200190377,0.18723650549849002,-0.0011999040077405338,-0.0021598272138050735,0.0014398848092150385,-0.003359731221545607,0.0014398848092167038,0.0009599232061444692,0.056567809119795885,1.1507236060930355,1.0941281490078791,0.057673729089868044,-0.6335262841569946,0.5183585379529342,-1.209503255239299,0.9791954108009355,0.287967749529564,0.006857999999999809,-0.09794699999999995,-0.9288069999999999,0.0062989999999998325,0.18387600000000004,-0.919203,0.0005589999999999762,0.281823,0.009603999999999946,0.9952338311783604,0.8976612975969173,double,-0.919203
10,0.041667,stand,0.019918406527491044,0.02087832973362219,0.001439884809230023,-0.012805448184940019,-0.07788430870873696,0.18920651798001703,0.0028797696184067597,-0.0007199424046016899,0.0004799616030722338,0.0009599232061711108,-0.002879769618433403,0.0004799616030722338,0.4607262808340816,-0.6910894212671271,-1.1518157021107993,0.9790433468076049,0.3455447106319612,-0.23036314042303907,1.0366341319214576,-1.0366341319054724,-0.11518157021171946,0.006786999999999654,-0.09803699999999993,-0.928811,0.006219999999999892,0.18377700000000002,-0.919207,0.0005669999999997621,0.28181399999999995,0.009604000000000057,0.9949884152923602,0.8988379103772046,double,-0.919207
11,0.045833,stand,0.017762842054653265,0.022323571771485796,0.00480076812290447,-0.007471713715471846,-0.04119586593599287,0.18220615212036406,0.0,-0.00240038406146556,0.00024003840614439067,-0.0016802688430365515,0.001200192030719455,-0.0007201152184356705,-0.5174182604027316,0.3469135952625081,0.8067410738536847,-0.6912553092671058,-0.4033705369332385,-0.05759078178776845,-0.6337474914084649,0.9793474913953102,-0.2880645274862951,0.006712999999999969,-0.09814,-0.92883,0.006139000000000117,0.183689,-0.91923,0.0005739999999998524,0.281829,0.009600000000000053,0.9959794064565587,0.9003552434072644,double,-0.91923
12,0.05,stand,0.01823854091671824,0.023518118550512813,0.003119750419949537,0.008984667409456727,-0.037922743983922653,0.20411245823012944,0.00023998080156942094,0.0004799616030855554,-0.0021598272138225543,-0.001199904007633959,0.0007199424046150115,0.0007199424046083507,0.11415859420805725,0.2866682935030037,-0.4034119757511234,0.057590785113851864,0.6912276612793646,-0.5759216750580616,0.11527833822956375,-0.11525069020984956,0.34558618263595386,0.006638000000000144,-0.09823599999999993,-0.928852,0.006058000000000341,0.18359400000000003,-0.91924,0.0005799999999998029,0.28182999999999997,0.009612000000000065,0.9962908493338446,0.9012572344115778,double,-0.91924
13,0.054167,stand,0.017998560115255424,0.02183825293976669,0.0026397888168906295,-0.0029993255349933176,-0.04575506370012185,0.17393723668219332,0.0009599232061711124,-0.0011999040076872472,0.0007199424046075193,0.0023998080153744944,-0.0019198464122889385,-0.0007199424046083519,-0.05759078508826906,-0.40313549573941065,-0.11518157020852123,0.17277235531598079,-0.40313549574581325,0.6910894212695166,0.863861776579903,-0.6334986361660552,-0.345544710635158,0.0065669999999999895,-0.09833199999999997,-0.9288599999999999,0.005993000000000137,0.18349500000000002,-0.9192539999999999,0.0005739999999998524,0.281827,0.009606000000000003,0.9971717991312881,0.8986792422854086,double,-0.9192539999999999
14,0.058333,stand,0.015362457993294278,0.020163226116185415,-0.0007201152184290069,-0.0036752636165338637,-0.04665774725050414,0.15472916469891415,0.0012001920306794786,-0.0021603456553136702,0.0009601536245800595,-0.003600576092251633,0.0009601536245808924,0.0012001920307244498,-0.6327657517909611,-0.40207076898254307,-0.8065060094382223,0.05767374568131685,-0.230542882291508,0.05765991838035047,-1.440322637452262,0.6913106185477265,0.4609060094413827,0.006507999999999736,-0.09842500000000004,-0.9288529999999999,0.005913999999999753,0.183415,-0.919246,0.0005939999999999834,0.28184000000000003,0.009606999999999921,0.9955811485769197,0.8974051534523144,double,-0.919246
15,0.0625,stand,0.013678905687538703,0.023278137748970074,0.0023998080153744944,-0.008844522691664905,-0.034800706399853526,0.17655812688876613,-0.0004799616030322698,0.0021598272138317167,-0.0002399808015361173,0.0,0.0004799616030722346,0.0021598272138233904,-0.4040202317627973,0.7475189903490909,0.7487216783785706,-0.4032046157215622,1.0367585479110606,-0.28800922153016023,0.8640691366094637,-0.11523686621278093,0.23029402042211214,0.006448999999999927,-0.09851299999999996,-0.928864,0.005856999999999779,0.18332000000000004,-0.919247,0.000592000000000148,0.281833,0.009616999999999987,0.9962908493338549,0.9001424772189044,double,-0.919247
16,0.066667,stand,0.01487880969517264,0.025917926565887303,0.00599952003838294,-0.022214552070718777,-0.028336834070402897,0.20102490262013148,0.00047996160303226897,-0.001439884809230023,0.0004799616030722338,0.0009599232061711108,-0.0019198464122889352,-0.0011999040076789193,0.2879539255181031,0.6334986361692407,0.8638617765798998,0.23036314040425676,-0.8638617765926893,0.17277235531757867,0.23036314042983197,-0.5759078510585954,-0.806270991481235,0.006388999999999978,-0.09862700000000008,-0.928887,0.00579900000000011,0.18320399999999998,-0.919277,0.0005899999999998684,0.28183100000000005,0.009610000000000007,0.9973469124147198,0.8998015475697905,double,-0.919277
17,0.070833,stand,0.013202112338007301,0.024963994239076633,0.002160345655313677,-0.018392616278760408,-0.044426427528864526,0.17570188712213475,0.0,-0.0012001920307061322,0.000480076812289615,0.0009601536246075451,0.00048007681229044776,0.0014402304368696776,-0.40247176120147454,-0.22898039529780903,-0.9215492998245975,-0.11520921820265728,0.05753547252133737,2.7654636913389444e-05,5.530927422811067e-05,0.5760737456983651,0.6337336640779173,0.00633399999999984,-0.09873599999999999,-0.928894,0.005748000000000086,0.183102,-0.91928,0.0005859999999997534,0.281838,0.009614000000000011,0.9978455893714749,0.9008661950817693,double,-0.91928
18,0.075,stand,0.01127909767216419,0.026397888168946216,0.0035997120230350926,-0.024454830658489583,-0.07801686430252218,0.17413748121686484,-0.0009599232060645379,-0.0007199424046016899,0.0004799616030714012,-0.00023998080156942094,0.0009599232061444676,-0.0014398848092150361,-0.4614866008742761,0.3441070146075309,0.345420294629569,-0.23036314040425654,0.11525069020984924,-2.7648000531267837e-05,-0.28800922154474795,0.11515392221118775,-0.6911723652711089,0.006283000000000261,-0.09884899999999996,-0.928907,0.005700000000000038,0.182996,-0.919301,0.0005830000000002222,0.28184499999999996,0.009606000000000003,0.9978461063887386,0.9010281889891604,double,-0.919301
19,0.079167,stand,-0.007679385649155741,0.04511639068873669,0.0321574274057997,-0.2770493476182875,-0.6251740627435225,0.1888452754913886,0.0007199424046016899,0.0007199424046016899,-0.0007199424046075181,-0.0033597312215456012,0.0004799616030722338,0.00191984641228727,-4.54967202335491,4.49208123825065,6.853303427589292,0.40313549572023666,0.3455447106319603,-0.28795392552889804,-0.7486802063777723,-0.11518157021171907,0.8062709914812343,0.006318000000000268,-0.09903399999999996,-0.929044,0.00571799999999989,0.18281000000000003,-0.919427,0.000600000000000378,0.281844,0.009616999999999987,0.9979217052945053,0.8973312891730949,double,-0.919427
20,0.083333,stand,0.03624579932794867,-0.0019203072491617847,-0.028084493518944462,0.26498104507778386,0.5245215732153344,0.1025644916578959,0.0016802688429299504,-0.0014402304368846632,-0.0002400384061443903,0.0031204992798945625,-0.0009601536245808924,-0.0014402304368713384,10.543731391527695,-11.29061400333616,-14.46037468188769,0.230515227635204,-0.5185244458680632,0.11519539089369357,1.555504201017801,-0.3456829639109758,-0.8065474913966889,0.00617399999999968,-0.09903200000000001,-0.9289280000000001,0.005579999999999696,0.18281400000000003,-0.919316,0.0005939999999999834,0.28184600000000004,0.009612000000000065,0.996289958995332,0.8979326209204042,double,-0.919316
21,0.0875,stand,0.00959923206139142,0.023038156947453977,0.003359731221492326,0.008816055212548224,-0.02477742324023045,0.14831085318296008,0.0011999040077405358,-0.00023998080151613527,0.001439884809215041,0.001919846412342228,-0.0014398848092167062,-0.0002399808015344525,-6.394664570808091,5.989552243008356,7.546010256884296,-0.11527833817840552,0.2880368695388843,0.40314931974068513,-0.28813363752155924,-0.11512627421065874,0.2880368695312908,0.006139000000000117,-0.09912899999999997,-0.928936,0.005548000000000108,0.18271199999999999,-0.919331,0.0005910000000000082,0.28184099999999995,0.009604999999999975,0.9968506487984312,0.8999303713217714,double,-0.919331
22,0.091667,stand,0.00815934725218801,0.02591792656587398,-0.0007199424046016899,-0.0015429239879794184,-0.038546349063433884,0.14055474320054515,-0.0007199424046016899,0.0004799616030589122,-0.0004799616030722338,-0.0007199424046016899,0.0,0.001679865610751153,-0.3455447106319679,0.6910894212670988,-0.9790433467948193,-0.46072628085966494,0.17277235530958646,-0.46072628084647776,-0.6334986361756456,0.34554471063515835,0.46072628084607714,0.006102000000000274,-0.09923500000000002,-0.9289350000000001,0.005511000000000266,0.182604,-0.919321,0.0005910000000000082,0.281839,0.009614000000000011,0.9983508896785959,0.9008139344429028,double,-0.919321
23,0.095833,stand,0.009361497839683687,0.025444071051366996,-0.0009601536245808924,0.014441397373750633,-0.029369199604570875,0.15887678108245457,0.0,-0.0007201152184290069,0.001920307249160119,0.0028804608737160275,0.0016802688430098993,-0.0024003840614505653,0.2885623109687175,-0.1137435224452674,-0.05765991838194966,0.17281382731677614,-0.2880645274814974,0.5761567096093018,0.8642350644065565,0.40332905497117094,-0.9794166279888898,0.006063000000000152,-0.09934399999999999,-0.928923,0.005484000000000044,0.18250499999999997,-0.919327,0.0005790000000001072,0.28184899999999996,0.009596000000000049,0.9965818515981317,0.8971920072137352,double,-0.919327
24,0.1,stand,0.005759539236920092,0.028797696184307386,0.0009599232061444676,-0.03315134883425332,-0.045912644895750025,0.13887844437833502,0.00023998080146284804,-0.0009599232061444676,0.0007199424046075181,-0.00047996160303226897,0.0009599232061444676,0.0002399808015361169,-0.8644009125902548,0.8048056474538966,0.46078157684793813,0.05759078508827641,-0.05754931310666198,-0.2880645175312214,-0.8064368794692328,-0.172869123317838,0.6336368761667098,0.006039999999999601,-0.099468,-0.9289240000000001,0.005457999999999963,0.18238899999999997,-0.91933,0.0005819999999996384,0.28185699999999997,0.009594000000000102,0.9979605553501576,0.9022271163527367,double,-0.91933
25,0.104167,walk,-0.011999040076872493,0.053755699544037076,0.03167746580271425,-0.3050099510850308,-0.634022901436891,0.2053248539921626,0.002879769618513342,0.0009599232061444707,-0.0026397888168947967,-0.00047996160313884344,0.0002399808015427785,0.0004799616030722354,-4.261718097862402,5.98944165100306,7.371620493537282,0.6334986362012239,0.46072628084687856,-0.8062709914812389,-2.5575827086659795e-11,-0.1727723553159805,0.057590785105860104,0.006102000000000274,-0.099688,-0.929067,0.005506000000000011,0.182166,-0.9194599999999999,0.000596000000000263,0.281854,0.009607000000000032,0.9932953145290422,0.9027300959922416,double,-0.9194599999999999
26,0.108333,stand,0.010081613058112695,0.028564570331248235,0.004800768122904461,-0.004381093200693073,-0.07363125371899358,0.14344338633969864,0.0007201152184290069,0.00048007681227712134,-0.0002400384061443903,0.002640422467644091,0.0009601536245808924,-0.0024003840614505653,5.300204785162068,-6.046838505230155,-6.451439673502105,-0.5184000000202432,-0.11518156357833631,0.5760322637422959,0.7490120189109295,0.17286913659100175,-0.6913935824586651,0.006063000000000152,-0.09980500000000003,-0.9290879999999999,0.005475000000000119,0.18205100000000002,-0.9194899999999999,0.0005880000000000329,0.28185600000000005,0.009597999999999995,0.9985030975409166,0.8978610928474595,double,-0.9194899999999999
27,0.1125,stand,0.008639308855326851,0.02999760019198131,0.006479481641468495,-0.004063089969761706,-0.07942739419448072,0.12788735966692893,-0.0019198464123422216,-0.0019198464122889352,0.0004799616030714012,-0.00023998080156942094,0.0016798656107461574,0.0,-0.34612531864311075,0.34389965460356914,0.402859015734109,-0.63354010817644,-0.5759354990559286,0.1727861793174444,-0.6912414852924188,0.17271705931491826,0.5760460910608503,0.0060189999999997745,-0.09993800000000003,-0.929113,0.005437999999999832,0.181933,-0.9195169999999999,0.0005809999999999427,0.28187100000000004,0.009596000000000049,0.9954047175053029,0.9012117991313237,double,-0.9195169999999999
28,0.116667,stand,0.03143748500122465,0.0004799616030722338,-0.03383729301654586,0.3509987242160063,0.5712704814645715,0.05317305190525956,0.0014398848092033799,-0.002639788816890625,0.0014398848092150361,-0.01487880969517264,-0.0035997120230350926,0.008879289656827999,5.471124585048663,-7.083666568012729,-9.675251897771613,0.8062709914916243,-0.17277235531598015,0.2303631404232383,-3.5130378914334544,-1.2669972723257128,2.1308590489148043,0.005893999999999622,-0.09995100000000001,-0.9289660000000001,0.005244999999999944,0.18191600000000002,-0.919339,0.0006489999999996776,0.28186700000000003,0.009627000000000052,0.99444346692688,0.8742352410774483,double,-0.919339
29,0.120833,stand,0.0052808449351816,0.02832453192510977,-0.004320691310627354,0.029403584527765265,-0.05126511207734919,0.10520043135429172,0.0007201152184290093,-0.00024003840615188627,-0.0021603456553045165,0.014882381180937257,0.002400384061452239,-0.009361497839655404,-6.278598191561,6.683766279893809,7.085118028304988,-0.17277234536110717,0.5760322637394972,-0.8641935824578881,7.143828822878054,1.4402535008370974,-4.378489557485226,0.0058749999999996305,-0.10007000000000005,-0.9289569999999999,0.005284999999999762,0.18180800000000003,-0.91936,0.0005899999999998684,0.2818780000000001,0.009596999999999967,0.9961836325755467,0.8744550126768571,double,-0.91936
30,0.125,stand,0.00047996160303226897,0.03239740820734248,-0.002639788816890625,-0.012106662587944166,-0.016523532508622978,0.0713652243115892,0.00023998080156942094,0.0004799616030855554,0.001679865610751153,0.0038396928245778704,0.0009599232061444676,0.0011999040076805846,-1.152119830129428,0.9774121147666679,0.4033843277505946,-0.11522304220292484,0.17278617932264004,0.9215769776951441,-2.6500332028700204,-0.3456829506378138,2.534533680666182,0.005873999999999935,-0.10020299999999999,-0.928939,0.005298999999999943,0.18167700000000003,-0.9193439999999999,0.0005749999999999922,0.28188,0.00959500000000002,0.9970608474408511,0.8971570762580467,double,-0.9193439999999999
31,0.129167,stand,-0.0035997120230084494,0.02903767698583684,-0.00671946244298463,0.01171910834927488,0.0018506548380517922,0.0737252299771462,0.00047996160303226897,0.0,-0.000959923206143635,-0.0026397888168373388,0.0023998080153478474,0.0009599232061428024,-0.9790433467820289,-0.8062709914820337,-0.9790433467948165,0.05759078508827641,-0.11518157021491598,-0.6334986361638554,-1.5549511978438213,0.3455447106319603,-0.057590785106259174,0.0058909999999996465,-0.10032399999999997,-0.928915,0.005303000000000058,0.181566,-0.919312,0.0005879999999995889,0.28189,0.009603000000000028,0.9982112887149321,0.8978125708670748,double,-0.919312
32,0.133333,stand,-0.001920307249215084,0.033365338454152696,-0.0043206913106273405,-0.0014193310850406564,-0.03898422985610467,0.10406951863451437,-0.00024003840607193664,-0.0033605376860197985,0.0024003840614497322,0.0019203072491084854,0.0014402304368713384,-0.0009601536245792267,0.40312164517363525,1.0388049611895946,0.5757971993176398,-0.17282765460974678,-0.8066581099423419,0.8066028006705149,1.094598191537643,-0.23033547250996358,-0.4608921821224262,0.005898000000000181,-0.10047699999999993,-0.928887,0.005319000000000074,0.181433,-0.919298,0.0005790000000001072,0.28190999999999994,0.00958900000000007,0.9931054216916457,0.899801178742954,double,-0.919298
33,0.1375,walk,-0.01871850251975051,0.0566354691624703,0.029757619390451854,-0.31234690315081176,-0.6141078611782155,0.12239898382907466,-0.0007199424046016899,-0.0002399808015427777,0.0004799616030722338,0.00023998080156942094,0.0002399808015427777,0.0,-4.031244365379269,5.5843846192266815,8.178140317033636,-0.11516774622744248,0.7488737423750942,-0.46086452084893126,-0.40324608772235726,-0.2880368695292919,0.23041843642410026,0.005973000000000006,-0.10071399999999997,-0.929009,0.005398000000000014,0.18119800000000003,-0.919422,0.0005749999999999922,0.281912,0.009587000000000012,0.9985034567687534,0.903564359826217,double,-0.919422
34,0.141667,stand,-0.0007199424046016947,0.03359731221502995,0.000959923206144474,-0.0029969782235419106,-0.03772823344710979,0.07814374541854656,0.0,-0.0011999040076872533,-0.0007199424046075229,0.004079673626040746,-0.01103911687064813,0.013198944084473196,4.319308882925107,-5.528715370156103,-6.910894212696794,0.17277235531598129,-0.23036314042344158,-0.28795392552910093,0.9214525616681898,-2.706766899973835,3.1674931808191196,0.005975999999999981,-0.10085900000000003,-0.929016,0.005417999999999701,0.181012,-0.9193709999999999,0.0005580000000002805,0.28187100000000004,0.009645000000000015,0.9976678058175853,0.8740769443613752,double,-0.9193709999999999
35,0.145833,stand,0.005760921747432055,0.03576572251560493,0.002880460873742677,-0.023618371053518914,-0.09165027031943158,0.07581366702960111,0.0007201152184290069,-0.002880460873742677,0.0002400384061443903,-0.002640422467537492,0.0007201152184290069,-0.0002400384061452231,1.5556563014963383,0.520501752418381,0.4610028006716758,0.1728553092724451,-0.40339819156395157,0.23043226374265782,-1.613081155443647,2.822667328151015,-3.2258719372583795,0.005955000000000155,-0.10102000000000005,-0.929027,0.005383000000000138,0.18086599999999997,-0.919384,0.0005720000000000169,0.281886,0.009643000000000068,0.9950353361953928,0.8989910581124885,double,-0.919384
36,0.15,stand,0.006239500839952361,0.036477081833449804,0.005519558435324028,-0.002177013757077913,-0.10487239685427908,0.09263552480461015,-0.00023998080156942094,0.0004799616030855554,0.0007199424046075181,-0.00047996160313884187,0.0,0.0007199424046066855,0.1148497942213357,0.17071257927642822,0.6333327481596708,-0.23040461243062801,0.8064368794884159,0.11516774621145363,0.5184691299252815,-0.17281382731677614,0.23037696442330396,0.005927999999999933,-0.10116999999999998,-0.929047,0.005354999999999777,0.18071399999999999,-0.919404,0.0005730000000001567,0.28188399999999997,0.009642999999999957,0.9985034567687219,0.902127894858165,double,-0.919404
37,0.154167,stand,0.024718022558240023,0.0007199424046016899,-0.03887688984881097,0.3649682273849592,0.5993235705614406,-0.015107198850328412,0.0014398848092033799,-0.004799616030722338,-0.0002399808015352843,0.0028797696185133325,0.0021598272138183914,-0.0028797696184300722,4.434490453152782,-8.58102698076508,-10.654295244572824,0.40313549574581214,-1.2669972723321068,-0.23036314042303851,0.8062709915171997,0.5183170659511374,-0.8638617765866942,0.0058309999999996975,-0.10119299999999998,-0.928886,0.005263999999999935,0.18072,-0.919254,0.0005669999999997621,0.28191299999999997,0.009631999999999974,0.9916388509077787,0.8959968655657531,double,-0.919254
38,0.158333,stand,-0.000960153624607542,0.03264522323572369,-0.0033605376860197985,0.015227002349916207,-0.03376450901984027,0.02668779537837184,0.001920307249215084,-0.0033605376860197985,-0.0004800768122904462,-0.002640422467644091,0.0004800768122904462,0.0048007681228994644,-6.163748483640793,7.663293526433505,8.525288565240313,0.11531983677669315,0.34543407218015815,-0.057632263743437766,-1.3250581099753767,-0.4032046091041632,1.84362403776513,0.005843000000000043,-0.10134299999999996,-0.9288740000000001,0.005256999999999845,0.18058599999999997,-0.91922,0.0005860000000001975,0.28192899999999993,0.009654000000000051,0.9934997292329374,0.8942933819511614,double,-0.91922
39,0.1625,stand,-0.0007199424046016899,0.0335973122150164,-0.005519558435324028,0.025445025285251662,-0.017155755758384253,0.03741479974435082,0.0016798656107728006,-0.005039596832265116,0.0007199424046075181,0.0021598272138050696,-0.0014398848092167015,0.0,0.05764608111491523,0.22848307638413853,-0.5181235299506184,-0.057701377115978655,-0.40294195974209635,0.2879815735296288,1.1519677661265073,-0.4607539288474072,-1.1520921821213006,0.005853000000000108,-0.10150399999999998,-0.928848,0.005268999999999746,0.18044,-0.919197,0.000584000000000362,0.281944,0.009650999999999965,0.9910653916071663,0.8991636845747006,double,-0.919197
40,0.166667,stand,-0.0028797696184067597,0.035517158627318655,-0.005279577633807893,0.01000707013246367,-0.007155291100940225,0.03550656744421851,-0.0009599232061711108,-0.0011999040076872453,0.0007199424046083507,-0.0016798656106662279,0.0031197504199761807,0.0007199424046083507,-0.5183170659479404,0.4607262808500734,0.05759078510106416,-0.6334986361756441,0.9214525616937526,1.99824158499848e-13,-0.921452561668177,1.0942249170129297,0.1727723553175786,0.005860999999999894,-0.10165700000000005,-0.928823,0.005274000000000001,0.180305,-0.919172,0.0005869999999998932,0.28196200000000005,0.009650999999999965,0.9971717991312875,0.8974638744207701,double,-0.919172
41,0.170833,stand,-0.005760921747538653,0.03768602976475339,-0.0040806529044488055,-0.020844161674455883,-0.011749449847274527,0.0175582535357436,0.0007201152184290069,-0.0014402304368580138,-0.001680268843014896,0.002400384061358957,0.00024003840613856067,-0.0007201152184356692,-0.691587164938044,0.5206123709636897,0.2877879811231605,0.40327374570334046,-0.05768757301266642,-0.5761428822907453,0.9794166279465151,-0.6912414819581416,-0.34566913659241927,0.005888000000000115,-0.10181999999999997,-0.928813,0.005307999999999868,0.180149,-0.919158,0.000580000000000247,0.28196899999999997,0.00965499999999997,0.9961212355117641,0.8992540932623865,double,-0.919158
42,0.175,stand,-0.00599952003838298,0.035277177825776114,-0.005759539236866844,0.005897490369878094,-0.02052444976561316,0.031217035211160777,-0.0007199424046016947,-0.005279577633781285,0.0009599232061428088,0.0,0.0007199424046150163,0.0007199424046083555,-0.057259009081912345,-0.5780782190970214,-0.4029004877413122,-0.3455861826327597,-0.921369617692175,0.6335954041655195,-0.57604609103887,0.11516774621465284,0.345586182635957,0.005910000000000082,-0.10198899999999994,-0.928785,0.00533299999999981,0.18000500000000003,-0.919131,0.0005770000000002717,0.28199399999999997,0.00965399999999994,0.9909763105570272,0.9017630794787844,double,-0.919131
43,0.179167,stand,-0.00815934725218801,0.038636909047281516,-0.003359731221492315,-0.009181658637689742,0.0047043462658056525,0.0004522093760539886,0.004079673626040718,-0.0038396928245778704,0.003119750419967022,-0.001199904007633959,0.0021598272138183914,0.0004799616030705686,-0.5183170659479306,0.8062709914819771,0.5759078510618015,1.15181570209801,0.3455447106319686,0.5183170659525345,-0.2879539255181084,0.34554471063195913,-0.057590785106260305,0.005960999999999661,-0.10216599999999998,-0.9287580000000001,0.005361999999999867,0.17985299999999999,-0.919115,0.0005989999999997941,0.28201899999999996,0.009643000000000068,0.9893125436238692,0.8993751001993464,double,-0.919115
44,0.183333,stand,-0.008161305809004208,0.03792606817090527,-0.004080652904475455,0.001179928964086614,-0.002555801761750054,-0.011100199857337317,-0.002640422467537492,-0.0026404224675907915,-0.003600576092175015,0.0031204992798945625,-0.0007201152184290069,-0.0002400384061435575,-0.00047012885650476983,-0.17062911098805716,-0.17304889173863172,-1.6130811554436404,0.28787094502810323,-1.6131364647484474,1.037062719041891,-0.6912967912259713,-0.1728276546361319,0.005984000000000211,-0.10233499999999995,-0.928756,0.005409000000000219,0.17969200000000002,-0.919099,0.0005749999999999922,0.28202699999999997,0.009657000000000027,0.9913545436130401,0.8980775083372166,double,-0.919099
45,0.1875,stand,-0.0057595392368135195,0.038156947444209284,-0.0031197504199761807,0.008450910400706382,-0.01798087244752472,-0.006606911274763908,-0.0014398848092033799,-0.0023998080153744905,-0.000959923206143635,0.0021598272138050696,0.000959923206131146,-0.002159827213823387,0.5763778670963969,0.05540659306551822,0.23059814842795143,0.288105989521025,0.057742849103983855,0.6337059961678371,-0.2305428524332834,0.40317696773701733,-0.4607124568466109,0.006002000000000063,-0.10250400000000004,-0.928747,0.005441999999999947,0.17953699999999995,-0.919095,0.000560000000000116,0.282041,0.009651999999999994,0.99506886328855,0.8981437612734733,double,-0.919095
46,0.191667,stand,-0.005039596832211829,0.03719702423805149,-0.001199904007660602,0.0038056694096453604,-0.01385323535500608,-0.0180984592058949,0.0021598272138050696,-0.005759539236866806,0.001199904007679752,-0.0007199424046016899,-0.0002399808015294561,0.0004799616030722338,0.1727723553159802,-0.2303631404266361,0.46072628085327016,0.8638617765799006,-0.8062709914788366,0.5183170659523362,-0.6910894212639206,-0.2879539255245023,0.6334986361640552,0.006031999999999815,-0.10268300000000002,-0.928737,0.005459999999999798,0.179381,-0.919088,0.0005720000000000169,0.28206400000000004,0.009649000000000019,0.9895547837315424,0.9020134567687592,double,-0.919088
47,0.195833,stand,-0.002160345655393619,0.03888622179548616,-0.0021603456553136702,0.02781190849494776,-0.054647466038906495,0.005178815103076323,0.00048007681225047176,-0.0036005760921716838,-0.0012001920307252827,0.0016802688430365487,0.001200192030719453,0.0012001920307244498,0.6911308633745099,0.4054722893506169,-0.23054288229790385,-0.4032046091105609,0.5182340721783775,-0.5761152276536324,0.576142882294344,0.3456967912263341,0.17288296391075744,0.006043000000000021,-0.10286000000000001,-0.928733,0.0054760000000002584,0.179224,-0.9190740000000001,0.0005669999999997621,0.282084,0.009658999999999973,0.9936240288644275,0.8994294133576903,double,-0.9190740000000001
48,0.2,stand,-0.004799616030642408,0.041996640268787154,0.00599952003838294,-0.006483738088268091,-0.09057266159882679,0.007867875356384084,0.0016798656107728006,-0.006239500839925718,0.0004799616030722338,0.00023998080146284804,0.0011999040076872453,0.0009599232061428024,-0.6333742201220991,0.7464407183347707,1.958211109598417,0.2879262775431552,-0.6332912761588748,0.40320461574214417,-0.3456414786593951,-6.911999812998134e-05,-0.05765990510718674,0.006069999999999798,-0.10306100000000001,-0.9287559999999999,0.005496999999999641,0.179054,-0.919095,0.0005730000000001567,0.282115,0.00966099999999992,0.9892008639308875,0.9007979110877593,double,-0.919095
49,0.204167,walk,-0.02351811855060622,0.06551475881928708,0.037676985841150624,-0.28502769583102056,-0.7625022083074228,0.01736944451279292,-0.002159827213805084,-0.0045596352291795905,-0.00119990400767976,0.0014398848093099624,-0.000479961603072237,0.0,-4.492081238292277,5.643896940364784,7.60198363397357,-0.9214525616937621,0.4031354957394137,-0.4031354957408215,0.2879539255692635,-0.40313549574261864,-0.23036314042304004,0.006159000000000248,-0.10335299999999997,-0.928918,0.005601000000000411,0.17877900000000002,-0.9192520000000001,0.0005579999999998364,0.282132,0.009665999999999952,0.991356618356557,0.900810380241296,double,-0.9192520000000001
50,0.208333,stand,0.0038406144983235695,0.045607297167552414,0.012001920307247829,0.010577015429342612,-0.15680663073125672,0.02801927118499831,0.0019203072491084854,-0.002880460873742677,0.0024003840614497322,0.0,0.0024003840614522307,-0.0007201152184340036,6.567146675211179,-4.778555365274759,-6.1630018084260145,0.9793889733349895,0.40306633591860597,0.8642074097766418,-0.3456276546591362,0.6913935824590652,-0.17285530927364454,0.0061510000000000176,-0.10355500000000001,-0.9289580000000001,0.005585000000000395,0.178599,-0.919305,0.0005659999999996224,0.282154,0.009653000000000023,0.9929789051149405,0.89929320910989,double,-0.919305
51,0.2125,stand,0.0038396928245778704,0.04751619870409786,0.017998560115175463,-0.0005702108921318846,-0.17335107160771518,0.016279702275769303,0.00047996160313884187,-0.005519558435324028,-0.001679865610751153,-0.00047996160313884187,-0.0004799616030722338,0.0026397888168939554,-0.00022118400424743674,0.4580997207932428,1.4390784276284205,-0.3456553026085054,-0.6333327481596708,-0.9791815868012674,-0.11518157022770373,-0.691227661272969,0.8063124634816308,0.006137000000000281,-0.10377599999999998,-0.92904,0.0055670000000001,0.17839900000000003,-0.919369,0.0005700000000001815,0.282175,0.009670999999999985,0.9903509014624237,0.8987472367444016,double,-0.919369
52,0.216667,stand,0.021118310535231572,0.011999040076792523,-0.02807775377967905,0.4114496007775327,0.5514572458351155,-0.0675753170282461,0.00023998080146284804,-0.007199424046070185,0.001679865610751153,0.0,0.0,0.0009599232061444676,4.146536527634674,-8.52343619565762,-11.057430740305849,-0.05759078513942731,-0.4031354957394183,0.8062709914812342,0.11518157022770373,0.11518157021171907,-0.4031354957402175,0.006049999999999667,-0.10385599999999995,-0.9289160000000001,0.00547899999999979,0.17834900000000004,-0.9192480000000001,0.0005709999999998772,0.282205,0.00966800000000001,0.9876721582214183,0.9017201279897592,double,-0.9192480000000001
53,0.220833,walk,0.0038406144983235695,0.04992798847816643,0.008641382621201382,0.029494870089830958,-0.11954895183044033,-0.025938382730989563,0.001440230436964612,-0.0064810369659143606,-0.0031204992798845687,0.0007201152184290069,0.0024003840614522307,0.0,-4.147310618556887,9.104404321021095,8.814002976687567,0.28810600948194026,0.17244048971575232,-1.1522719372625345,0.1728553092724451,0.5761843642468144,-0.23041843642449997,0.006040000000000045,-0.10409099999999999,-0.9289649999999999,0.005465999999999749,0.178151,-0.919284,0.0005740000000002965,0.282242,0.00968099999999994,0.9877734783245524,0.8990132091098924,double,-0.919284
54,0.225,stand,-0.004799616030748981,0.04487640988720724,0.0035997120230350926,0.049010283718670666,-0.08549530828494024,-0.033699243594036796,-0.0016798656107728006,-0.006239500839952361,0.0007199424046075181,0.0007199424046016899,0.0007199424046016899,0.0004799616030705686,-2.073489447821584,-1.2122818792798626,-1.20990415122781,-0.7487631504049459,0.05796403310823109,0.9216322736962043,-4.147200079600411e-05,-0.40327373574526976,0.11518157021131945,0.006053000000000086,-0.10430400000000006,-0.9289769999999999,0.005488999999999855,0.177967,-0.9192969999999999,0.000564000000000231,0.28227100000000005,0.009680000000000022,0.9891638931411928,0.9013239837773819,double,-0.9192969999999999
55,0.229167,stand,-0.00839932805375743,0.046556275497953395,0.0002399808015427777,0.0507870265476149,-0.060853190317916035,-0.03823494004896492,0.0031197504199761807,-0.008159347252214653,-0.000959923206143635,-0.0007199424046016899,-0.0007199424046016899,-0.0002399808015361169,-0.8638617765799005,0.4031354957394183,-0.8062709914788365,1.1518157021235844,-0.4607262808404822,-0.40313549574061713,-0.3455447106319603,-0.3455447106319603,-0.17277235531717897,0.006101000000000134,-0.10453200000000001,-0.928982,0.005520999999999887,0.17777000000000004,-0.919299,0.000580000000000247,0.28230200000000005,0.009682999999999997,0.985353304996722,0.9014265798962056,double,-0.919299
56,0.233333,stand,-0.010081613058112695,0.04656745079213331,-0.0026404224675907915,0.03363247291811683,-0.035975940447155054,-0.05707518469906105,-0.0004800768123570702,-0.008401344215076146,-0.0009601536245800595,0.0002400384061785351,0.0026404224675907915,0.0014402304368713384,-0.4038130111270436,0.0026824998031473226,-0.6914074097776205,-0.8640967912465791,-0.05808856525719948,-5.530927422574221e-05,0.23043226374945375,0.8066166279866729,0.4033152276542136,0.006140999999999952,-0.10476100000000005,-0.928975,0.005564000000000124,0.177587,-0.9192819999999999,0.0005769999999998277,0.28234800000000004,0.009693000000000063,0.9858839184154353,0.8980412733677485,double,-0.9192819999999999
57,0.2375,stand,-0.013918886489108195,0.04559635229180923,-0.005759539236866844,0.05720951276055221,0.0011029015872616942,-0.052638119072253485,-0.001679865610666239,-0.006719462442984675,-0.0004799616030714044,0.001199904007633967,-0.0011999040076872533,0.0038396928245729004,-0.9208719536826306,-0.23304499647806165,-0.7485281423748669,-0.2879262774920028,0.40361933575509495,0.11523686621278086,0.23034931640399264,-0.9216046256966803,0.5758249070558137,0.006192000000000419,-0.10497899999999993,-0.9289529999999999,0.005627000000000049,0.177392,-0.919242,0.0005650000000003708,0.2823709999999999,0.009710999999999914,0.9884285448032906,0.895893417452809,double,-0.919242
58,0.241667,stand,-0.01367890568753868,0.04391648668107609,-0.008879289656816343,0.06178337726922281,-0.00774217106730653,-0.060969248163162404,0.0031197504198696075,-0.011759059275276389,-0.0002399808015361169,0.0019198464123422216,-0.0002399808015294561,-0.0009599232061428024,0.057590785113874346,-0.40313549573629437,-0.7486802063713693,1.1518157020724362,-1.2094064872310317,0.057590785105660486,0.17277235534155364,0.23036314042663697,-1.1518157021155984,0.00626199999999999,-0.10521100000000005,-0.928917,0.005692000000000252,0.17720799999999998,-0.919209,0.0005699999999997374,0.28241900000000003,0.009707999999999939,0.9797196106966164,0.8993202879768818,double,-0.919209
59,0.245833,stand,-0.008401344215076146,0.04872779644742033,-0.0072011521843433676,0.024531452253190717,-0.020200118059792757,-0.040942528433762386,0.002880460873822626,-0.008881421027353268,-0.001680268843014896,-0.0031204992798945625,0.0019203072491617847,0.0024003840614488996,1.2668174441820765,1.1548991277830616,0.4028174441845833,-0.057438681240274,0.6907436984933075,-0.3457244458662453,-1.209876546384249,0.5185521005019778,0.8066028006701151,0.006309000000000342,-0.10545099999999996,-0.928894,0.005714000000000219,0.17701300000000003,-0.919169,0.0005950000000001232,0.282464,0.009724999999999984,0.9841886119015841,0.8954495168863319,double,-0.919169
60,0.25,walk,-0.010799136069025349,0.05135589152868905,-0.00455963522917956,0.015474693944953625,0.004434491253009327,-0.0807335375905085,0.0023998080153744905,-0.00839932805375743,0.002159827213823387,0.00023998080156942094,0.0,0.0004799616030722338,-0.575424011026926,0.6306923641153641,0.6339133561708195,-0.11534745823089389,0.11569305821834344,0.9215493296948114,0.8064507034950756,-0.460836872849,-0.4608645208487315,0.006364000000000036,-0.10570000000000002,-0.9288660000000001,0.005759999999999987,0.17679899999999998,-0.9191480000000001,0.0006040000000000489,0.282499,0.009718000000000004,0.9850025331899328,0.9019256443574257,double,-0.9191480000000001
61,0.254167,walk,-0.009119270458359181,0.05135589152867607,-0.004319654427663454,0.022940388271177198,-0.02334088066119619,-0.08140204251412868,-0.0007199424047082675,-0.009839212862960876,-0.0007199424046083555,0.00023998080146284964,0.000479961603072237,0.0019198464122872829,0.40313549572022495,-3.1155916712768175e-12,0.057590785101057675,-0.748680206403354,-0.3455447106319785,-0.6910894212699205,-2.557506603761872e-11,0.1151815702117206,0.345544710634763,0.0063989999999995995,-0.10595499999999997,-0.928851,0.0057989999999996655,0.176587,-0.919122,0.0005999999999999339,0.28254199999999996,0.009728999999999988,0.9835137478237586,0.8993876162455472,double,-0.919122
62,0.258333,walk,-0.005520883341360118,0.05304848775803434,-0.0009601536245808924,0.007034926008879831,-0.05349877266253032,-0.08983062777423186,-0.00048007681225047176,-0.00864138262122803,0.0009601536245800595,0.0002400384061785351,0.0,0.0012001920307244498,0.8637511082570957,0.40628810114216796,0.8064092182147287,0.057576954502591364,0.2875252620578121,0.403287573016902,1.3827344139572945e-05,-0.11520921821225076,-0.17274469072559592,0.00641999999999987,-0.10621199999999997,-0.928843,0.005822999999999912,0.17636600000000002,-0.919113,0.0005969999999999587,0.282578,0.009730000000000016,0.9854869922009679,0.9006600658050815,double,-0.919113
63,0.2625,walk,-0.005519558435350634,0.05639548836092715,0.004319654427663397,0.03692929637532485,-0.048651526444990906,-0.04969109005885655,-0.00023998080156941934,-0.00863930885530015,0.001679865610751142,0.0011999040076339509,0.0,0.0,0.0003179520061156794,0.8032158874232739,1.267052568333153,0.057618433088805036,0.0004976640095704672,0.17271705931631318,0.23034931640398573,0.0,-0.28802304553022334,0.006441999999999837,-0.106483,-0.9288540000000001,0.0058509999999998286,0.17613100000000004,-0.919131,0.0005910000000000082,0.28261400000000003,0.009723000000000037,0.9853260248557207,0.9007701599872768,double,-0.919131
64,0.266667,walk,-0.0014398848092033894,0.05663546916247068,0.0016798656107461687,0.037446774816997944,-0.08436019310064778,-0.060339011395600294,0.004079673626147319,-0.01103911687064813,-0.0007199424046075229,-0.0007199424046016947,-0.0002399808015427793,0.0007199424046083555,0.9790433468075995,0.05759078510763813,-0.6334986361692447,1.0366341319214694,-0.575907851055434,-0.5759078510579981,-0.46072628083409084,-0.05759078510745876,0.1727723553175809,0.006464999999999943,-0.106765,-0.928864,0.005853999999999804,0.175894,-0.919135,0.0006110000000001392,0.282659,0.009728999999999988,0.9803485825189192,0.9009665798961954,double,-0.919135
65,0.270833,walk,0.0012001920306794786,0.05736917906864836,0.004800768122904461,0.03574157242438257,-0.0831239479392054,-0.07091833837009161,-0.00048007681225047176,-0.009601536245808923,-0.0002400384061452231,0.0002400384061785351,0.0016802688430232239,0.0002400384061452231,0.6337198367457672,0.17611855645167548,0.74913646475235,-1.0945152276518932,0.3450745618913121,0.11519539089349484,0.23043226374945489,0.4609336640820936,-0.1151953908936947,0.006458000000000297,-0.10704400000000003,-0.9288850000000001,0.005850000000000133,0.17566200000000004,-0.919154,0.000608000000000164,0.28270600000000007,0.009731000000000045,0.9839724550935942,0.899832971504002,double,-0.919154
66,0.275,walk,-0.0014398848092033701,0.057595392368614384,0.00455963522917953,0.07414084370532627,-0.11974392179145785,-0.05584034639061193,0.0011999040076339509,-0.008399328053730731,0.0021598272138233727,-0.0028797696184067402,-0.0009599232061444612,0.003599712023038399,-0.6335677561513868,0.05428684904392258,-0.057867265112774104,0.40316314372076073,0.28850688554792,0.5759216750584539,-0.7486940303780301,-0.6335954041679062,0.8062571674809575,0.006469000000000058,-0.10731899999999994,-0.928895,0.005844000000000182,0.17541800000000002,-0.919158,0.0006249999999998757,0.28273699999999996,0.009736999999999996,0.9854080182810239,0.8947820610869972,double,-0.919158
67,0.279167,walk,-0.0009599232061711172,0.05783537317014461,0.0047996160307223696,0.05062006146802296,-0.13133166067281113,-0.07588451791498253,0.0019198464123422344,-0.008639308855300266,-0.00119990400767976,0.0009599232061711172,-0.000479961603072237,-0.0019198464122872829,0.11518157020212519,0.05759078510444594,0.05759078510747328,0.17277235534156168,-0.057590785113879724,-0.8062709914814379,0.9214525616937556,0.11518157021171753,-1.3245880574335764,0.006481000000000403,-0.10759599999999997,-0.9289200000000001,0.005852000000000412,0.17517500000000003,-0.9191860000000001,0.0006289999999999907,0.282771,0.00973400000000002,0.9851149555507793,0.8989942327053981,double,-0.9191860000000001
68,0.283333,walk,-0.00600096015361059,0.060249639942391034,0.009361497839630388,0.07512250197533304,-0.11296847644169518,-0.05850341106933453,0.004080652904395506,-0.011281805088818823,0.0007201152184348364,-0.0004800768123570702,0.00024003840613856067,0.0012001920307244498,-1.2100424741813416,0.5795167480188246,1.0950268384320727,0.5186765463401993,-0.6343005841379151,0.46087835480427153,-0.3456553092962521,0.17282765463533295,0.7489290549716108,0.0065230000000000565,-0.10789399999999999,-0.928956,0.005875000000000075,0.174925,-0.9192199999999999,0.0006479999999999819,0.282819,0.009736000000000078,0.9799688145829731,0.9004487591714085,double,-0.9192199999999999
69,0.2875,walk,-0.0047996160306424404,0.06335493160546868,0.00935925125990196,0.07516649757204218,-0.09895752234006017,-0.04414072991210559,-0.0009599232061711172,-0.008159347252214707,0.0,-0.002879769618406779,0.0002399808015427793,0.004319654427645137,0.2882995255503135,0.7452103823080543,-0.0005391360039423137,-1.2096414952163792,0.749329934390241,-0.17281382731817627,-0.5758802030356904,-1.3823997067764481e-05,0.7486110863740593,0.0065389999999996284,-0.10819199999999995,-0.928995,0.0058829999999998606,0.17466200000000004,-0.919241,0.0006559999999997679,0.282854,0.00975400000000004,0.9863073012010081,0.8937981298185538,double,-0.919241
70,0.291667,walk,-0.005759539236920054,0.06239500839933669,0.0021598272138316985,0.06707823771548777,-0.16892252517087933,-0.0675602467391558,0.005999520038489473,-0.010079193664503522,-0.0007199424046075133,0.0014398848092033701,-0.002399808015361153,-0.0002399808015344501,-0.23036314045538908,-0.2303631404204417,-1.7277235531725958,1.6701327680970812,-0.4607262808468444,-0.17277235531737647,1.036634131895876,-0.6334986361660456,-1.0942249170097318,0.00658800000000026,-0.10849399999999998,-0.929007,0.005913000000000057,0.174392,-0.919251,0.0006750000000002032,0.28288599999999997,0.009755999999999987,0.980413815619964,0.8977584945561545,double,-0.919251
71,0.295833,walk,-0.010081613058112695,0.06625060009601495,0.0072011521843433676,0.058902201472453335,-0.12915153118711506,-0.03579768622440965,-0.001920307249215084,-0.010561689870389815,0.0021603456553053423,-0.0007201152184290069,0.0014402304368713384,0.0021603456553036765,-1.0374637112800378,0.9254900856164809,1.2101116107805245,-1.9010627190841458,-0.11581762023194736,0.6913797551399072,-0.518482963905995,0.9217567096093348,0.5761705369270583,0.006622000000000128,-0.10881400000000002,-0.929028,0.005952000000000179,0.174122,-0.919272,0.0006699999999999484,0.282936,0.009755999999999987,0.9817498884173823,0.8979492926226939,double,-0.919272
72,0.3,walk,-0.0047996160306424404,0.0662347012239021,0.004319654427663454,0.03947676930907339,-0.20486284650971348,-0.04525020413934934,0.00023998080156942253,-0.011279097672190909,0.0016798656107511643,-0.0019198464122356616,-0.001439884809216711,0.0011999040076805924,1.2675778803624393,-0.0038154240731592386,-0.6915041412718814,0.5184276579756465,-0.1721640993043192,-0.11530598621410625,-0.28791245351731737,-0.691172365271914,-0.2304875564250275,0.0066429999999999545,-0.10913700000000004,-0.9290390000000001,0.00596400000000008,0.17384,-0.919285,0.0006789999999998741,0.28297700000000003,0.00975400000000004,0.9809899453830546,0.8979882217873165,double,-0.919285
73,0.304167,walk,-0.030957523398192178,0.09311255099591949,0.045356371490279164,-0.21762309841053715,-0.9483119976534854,0.031460480709445106,0.0033597312214390064,-0.012718982481394128,0.0007199424046075133,-0.0011999040077405238,0.002159827213818377,0.0016798656107494766,-6.277395576565764,6.450167931849577,9.848024253087448,0.7486802063521862,-0.3455447106319194,-0.23036314042324063,0.17277235529040852,0.8638617765862877,0.11518157021091446,0.006785999999999959,-0.10957800000000001,-0.9292250000000001,0.006088000000000093,0.17346099999999998,-0.919467,0.0006979999999998654,0.283039,0.009758000000000044,0.9780417930864945,0.8974404385256887,double,-0.919467
74,0.308333,walk,0.023043686989941414,0.04632741238598142,-0.02616418626980933,0.2677711096026355,0.5740848061853987,-0.1405009957576672,0.0,-0.011761881901095944,0.0014402304368696728,-0.0002400384061785351,0.0004800768122904462,-0.0009601536245792267,12.962364471467486,-11.23023010320164,-17.16768069133184,-0.806464527469756,0.22974089781521428,0.1728967912295149,0.2304046091123351,-0.4032046091041598,-0.6337060094403988,0.006689999999999863,-0.10981999999999997,-0.92911,0.0059909999999998576,0.17326999999999998,-0.919362,0.0006990000000000052,0.28308999999999995,0.009747999999999979,0.9802504479961771,0.9006866763902286,double,-0.919362
75,0.3125,walk,0.002879769618406779,0.07175425965922616,0.0067194624430113176,0.06476711354135896,-0.19667469441823776,-0.04055842526299116,0.0,-0.008399328053757487,0.003599712023038447,0.00023998080156942253,0.0002399808015427793,0.003599712023038447,-4.838953052924106,6.10195518916364,7.891444375526959,0.0,0.806948367491835,0.5182341219507528,0.11519539422797226,-0.057618433104792,1.094280213011207,0.006677999999999962,-0.11015399999999997,-0.929123,0.005980000000000096,0.17297200000000001,-0.919375,0.0006979999999998654,0.283126,0.009747999999999979,0.9847696722144921,0.8964938744207136,double,-0.919375
76,0.316667,walk,-0.001199904007633967,0.07367410607151512,0.008399328053757487,0.06199550213591235,-0.1488622202838126,-0.01849568298341638,0.0007199424046016947,-0.00935925125990196,0.005279577633788779,0.00047996160303227217,-0.0002399808015427793,0.0011999040076789273,-0.9790433467820421,0.4607262808468843,0.40313549573942387,0.17277235531598242,-0.2303631404234409,0.4031354957404227,0.057590785088277176,-0.11518157021491753,-0.5759078510582034,0.006685999999999748,-0.11049999999999999,-0.9291360000000001,0.0059869999999997425,0.17266399999999998,-0.919405,0.0006990000000000052,0.28316399999999997,0.009731000000000045,0.9820503914308292,0.9004992850271998,double,-0.919405
77,0.320833,walk,-0.0002400384061785351,0.07825252040326278,0.004560729716752576,0.06341248846826643,-0.13938966354250626,0.0005655950356024996,0.002640422467644091,-0.009601536245808923,0.007681228996639643,-0.0012001920306794786,-0.001200192030719453,0.0043206913106106845,0.23040460908675736,1.0989952788640558,-0.9214110266454413,0.4609889733659133,-0.05815770184996697,0.5764885652546478,-0.4033014003148703,-0.23048757301408376,0.7491088101132393,0.006698000000000093,-0.11086600000000002,-0.929123,0.005983000000000072,0.17233300000000001,-0.9194060000000001,0.0007150000000000212,0.28319900000000003,0.009716999999999976,0.9790395472916494,0.8950931302585363,double,-0.9194060000000001
78,0.325,walk,-0.004079673626040691,0.07751379889609197,0.00023998080151613289,0.07673695045870634,-0.14460074806696346,-0.01320475733091626,0.003359731221545579,-0.01703863690903088,0.0026397888168947707,0.0011999040076339509,0.0028797696184333834,-0.0045596352291828604,-0.9214387376678971,-0.17727897940263918,-1.0368967879137054,0.17262029131305082,-1.7847613782629954,-1.209848855230342,0.5759769710375358,0.9791124667993294,-2.1311078809199606,0.006728999999999985,-0.11125999999999997,-0.929113,0.006004999999999594,0.172022,-0.919426,0.000724000000000391,0.283282,0.009687000000000001,0.9707229979052281,0.8939220450898281,double,-0.919426
79,0.329167,walk,-0.0026397888169439293,0.07775377969762247,-0.0014398848092033894,0.07918298213924437,-0.12804225751233275,-0.019833874391857426,0.001679865610666239,-0.011519078473733688,0.00311975041996621,0.00047996160313884507,0.010319174466033114,-0.008639308855290274,0.34554471060637637,0.057590785104510885,-0.403135495733029,-0.40313549577138225,1.3245880574267397,0.11518157021152915,-0.17277235529040313,1.7853143382768832,-0.9790433467980411,0.0067469999999998365,-0.11163200000000001,-0.929094,0.006018000000000079,0.17174099999999998,-0.919456,0.0007289999999997576,0.283373,0.009637999999999924,0.9799137996488458,0.8811754150122515,double,-0.919456
80,0.333333,walk,-0.0016802688430365487,0.08113298127700545,0.0012001920307327777,0.08180804802673391,-0.0959476885058524,-0.01732299352671965,0.000960153624607542,-0.008881421027353268,0.004560729716755075,0.0012001920306794786,-0.008881421027366592,0.012241958713393052,0.23032164520100332,0.8111381611577009,0.633719836758561,-0.17275851801696987,0.6331390893856021,0.3458903736891176,0.17288296388397337,-4.6088803392702085,5.01230618547367,0.006758000000000042,-0.11200699999999997,-0.92908,0.00602999999999998,0.17136599999999996,-0.9194100000000001,0.0007280000000000619,0.28337299999999993,0.009669999999999956,0.9832832593888929,0.8780135492189836,double,-0.9194100000000001
81,0.3375,walk,-0.005279577633781215,0.08879289656826941,0.0019198464122889224,0.03736249191688241,-0.12548678253115775,-0.01887829574512109,0.0059995200383829005,-0.011519078473733534,0.005279577633788709,0.0011999040077405238,-0.0026397888168906074,0.0021598272138233727,-0.863765008578027,1.838232611294433,0.17270323531464823,1.20935119121078,-0.6329871481594063,0.17250969931212584,-6.911997575108014e-05,1.497871900762164,-2.419517998456828,0.00680499999999995,-0.112425,-0.9290660000000001,0.006057000000000201,0.170985,-0.919409,0.0007479999999997489,0.28341,0.009657000000000027,0.9766335146484573,0.8974038744206891,double,-0.919409
82,0.341667,walk,-0.009119270458359181,0.08375329973601876,-0.002879769618433422,0.08187496478152814,-0.1298833610024066,0.008046116123325404,0.0,-0.009599232061444739,0.005039596832253493,0.00023998080146284964,0.0026397888168906425,0.000479961603072237,-0.9214525616937816,-1.2094064872211854,-1.1518157021171997,-1.439769627641693,0.4607262808468455,-0.05759078510564364,-0.23036314045540668,1.2669972723257212,-0.4031354957406156,0.0068429999999999325,-0.11281400000000003,-0.929033,0.006095999999999879,0.170647,-0.9193950000000001,0.0007470000000000532,0.283461,0.009637999999999924,0.981930474365114,0.899130370306264,double,-0.9193950000000001
83,0.345833,walk,-0.009361497839683687,0.08593374939990991,-0.0021603456553136702,0.09112039121731914,-0.12837261860841545,0.022263896435183717,0.004080652904502104,-0.012001920307247829,0.003600576092175015,0.0,0.0019203072491617847,0.0014402304368696728,-0.05814387453780746,0.5233916619997959,0.17268938144977225,0.9795134192275806,-0.5767374569858589,-0.3454202448580118,-0.05760460908853804,-0.17270320876832868,0.23050140033543812,0.0068990000000002105,-0.11322200000000004,-0.929009,0.0061350000000000016,0.17029699999999998,-0.91938,0.000764000000000209,0.283519,0.009628999999999999,0.9780365222734491,0.8997093598975813,double,-0.91938
84,0.35,walk,-0.011759059275196538,0.08783297336212612,-0.003119750419976201,0.07126833871815669,-0.13241598654088674,0.010089424264185033,0.01343892488596935,-0.017278617710573888,0.016558675305975525,0.003839692824577896,0.010079193664516976,-0.012958963282937077,-0.5753687150258854,0.4557772887487909,-0.23023872442105503,2.2458056111032634,-1.2663060723124764,3.109695035709283,0.9214525616937648,1.9579761015971293,-3.4555300503496116,0.007003999999999788,-0.11365999999999998,-0.928927,0.006199999999999761,0.16997300000000004,-0.9194209999999999,0.0008040000000000269,0.283633,0.009506000000000014,0.9542547798499483,0.8768395791212586,double,-0.9194209999999999
85,0.354167,walk,-0.005759539236920054,0.09335253179746227,-0.004079673626093978,0.06013310406202839,-0.15683622679258052,0.020064593132727845,0.005279577633781215,-0.010799136069105207,0.00887928965682794,0.002159827213911628,0.003119750419962838,0.0014398848092150266,1.4397696276161358,1.3245880574360709,-0.23036314041703126,-1.9580866935896504,1.554951197856643,-1.8429051233855356,-0.4031354957202436,-1.6701327680715348,3.455447106347971,0.007050000000000001,-0.11409399999999997,-0.9288730000000001,0.006233000000000377,0.169597,-0.919398,0.0008169999999996236,0.28369099999999997,0.009475000000000011,0.9750925566323805,0.8984859273156256,double,-0.919398
86,0.358333,walk,-0.015122419587115743,0.08977436389822016,0.0014402304368580138,0.08817427415323009,-0.1032837849418435,0.01821258554518745,0.0038406144983235695,-0.01032165146423793,0.005280844935189078,0.003600576092145034,0.004560729716752576,-0.0002400384061452231,-2.2474508761871537,-0.858897719453217,1.3249889733442122,-0.3454064175366405,0.114614643511108,-0.8637649355830195,0.345835064386319,0.3458903736893272,-0.4032460910610294,0.007128999999999941,-0.11451099999999997,-0.9288569999999999,0.006311000000000178,0.169242,-0.919405,0.0008179999999997634,0.283753,0.009451999999999905,0.9796438562438585,0.8957872160029252,double,-0.919405
87,0.3625,walk,-0.00599952003838298,0.09599232061435414,-0.002879769618433422,0.05209420025596935,-0.14112045960488892,-0.007038175381818224,0.0014398848092033894,-0.01103911687064813,0.005039596832253493,0.004319654427610168,0.000959923206144474,0.0019198464122872829,2.1893207460361928,1.492190236653232,-1.0367170759038782,-0.5761290350660412,-0.17217792330458445,-0.05789491311149178,0.1725649953120081,-0.8641244325913421,0.5183308899526082,0.007159999999999833,-0.11495699999999998,-0.928824,0.006353999999999971,0.168846,-0.919385,0.0008059999999998624,0.28380299999999997,0.009438999999999975,0.9796330260675619,0.8975707426437445,double,-0.919385
88,0.366667,walk,-0.007919366450725109,0.09983201343891739,-0.001199904007660594,0.05364128037909655,-0.19448886078250832,0.03882673821262158,0.004319654427716683,-0.011519078473733534,0.0040796736261097975,0.00047996160313883867,0.0011999040076739157,-0.0004799616030722306,-0.46072628085963857,0.921452561690236,0.403135495745816,0.6910894212894821,-0.11518157021487883,-0.23036314042325132,-0.9214525616681786,0.05759078510425722,-0.5759078510581942,0.0072110000000003005,-0.115421,-0.928802,0.006389000000000422,0.168435,-0.919382,0.0008219999999998784,0.283856,0.009419999999999984,0.9783980247717368,0.9035023587526533,double,-0.919382
89,0.370833,walk,0.01632261161790182,0.0657705232837245,0.05424867978875379,0.04079411075774456,-0.6672873618879882,-0.33493998108717504,0.003600576092145034,-0.009361497839657038,0.0052808449351899114,0.002640422467537492,0.004560729716752576,-0.0002400384061452231,5.819005777394842,-8.176065807775531,13.309789677487842,-0.1726064175640059,0.5179022165330038,0.2883272465386733,0.5185935824288651,0.8067272465383241,0.05759078178756777,0.007157999999999998,-0.115734,-0.929006,0.006332000000000004,0.16818,-0.919609,0.0008259999999999934,0.283914,0.009396999999999989,0.981107826927332,0.8972376888399308,double,-0.919609
90,0.375,walk,0.0163186945044827,0.10703143748500228,-0.006959443244527454,0.06354123344519694,0.10773328156831817,0.1557207761564198,0.0023998080153745066,-0.014158867290597687,0.005039596832253493,0.0007199424046016947,-0.0004799616030589154,0.0021598272138234013,-0.000940032018027467,9.901827262125755,-14.6887744260335,-0.2881612855220865,-1.1512765661004742,-0.05789491311169181,-0.46087834483700707,-1.2096691432233069,0.5759216750584685,0.007099999999999884,-0.11623899999999993,-0.928956,0.0062669999999998005,0.16773200000000005,-0.919571,0.0008330000000000837,0.283971,0.009384999999999977,0.9746343332602319,0.9022721663407665,double,-0.919571
91,0.379167,walk,0.02543796496273531,0.11543076553875976,0.03191744660425713,-0.06480532260836085,-0.2941766598781477,0.1523138656946623,0.006239500839952402,-0.00983921286298752,0.006719462443004657,0.0009599232061711172,0.0019198464122756264,0.0004799616030705718,2.188449833993919,2.0156774787035108,9.329707187133383,0.9214525616937647,1.0366341318958943,0.4031354957406224,0.05759078511385261,0.5759078510522091,-0.4031354957410221,0.007020000000000248,-0.116761,-0.929061,0.006165000000000198,0.167259,-0.919702,0.0008550000000000502,0.28402,0.009359000000000006,0.977583943253781,0.9027442327054158,double,-0.919702
92,0.383333,walk,-0.004800768122824513,0.10369659145462977,0.020883341334627745,0.027333766628937373,-0.24663312365613532,-0.020251748718563167,0.002640422467537492,-0.015602496399419514,0.004080652904464629,-0.0007201152184290069,0.0012001920307327777,0.0007201152184356692,-7.258457293701344,-2.81665244458233,-2.6486090421577964,-0.8639170361053546,-1.383409394246757,-0.6334156357513265,-0.40327374570334207,-0.17274469072079887,0.05764609106219329,0.007050999999999696,-0.11725799999999997,-0.929131,0.00618199999999991,0.16683200000000004,-0.919786,0.0008689999999997866,0.28409,0.009345000000000048,0.9727633084063829,0.9039266048470487,double,-0.919786
93,0.3875,walk,-0.002639788816943894,0.10343172546196579,0.01703863690903088,0.06662615806538458,-0.28746024099561096,-0.03964272158674162,0.004319654427716683,-0.010799136069105207,0.006719462443004568,0.0014398848092033701,0.0014398848092166917,0.0021598272138233727,0.5185935459276704,-0.06356275321909761,-0.9226552497232625,0.4029834317684613,1.1527142621344542,0.6332636281593278,0.5183585379487305,0.05752166510293068,0.3455032386339555,0.007080000000000197,-0.11773399999999995,-0.9291739999999999,0.006199000000000066,0.16640700000000003,-0.919848,0.0008810000000001317,0.284141,0.009325999999999945,0.9776125078486961,0.9017926690357438,double,-0.919848
94,0.391667,walk,-0.006239500839952402,0.11279097672186912,0.017038636909057752,0.02294075226700491,-0.28103814111888337,-0.010480986972515104,0.002879769618406779,-0.011279097672190909,0.005039596832253493,0.0023998080153745066,0.0021598272138184057,-0.0002399808015361185,-0.8638617765799205,2.2460406191272826,6.448492114922221e-12,-0.34554471065752645,-0.11518157021495197,-0.403135495740601,0.23036314042983969,0.17277235531598706,-0.5759078510581965,0.00711800000000018,-0.118251,-0.929224,0.006235000000000213,0.16594599999999998,-0.9199200000000001,0.0008829999999999671,0.284197,0.009303999999999979,0.9788583708720882,0.9015641366437612,double,-0.9199200000000001
95,0.395833,walk,-0.007201152184290068,0.12794047047527732,0.017762842054733184,-0.1359422408443674,-0.2753752108844773,0.02951417200141423,0.004080652904395506,-0.013202112337980607,0.007921267402784034,-0.0016802688430365487,0.0021603456553003454,0.0024003840614488996,-0.23083325596199358,3.63646033447148,0.17383704888992596,0.28825810993488393,-0.4615973753695864,0.691711610785055,-0.9793751460420193,0.00012444586700424392,0.6337889733521402,0.007164999999999644,-0.11883900000000003,-0.929265,0.006257999999999875,0.16542199999999996,-0.919984,0.0009069999999997691,0.284261,0.009280999999999984,0.9734537104718097,0.9011227288813686,double,-0.919984
96,0.4,walk,-0.022318214542865384,0.10895128389727646,-0.003839692824577845,-0.04744693072656455,-0.25704176500177484,-0.08387817904942782,0.00311975041997616,-0.011999040076792443,0.006959443244540683,0.0043196544276101105,-0.0011999040076739157,0.0002399808015361153,-3.627804741678714,-4.557040215502932,-5.184193635543764,-0.23059814840876863,0.2887142455455136,-0.23081933243180808,1.4398663956435358,-0.806395407481218,-0.5184553059545879,0.007270999999999805,-0.11934299999999998,-0.92922,0.006368999999999847,0.16496300000000003,-0.919967,0.0009019999999999584,0.284306,0.009253000000000067,0.9763037945066799,0.8999872838438042,double,-0.919967
97,0.404167,walk,-0.026157907367443577,0.09287257019439127,-0.02039836813055009,0.0822569352756268,-0.08291966834236325,-0.18073452135881032,0.007919366450725215,-0.011759059275249823,0.00743940484761218,0.00047996160313884507,0.0035997120230351165,0.0007199424046083555,-0.9214525616938359,-3.8585826020843004,-3.973764172299578,1.1518157021236097,0.05759078510742041,0.1151815702115431,-0.9214525616681756,1.1518157021140052,0.11518157021172136,0.007413000000000114,-0.11977899999999997,-0.929104,0.006480000000000263,0.164591,-0.919879,0.0009329999999998506,0.28436999999999996,0.009225000000000039,0.9733158086486906,0.9015795941842388,double,-0.919879
98,0.408333,walk,-0.03312530004794751,0.10129620739317755,-0.007441190590495253,-0.03019684200350619,0.09188441052245704,-0.1262788267833148,0.0016802688430365487,-0.009601536245808923,0.006000960153624747,0.0019203072491084854,0.0007201152184423316,0.0009601536245792267,-1.6724418340143852,2.0219964471402476,3.1102202448523353,-1.4976230455325639,0.5178883892080891,-0.3452819716724513,0.3457382731564184,-0.6912138273146382,0.05765991837994984,0.007557999999999954,-0.12024099999999999,-0.929048,0.006625999999999799,0.16417200000000004,-0.919844,0.0009320000000001549,0.284413,0.00920399999999999,0.9809223571490189,0.9041858036758348,double,-0.919844
99,0.4125,walk,-0.04487640988719421,0.11183105351572464,-0.01439884809216711,0.010726569563849932,0.17043646786093822,-0.008507302165345367,0.0045596352291795905,-0.010319174466046434,0.007679385649147466,0.0007199424046016947,0.003839692824564574,-0.0009599232061428088,-2.820040758158572,2.528160816545994,-1.66970422406333,0.6909926532620729,-0.17221939530537939,0.4027898957337962,-0.28806451752022977,0.7486387343705929,-0.4607815768471434,0.007763999999999882,-0.12075000000000002,-0.928956,0.006815999999999711,0.16372199999999998,-0.9197879999999999,0.0009480000000001709,0.284472,0.009168000000000065,0.9772545121060479,0.9016153145291587,double,-0.9197879999999999
100,0.416667,walk,-0.042716582673388556,0.12287017038637114,-0.02063834893206595,-0.059183427993441624,0.11411520307411949,-0.00438031566484304,0.004799616030748949,-0.00911927045835906,0.004319654427645913,0.0035997120230084256,0.0009599232061444612,-0.0031197504199661683,0.5183170659480778,2.6491761148659507,-1.4973604127426907,0.057590785113836494,0.2879539255309253,-0.8062709914810482,0.691089421263909,-0.6910894212671205,-0.5183170659523262,0.007962000000000025,-0.12130000000000002,-0.928852,0.007008999999999599,0.16321399999999997,-0.9197150000000001,0.0009530000000004257,0.284514,0.00913699999999995,0.9813767750950592,0.9005312652062936,double,-0.9197150000000001
101,0.420833,walk,-0.039846375420093706,0.13514162265962068,-0.011281805088818823,-0.08561673732325815,0.08483307512113963,0.12359094631360389,0.004080652904395506,-0.012481997119551601,0.00624099855976997,0.001440230436964612,-0.0004800768122904462,0.0024003840614488996,0.6889599743866653,2.9456198447550475,2.2459298711586944,-0.17257876292689447,-0.807183548053898,0.4611963831310744,-0.518358518013397,-0.34565530927386134,1.3250442826248352,0.008144999999999847,-0.12191500000000005,-0.928779,0.007181000000000104,0.162649,-0.919658,0.0009639999999997428,0.28456400000000004,0.009121000000000046,0.9757672144008659,0.9040563787940485,double,-0.919658
102,0.425,walk,-0.044636429085731365,0.13582913366930985,-0.005519558435324065,-0.06712104305092628,0.085148596311457,0.10156857694246718,0.004799616030749013,-0.008159347252214707,0.006959443244539943,0.002639788816837356,0.0026397888169039643,0.0026397888168956385,-1.1495209180795982,0.16498944316994762,1.3828285705531056,0.17253734733705572,1.0373529799224668,0.17241293131028965,0.2878709814909409,0.7487078543783126,0.057452545103609386,0.00835100000000022,-0.12251500000000004,-0.9287270000000001,0.007378000000000107,0.16209400000000002,-0.919624,0.0009730000000001127,0.28460900000000006,0.009103000000000083,0.9804178999041628,0.9013495860798557,double,-0.919624
103,0.429167,walk,-0.04535637149022588,0.12694984401247844,-0.004799616030722306,-0.021319080581501674,0.028543273427108027,0.12373620132882826,0.0023998080153744745,-0.0071994240460701376,0.003599712023038399,0.0016798656107727896,0.0011999040076739157,0.0,-0.17277235529025917,-2.130859048915608,0.1727723553159955,-0.5759078510618,0.23036314042346093,-0.806270991481046,-0.23036314040426187,-0.34554471063835795,-0.6334986361640553,0.008550000000000058,-0.12307400000000002,-0.928692,0.00757399999999997,0.16157,-0.919604,0.0009760000000000879,0.284644,0.009087999999999985,0.9860011199104084,0.9056793451455472,double,-0.919604
104,0.433333,walk,-0.04776764282291938,0.14090254440710603,0.00600096015361059,-0.07311809106682395,0.04611385465086842,0.16358606695339253,0.0009601536245009435,-0.009121459433505152,0.005760921747479524,0.004560729716752576,0.0016802688430098993,-0.0014402304368696728,-0.5787977274828362,3.349183964144883,2.5925530927347307,-0.3455723453849087,-0.4613623109541558,0.5187733375998856,0.6915180283196795,0.11530600944214672,-0.34571061854768886,0.00875300000000001,-0.123699,-0.928693,0.007792000000000243,0.16098999999999997,-0.919635,0.0009609999999997676,0.28468899999999997,0.00905800000000001,0.98194828904998,0.9009711633533654,double,-0.919635
105,0.4375,walk,-0.04799616030717041,0.14998800095992088,0.001919846412288948,-0.08319009466304232,-0.05893061093010576,0.12575404566332712,0.003839692824577896,-0.0069594432445540975,0.00311975041996621,0.0014398848092033894,0.001919846412288948,0.0009599232061428088,-0.0548398090355253,2.1803351458639053,-0.9793889468014555,0.6910341252884494,0.5188423779580195,-0.6338304121702254,-0.7489428623828184,0.057494017105603576,0.5759907950593941,0.008969000000000005,-0.12435300000000005,-0.928688,0.007998000000000172,0.160373,-0.919639,0.0009709999999998331,0.28472600000000003,0.009048999999999974,0.9857687809977731,0.9052022127772792,double,-0.919639
106,0.441667,walk,-0.03743700503950127,0.15790736741060613,-0.002159827213805084,-0.05642202736235624,-0.13246949959853194,0.13288232610649223,0.004799616030749013,-0.006239500839925759,0.0014398848092158783,0.001199904007633967,0.0035997120230351165,-0.0002399808015361185,2.533994544677033,1.9004959084917916,-0.9790433467948295,0.23036314042983505,0.17277235532237634,-0.4031354957404226,-0.05759078511385261,0.4031354957394236,-0.28795392552890187,0.009144999999999737,-0.125037,-0.9286730000000001,0.008158999999999583,0.15972999999999998,-0.9196310000000001,0.0009860000000001534,0.284767,0.009041999999999994,0.9866624014074384,0.9032433151277166,double,-0.9196310000000001
107,0.445833,walk,-0.0424867978877378,0.1526644263082153,0.004560729716752576,-0.00580528467654031,-0.11545230776623575,0.13839413883599552,0.004320691310574041,-0.006961113778191482,0.005280844935189078,0.0031204992798945625,0.0021603456553136702,0.0007201152184356692,-1.21214422665303,-1.2585072257299124,1.61319177401768,-0.1149603264942323,-0.17321481955490214,0.9219779467050401,0.46101662800302307,-0.3455032087665495,0.23045991838016971,0.009339999999999904,-0.12570199999999998,-0.92867,0.00834899999999994,0.159103,-0.919647,0.0009909999999999641,0.284805,0.009023000000000003,0.983754248276369,0.9033315790768582,double,-0.919647
108,0.45,walk,-0.04223662107024972,0.1552675785937134,0.007439404847612913,-0.012879806726491418,-0.16235435918449154,0.0857237741485509,0.004079673626147264,-0.005039596832265082,0.0026397888168947707,0.0035997120231149983,0.002159827213818377,-0.0004799616030722306,0.06003763318648429,0.6247065719937785,0.6908267652652544,-0.0578396170930586,0.4611271768481847,-0.6338027641694953,0.11500185822424579,-0.00012441600558990744,-0.28799539753009135,0.009532999999999792,-0.12637000000000004,-0.92869,0.008539999999999992,0.15846499999999997,-0.91968,0.0009929999999997996,0.284835,0.009009999999999962,0.988332171709561,0.9028578366283008,double,-0.91968
109,0.454167,walk,-0.03911687065038066,0.15094792416606534,0.017278617710573888,-0.003034019715827933,-0.13003982032306496,0.08465811312183094,0.002159827213805084,-0.005519558435324065,0.000479961603072237,0.002639788816837356,0.0031197504199628797,0.0011999040076789273,0.7486802063520707,-1.0366341319049883,2.3612221893355003,-0.4607262808596571,-0.1151815702085399,-0.5183170659521349,-0.23036314045539902,0.23036314042344808,0.40313549574062096,0.009704999999999853,-0.12702200000000002,-0.92876,0.008713999999999889,0.15784899999999996,-0.919747,0.0009909999999999641,0.284871,0.009013000000000049,0.9900891835106405,0.9027712721585716,double,-0.919747
110,0.458333,walk,-0.0424867978876312,0.1560249639942351,0.019203072491591196,-0.02382450730185506,-0.15410391505484106,0.06450461047967214,0.001920307249215084,-0.004080652904475455,0.0007201152184348364,0.005760921747538653,0.0019203072491617847,0.0,-0.8089119628541858,1.2186845482884678,0.46194305833348714,-0.05749399054008637,0.345392590218101,0.05764609106159367,0.7491917740521591,-0.28791242698057945,-0.2880230455302272,0.009889999999999954,-0.12768900000000005,-0.9288369999999999,0.008915000000000006,0.15720699999999999,-0.919827,0.0009749999999999481,0.28489600000000004,0.009009999999999962,0.9923882630858629,0.8997790921421096,double,-0.919827
111,0.4625,walk,-0.04295656347495798,0.1581473482121468,0.013438924886022456,-0.01633433096882095,-0.16979933352765655,0.001296438843867622,0.0035997120230084256,0.0004799616030855522,0.0002399808015352827,0.0033597312214390064,0.003839692824577845,-0.001679865610751142,-0.11273472218065222,0.5093314657815401,-1.3832847625554825,0.40302490371810146,1.0944599250206317,-0.11522304221251502,-0.5762396270937433,0.46061568884474335,-0.40313549574061175,0.010083999999999982,-0.12834600000000002,-0.928892,0.009107999999999894,0.15656399999999998,-0.91989,0.0009760000000000879,0.28491,0.009002000000000066,0.9939341849100121,0.9010275044854628,double,-0.91989
112,0.466667,walk,-0.03983681305498235,0.1511879049675948,0.010079193664503655,-0.012264880006034566,-0.21023549522534593,-0.009945480964016963,0.006479481641521825,-0.004079673626120675,0.0,0.002159827213805084,0.0026397888168906425,0.0016798656107511643,0.7486802063776448,-1.6701327680710436,-0.806270991485198,0.6910894212895166,-1.0942249170161396,-0.05759078510565972,-0.28795392551810156,-0.2879539255308877,0.8062709914812396,0.010277000000000314,-0.12899300000000002,-0.928934,0.00928299999999993,0.155945,-0.919925,0.0009940000000003835,0.284938,0.009009000000000045,0.9872385760069999,0.9035733151277093,double,-0.919925
113,0.470833,walk,-0.04080652904459465,0.15386461833893475,0.011521843494970707,-0.06440570262338,-0.21484670209181708,0.013178660367061331,0.0014402304368580138,-0.002400384061438906,0.0004800768122904462,0.003600576092251633,0.0036005760921850086,-0.0014402304368696728,-0.23276908055984089,0.6425140113634071,0.3462913659306411,-1.2096138273316868,0.40309399056211426,0.1152368728493629,0.3458350644374815,0.23062584620604068,-0.7489428822901668,0.010453000000000046,-0.12964399999999998,-0.92898,0.009468000000000032,0.15531900000000004,-0.9199790000000001,0.0009850000000000136,0.284963,0.009000999999999926,0.9952663787941527,0.901170425794009,double,-0.9199790000000001
114,0.475,walk,-0.04727621790256872,0.15742740580753387,0.016318694504429413,-0.06857050589711519,-0.1798119183233442,-0.00027665987175127046,0.002879769618406779,0.001919846412288948,0.0,0.003359731221439051,0.004799616030709049,0.0002399808015361185,-1.5526011178243593,0.8550005924163994,1.1511521500980881,0.34546176663037514,1.0367723719049384,-0.11520921821225076,-0.05779814514340849,0.2877465655205296,0.40321843974221283,0.01066199999999995,-0.13029199999999996,-0.929048,0.009678999999999771,0.15468300000000001,-0.920046,0.0009830000000001782,0.284975,0.009001999999999954,0.9942315794329342,0.9002073484339008,double,-0.920046
115,0.479167,walk,-0.04967602591794256,0.15718742500600233,0.014878809695225826,-0.08642305082011507,-0.13346603153517456,0.018351297844760243,0.005279577633781215,-0.0021598272138316985,-0.003359731221502284,0.0028797696185133134,0.002399808015361153,0.0011999040076789112,-0.5759078510616333,-0.0575907851047599,-0.34554471063200765,0.5759078510617753,-0.9790433468012035,-0.8062709914812235,-0.11518157017656203,-0.5759078510554061,0.23036314042303466,0.010890999999999984,-0.13095600000000002,-0.9291240000000001,0.009898000000000184,0.154038,-0.920103,0.0009929999999997996,0.284994,0.009021000000000057,0.9889663913093942,0.9032300370101933,double,-0.920103
116,0.483333,walk,-0.06120979356699857,0.16154584733556857,0.01632261161784852,-0.06593961880785168,-0.14119771407970752,0.03948491110146299,0.0021603456552870205,-0.0009601536245808924,0.0009601536245800595,0.005760921747432055,0.004560729716752576,-0.0009601536245792267,-2.768547203325973,1.0461887492957833,0.3465679122954134,-0.7487354725142084,0.28796773625799454,1.036938273183471,0.6915871648868794,0.5187042010061022,-0.5184967912285493,0.011155000000000026,-0.131633,-0.929188,0.010177000000000103,0.15338400000000002,-0.920175,0.0009779999999999234,0.285017,0.009013000000000049,0.9957472612367284,0.8975197447268737,double,-0.920175
117,0.4875,walk,-0.04487640988719421,0.15334773218142653,0.010079193664503655,-0.10124653468125488,-0.1036555188770375,-0.033133887742778194,0.004319654427610168,0.0033597312215189806,-0.000479961603072237,0.006719462442984675,0.005039596832251828,-0.0021598272138234013,3.9196985072724866,-1.9673902457744383,-1.4983004447671946,0.5181926499455627,1.0366894279097425,-0.3456000066360222,0.23003136442347616,0.11491891420668451,-0.2878986295282413,0.011359999999999815,-0.13225799999999993,-0.929232,0.010391999999999957,0.152766,-0.920226,0.0009679999999998579,0.28502399999999994,0.009005999999999958,0.9908443139411066,0.8954857075437493,double,-0.920226
118,0.491667,walk,-0.044396448284161345,0.16246700263979685,0.00863930885530015,-0.16468429985063268,-0.19875691556578023,-0.02192383618414231,0.0028797696185133134,0.0016798656107461464,-0.0019198464122864246,0.0043196544276101105,0.006239500839938998,-0.0002399808015361153,0.11518157020227118,2.18844983402214,-0.34554471063198805,-0.3455447106063939,-0.4031354957458175,-0.3455447106345516,-0.5759078510618061,0.2879539255308762,0.4607262808464774,0.011557000000000262,-0.132928,-0.929276,0.01059499999999991,0.152115,-0.9202629999999999,0.0009620000000003515,0.285043,0.009013000000000049,0.993588025141137,0.8972155787380813,double,-0.9202629999999999
119,0.495833,walk,-0.058089294287104014,0.16202592414785902,0.009601536245808923,-0.1036097214217748,-0.11169797527564557,0.008337746364961752,0.0024003840614655555,0.0016802688430098993,-0.0009601536245800595,0.008161305809004208,0.005520883341333468,-0.0009601536245792267,-3.28680893013506,-0.10587577818959071,0.23097152916677188,-0.11507094504266864,9.679122989747569e-05,0.23036312714987145,0.9221438745545114,-0.1724957989931659,-0.17286913659220135,0.011809000000000403,-0.133596,-0.92932,0.010871000000000297,0.15146300000000001,-0.920307,0.0009380000000001054,0.285059,0.009013000000000049,0.9948610847420767,0.8933700875120594,double,-0.920307
120,0.5,walk,-0.05279577633781286,0.16918646508279703,0.007199424046070233,-0.054859493339236266,-0.04642916242675542,0.04134579144703468,0.002879769618406779,0.002879769618433422,-0.0021598272138234013,0.007199424046016947,0.0047996160307223696,-0.0011999040076789273,1.2703426804154516,1.718392352996892,-0.576460811072403,0.1150433301994783,0.2878571575290448,-0.2878986295280414,-0.2308331564644269,-0.17309030732207892,-0.05753548910480008,0.012040999999999968,-0.134289,-0.929359,0.011120999999999714,0.15077800000000002,-0.920342,0.000920000000000254,0.285067,0.009017000000000053,0.9923168655658566,0.8952709449459205,double,-0.920342
121,0.504167,walk,-0.060475161987074415,0.17422606191504653,0.005279577633781215,-0.09859154727969437,-0.11040899440748964,0.030661995313416075,0.00767938564915569,0.003839692824577845,-0.005039596832253425,0.0059995200383829005,0.005759539236853446,-0.0009599232061444612,-1.8429051234128868,1.2094064872208927,-0.4607262808468931,1.15181570212356,0.23036314042342584,-0.6910894212694989,-0.28795392551812743,0.23036314042022293,0.05759078510546298,0.012325000000000141,-0.13499899999999998,-0.929402,0.011397999999999797,0.150076,-0.920368,0.0009270000000003442,0.28507499999999997,0.009033999999999986,0.9834073526016264,0.8957069054135823,double,-0.920368
122,0.508333,walk,-0.05304848775799437,0.16730676908305392,0.005520883341333468,-0.16950486855928895,-0.15079354410665682,-0.006711150334814961,-0.0004800768123570702,0.002400384061438906,-0.002160345655304509,0.007441190590575202,0.007441190590495253,-0.0021603456553053423,1.7826870449063952,-1.6608960230419112,0.05792263743453034,-1.9585843642613427,-0.3454893814543778,0.6911308634058844,0.3460563015343976,0.4036609106197325,-0.2881474913972348,0.012543999999999667,-0.13568600000000003,-0.929434,0.011649999999999938,0.14941,-0.9204,0.0008939999999997283,0.285096,0.009033999999999986,0.9945585411630893,0.8917551800282302,double,-0.9204
123,0.5125,walk,-0.04823614110874048,0.16438684905207684,-0.0014398848092034085,-0.1322678889330709,-0.1780521056052135,-0.031642854498456066,0.00191984641234226,0.002159827213831756,-0.0009599232061436541,0.005759539236813634,0.007439404847613112,-0.00047996160307057817,1.1548708061564628,-0.7007247494545549,-1.6704507200712766,0.5759354990879232,-0.057729025103708725,0.2880783415312882,-0.4035640397796016,-0.0004285440081931991,0.4032599117434116,0.012753000000000014,-0.13636199999999998,-0.929432,0.011874999999999858,0.148756,-0.920396,0.0008780000000001564,0.285118,0.009036000000000044,0.9949249749857527,0.8939390269367798,double,-0.920396
124,0.516667,walk,-0.05087592992557651,0.1675065994720353,-0.0007199424046016851,-0.06726343621933452,-0.0778718859933335,0.045729901609016535,-0.00023998080156941934,0.000479961603058909,-0.002399808015358655,0.005519558435350634,0.007919366450685144,0.0004799616030705654,-0.6334986361497512,0.7486802063735152,0.17277235531598703,-0.5183170659735211,-0.4031354957458206,-0.34554471063474684,-0.0575907850883125,0.11518157021167,0.2303631404226389,0.012963999999999753,-0.137058,-0.929439,0.012109999999999843,0.14809100000000003,-0.9203910000000001,0.0008539999999999104,0.28514900000000004,0.009047999999999945,0.9959015475698094,0.8934116642143553,double,-0.9203910000000001
125,0.520833,walk,-0.06889102256364571,0.18098895823332498,0.0019203072491617847,-0.059506505874118196,0.01019920571214885,0.06060564150295732,-0.004560729716752576,0.0033605376860464478,0.001920307249160119,0.007681228996647139,0.0079212674027857,0.0009601536245808924,-4.324314123396348,3.23628390813482,0.6337613187142266,-1.0371456829532293,0.6914488917396872,1.0369935824576983,0.5188839561441438,0.0004563015123753011,0.1152645274868763,0.01323199999999991,-0.13779799999999998,-0.929439,0.012429000000000023,0.14737,-0.9203950000000001,0.0008029999999998871,0.285168,0.009043999999999941,0.9900304562374832,0.8911006113057035,double,-0.9203950000000001
126,0.525,walk,-0.06335493160548115,0.18622510199183898,0.000479961603058909,-0.11765439244660142,0.01270433378574406,0.08738073727755151,-0.0050395968322117955,0.0,-0.0031197504199661683,0.010079193664530164,0.010559155267575752,-0.0009599232061444612,1.3285555455158418,1.2565739761252606,-0.3456553026404763,-0.11491891419707602,-0.8064645274889422,-1.2095170792239618,0.5754654830532773,0.6330424441540754,-0.4607815768479335,0.013475000000000126,-0.13857399999999997,-0.929454,0.012735000000000163,0.146638,-0.920401,0.0007399999999999629,0.28521199999999997,0.009052999999999978,0.9901215190503524,0.8850883494854127,double,-0.920401
127,0.529167,walk,-0.053995680345552674,0.18358531317494836,-0.004319654427636754,-0.10828912699008794,-0.03182402995342623,0.11862907025189483,-0.003359731221545579,-0.00455963522917953,-0.003359731221502284,0.00911927045835906,0.009359251259901835,-0.0021598272138217073,2.2460406191332876,-0.6334986361628496,-1.1518157021107815,0.4031354957202312,-1.094224917009718,-0.05759078510585883,-0.23036314042982886,-0.28795392552769566,-0.2879539255284946,0.013685999999999865,-0.13935799999999998,-0.92945,0.012998000000000065,0.145912,-0.920392,0.0006879999999997999,0.28526999999999997,0.00905800000000001,0.9890245398495678,0.8873455343947759,double,-0.920392
128,0.533333,walk,-0.05448871819496043,0.1771483437349928,-0.013922227556409985,-0.09239234823375359,-0.025282910311746294,0.06271592249033929,-0.008881421027326853,0.00240038406143897,-0.0002400384061452295,0.008641382621148313,0.009601536245795855,-0.0014402304368697112,-0.11834801954099063,-1.5451198847709375,-2.304986348721431,-1.3254176202067731,1.6706719372584444,0.7488460910602821,-0.1147114347601438,0.058157701846861753,0.1727308634066286,0.013876000000000221,-0.140086,-0.929393,0.013260999999999967,0.145214,-0.92034,0.0006150000000002542,0.2853,0.009052999999999978,0.9846613142001924,0.887807355783919,double,-0.92034
129,0.5375,walk,-0.05039596832254425,0.17326613870890206,-0.013918886489081366,-0.038145977964398434,0.009679219872740728,0.06855787986520469,-0.010799136069131849,0.0,-0.0007199424046075133,0.01055915526756243,0.008399328053757375,-0.0004799616030722306,0.9821813948682864,-0.9316546738878595,0.0008017920155072724,-0.46021479284976746,-0.5760460910580638,-0.11516774621125034,0.46022861685003646,-0.28850688553839,0.23044608442463962,0.014041000000000192,-0.140808,-0.929338,0.013514999999999944,0.14452700000000002,-0.920284,0.0005260000000002485,0.285335,0.009054000000000006,0.9819614874269295,0.8869584670362001,double,-0.920284
130,0.541667,walk,-0.06239500839931005,0.18766498680105567,-0.00767938564915569,-0.03447581212801878,0.027839196667489942,0.10764318610830474,-0.017758579313685855,-0.004319654427636754,0.0019198464122864246,0.007439404847692843,0.008399328053757375,0.0004799616030722306,-2.8795392552833485,3.4554471063483323,1.497360412749131,-1.670132768071503,-1.036634131902261,0.6334986361636472,-0.7486802063521868,0.0,0.23036314042343506,0.01422699999999999,-0.14160799999999996,-0.929298,0.013806000000000207,0.14378000000000002,-0.92025,0.00042099999999978266,0.285388,0.009047999999999945,0.9693717467096944,0.8908025230671873,double,-0.92025
131,0.545833,walk,-0.054488718194852376,0.18362938070091578,-0.011041766682666937,-0.03470837426107412,-0.011359347711435394,0.1512495308986107,-0.019443110897689783,-0.0007201152184556565,0.003120499279885402,0.007681228996647139,0.01032165146423793,0.0048007681228994644,1.8978132991977126,-0.9687004561065508,-0.8071005841361605,-0.40435227652518646,0.8640276546282033,0.2882028006718618,0.05804708328235613,0.4614314475469406,1.0371595102801803,0.01437299999999997,-0.14237600000000006,-0.929239,0.014064999999999994,0.14305800000000002,-0.920184,0.00030799999999997496,0.2854340000000001,0.009055000000000035,0.9671581803241541,0.8865622823805488,double,-0.920184
132,0.55,walk,-0.061195104391676095,0.17758579313655215,-0.015358771298284736,-0.0873269642279795,-0.08134827407217668,0.12570069399029232,-0.022078233741295965,-0.007679385649129046,0.00431965442764508,-0.0023998080153744745,-0.006719462443011228,0.01271898248140079,-1.6094039349228864,-1.450344987848232,-1.0359982278900326,-0.6323788921541065,-1.6700912960579162,0.2877742135252385,-2.419255342457772,-4.089540174525805,1.9002194284860248,0.014536000000000104,-0.143148,-0.929157,0.014310000000000045,0.14228999999999997,-0.9200670000000001,0.0002260000000000595,0.28543799999999997,0.009089999999999931,0.9603809535332077,0.8847939211195204,double,-0.9200670000000001
133,0.554167,walk,-0.04631629469639822,0.1646268298536063,-0.023518118550526605,-0.04557386284549213,-0.04673126220921771,0.09023421829284574,-0.02303815694746768,-0.00287976961843346,0.0028797696184309626,-0.0040796736261473725,0.002399808015361217,0.018718502519799174,3.5706286765726327,-3.109902395715406,-1.9580866936025976,-0.23036314042998196,1.1518157021107938,-0.34554471063454395,-0.4031354957458435,2.1884498340227063,1.4397696276454282,0.014632999999999896,-0.14384599999999997,-0.929047,0.014485999999999777,0.14161400000000002,-0.919891,0.00014700000000011926,0.28546,0.009155999999999942,0.961007735038905,0.8762605918158227,double,-0.919891
134,0.558333,walk,-0.05112818050888588,0.17570811329813008,-0.017042726836304176,-0.05709118510372942,-0.061228754842319044,0.17306487752275673,-0.03288526164187557,-0.004320691310600691,0.008881421027364094,-0.00048007681225047176,-0.004800768122904461,0.016322611617858515,-1.155037400981195,2.659933616064275,1.554342706246381,-2.3636833159884505,-0.3458765463675539,1.4406268384381007,0.8640414819723712,-1.7284148195548903,-0.5751058333991016,0.014708999999999861,-0.14459599999999995,-0.928939,0.01469699999999996,0.140862,-0.919752,1.1999999999900979e-05,0.28545799999999993,0.009186999999999945,0.9427726646969052,0.8797621044947419,double,-0.919752
135,0.5625,walk,-0.05423566114712209,0.1852651787856945,-0.011279097672190758,-0.026178470674546667,-0.09260085776411951,0.19154168970092372,-0.03383729301659892,-0.004079673626120621,0.017038636909047535,0.006959443244554005,-0.002159827213818377,0.00839932805375571,-0.745735694321139,2.2935122360365643,1.383160346559485,-0.22846925239341045,0.057839617105847764,1.9575752055875637,1.7853419862741589,0.6337751161713616,-1.901435940509418,0.014793999999999752,-0.145385,-0.9288209999999999,0.014952000000000076,0.140081,-0.91967,0.00015800000000032455,0.285466,0.00915099999999991,0.9364931918937208,0.8899571900836557,double,-0.91967
136,0.566667,walk,-0.046076313894934134,0.16918646508279478,-0.012958963282936905,0.014421696254035582,-0.046009401939610665,0.1054462349744016,-0.04079673626104635,0.005279577633781215,0.018958483321333958,0.012479001679798067,0.0002399808015294545,0.006239500839932337,1.958086693589607,-3.8585826020877394,-0.4031354957394131,-1.6701327680459268,2.246040619126893,0.4607262808462703,1.3245880574139717,0.5759078510553908,-0.5183170659523293,0.014816000000000162,-0.14606800000000003,-0.928688,0.015195999999999987,0.13937699999999997,-0.9195899999999999,0.0003799999999998249,0.285445,0.00909800000000005,0.924507695031771,0.8857633137188332,double,-0.9195899999999999
137,0.570833,walk,-0.04344695151223874,0.16778684589534437,-0.017762842054706535,-0.004953748186929295,-0.09718946718456827,0.0874714850367683,-0.04008641382627224,-0.00048007681227712134,0.02952472395583329,0.008401344215076146,0.0002400384061518855,0.0024003840614505653,0.6311479555197769,-0.33596235896553195,-1.1531154036893008,0.17050466509220147,-1.3825382731777083,2.536303560849574,-0.9787943986370422,1.382732175491654e-05,-0.9215354725112263,0.014829999999999899,-0.14676899999999998,-0.9284910000000001,0.015411999999999981,0.138679,-0.919506,0.0005820000000000825,0.285448,0.00898500000000002,0.9170197417744406,0.8955819559481217,double,-0.919506
138,0.575,walk,-0.03527717782580323,0.16486681065514908,-0.023278137748983824,-0.00846289287154884,-0.06648513266537658,0.15832208144749657,-0.04151667866564914,0.00023998080151613928,0.02855771538276934,0.008639308855327025,0.003359731221505704,-0.00287976961843013,1.9605888376375489,-0.7007523974550879,-1.3235650814200608,-0.343236102562258,0.17280000331012102,-0.23206349245595564,0.057106945104603575,0.7486663823743408,-1.2671355123304044,0.014804000000000261,-0.14745500000000006,-0.9282750000000001,0.015595000000000248,0.13800600000000002,-0.919421,0.0007909999999999862,0.2854610000000001,0.008854000000000029,0.9160152906427617,0.8952822954833816,double,-0.919421
139,0.579167,walk,-0.047756179505600356,0.17590592752579268,-0.020638348932092595,0.0008939194796239084,-0.14772632395794905,0.17996563113524514,-0.06095512359010668,0.011519078473733534,0.041276697864171034,0.00743940484758627,0.0016798656107461464,-0.0002399808015361153,-2.994720825485248,2.649176114865255,0.6334986361629971,-4.664853593582287,2.7067668999801557,3.0523116106075343,-0.2879539255437353,-0.4031354957426313,0.6334986361636656,0.014749000000000123,-0.14814,-0.928017,0.015824999999999978,0.13728,-0.919336,0.0010759999999998549,0.28542,0.008680999999999939,0.8758139607132903,0.9004725269214224,double,-0.919336
140,0.583333,walk,-0.11713874219870897,0.2515602496399406,0.018242918867010304,-0.24304091438097047,-0.8101603144176117,0.7070471762614664,-0.06313010081610707,0.015362457993267627,0.05232837253960616,0.005280844935181583,0.0021603456553003454,0.001680268843014896,-16.65447976310815,18.159942898259214,9.332997551392912,-0.5220780667307693,0.9225586940792345,2.652826374324321,-0.5181372809420753,0.11533366407926036,0.46093366407849495,0.014974000000000043,-0.14912400000000003,-0.927875,0.016334999999999766,0.136241,-0.9194049999999999,0.0013609999999997235,0.28536500000000004,0.008470000000000089,0.860958905781914,0.905386804534049,double,-0.9194049999999999
141,0.5875,walk,0.007199424046016851,0.12694984401247844,-0.09311255099590617,0.40688245618888824,0.8969094723040374,-0.09206648542649393,-0.06671466282702673,0.021358291336694278,0.055675545956322965,0.004799616030748949,0.004319654427650075,0.0004799616030705654,29.838772796910217,-29.90410502218892,-26.7231749131067,-0.8602260645355507,1.4388848916310548,0.8032573594232725,-0.11548569820797465,0.518192649951935,-0.28805069353115464,0.014666000000000068,-0.14956400000000003,-0.927255,0.016325000000000145,0.13573000000000002,-0.919015,0.001659000000000077,0.28529400000000005,0.008240000000000025,0.8508655596963897,0.906808273287508,double,-0.919015
142,0.591667,walk,-0.04511639068876303,0.16990640748740976,-0.036237101031920106,0.09515257418306171,-0.0694598349145276,0.19286045415296535,-0.056875449963959414,0.021838252939779833,0.07031437485001185,0.002639788816837321,0.006239500839925676,0.0014398848092166917,-12.554791153054833,10.308750533940723,13.649016070070944,2.3612221893609897,0.11518157021491505,3.5130378914539895,-0.5183170659735089,0.46072628084367323,0.23036314042383466,0.014617000000000324,-0.150181,-0.926811,0.016523999999999983,0.13504799999999995,-0.918858,0.001906999999999659,0.28522899999999995,0.007953000000000099,0.844938744983612,0.9089262277500971,double,-0.918858
143,0.595833,walk,-0.052808449351817235,0.16874699951991645,-0.035765722515592555,0.08171732978217568,0.0012813198678575206,0.2165215223723694,-0.05208833413349481,0.021363418146905438,0.07633221315410636,0.005280844935288322,0.0033605376860332127,-0.005280844935190052,-1.8463895014532892,-0.2783024405888956,0.11314894775025536,1.1490916539761702,-0.11397858686375595,1.4445123149531125,0.6339549012124507,-0.6910617268104988,-1.6132332559786169,0.014619999999999855,-0.15079499999999996,-0.9263440000000001,0.01676600000000006,0.134359,-0.9187310000000001,0.0021460000000002033,0.28515399999999996,0.007612999999999981,0.8419195268864791,0.910220838446657,double,-0.9187310000000001
144,0.6,walk,-0.05423566114712209,0.15766738660907456,-0.04151667866572797,0.07461391014856116,0.06090019113866288,0.2280074623315918,-0.05207583393331704,0.01727861771057366,0.08231341492680512,0.0059995200383829005,-0.0002399808015294545,-0.005279577633789541,-0.3425034305987145,-2.6588943870510695,-1.3801190665071679,0.0029998080580215165,-0.9802736828249935,1.4353735955600462,0.1724682272845147,-0.8640553125900263,0.0003041280058820617,0.014628999999999781,-0.15138000000000001,-0.925828,0.01701700000000006,0.13370100000000001,-0.91858,0.002388000000000279,0.28508100000000003,0.007248000000000032,0.8351268047293537,0.9141944010487675,double,-0.91858
145,0.604167,walk,-0.058795296376301626,0.1619870410367113,-0.04031677465801409,0.022015556208224,0.10465209873312323,0.21576414664100518,-0.050635949124007096,0.01871850251980367,0.0849532037436999,0.0057595392368134804,0.004319654427636754,-0.004079673626110629,-1.0942249170097196,1.036634131902257,0.287953925537286,0.34554471065753056,0.34554471063834913,0.6334986361638488,-0.057590785113851274,1.0942249170065212,0.28795392552889437,0.014663000000000093,-0.15197699999999997,-0.925306,0.017285999999999913,0.133044,-0.918429,0.00262299999999982,0.28502099999999997,0.006876999999999911,0.8322416709586251,0.9174383516122802,double,-0.918429
146,0.608333,walk,-0.055928948631816994,0.15314450312050576,-0.04176668266922884,0.02873356097847076,0.13833331351490755,0.20214212795972494,-0.042006721075380726,0.015602496399419514,0.0895343254920791,0.002640422467644091,0.0038406144983235695,-0.0002400384061452231,0.6880335440433581,-2.122548707682557,-0.34803360806883105,2.071346147053856,-0.7479611426750251,1.099645162837061,-0.7487078178515092,-0.11498798111214219,0.9216599183786374,0.014721000000000206,-0.15255000000000002,-0.924759,0.017530000000000268,0.13242199999999998,-0.918256,0.0028090000000000614,0.284972,0.0065030000000000365,0.8331301409387785,0.9271918666605246,double,-0.918256
147,0.6125,walk,-0.05663546916239,0.15430765538756894,-0.040316774658040726,-0.03654749207349859,0.11050097628596196,0.2123369739558652,-0.04895608351334088,0.01727861771057366,0.0983921286297082,0.010799136069131849,0.0059995200383962215,-0.005039596832251761,-0.16955136322846148,0.2791342133580919,0.34795008667821015,-1.6677135680249824,0.402236935722134,2.1257026968152224,1.9579346295866797,0.5180958819468767,-1.151801878115311,0.014752999999999794,-0.15312100000000006,-0.9241809999999999,0.01781100000000002,0.13180399999999998,-0.918109,0.003058000000000227,0.28492500000000004,0.006071999999999966,0.8145856013678909,0.9170430739557933,double,-0.918109
148,0.616667,walk,-0.06383489320862169,0.1547876169906453,-0.03719702423803892,-0.053769537377410956,0.12287488120053298,0.25674957109473256,-0.04823614110874048,0.017758579313659685,0.11471082313415211,-0.00695944324455419,0.013678905687552275,0.004799616030717439,-1.7277235532113828,0.1151815702127134,0.7486802063839376,0.17277235531567475,0.11518157021503135,3.9161733871956375,-4.261718097836903,1.842905123387617,2.361222189337506,0.014817999999999998,-0.15369200000000005,-0.923548,0.018048000000000286,0.131216,-0.917934,0.003230000000000288,0.28490800000000005,0.005614000000000008,0.7904988372319686,0.9170591591588455,double,-0.917934
149,0.620833,walk,-0.06048967834846297,0.15818530964953545,-0.033365338454152696,-0.12332598826867745,0.1141677917569767,0.2175040342919428,-0.049687950072027864,0.027124339894390222,0.1180988958233315,-0.0033605376860730975,0.0031204992798812376,0.010081613058089375,0.8029800432450117,0.8155767304104998,0.9197517484124385,-0.3484899095745044,2.248142242134069,0.8132675682139663,0.8638755541241215,-2.534423045528332,1.2678821477128979,0.014862999999999627,-0.154238,-0.922917,0.018285999999999802,0.13057000000000002,-0.917753,0.003423000000000176,0.284808,0.005163999999999946,0.7817241081174965,0.9299006113056936,double,-0.917753
150,0.625,walk,-0.06071514278864383,0.15838732901367625,-0.028317734581248283,-0.1335895141132189,0.1259637381155499,0.21742192792679996,-0.02591792656587381,-0.04583633309336472,0.15838732901367708,-0.003359731221545579,0.0,0.005519558435323991,-0.054107137072439866,0.04848076893227671,1.2113280232551895,5.704349293533447,-17.509160784198315,9.668450489643694,0.00019353600372410334,-0.7488599183780211,-1.094805525021682,0.01500799999999991,-0.15508900000000003,-0.9221389999999999,0.018524999999999903,0.12991000000000003,-0.917612,0.0035169999999999924,0.28499900000000006,0.004526999999999948,0.7218151376981352,0.9439605319431397,double,-0.917612
151,0.629167,walk,-0.055195584353186625,0.15454763618911171,-0.025437964962788256,-0.10612087834154149,0.18377099595230273,0.14555553694460047,-0.04799616030716977,0.022318214542838742,0.14518838492920488,0.0023998080153744745,-0.0004799616030722306,-0.00431965442764508,1.324588057465122,-0.9214525616905458,0.691089421276699,-5.298352229732612,16.355782970051102,-3.1674931808188376,1.382178842553398,-0.11518157021171753,-2.361222189337412,0.015037999999999663,-0.15564000000000006,-0.921428,0.0187649999999997,0.129264,-0.917524,0.003727000000000036,0.28490400000000005,0.0039040000000000186,0.742439860189235,0.9526853976219476,double,-0.917524
152,0.633333,walk,-0.04464714354302482,0.14666346615457806,-0.029044647143552007,-0.021100089961439455,0.12194068511676759,0.17908204618440188,-0.0849735957752624,0.09985597695633286,0.12193951032165173,0.003600576092251633,-0.0004800768122904462,0.001920307249160119,2.532030919385933,-1.892503608865493,-0.8657422421420423,-8.876004673089918,18.6120409057835,-5.580622805461625,0.28823045532336955,-2.765463711367788e-05,1.4978304553060957,0.01487000000000016,-0.15583499999999995,-0.920799,0.01896600000000026,0.12865100000000002,-0.917395,0.0040960000000000996,0.28448599999999996,0.0034040000000000736,0.7015737002840959,0.9591120072135921,double,-0.917395
153,0.6375,walk,-0.04559635229179652,0.158147348212151,-0.01727861771057412,-0.141907598600864,0.0424587010588843,0.24078654690181764,-0.058555315574733764,0.03479721622269102,0.16246700263979202,0.006479481641415339,0.001679865610746191,0.001439884809215065,-0.2277918763551033,2.755911220919886,2.823621174220809,6.339880057722374,-15.612853547790515,9.725820090746595,0.6908820612344039,0.5183447139516867,-0.11529216221383805,0.014816000000000162,-0.15634900000000002,-0.92005,0.01918299999999995,0.12799899999999997,-0.917317,0.004366999999999788,0.284348,0.0027329999999999854,0.706386979050166,0.9612586388148314,double,-0.917317
154,0.641667,walk,-0.059995200383935576,0.15574754019678563,-0.008159347252241243,-0.21639995900635178,0.05140843546465465,0.26389815903868546,-0.04631629469650356,0.04751619870411086,0.15646748260139065,0.018718502519856958,0.010799136069118528,-0.011999040076794108,-3.4554471063448404,-0.5759078510596017,2.1884498340131526,2.9371300403719975,3.0523116106118904,-1.439769627646107,2.937130040422732,2.1884498340226224,-3.225083965924903,0.014872999999999692,-0.1568,-0.919364,0.019511000000000056,0.12739499999999998,-0.917333,0.004638000000000364,0.284195,0.002031000000000005,0.7167399045374728,0.938493295736264,double,-0.917333
155,0.645833,walk,-0.06625060009600162,0.13514162265962068,-0.006721075372039597,-0.20638214850289488,0.21199438037546076,0.07693264462138544,-0.060009601536212494,0.03528564570331448,0.19035045607297035,0.020403264522297324,0.006721075372066247,-0.015362457993279286,-1.501536176684118,-4.946211602776029,0.345240489726751,-3.2869195486579277,-2.9358024485829026,8.133214947570734,0.4044075857994156,-0.978891189882928,-0.8073494758725818,0.014898999999999774,-0.15721599999999997,-0.918543,0.01987199999999989,0.12686000000000003,-0.917369,0.004973000000000116,0.284076,0.0011740000000000084,0.6621985905709019,0.9442438674486809,double,-0.917369
156,0.65,walk,-0.06359491240705058,0.1375089992800542,0.0009599232061444612,-0.21228842369404605,0.15524304172153752,0.14341754301290596,-0.06911447084229463,0.04847612191022868,0.19606431485481138,-0.01391888648910801,-0.011999040076805766,0.007919366450685144,0.6373140602234266,0.5681249389089265,1.8432921953885288,-2.184993833952981,3.165461052775162,1.3712164103290092,-8.236657310152404,-4.492468310264427,5.587190891280119,0.014876000000000111,-0.15758700000000003,-0.91773,0.020078999999999958,0.126237,-0.91734,0.005202999999999847,0.283824,0.00039000000000000146,0.6442224476401006,0.9627488077490431,double,-0.91734
157,0.654167,walk,-0.06383489320851342,0.13942884569234312,0.008399328053757375,-0.22818164813587785,0.17196172488796385,0.1346731929108215,-0.07391408687304359,0.06383489320856671,0.20974322054235495,-0.008399328053757375,-0.013438924886009136,0.00911927045836239,-0.05759078508827441,0.46072628084687145,1.7853143382800232,-1.1518157021235698,3.6858102467813563,3.282674751030349,1.324588057439547,-0.3455447106319556,0.2879539255284945,0.014834000000000014,-0.15790199999999993,-0.916891,0.020309999999999828,0.1256,-0.9173370000000001,0.005475999999999814,0.2835019999999999,0.00044600000000005746,0.609929357307775,0.9695262176645056,double,-0.916891
158,0.658333,walk,-0.0537686029765314,0.13922227556409986,0.008161305808924477,-0.22266488132151213,0.11908228822431595,0.1589953353892229,-0.07993278924636808,0.059769563130088854,0.2189150264042294,0.0002400384061785415,-0.008161305808924477,0.004320691310609134,2.4162962630778386,-0.049584764340679724,-0.05713448027674126,-1.4447197247538774,-0.9758353524911091,2.201585660555618,2.073779755145497,1.2668312715037915,-1.1518432903872733,0.014724999999999877,-0.158233,-0.9160130000000001,0.020535000000000192,0.12498599999999999,-0.9173530000000001,0.005810000000000315,0.283219,0.0013400000000000079,0.5856101128352263,0.9846040315211346,double,-0.9160130000000001
159,0.6625,walk,-0.057835373170130516,0.13558915286776527,0.004799616030722306,-0.14926406901827316,0.03869891263122377,0.18578731397470327,-0.08447324214060602,0.06095512359010668,0.22150227981761295,0.00047996160303226577,-0.003119750419962838,0.0014398848092166917,-0.975946770722122,-0.8718796967445553,-0.8067410074879157,-1.0896215248951042,0.28451174946431856,0.6208911479202097,0.05757696108800635,1.2098765032305256,-0.6913382532739188,0.014613999999999905,-0.15854400000000002,-0.9151100000000001,0.020777999999999963,0.12440800000000002,-0.917367,0.006164000000000058,0.28295200000000004,0.0022569999999999535,0.5694726367116332,0.99421772966372,double,-0.9151100000000001
160,0.666667,walk,-0.07247420206384021,0.1353491720662358,0.011519078473706892,-0.19532014573034376,0.029214982124895622,0.16094195096874475,-0.10199184065272245,0.05447564194863823,0.2459803215742734,0.0009599232061711044,0.0011999040076739157,0.0007199424046066807,-3.5130378914589837,-0.05759078510426034,1.6125419829576515,-4.204127312722893,-1.5549511978565875,5.874260080792003,0.11518157022770217,1.0366341319022607,-0.17277235531797588,0.014491000000000032,-0.15888100000000005,-0.914133,0.021084000000000103,0.12384899999999999,-0.917412,0.006593000000000071,0.28273000000000004,0.003279000000000032,0.514206904207201,0.9971717991313044,double,-0.914133
161,0.670833,walk,-0.05928948631778349,0.12554008641382508,0.07225156024963886,-0.39891045028035227,-0.5569126389329271,0.09007630708688273,-0.1024963994239503,0.07273163706194263,0.24315890542486782,0.0019203072491084854,-0.0026404224675907915,0.0,3.1648381531581165,-2.354557285744293,14.578128126723936,-0.12111348325200366,4.382139969588188,-0.6772482355750337,0.23052905495376386,-0.9218258461989208,-0.17281382731797412,0.01431099999999974,-0.159101,-0.9134209999999999,0.021338999999999775,0.12331500000000001,-0.917713,0.007028000000000034,0.282416,0.0042920000000000735,0.5008829902552945,0.9945585411631477,double,-0.9134209999999999
162,0.675,walk,-0.06863450923926237,0.1252699784017323,0.030237580993537207,-0.21247847676667156,0.13682612207441572,0.1103202849983901,-0.10727141828650366,0.09215262778978835,0.249340052795774,0.002159827213911628,-0.0014398848092166917,0.0007199424046083459,-2.242626091067629,-0.06482073724328967,-10.08254841759091,-1.1459128539844807,4.660664921489216,1.4833567004814363,0.057480193137302814,0.28810598953061933,0.1727723553175763,0.014149999999999885,-0.15923899999999996,-0.9125080000000001,0.021634000000000153,0.12278699999999998,-0.9178360000000001,0.007484000000000268,0.28202599999999994,0.005327999999999999,0.4689656293648357,0.9955103703061265,single,-0.9125080000000001
163,0.679167,walk,-0.0686345092392642,0.1252699784017223,0.026637868970476205,-0.14711329087959726,0.004950536170097145,0.1397164508451533,-0.1211903047756149,0.10943124550033828,0.2630189584833263,0.0007199424046017042,0.0002399808015427825,-0.0009599232061444868,-4.396131486996744e-13,-2.397889901998224e-12,-0.8638617765925296,-3.3402655361438702,4.146536527609855,3.282674751032528,-0.34554471065753567,0.4031354957426221,-0.4031354957410282,0.013930999999999916,-0.15930500000000003,-0.911523,0.021923000000000137,0.12226600000000004,-0.9179510000000001,0.007992000000000221,0.28157100000000007,0.0064280000000001,0.43572,0.9979605553501372,single,-0.911523
164,0.683333,walk,-0.06385021603453607,0.12457993278924419,0.024723955832924666,-0.14664676957120443,-0.06859651281073595,0.20197830873721423,-0.10897743638981136,0.138742198751819,0.2916466634661546,0.010561689870363166,-0.0019203072491617847,-0.0038406144983185726,1.148414115393214,-0.16563744898658417,-0.45941265903781514,2.9315574617867344,7.035754501075541,6.871748675666892,2.362397375362807,-0.5185521005051765,-0.6914765463691991,0.013742999999999839,-0.15924599999999994,-0.910411,0.022232999999999947,0.12173900000000004,-0.9180699999999999,0.008490000000000109,0.280985,0.007658999999999971,0.42341,0.9809980123427391,single,-0.910411
165,0.6875,walk,-0.06407487401008284,0.1312694984401285,0.027597792176619954,-0.22039495364093611,-0.02509743156295822,0.22250183644493193,-0.14758819294451775,0.11039116870650646,0.28629709623229915,-0.0059995200383829005,0.0040796736261072995,0.005039596832253425,-0.05391360104314129,1.6053673268260769,0.6896655492429246,-9.26584030590499,-6.803702914641788,-1.2837934326506824,-3.974372428304761,1.4398802196469975,2.1310802329186296,0.013395000000000046,-0.15933299999999995,-0.909333,0.022475000000000023,0.12120900000000001,-0.918164,0.009079999999999977,0.28054199999999996,0.008831000000000033,0.41169,0.9852770479807347,single,-0.909333
166,0.691667,walk,-0.0827933765299398,0.13582913366930804,0.03167746580274058,-0.21114455490958856,-0.055714344457823854,0.22597268150880762,-0.15574754019681228,0.12239020878327227,0.2910967122630165,0.005519558435244061,-0.0007199424046150068,0.0007199424046066807,-4.492081238266575,1.0942249170097211,0.979043346801198,-1.958086693615183,2.8795392552833485,1.1518157021159798,2.7643576850556455,-1.1518157021171753,-1.0366341319046584,0.013091000000000186,-0.15938900000000006,-0.908252,0.022842999999999947,0.12063999999999997,-0.918293,0.00975199999999976,0.28002900000000003,0.010041000000000078,0.39959,0.9906455359064379,single,-0.908252
167,0.695833,walk,-0.08377340374458292,0.13298127700432033,0.03576572251561825,-0.22293797942750104,-0.030133580152938693,0.2286085435980138,-0.17018722995680993,0.130100816130591,0.2945271243398939,0.003600576092251633,0.0014402304368713384,0.0002400384061452231,-0.23524417058164102,-0.6835949747930177,0.9813386252706838,-3.4660801152178693,1.850841898060182,0.8234306473541623,-0.46062946303226765,0.5185244458680613,-0.11519539089329268,0.012731000000000048,-0.15940100000000001,-0.907174,0.0232070000000002,0.12009199999999998,-0.9184410000000001,0.010476000000000152,0.279493,0.011267000000000027,0.38733,0.9935243982811099,single,-0.907174
168,0.7,walk,-0.08423326133903884,0.12574994000479456,0.02735781137507791,-0.22248770811456392,-0.02464752270070951,0.1988821560864211,-0.19510439164866045,0.11351091912648564,0.30141588672906744,0.0019198464122356872,0.002399808015361217,0.0016798656107511866,-0.11035699410989483,-1.7353820493222727,-2.01773725474934,-5.979640434809452,-3.9812567804429237,1.6531707197440966,-0.4033428557753726,0.23028019642186145,0.34553088663450704,0.012268999999999863,-0.15945199999999993,-0.906032,0.023565999999999754,0.11957800000000002,-0.918548,0.01129699999999989,0.27902999999999994,0.012516000000000083,0.37484,0.9941626591795791,single,-0.906032
169,0.704167,walk,-0.09551235901130728,0.126709863210949,0.027117830573561045,-0.2532666069179557,0.021248192639302162,0.19497634297300623,-0.18910487161027237,0.16846652267817977,0.29733621310295044,0.003359731221545579,0.0007199424046150068,-0.002879769618430053,-2.706766899992405,0.23036314042582695,-0.057590785101238835,1.4397696276429164,13.188289789223353,-0.9790433468003279,0.3455447106575188,-0.4031354957394282,-1.0942249170101284,0.011878999999999973,-0.15927799999999998,-0.904906,0.023978000000000055,0.11905300000000002,-0.9186730000000001,0.012099000000000082,0.278331,0.013767000000000085,0.36233,0.99252798108455,single,-0.904906
170,0.708333,walk,-0.09025444071055058,0.11113778204512503,0.021603456553030104,-0.18235064650699115,0.012941513119582445,0.14970969866996645,-0.22779644743155686,0.15194431108977297,0.29044647143542845,0.0019203072491084854,0.0007201152184290069,0.0012001920307244498,1.2621023285541753,-3.737897543404691,-1.323661550775549,-9.287464191378891,-3.9659653356713376,-1.6538026086226554,-0.34551703611067996,4.14819524724262e-05,0.9793474913957032,0.01130600000000026,-0.15910799999999997,-0.903786,0.024361999999999995,0.118593,-0.918758,0.013055999999999734,0.277701,0.014971999999999985,0.35028000000000004,0.996039568356365,single,-0.903786
171,0.7125,walk,-0.09671226301894123,0.11735061195104715,0.021598272138237055,-0.2433717469644071,0.03218776630639445,0.1647989674048944,-0.23566114710823877,0.14854811615068886,0.3047756179505617,0.00455963522917953,0.0002399808015294545,0.001679865610751142,-1.5497533737438443,1.4909599006292467,-0.001244160017530338,-1.8873769322490634,-0.8150215836534872,3.4387200660266664,0.633388044173512,-0.11522304221251468,0.1151124502103884,0.010727000000000153,-0.15897800000000006,-0.902606,0.024783999999999917,0.11810499999999996,-0.918841,0.014056999999999764,0.277083,0.016235,0.33765,0.9918913947153414,single,-0.902606
172,0.716667,walk,-0.11327093832488656,0.1072714182865303,0.023038156947440425,-0.22850328012329457,0.0569766251281356,0.1465723601363747,-0.257019438444933,0.15214782817375055,0.2872570194384436,0.00311975041997616,-0.0009599232061311396,0.0004799616030722306,-3.973764172293066,-2.4188129744460687,0.3455447106319556,-5.125579874416629,0.8638617765926732,-4.204127312723286,-0.3455447106319556,-0.28795392552449844,-0.2879539255288942,0.010127999999999915,-0.15879100000000002,-0.901505,0.025268999999999764,0.11765400000000004,-0.918935,0.015140999999999849,0.27644500000000005,0.017429999999999946,0.3257,0.9945013490581188,single,-0.901505
173,0.720833,walk,-0.18746999519932428,0.08521363418146985,0.030724915986562722,-0.32645671097142726,0.13827813575238201,-0.18724587456345382,-0.27652424387909114,0.14786365818532812,0.2906865098415814,0.0021603456552870782,0.001680268843009944,0.0012001920307244819,-17.81062334960145,-5.294715339668994,1.8451173881715066,-4.681902408583442,-1.0283653356751183,0.8232094102587301,-0.23029399056387578,0.6337474913924993,0.17288296391077052,0.009757000000000016,-0.15852999999999995,-0.900422,0.026059000000000054,0.11730600000000002,-0.9190579999999999,0.01630200000000004,0.27583599999999997,0.018635999999999986,0.31364000000000003,0.9950192432397492,single,-0.900422
174,0.725,walk,-0.1197504199664083,0.09455243580513618,0.009599232061444612,-0.22866078229196296,0.10679609935941367,0.08699236127760492,-0.32445404367645486,0.14854811615068886,0.27381809455243444,-0.0007199424046016851,0.007679385649142368,-0.0007199424046083459,16.251397944064188,2.2411330990319804,-5.0697585613434,-11.50223177282538,0.1642567711448836,-4.0480958217294996,-0.6912138372663166,1.4396728596429993,-0.4607954008478073,0.008904000000000245,-0.15830500000000003,-0.899321,0.026555000000000106,0.11694399999999999,-0.9191010000000001,0.01765099999999986,0.275249,0.01978000000000002,0.3021999999999999,0.9870890229649179,single,-0.899321
175,0.729167,walk,-0.13006959443240132,0.09167266618670279,0.009599232061417969,-0.2688919925843156,0.1747152354694905,0.04510188844006122,-0.3537317014638743,0.164146868250543,0.25797936165106583,0.0028797696184067402,0.0011999040076872372,-0.0023998080153578225,-2.4764037595375434,-0.6910894212703071,-6.393956771664885e-12,-7.026075782917974,3.743401031882416,-3.8009918169830796,0.863861776579889,-1.5549511978533912,-0.40313549574021207,0.00797200000000009,-0.158003,-0.8982859999999999,0.027108999999999828,0.11656700000000003,-0.9191509999999999,0.019136999999999738,0.27457000000000004,0.020865000000000022,0.29135,0.9934400370103225,single,-0.8982859999999999
176,0.733333,walk,-0.13994239078247184,0.09121459433509149,0.00816130580895091,-0.2847235298969846,0.10548304150083493,0.053441285875259,-0.40734517522805047,0.15842534805568734,0.2712433989438306,0.0004800768123570702,0.0009601536245808924,-0.0043206913106106845,-2.369850300064933,-0.10995483716065756,-0.34515752579622117,-12.869292790248716,-1.373384588299487,3.1838783708028693,-0.5760184364017447,-0.05754929983349609,-0.46108576458301986,0.006857999999999809,-0.157723,-0.89719,0.027693999999999885,0.11619100000000004,-0.919203,0.020836000000000077,0.27391400000000005,0.02201299999999995,0.27986999999999995,0.992579917990468,single,-0.89719
177,0.7375,walk,-0.13918886489086693,0.08447324214063266,0.0007199424046016851,-0.26237516009070755,0.17800192363115358,-0.024339918613188894,-0.44252459803219696,0.17398608111350375,0.25077993760498907,-0.00047996160313883867,0.0019198464122889224,-0.008159347252219595,0.18083174744538041,-1.617795103061862,-1.7857843542954568,-8.442386082108523,3.734277191700574,-4.910837854293585,-0.23039078845593988,0.23030784442237168,-0.9212037296877564,0.005593999999999877,-0.15735000000000005,-0.8961480000000001,0.028271999999999853,0.11584700000000003,-0.9192400000000001,0.022677999999999976,0.2731970000000001,0.023092,0.26908,0.9860068349055721,single,-0.8961480000000001
178,0.741667,walk,-0.14686825053991998,0.09575233981281264,0.01415886729062452,-0.4189708803144208,0.10370809925850037,-0.023942145774779624,-0.4979601631869663,0.1696664266858715,0.23638108951284342,-0.0014398848092034085,0.0038396928245646254,-0.009359251259898754,-1.8429051233628966,2.706766899971249,3.2250839659282673,-13.303471359436138,-1.0366341319012056,-3.4554471063465124,-0.2303631404042688,0.46072628084371,-0.2879539255289614,0.004130999999999663,-0.15704200000000001,-0.8952220000000001,0.028877999999999737,0.11546400000000001,-0.9193380000000001,0.024747000000000074,0.272506,0.024116000000000026,0.25884,0.9829696273449868,single,-0.8952220000000001
179,0.745833,walk,-0.15626500240037366,0.08881421027365259,0.00384061449829692,-0.26741157650007014,0.17825895274230916,-0.07840990031724947,-0.557369179068635,0.17090734517523895,0.2321171387421992,0.00984157465193416,-0.0036005760921716838,-0.009841574651944152,-2.2555813395232076,-1.6654175562074043,-2.4767769544713376,-14.26044548287775,0.29786809634360106,-1.0235119468661134,2.707983548040701,-1.7859502920634431,-0.11577613827301904,0.0024599999999996847,-0.1567,-0.8942709999999999,0.029569999999999652,0.11507899999999999,-0.919395,0.027109999999999967,0.271779,0.025124000000000035,0.24876000000000004,0.9760395388507267,single,-0.8942709999999999
180,0.75,walk,-0.16390688744900023,0.0902327813774861,0.010559155267589073,-0.2949470592855964,0.10924265609307206,-0.04524738068752522,-0.6023518118550499,0.19750419966402974,0.2147828173746084,-0.004799616030642376,0.0052795776337945365,0.007199424046076798,-1.8339056992144238,0.3404298305335958,1.6123207989661872,-10.794968271277792,6.382734458553056,-4.1599043358748915,-3.513604675444306,2.1310664089191627,4.089512526522874,0.0006329999999996616,-0.15625299999999998,-0.89342,0.030232999999999954,0.11472500000000002,-0.919409,0.029600000000000293,0.270978,0.02598900000000004,0.24011000000000005,0.983106381823954,single,-0.89342
181,0.754167,walk,-0.16918646508278146,0.0902327813774861,0.006479481641468453,-0.35913898756652873,0.09795368697118291,-0.1776269040536507,-0.684185265178712,0.21310295176385724,0.22054235661146848,0.0021598272138050553,-0.0002399808015427761,0.0011999040076789112,-1.2669972723256993,0.0,-0.9790433468011973,-19.63845772106107,3.7434010318760214,1.3821788425390091,1.6701327680459273,-1.32458805743635,-1.4397696276452703,-0.0015130000000000976,-0.15574099999999996,-0.892528,0.030946999999999836,0.114348,-0.919431,0.03245999999999993,0.27008899999999997,0.02690300000000001,0.23097000000000006,0.9958626988110049,single,-0.892528
