frame_id,timestamp,gait_type,root_linear_velocity_x,root_linear_velocity_y,root_linear_velocity_z,root_angular_velocity_x,root_angular_velocity_y,root_angular_velocity_z,left_linear_velocity_x,left_linear_velocity_y,left_linear_velocity_z,right_linear_velocity_x,right_linear_velocity_y,right_linear_velocity_z,root_acceleration_x,root_acceleration_y,root_acceleration_z,left_acceleration_x,left_acceleration_y,left_acceleration_z,right_acceleration_x,right_acceleration_y,right_acceleration_z,left_pos_rel_x,left_pos_rel_y,left_pos_rel_z,right_pos_rel_x,right_pos_rel_y,right_pos_rel_z,step_length,step_width,step_height,left_contact_prob,right_contact_prob,support_type,max_foot_height
1,0.004167,walk,-0.08063354931602879,0.20038396928245758,0.02423806095512785,0.04937079695368197,-0.213897460374245,0.15907526081879358,-0.0043196544276101435,0.0021598272138250545,-0.005039596832253464,0.00887928965678971,0.009839212862967482,0.0007199424046083515,0.0,0.0,0.0,0.0,0.0,0.0,0.0,0.0,0.0,0.022316000000000003,-0.143137,-0.9264140000000001,0.018170999999999715,0.171256,-0.916191,0.004145000000000287,0.314393,0.010223000000000093,0.9883664990223147,0.8756484788273003,double,-0.916191
2,0.008333,walk,-0.07969275084018747,0.19419107057129156,0.01416226596253486,-0.049397278905845325,-0.15384507247097357,0.09623150559524239,-0.004560729716752579,0.0038406144983169094,-0.003120499279884571,0.0100816130581127,0.01128180508881883,-0.0024003840614505666,0.2258277666445793,-1.4865335360456113,-2.418577770665624,-0.0578673281666911,0.40345350083817927,0.46065711770736756,0.2886037929243856,0.34627753861050103,-0.7489981915647906,0.022629000000000232,-0.14393,-0.9264859999999999,0.018545000000000034,0.170494,-0.91626,0.004084000000000199,0.31442400000000004,0.010225999999999957,0.9887839288135145,0.8722078910455615,double,-0.91626
3,0.0125,walk,-0.08063354931602877,0.2025437964962801,0.022078233741322773,-0.008299249760816703,-0.21277954413221095,0.20141287100455438,-0.008159347252294589,0.00575953923686015,-0.0002399808015361171,0.013678905687538693,0.012718982481400885,-0.0011999040076789203,-0.22577357231612752,2.0044938624882493,1.8996802924857001,-0.8635991206004343,0.4605050968426302,0.691269133272967,0.8632811685687526,0.3448949826210835,0.2880921655319525,0.022930999999999813,-0.14475,-0.926579,0.0189379999999999,0.16970300000000002,-0.9163570000000001,0.003992999999999913,0.314453,0.010221999999999953,0.9833496053942686,0.8665850598031595,double,-0.9163570000000001
4,0.016667,walk,-0.06647468202545781,0.20278377729781621,0.025917926565874005,-0.013232285425198406,-0.28787341256015964,0.12818444897287024,-0.005519558435244103,0.005999520038396267,-0.0031197504199661917,0.01079913606913193,0.014158867290617588,0.0,3.3978563212313317,0.05759078510585937,0.9214525616873604,0.6334986362012205,0.05759078510585958,-0.6910894212695162,-0.6910894212639217,0.34554471063515785,0.28795392552889854,0.023185000000000233,-0.14557,-0.9267000000000001,0.019260000000000055,0.168917,-0.9164650000000001,0.003925000000000178,0.314487,0.010234999999999994,0.9854519370615429,0.8679714039531223,double,-0.9164650000000001
5,0.020833,walk,-0.08161305808929596,0.20211233797407563,0.017522803648581314,0.011970885118909938,-0.12997870450424862,0.13130336000776202,-0.008401344215076153,0.00672107537205959,-0.0028804608737393483,0.008641382621254688,0.01440230436869341,-0.0012001920307244509,-3.633791661987075,-0.16117122509375562,-2.0151519244581593,-0.6917392654421628,0.17320099223795565,0.057438681283447784,-0.5179436984822954,0.05843424821791232,-0.2880921821230079,0.023490000000000233,-0.14638400000000001,-0.9267850000000001,0.01963600000000021,0.16813499999999998,-0.916543,0.003854000000000024,0.314519,0.010242000000000084,0.9814368574842032,0.8695155738401192,double,-0.916543
6,0.025,walk,-0.06839452843769346,0.20398368130549555,0.017998560115175477,-0.04541110259215319,-0.15158020019468862,0.14682002570045136,-0.0033597312215456043,0.005039596832251798,-0.002879769618430075,0.017518598512116564,0.01727861771058711,0.000719942404606686,3.1721933409173264,0.44908647262297013,0.11417241818914407,1.2098903272211539,-0.40352256774845,0.00016588800318536955,2.1303613848960583,0.6902599812559872,0.460795400847405,0.02376099999999992,-0.147213,-0.9268719999999999,0.019994000000000067,0.167357,-0.916615,0.003766999999999854,0.31457,0.01025699999999996,0.9888223433225147,0.8564025619966312,double,-0.916615
7,0.029167,walk,-0.06647468202545787,0.20494360451163934,0.021598272138237236,-0.03780825239587508,-0.20328786598349438,0.17426692054196147,-0.009599232061391405,0.008639308855293562,-0.0011999040076805865,0.010799136069131939,0.011999040076792544,-0.0026397888168939597,0.4607262808340766,0.2303631404232778,0.8638617765926953,-1.4973604127299749,0.8638617765878969,0.4031354957402183,-1.6125419829576746,-1.2669972723289105,-0.8062709914808371,0.023998000000000186,-0.148031,-0.926967,0.020316000000000223,0.166553,-0.916716,0.003681999999999963,0.314584,0.01025100000000001,0.9783832187555563,0.8702275518951077,double,-0.916716
8,0.033333,walk,-0.03384541526648312,0.17042726836293787,-0.0007201152184290069,-0.14857160140368803,0.2310345659607304,-0.16423094636378743,-0.011041766682720236,0.007681228996640476,-0.0009601536245792267,0.009361497839577088,0.01776284205472652,-0.0028804608737393457,7.832277186503775,-8.285246315098764,-5.357270128820506,-0.3462637113127292,-0.22997596223069736,0.057549299832299484,-0.34508838923544155,1.3835338401185722,-0.0577705369288012,0.024093000000000142,-0.148709,-0.926968,0.02049600000000007,0.16591699999999998,-0.916725,0.0035970000000000724,0.31462599999999996,0.010243000000000002,0.9775250889658631,0.8637628157492658,double,-0.916725
9,0.0375,walk,-0.07943364530828831,0.2032637389008882,0.015598752099827641,-0.04949481678141958,-0.08234110663806285,0.1753691106924841,-0.010319174465993097,0.006719462443004623,-0.0023998080153595077,0.008879289656896288,0.011999040076799205,-0.0007199424046083519,-10.94029998603437,7.88012251930654,3.9162148591928627,0.1734082593537652,-0.23080550843193023,-0.34548941463409694,-0.11572070618689728,-1.3832018185570718,0.5184829539551224,0.024380999999999986,-0.149528,-0.9270430000000001,0.020863999999999994,0.16512000000000002,-0.916793,0.0035169999999999924,0.31464800000000004,0.010250000000000092,0.9790904317693538,0.8725925566322896,double,-0.916793
10,0.041667,walk,-0.0830333573314032,0.214302855771538,0.00983921286296081,-0.012390021703283419,-0.05732852622284872,0.25533626585096286,-0.007919366450725161,0.009599232061438015,-0.007199424046075181,0.01127909767216419,0.014638828893683148,-0.0002399808015361169,-0.8638617766054443,2.6491761148667576,-1.382178842540635,0.5759078510362212,0.6910894212703118,-1.1518157021155913,0.5759078510362132,0.6334986361612528,0.11518157021171936,0.02469399999999977,-0.150381,-0.927114,0.02125699999999986,0.164288,-0.916835,0.0034369999999999123,0.314669,0.010279000000000038,0.9760386116298292,0.8664072698512573,double,-0.916835
11,0.045833,walk,-0.07417186749882741,0.2105136821891505,0.00960153624580894,-0.09909600761878931,-0.056348761629881644,0.2057116785727574,-0.011761881901149263,0.005760921747478701,-0.0007201152184356705,0.013442150744079217,0.010081613058092723,-0.0014402304368696752,2.1270978954814677,-0.9095471873229674,-0.05705151635906641,-0.9223512843072745,-0.9213418900526448,1.5552829639077093,0.519215811789493,-1.0939068256338045,-0.28810600944156495,0.0249539999999997,-0.15123399999999998,-0.927157,0.021621999999999808,0.16345300000000001,-0.9168810000000001,0.0033319999999998906,0.314687,0.010275999999999952,0.9781387804571036,0.8691328339410795,double,-0.9168810000000001
12,0.05,walk,-0.0683945284376934,0.20278377729781594,0.012239020878335302,-0.07012681141717185,-0.10549724922138504,0.2416821284543458,-0.01127909767216419,0.0074394048476129635,-0.001679865610751153,0.008639308855326851,0.011039116870648055,0.002399808015359504,1.3864504586354696,-1.8550287716185658,0.6329456761522341,0.11585894624071796,0.40280371973464385,-0.2303216684222418,-1.1525898461128776,0.22978253241068666,0.9215355056945466,0.02519199999999966,-0.152048,-0.927215,0.021942999999999824,0.162654,-0.916922,0.0032489999999998354,0.314702,0.010292999999999997,0.9773073226902076,0.8733670444123676,double,-0.916922
13,0.054167,walk,-0.06791456683466125,0.2030237580993522,0.015358771298284864,-0.07505944945988577,-0.11065880056214082,0.23461707050620098,-0.016078713702913198,0.009839212862967487,-0.0023998080153578424,0.013198944084506434,0.008399328053757444,-0.0014398848092150385,0.11518157020210062,0.05759078510589272,0.7486802063713858,-1.1518157021235926,0.5759078510570016,-0.17277235531718022,1.0942249170097398,-0.6334986361628541,-0.9214525616929554,0.025407999999999653,-0.152853,-0.927289,0.022280999999999995,0.16184300000000001,-0.916992,0.003126999999999658,0.314696,0.010297,0.9683292010321807,0.8708450751086106,double,-0.916992
14,0.058333,walk,-0.07129140662511127,0.21339414306288992,0.009841574651960809,-0.04570343607002997,-0.04847256658777807,0.2929518794420899,-0.012481997119471651,0.008641382621221369,0.0,0.00600096015361059,0.008641382621221369,-0.0002400384061452231,-0.8105712411065806,2.489290677757495,-1.324339089372072,0.8633501160445377,-0.28752526206099793,0.5760460910604515,-1.727792590229438,0.05810239257415383,0.28800921821166936,0.025653000000000148,-0.15370599999999998,-0.9273300000000001,0.02260300000000015,0.16099000000000002,-0.917034,0.003049999999999997,0.314696,0.010296000000000083,0.9746977303556004,0.8795009455778766,double,-0.917034
15,0.0625,walk,-0.059995200383936076,0.2085433165346774,0.013198944084453148,-0.10986851138437399,-0.1133896440671063,0.28326706454474426,-0.015598752099880929,0.0086393088552869,0.0026397888168939597,0.01775857931357943,0.009119270458359136,0.0004799616030705694,2.7108726280718027,-1.1641052383519404,0.8057042074615651,-0.7479613583895559,-0.0004976640111515801,0.6334986361636576,2.8216028701629106,0.11468390620056808,0.17278617931744492,0.025837999999999806,-0.154539,-0.9273739999999999,0.022926999999999698,0.160159,-0.917087,0.002911000000000108,0.31469800000000003,0.010286999999999935,0.9699571042984472,0.8638484320252096,double,-0.917087
16,0.066667,walk,-0.06671466282702718,0.20950323974082052,0.021118310535151643,-0.0725111208110975,-0.11472238326432778,0.36676971997641117,-0.02495800335970287,0.009599232061438015,0.00575953923686181,0.009599232061497962,0.008639308855293548,-0.0026397888168939554,-1.612541982983224,0.23036314042311756,1.9004959084949573,-2.2460406191077356,0.23036314042503336,0.7486802063757733,-1.9580866935640653,-0.1151815702101242,-0.7486802063749752,0.026012000000000146,-0.155372,-0.927438,0.023245000000000182,0.159322,-0.917186,0.002766999999999964,0.31469400000000003,0.010252000000000039,0.9544106652307427,0.8755108676987308,double,-0.917186
17,0.070833,walk,-0.06048967834846317,0.2105136821891508,0.014642342774865319,-0.08947575339601842,-0.18189249806591362,0.3963859310253423,-0.024963994239049984,0.0189630340854527,0.011761881901104311,0.012962073931828764,0.007921267402785726,-0.0007201152184356717,1.4942353525117666,0.24254499479843794,-1.55448097942543,-0.001438041129887988,2.2476721133016584,1.4407927662608058,0.8072112026718221,-0.1723575258060067,0.4607953908925321,0.02615999999999996,-0.15617,-0.92745,0.023550999999999878,0.158478,-0.91725,0.0026090000000000835,0.31464800000000004,0.010199999999999987,0.9441942969872531,0.8726534900600775,double,-0.91725
18,0.075,walk,-0.06767458603319829,0.22630189584833194,0.013918886489081458,-0.06411083647976498,-0.2211485596811103,0.4887978634367772,-0.023278137749036643,0.010319174466046365,0.007919366450683531,0.012479001679798148,0.00839932805375743,-0.003359731221502306,-1.724239905144014,3.7888681687499655,-0.17361561933857936,0.4045731917478618,-2.074360359828732,-0.9221299377059698,-0.1159280662420484,0.11472537820295267,-0.6334571641628586,0.026345000000000063,-0.15707,-0.927475,0.023884999999999934,0.15757000000000002,-0.9173220000000001,0.0024600000000001288,0.31464000000000003,0.010152999999999968,0.9555567333026312,0.872781589915566,double,-0.9173220000000001
19,0.079167,walk,-0.05999520038393597,0.2205423566114709,0.009599232061418033,-0.0809986023456813,-0.31046980357528065,0.4566200250668919,-0.02495800335970287,0.013678905687545342,0.006479481641468495,0.011279097672270763,0.0035997120230350926,-0.0019198464122856048,1.8429051234130807,-1.3821788425392447,-1.0366341319086683,-0.4031354957202368,0.8062709914804351,-0.3455447106347575,-0.2879539254925327,-1.1518157021171904,0.3455447106351571,0.026491000000000042,-0.157932,-0.927488,0.024182000000000148,0.156666,-0.91737,0.0023089999999998945,0.314598,0.01011799999999996,0.9513516565642939,0.8788296008324431,double,-0.91737
20,0.083333,walk,-0.04848775804124179,0.2148343734997597,0.01848295727316219,-0.0582224357356649,-0.23208378183289544,0.43979338172137583,-0.03552568410941307,0.012962073931828721,0.008161305808929258,0.012962073931828721,0.004320691310607353,-0.0024003840614505653,2.7622281187456017,-1.370135168437636,2.132435240457069,-2.5366492438094554,-0.17206715211632742,0.4037023925733944,0.4039789389241374,0.17306271905239073,-0.11534749139821417,0.02654500000000004,-0.158773,-0.927531,0.02443799999999996,0.15578899999999998,-0.917457,0.002107000000000081,0.314562,0.010074000000000027,0.9355213966462332,0.8761392074303106,double,-0.917457
21,0.0875,walk,-0.047276217902568564,0.21478281737461075,0.01847852171826108,-0.02783385088318372,-0.2546300524558026,0.5276773626160817,-0.03887688984891768,0.020158387329013903,0.013438924886009269,0.012958963282937034,0.004079673626114001,-0.002879769618430082,0.2907463735716884,-0.012372480237330221,-0.001064448020424349,-0.8042250394779492,1.7269770571598748,1.2665272563187002,-0.0007464960143238614,-0.05783961710903595,-0.11504333020866753,0.026579999999999604,-0.15958399999999998,-0.9275519999999999,0.02468899999999996,0.15491100000000002,-0.917546,0.001890999999999643,0.31449499999999997,0.01000599999999996,0.9236532426992325,0.8767936336353394,double,-0.917546
22,0.091667,walk,-0.04367650587955996,0.20542356611471063,0.017998560115202105,-0.04141882184882186,-0.29102507370175645,0.49434218787492185,-0.04367650587945338,0.02207823374129611,0.02375809935205226,0.009359251259821968,0.004079673626107326,-0.002159827213823387,0.8638617765799385,-2.246040619126495,-0.11518157020853727,-1.1518157020724025,0.4607262808452618,2.4764037595495516,-0.8638617766054864,-1.601715520475344e-12,0.17277235531718121,0.026580000000000048,-0.16034800000000002,-0.927528,0.024909999999999766,0.154072,-0.91763,0.0016700000000002824,0.31442000000000003,0.009898000000000073,0.9093306854584686,0.8836271395048295,double,-0.91763
23,0.095833,walk,-0.04704752760438378,0.21435429668746978,0.004560729716752576,-0.011942199946971696,-0.33951904633784813,0.49994638923242274,-0.045847335573704295,0.024243879020647546,0.032405184829571804,-0.012241958713399715,-0.006961113778204807,-0.0028804608737393457,-0.8091746819068215,2.1437183323953763,-3.225595390890427,-0.52108249982019,0.519838041130925,2.0756326158232206,-5.185120012775244,-2.6502130111166884,-0.17297975514065247,0.02658499999999986,-0.16113999999999998,-0.927412,0.025054999999999605,0.15315,-0.917661,0.0015300000000002534,0.31428999999999996,0.009751000000000065,0.8980762832499178,0.878532878986102,double,-0.917661
24,0.1,walk,-0.04247660187192599,0.22846172306215473,0.00911927045835912,-0.05717901838021721,-0.33900159642448446,0.5850627792142454,-0.045836333093365024,0.024238060955121165,0.04055675545956379,-0.13078953683700387,0.044636429085671114,0.10319174466042702,1.0969344210361844,3.3855114890052658,1.093962261004689,0.00264038405070107,-0.0013962240284090806,1.9562204535617898,-28.449142818239512,12.382419693754708,25.45529290476752,0.026571000000000122,-0.161991,-0.927281,0.024687000000000126,0.152384,-0.917269,0.0018839999999999968,0.31437499999999996,0.010012000000000021,0.8902869469464785,0.6124254146322468,double,-0.917269
25,0.104167,walk,-0.04223662107025014,0.20974322054235706,0.01151907847373365,-0.0746303067750658,-0.31551461311453366,0.5370061105053204,-0.0578353731701311,0.025197984161265716,0.0379169666426683,0.011279097672164227,0.01439884809215374,0.03719702423806161,0.057590785139393336,-4.492081238252393,0.5759078510618035,-2.8795392552834422,0.23036314042345885,-0.6334986361640267,34.09374478261781,-7.25643892333032,-15.837465904095408,0.02650599999999992,-0.16276000000000002,-0.927171,0.024909999999999766,0.15156999999999998,-0.917162,0.0015960000000001529,0.31433,0.010008999999999935,0.8773264816802459,0.8308254406452562,double,-0.917162
26,0.108333,walk,-0.03792606817098522,0.20643302928468532,0.0014402304368580138,0.00540476820444915,-0.367709102059743,0.5596066990526033,-0.05448871819495898,0.029524723955835788,0.04752760441670753,-0.008641382621148082,0.009361497839657038,0.013202112337973944,1.0346982475431874,-0.7945730335265802,-2.419310618549119,0.8033257261574936,1.0385837240926714,2.306922173317145,-4.78168033924923,-1.209157525803336,-5.759700408086329,0.026437000000000044,-0.163497,-0.926979,0.025032000000000387,0.150749,-0.917113,0.0014049999999996565,0.314246,0.009866000000000041,0.8698334089117911,0.8707619166362814,double,-0.917113
27,0.1125,walk,-0.031917446604256924,0.21766258699304072,-0.007199424046070185,-0.07343483893343218,-0.4187260342112305,0.575306081913042,-0.05759539236856148,0.0340772738180953,0.058555315574752576,-0.003599712023115022,0.0074394048476129635,0.005999520038396261,1.4419538197092125,2.6948782597445144,-2.0733512078061413,-0.7455421582919369,1.0925245649770832,2.646438962813783,1.2099041511958377,-0.46126541685722894,-1.728483873188787,0.026330000000000187,-0.164262,-0.926705,0.025150000000000006,0.149873,-0.917058,0.001180000000000181,0.314135,0.009646999999999961,0.8517957978270366,0.8865090234133188,double,-0.917058
28,0.116667,walk,-0.04703623710099898,0.2181425485961117,0.0019198464122889352,-0.0383480715101301,-0.3475790735140416,0.6448787763805414,-0.05663546916249695,0.04271658267338218,0.06647468202543777,-0.010799136069131922,0.008639308855286887,-0.0002399808015361169,-3.6282194616611574,0.1151815702114189,2.1884498340194654,0.23036314040425582,2.073268263807745,1.9004959084917654,-1.7277235531598014,0.28795392552769905,-1.4973604127507492,0.026289999999999925,-0.164993,-0.926436,0.025300999999999796,0.149,-0.917067,0.0009890000000001287,0.31399299999999997,0.009369000000000072,0.8379714861090879,0.8832571267082622,double,-0.917067
29,0.120833,walk,-0.04104656745077332,0.2141142582813257,0.004800768122904478,-0.05095875638716774,-0.2861550959973515,0.5992039289989993,-0.05184829572731506,0.0429668746999551,0.07729236677868548,-0.0036005760921450462,0.004080652904468806,-0.012481997119538317,1.4377507561751504,-0.9669443866505115,0.6915318556446353,1.1491054813206678,0.06007969912936252,2.5966598063484727,1.727930863415001,-1.0942525085977177,-2.938554084974131,0.026244999999999852,-0.165706,-0.926134,0.02545699999999984,0.148125,-0.917139,0.0007880000000000109,0.31383099999999997,0.008994999999999975,0.8291483094939454,0.8873554014983595,double,-0.917139
30,0.125,walk,-0.03647708183343648,0.20590352771778264,-0.0023998080153744905,0.02542764993292229,-0.30358740915410937,0.5182672600791717,-0.05039596832254458,0.04535637149027947,0.08879289656827499,-0.008639308855326851,-0.0033597312215056367,-0.01751859851211988,1.096588821055156,-1.9704177018341822,-1.728000033184296,0.34853069468933906,0.5734333550094466,2.7599063569929214,-1.2091991272334532,-1.7855493462861616,-1.2086876392084376,0.026186999999999738,-0.166375,-0.925754,0.025572999999999624,0.147253,-0.917202,0.0006140000000001145,0.313628,0.008552000000000004,0.8138016847334576,0.8814469044236888,double,-0.917202
31,0.129167,walk,-0.03527717782580252,0.20782337413006907,-0.003359731221492315,-0.02945556321750281,-0.32218707776115607,0.5566420319466282,-0.04223662107025,0.04631629469642393,0.09095272378209672,-0.00527957763378125,0.0007199424046083507,0.00575953923686181,0.2879539255181081,0.46072628084627504,-0.23036314041704425,1.9580866936152077,0.23036314042343728,0.5183170659519379,0.8062709914916241,0.9790433467996121,5.586306155263179,0.026158000000000126,-0.167048,-0.925361,0.025697999999999777,0.14639,-0.917164,0.000460000000000349,0.313438,0.00819700000000001,0.8158991122205888,0.9049528199949909,double,-0.917164
32,0.133333,walk,-0.03048487758041002,0.21027364378300514,-0.013922227556409613,-0.08992260262523114,-0.4701895196051418,0.5823592266795908,-0.044167066730667746,0.05280844935189578,0.10681709073451767,-0.004800768122824513,-0.0021603456553003454,0.012722035525683498,1.1503361126722278,0.5881588221161953,-2.535404785145773,-0.46338109947617445,1.5583664559461927,3.8080573577582673,0.11493267185711398,-0.6913797551389088,1.6712665119591175,0.026101000000000152,-0.167704,-0.924858,0.025805000000000078,0.14550500000000002,-0.917053,0.000296000000000074,0.313209,0.007804999999999951,0.7881998257035054,0.8990029198276983,double,-0.917053
33,0.1375,walk,-0.03143748500122465,0.19534437245020433,0.0002399808015427777,-0.08083877284652437,-0.3778299107837154,0.5478935571386514,-0.05159587233028511,0.06359491240701103,0.11975041996640244,0.00455963522917956,-0.0007199424046083507,0.00575953923686181,-0.22860749239612033,-3.5827385007921273,3.3986581132595095,-1.7827707222503861,2.588544049703681,3.103750715595094,2.2463170991130466,0.3456691266359475,-1.6708654400819969,0.026016999999999957,-0.16825299999999999,-0.9243600000000001,0.025955000000000172,0.144688,-0.91703,6.199999999978445e-05,0.312941,0.007330000000000059,0.7582091697831215,0.9143981389495013,double,-0.91703
34,0.141667,walk,-0.04487640988719421,0.20806335493160658,0.003119750419949558,-0.07604063789683595,-0.2831928614543155,0.5899293631990138,-0.06527477801771765,0.05879529637628909,0.11951043916486712,0.01055915526756257,0.00143988480921005,-0.006719462443004657,-3.2250839659154393,3.0523116106077066,0.69108942126393,-3.2826747510037477,-1.1518157021171025,-0.05759078510566987,1.4397696276417191,0.5183170659511431,-2.994720825501929,0.025932000000000066,-0.168875,-0.923875,0.026186000000000043,0.14382699999999998,-0.917071,0.00025399999999997647,0.312702,0.006804000000000032,0.7527909758107446,0.9109626321919972,double,-0.917071
35,0.145833,walk,-0.04920787325977739,0.2165146423427747,0.004800768122904461,-0.1832461679096977,-0.2933362366392594,0.5663957293103417,-0.06048967834856957,0.07033125300047707,0.13298127700432033,0.04560729716752576,0.011761881901109269,-0.035285645703312815,-1.0397175642302394,2.0286335600499577,0.4035088101187955,1.148607697827192,2.769072641427743,3.233518444419876,8.412900120010361,2.4776757301726384,-6.8569810994498654,0.025885000000000158,-0.169484,-0.923341,0.026581000000000188,0.14297400000000002,-0.917238,0.0006960000000000299,0.312458,0.0061029999999999696,0.7297660151264469,0.8408849431830498,double,-0.917238
36,0.15,walk,-0.05375569954398361,0.2119030477561789,0.004079673626120648,-0.1636212639954684,-0.29294428877121226,0.49988952755459737,-0.06527477801771722,0.09383249340052846,0.16606671466282805,0.034317254619631414,0.012479001679864756,-0.009359251259900232,-1.091390996929737,-1.1066941652497702,-0.17304883532128928,-1.1483320540311135,5.639846508291664,7.939869848453967,-2.7093934600178393,0.17209497930297263,6.221836919465456,0.02583700000000011,-0.16997600000000002,-0.922666,0.026947999999999972,0.14214300000000002,-0.917294,0.001110999999999862,0.31211900000000004,0.005371999999999932,0.6639961674246043,0.8834531870823403,double,-0.917294
37,0.154167,walk,-0.03455723542120084,0.1982241420686344,0.007679385649155741,-0.19528609880146314,-0.3774691753074387,0.42714282238476525,-0.049676025917942894,0.09647228221742574,0.1763858891288694,0.0019198464123422216,-0.012479001679864756,0.006239500839934044,4.607262808443187,-3.2826747510305974,0.8638617765862945,3.743401031863286,0.6334986361644525,2.47640375954916,-7.774755989270258,-5.989441651002997,3.7434010318776725,0.025774000000000186,-0.1704,-0.9219630000000001,0.027100000000000346,0.141265,-0.9173,0.0013260000000001604,0.31166499999999997,0.004663000000000084,0.6548487019717111,0.9298976365872669,double,-0.9173
38,0.158333,walk,-0.03768602976470009,0.19827172347575606,0.010561689870363166,-0.15136943706358558,-0.3525883655412729,0.43063267121525456,-0.033365338454126044,0.12289966394622763,0.1925108017282757,-0.03024483917433808,-0.024243879020647546,0.003600576092175015,-0.7510308073689995,0.011421365127618979,0.6918637112835869,3.915191421943552,6.3435865887666525,3.870598319588642,-7.7207598623812475,-2.8240224053727268,-0.6334432903886286,0.025792000000000037,-0.170714,-0.9212049999999999,0.027130999999999794,0.140338,-0.917329,0.001338999999999757,0.311052,0.0038759999999999906,0.6152996043444343,0.8963580534687783,double,-0.917329
39,0.1625,walk,-0.043196544276527686,0.21022318214542776,0.01679865610751486,-0.18620348712619933,-0.3964778292367393,0.44683204753942984,-0.062395008399417036,0.1387089032877357,0.2114230861531075,-0.00047996160303226897,-0.018238540916724902,-0.0028797696184317376,-1.3224176894234676,2.868120631070721,1.4967521567438657,-6.966563461792888,3.793913928847623,4.538585175145618,7.142999177179214,1.4411658516732992,-1.55515855786099,0.025711999999999957,-0.171012,-0.920394,0.02730900000000025,0.139386,-0.917411,0.0015970000000002926,0.310398,0.002983000000000069,0.5659204556927573,0.9393854525159728,double,-0.917411
40,0.166667,walk,-0.05375569954398361,0.20350371970242398,0.023998080153585045,-0.2123878763256906,-0.34619227743172587,0.3578760946935135,-0.05567554595621926,0.10151187904967754,0.20302375809935175,0.004079673626040718,-0.010079193664503588,-0.009599232061434685,-2.5339945446258496,-1.6125419829622691,1.727723553172589,1.6125419830088232,-8.926571691398635,-2.0156774787030844,1.0942249169841571,1.9580866935976258,-1.6125419829620689,0.02570400000000017,-0.171437,-0.919648,0.02754999999999974,0.138496,-0.917551,0.0018459999999995702,0.309933,0.0020970000000000155,0.610473669558842,0.9548559127489982,double,-0.917551
41,0.170833,walk,-0.046327412385954767,0.2042726836293808,0.02664426308208645,-0.28698306476090824,-0.3888071545970622,0.2846184920717366,-0.07201152184354027,0.07657225156025288,0.21891502640422525,0.001440230436964612,-0.0004800768122904462,-0.0062409985597691375,1.7830742098004897,0.1845808754097042,0.6351855325255408,-3.92126161481541,-5.986468432411099,3.8145147155241212,-0.6335677362160597,2.304156709604689,0.8061050172024832,0.02559699999999987,-0.17196899999999998,-0.918847,0.027749000000000024,0.13764300000000002,-0.917688,0.002152000000000154,0.309612,0.0011590000000000211,0.5952615461368499,0.9777050166744254,double,-0.917688
42,0.175,walk,-0.05039596832254492,0.2008639308855297,0.027597792176646967,-0.3024317574614583,-0.415449353701617,0.24741776469007573,-0.08711303095755107,0.08471322294216324,0.21358291336693233,0.002639788816837356,0.0002399808015361185,-0.0043196544276468025,-0.976375314756462,-0.8180352157070138,0.2288286764004134,-3.624072261581686,1.953676837511497,-1.279604760569462,0.2878709814909409,0.17280000331811107,0.4610857048529748,0.0254439999999998,-0.172453,-0.918072,0.02796999999999983,0.136807,-0.917821,0.0025260000000000282,0.30926,0.0002510000000000012,0.5904519049198304,0.9890431909119982,double,-0.917821
43,0.179167,walk,-0.06335493160548157,0.20854331653467745,0.036237101031893704,-0.31507790445612205,-0.35498443169110006,0.2849336416927767,-0.08207343412523209,0.0916726661867034,0.21310295176385866,0.004799616030748981,0.004799616030715677,0.0011999040076805846,-3.109902395713136,1.8429051233855864,2.073268263798111,1.2094064872375763,1.6701327680681917,-0.115181570212065,0.5183170659735116,1.0942249170097322,1.3245880574339768,0.025366,-0.17294,-0.9173349999999999,0.028254,0.135958,-0.917967,0.0028880000000000017,0.308898,0.0006320000000000769,0.5835553767811104,0.9885117937633883,double,-0.9173349999999999
44,0.183333,walk,-0.056409025444067465,0.21267402784445447,0.03096495439271379,-0.28504421859058665,-0.4206951689143456,0.2339613765439399,-0.11089774363902644,0.09793566970715108,0.19155064810369649,0.004320691310574041,0.0033605376860264607,-0.0014402304368696728,1.6672842442184592,0.9915293590439308,-1.2655176762313751,-6.9189413139208655,1.5033613827286774,-5.173380619338011,-0.1149603264942246,-0.34543407217696,-0.6337336640783139,0.0251389999999998,-0.17341800000000002,-0.916666,0.028506999999999838,0.13508599999999998,-0.918102,0.0033680000000000376,0.308504,0.0014359999999999928,0.5822469061691204,0.9905666297627695,double,-0.916666
45,0.1875,walk,-0.0628749700024493,0.1939044876409893,0.03983681305495544,-0.2567428627572103,-0.34128472785117236,0.13875807170453833,-0.10391168706495878,0.10679145668346544,0.23014158867290466,0.0016798656107728006,0.005279577633794572,-0.0007199424046083507,-1.551702557807016,-4.504329302487435,2.129075752877764,1.676519456219739,2.1252188568069017,9.261084849821966,-0.6337474681548447,0.4605327448447587,0.17285529931877164,0.024968000000000323,-0.17378100000000002,-0.915873,0.028776000000000135,0.1343,-0.918271,0.0038079999999998115,0.30808100000000005,0.0023979999999999,0.5190760307684479,0.9906883875475186,double,-0.915873
46,0.191667,walk,-0.0724742020638407,0.21598272138228874,0.042236621070303286,-0.27320545868992024,-0.3193046898703839,0.18991245079151511,-0.11687065034800234,0.12119030477561914,0.2735781137509002,0.00527957763378125,-0.005999520038402923,0.0014398848092150361,-2.3036314042215937,5.298352229733482,0.5759078510553977,-3.1099023957387932,3.4554471063483754,10.423932104150586,0.8638617765799007,-2.7067668999753978,0.5183170659523362,0.02478300000000022,-0.174176,-0.914909,0.029100000000000126,0.133375,-0.918441,0.004316999999999904,0.307551,0.0035319999999999796,0.46468,0.9864659432719887,single,-0.914909
47,0.195833,walk,-0.06817090734511011,0.20187229956793107,0.04368698991839063,-0.2908670970622985,-0.28882066153113856,0.0813277029008576,-0.1281805088814292,0.10513682189150111,0.29404704752760347,0.0031204992798945625,0.0012001920307261153,0.0007201152184356692,1.0329560054562135,-3.3870431623518162,0.34814422661722105,-2.7148004160890196,-3.8534524445794553,4.913330239247063,-0.5182617268090941,1.728207409776532,-0.1727723453623059,0.024532999999999916,-0.174579,-0.913866,0.029396999999999895,0.132539,-0.91862,0.0048639999999999795,0.307118,0.004754000000000036,0.4524600000000001,0.9942999652549149,single,-0.913866
48,0.2,walk,-0.08183345332376923,0.2119030477561789,0.045836333093365024,-0.3428579440893339,-0.3089361709340676,0.10921019755401393,-0.14206863450927462,0.11471082313415064,0.29661627069834406,0.03455723542120084,-0.0004799616030722338,-0.05567554595632417,-3.2787487349793882,2.4071869902202616,0.5158010979060216,-3.3328835200012965,2.297576492116514,0.6165642358388758,7.544213136862549,-0.403204615742344,-13.533875971864601,0.024281999999999915,-0.174984,-0.912821,0.029882000000000186,0.131654,-0.919043,0.005600000000000271,0.30663799999999997,0.006222000000000061,0.43778,0.8907830993360322,single,-0.912821
49,0.204167,walk,-0.09359251259896632,0.19774418046556433,0.04895608351331489,-0.2471596652339682,-0.16256762045062184,0.15650247660469102,-0.13798896088312826,0.12359011279098113,0.2963762898968099,0.0007199424046016947,-0.0026397888168906425,0.0033597312215023285,-2.821948470169704,-3.397856321241819,0.7486802063714619,0.979043346807388,2.1308590489154167,-0.05759078510538678,-8.120300699927846,-0.5183170659511449,14.167333136027558,0.024096999999999813,-0.17529299999999998,-0.91179,0.030275000000000052,0.13081900000000002,-0.919233,0.006178000000000239,0.306112,0.007442999999999977,0.42557,0.9927783896947229,single,-0.91179
50,0.208333,walk,-0.09793566970719772,0.20739318290926537,0.045607297167552414,-0.33029333648106635,-0.20101432082081994,0.06183981103559818,-0.14858377340372653,0.13226116178588468,0.32333173307729235,0.006961113778218132,-0.0004800768122904462,-0.0024003840614488996,-1.0425245098971179,2.3161311674750436,-0.8038373369569062,-2.543161910849318,2.081384780341705,6.470341617974655,1.498120829000584,0.5184138273164174,-1.3826488917309707,0.023886000000000074,-0.17560599999999998,-0.910633,0.030712000000000295,0.129953,-0.9194330000000001,0.006826000000000221,0.305559,0.00880000000000003,0.41200000000000003,0.9877016913514438,single,-0.910633
51,0.2125,walk,-0.0895128389728184,0.20566354691624653,0.034317254619631414,-0.3508787903806481,-0.2657264352237286,-0.04667579732348732,-0.19030477561790757,0.16534677225821803,0.3318934485241183,0.004319654427610139,0.004079673626107326,-0.008639308855291883,2.0213176708373664,-0.41507943196996383,-2.7093934600242355,-10.012239552239262,7.939911320454361,2.0546473354513863,-0.6338995321833429,1.0942525650102635,-1.4972221727484945,0.023465999999999987,-0.17577399999999999,-0.909393,0.03110299999999988,0.12911299999999998,-0.919612,0.007636999999999894,0.304887,0.010218999999999978,0.39781,0.9825245562155658,single,-0.909393
52,0.216667,walk,-0.10463162946966705,0.20014398848092166,0.03527717782577588,-0.3288714589275704,-0.2480419733919794,0.03878430738489308,-0.17326613870892987,0.14062874970002462,0.32109431245500303,0.060715142788537665,0.02135829133669442,-0.03071754259659299,-3.6282194616867347,-1.3245880574333722,0.23036314042343728,4.088945742495243,-5.931850865897142,-2.591585329761278,13.533834499862603,4.1465365276186885,-5.298352229733882,0.02317999999999998,-0.176022,-0.9082020000000001,0.03179199999999982,0.12836799999999998,-0.919887,0.008611999999999842,0.30439,0.011684999999999945,0.38315,0.8811388228526289,single,-0.9082020000000001
53,0.220833,walk,-0.1214594335093896,0.19275084013442093,0.035765722515591604,-0.2537538259803412,-0.1400074809922362,0.10555687867033697,-0.2083533365338671,0.128660585693713,0.33677388382141155,0.02112337974083293,0.005760921747478691,-0.017042726836294184,-4.03931926061511,-1.7746395454874526,0.11726948867396195,-8.422275041991645,-2.8728190125567963,3.763699319829214,-9.503543698440879,-3.743967736249572,3.2824809794284198,0.022818000000000005,-0.17628899999999997,-0.906948,0.03238600000000025,0.127589,-0.920107,0.009568000000000243,0.303878,0.013159000000000032,0.36840999999999996,0.9537566842946601,single,-0.906948
54,0.225,walk,-0.1319894408447444,0.1984641228701705,0.03911687065035375,-0.2270668121315903,-0.0567308917974723,0.054297724427784244,-0.21550275977917988,0.13606911447083841,0.34197264218862355,-0.0023998080153744905,0.002399808015361169,-0.0014398848092150361,-2.5269996005171067,1.3710781703262733,0.8042112154456782,-1.7157243209293926,1.7779046741361675,1.2476021999548845,-5.645113452413582,-0.8066027674868056,3.7443825358961202,0.022470000000000212,-0.176549,-0.905686,0.03292600000000023,0.126772,-0.920276,0.01045600000000002,0.303321,0.014589999999999992,0.3541,0.9938555749556892,single,-0.905686
55,0.229167,walk,-0.10079193664508916,0.18406527477801682,0.02447804175664396,-0.3204502143446217,-0.24388996904615626,-0.1940393137605414,-0.2347012239020692,0.16894648428125977,0.33789296856251455,-0.0009599232061711108,0.004079673626107326,-0.007919366450683531,7.486802063752149,-3.4554471063483754,-3.5130378914590294,-4.607262808468759,7.889937559496358,-0.9790433467984161,0.3455447106319603,0.4031354957394182,-1.5549511978566088,0.021912000000000376,-0.176612,-0.90438,0.033342000000000205,0.126022,-0.920411,0.01142999999999983,0.30263399999999996,0.016031000000000017,0.33969000000000005,0.9850666709042497,single,-0.90438
56,0.233333,walk,-0.1289006240998582,0.1934709553528566,0.024243879020647546,-0.28150619641049685,-0.19658309976848035,-0.01023929875822753,-0.24795967354778226,0.16418626980316603,0.35909745559289563,-0.004560729716752576,-0.0002400384061452231,0.003360537686029792,-6.7471645354702385,2.2577245738933702,-0.05620804992712734,-3.182537120910474,-1.1426342962298945,5.089891269894639,-0.8643318556364529,-1.0368967912272076,2.7076102104448667,0.021416000000000324,-0.176734,-0.9029849999999999,0.03386000000000022,0.125215,-0.9204979999999999,0.0124439999999999,0.301949,0.017513,0.32487,0.9905496784997485,single,-0.9029849999999999
57,0.2375,walk,-0.1514278857690976,0.18910487161027154,0.026157907367416935,-0.2678890036741257,-0.09031039977314417,0.07231629428055877,-0.27141828653707695,0.15982721382289505,0.33765298776098235,0.0016798656107728119,0.008159347252221368,-0.005759539236861848,-5.406110311792545,-1.0477762761183331,0.4593300568201104,-5.6296167480909105,-1.0460897480851934,-5.146260578812912,1.4976230687606007,2.015691302703777,-2.188643370024404,0.020916000000000157,-0.176856,-0.901687,0.03449800000000014,0.124461,-0.920631,0.013581999999999983,0.301317,0.01894399999999996,0.31055999999999995,0.9831205920758177,single,-0.901687
58,0.241667,walk,-0.14854811615068983,0.17998560115190784,0.028077753779705696,-0.24632383938720934,-0.07408009175835635,-0.1148398810249611,-0.2963762898968846,0.1677465802735792,0.35301175905927495,0.0021598272138050696,0.007919366450685196,-0.0045596352291812255,0.6910894212641638,-2.1884498340205627,0.4607262808468346,-5.989441651021744,1.9004959084915125,3.68581024677048,0.11518157020212556,-0.057590785105872636,0.28795392552930676,0.020299999999999763,-0.17690699999999998,-0.900333,0.03512599999999999,0.123744,-0.920767,0.014826000000000228,0.300651,0.020433999999999952,0.2956599999999999,0.9843500539584777,single,-0.900333
59,0.245833,walk,-0.16370619299084227,0.18098895823331831,0.025924147863657442,-0.22956830103651327,-0.05608168434434768,-0.04227442772560588,-0.2947671627459875,0.16778684589534437,0.3490158425348046,0.0021603456552870205,0.009841574651940821,-0.005760921747478691,-3.6385206049333725,0.24084423461605167,-0.516948131552629,0.386252316585948,0.009665295670950227,-0.9591734336222615,0.00012444586700695052,0.461403792908215,-0.2883549011755797,0.019753999999999827,-0.176962,-0.898987,0.035816999999999766,0.12303099999999999,-0.920899,0.01606299999999994,0.29999299999999995,0.021912000000000043,0.28088,0.9806557570751647,single,-0.898987
60,0.25,walk,-0.16918646508288915,0.1696664266858648,0.021118310535151643,-0.2884735403439304,-0.16717295971342933,-0.06250393019753975,-0.335253179745589,0.18382529397647904,0.34677225821934254,0.001199904007633959,0.005999520038396261,-0.0011999040076805846,-1.3151600892841069,-2.7171901961731493,-1.153308694145859,-9.715866810559499,3.848919625902244,-0.5384171623379083,-0.23048755643222,-0.9220193457030372,1.0945566930161033,0.019062000000000356,-0.176903,-0.89763,0.036526999999999976,0.12234899999999999,-0.920992,0.01746499999999962,0.29925199999999996,0.023361999999999994,0.26637999999999995,0.9896085264724842,single,-0.89763
61,0.254167,walk,-0.18670506359490036,0.17302615790736825,0.022798176145897953,-0.2758501026983667,-0.05170842438176226,-0.044107088011683074,-0.3405327573794791,0.16822654187665254,0.33357331413486835,0.0007199424047082675,0.009119270458365842,-0.005039596832253493,-4.204127312697698,0.8062709914815163,0.4031354957394576,-1.26699727235184,-3.7434010318758317,-3.1674931808193594,-0.11518157017655245,0.7486802063761936,-0.921452561692568,0.01842100000000002,-0.176923,-0.896335,0.03730800000000034,0.121666,-0.9211079999999999,0.01888700000000032,0.298589,0.024772999999999934,0.25227000000000005,0.9825933484145204,single,-0.896335
62,0.258333,walk,-0.205712914066223,0.17066730676908207,0.024243879020647546,-0.27088173721990094,-0.000971538979267697,-0.07483011925903689,-0.37205952952470933,0.1649063850216017,0.3338934229476722,0.004080652904395506,0.010081613058092707,-0.0062409985597691375,-4.562614131378451,-0.5662148675674944,0.34702421381411214,-7.567636136637117,-0.7969651596377398,0.07683840921840258,0.8066995918596341,0.23099918380385606,-0.2883825558126845,0.017727999999999966,-0.176947,-0.895045,0.03818199999999994,0.12099700000000002,-0.921235,0.020453999999999972,0.297944,0.026190000000000047,0.23810000000000003,0.9791007234972184,single,-0.895045
63,0.2625,walk,-0.21550275977917843,0.18022558195344274,0.020638348932092595,-0.3164794897427933,-0.008638579648028562,-0.03823665627374481,-0.43460523158147185,0.18838492920566402,0.3390928725701912,-0.0016798656107727896,0.006479481641468453,-0.0014398848092150266,-2.349375021107598,2.29380254004334,-0.8652580006131325,-15.009767712205914,5.6343998521867364,1.2477680879575148,-1.382413850532338,-0.8644423845990467,1.152175126122888,0.016814999999999802,-0.176913,-0.893718,0.03907299999999969,0.12027300000000002,-0.921327,0.02225799999999989,0.297186,0.027608999999999995,0.22391000000000005,0.9885886388147367,single,-0.893718
64,0.266667,walk,-0.2071034317255304,0.16870650347972313,0.011519078473733688,-0.3193689755606657,-0.07039416251441369,-0.1514131820842156,-0.47228221742254833,0.18358531317494414,0.3122150227981804,0.0019198464123422344,0.008159347252214707,-0.0064794816414685385,2.0156774786772473,-2.7643576850779152,-2.1884498340194285,-9.04175326159748,-1.1518157021166078,-6.45016793184808,0.8638617766054822,0.40313549573944407,-1.209406487221872,0.015710000000000335,-0.176851,-0.8924650000000001,0.0399440000000002,0.11960399999999999,-0.921402,0.024233999999999867,0.296455,0.02893699999999999,0.21062999999999998,0.9823424205626297,single,-0.8924650000000001
65,0.270833,walk,-0.22371579452705476,0.16802688430148793,0.01248199711952495,-0.348953728650993,-0.05903599749803999,-0.18248139570396607,-0.5187229956793274,0.18026884301488266,0.29428708593374703,-0.0007201152184290069,0.0033605376860331234,-0.001680268843014896,-3.987605089180114,-0.16313470432913976,0.23113745698302013,-11.147570392889842,-0.7960802112485543,-4.303393390406476,-0.633692182134239,-1.1518985996595248,1.151995390891416,0.014480999999999966,-0.1768,-0.891291,0.04087299999999994,0.118918,-0.921461,0.02639199999999997,0.29571800000000004,0.03016999999999992,0.1983000000000001,0.9936240288644116,single,-0.891291
66,0.275,walk,-0.23686105111597927,0.1747060235181171,0.012718982481394128,-0.35071852721896357,-0.08608343530517207,-0.1452680428479347,-0.5843532517399013,0.18382529397648448,0.2999760019198444,0.001919846412235636,0.004799616030715645,-0.0014398848092150266,-3.154609212604851,1.602865182776364,0.056871937093634625,-15.750001454421243,0.8534799523882379,1.3652306182139053,0.6335401081508574,0.34535117462983217,0.05768755310771958,0.013033000000000072,-0.17676199999999997,-0.8900939999999999,0.041868000000000016,0.11821,-0.92152,0.028834999999999944,0.294972,0.031426000000000065,0.18574000000000007,0.9910564435745485,single,-0.8900939999999999
67,0.279167,walk,-0.24190064794808772,0.16006719462443117,0.012958963282937077,-0.29229401529333304,-0.05866297113268414,-0.1784630958833539,-0.6297096232301355,0.20422366210703036,0.27981761459083443,0.004319654427716741,0.005999520038396301,-0.00551955843532573,-1.2094064871870587,-3.5130378914533256,0.05759078510749951,-10.88465838498547,4.89521673399232,-4.837625948886513,0.5759078510873815,0.2879539255293168,-0.9790433467988306,0.011416999999999788,-0.176578,-0.8889819999999999,0.04289399999999999,0.11756799999999999,-0.921597,0.0314770000000002,0.294146,0.03261500000000006,0.17385000000000006,0.9846233239046396,single,-0.8889819999999999
68,0.283333,walk,-0.260201632261182,0.16802688430148793,0.011761881901122593,-0.3181194418854092,0.010145588250639046,-0.20778763047310234,-0.6951512241958199,0.21555448871819713,0.2717234757561227,0.002640422467537492,0.005280844935188245,-0.00840134421507448,-4.392939105399484,1.9106312234893803,-0.2873455069165825,-15.708497591378867,2.719833560049631,-1.9429041850004107,-0.4030801632691426,-0.17250962631014294,-0.6917392654221671,0.009605000000000086,-0.17637999999999998,-0.887899,0.043988999999999834,0.11689,-0.9216810000000001,0.03438399999999975,0.29327,0.03378200000000009,0.16217999999999994,0.9828858620289843,single,-0.887899
69,0.2875,walk,-0.2395008399328198,0.14638828893688574,0.002879769618433422,-0.3545314923411873,-0.14750891454187087,-0.3313517972954623,-0.787377009839292,0.2541396688264897,0.24838012958963288,0.0019198464123422344,0.0023998080153611848,-0.000479961603072237,4.967792735388124,-5.192847459707779,-2.131536424931419,-22.132417960996566,9.259702449794284,-5.601954923563707,-0.1729244192933194,-0.6913935492745564,1.9009797485006692,0.007321999999999829,-0.175931,-0.886876,0.04499500000000012,0.11629,-0.921695,0.03767300000000029,0.292221,0.034819000000000044,0.15181,0.9948158221754396,single,-0.886876
70,0.291667,walk,-0.26829853611709714,0.15502759779217562,0.007679385649129046,-0.30938157053205867,-0.07214643303375538,-0.27299056691995555,-0.8274538036956197,0.2524598032157402,0.2359011279097649,-0.00047996160313883867,0.0059995200383962215,-0.0023998080153578225,-6.910894212689497,2.0732682638084503,1.1518157021107722,-9.617661112629559,-0.4031354957402199,-2.9947208255022533,-0.5759078510873661,0.8638617765862753,-0.4607262808460693,0.0049920000000001075,-0.17552500000000001,-0.885925,0.04611099999999979,0.115669,-0.921737,0.041118999999999684,0.291194,0.035812000000000066,0.14188000000000006,0.9892008639308789,single,-0.885925
71,0.295833,walk,-0.29044647143541347,0.16106577052328314,0.012962073931828721,-0.328378433775799,-0.03332504465851061,-0.19249739461364346,-0.8953432549207894,0.2671627460393668,0.21483437349976145,0.0016802688430365487,0.004320691310614015,-0.004560729716754241,-5.316355093210828,1.4493933584031473,1.2680480755400074,-16.29607566614729,3.5292709610241473,-5.056830151225018,0.5185382732058055,-0.4029833720072504,-0.5187042010073013,0.0024720000000000297,-0.17508300000000002,-0.885084,0.047327999999999815,0.11501600000000001,-0.92181,0.044855999999999785,0.290099,0.036726000000000036,0.13274000000000002,0.9891612920594006,single,-0.885084
72,0.3,walk,-0.11615070794340142,0.012239020878330387,-0.0047996160307223696,-0.16389603650851464,0.36959537284432725,-1.4608316321276922,-0.9246460283178186,0.25173986081114186,0.16654667626589972,0.00047996160303227217,0.005279577633787946,-0.0033597312215023285,41.82763702712096,-35.71556266977528,-4.262464593844778,-7.032103047043296,-3.7011963590652806,-11.58812028650396,-0.28805069354554436,0.23011430841707142,0.288216581533938,-0.0008970000000001477,-0.174085,-0.88437,0.0478139999999998,0.114987,-0.921804,0.04871099999999995,0.289072,0.03743399999999997,0.12566,0.989539479377159,single,-0.88437
73,0.304167,walk,-0.2558195344371925,0.13342932565394688,-0.0028797696184067402,-0.27102726653761156,-0.13348827822987963,-0.5142513068053007,-1.0011999040076873,0.2867770578353714,0.11591072714182712,0.000719942404708258,0.006719462443004568,-0.004079673626110629,-33.51783693155508,29.083346478429466,0.46072628085327927,-18.371460448732453,8.408254625444986,-12.151655657324746,0.057590785139425005,0.3455447106351357,-0.17277235531756546,-0.004003000000000423,-0.173446,-0.8838750000000001,0.04888300000000001,0.114459,-0.9218090000000001,0.05288600000000043,0.28790499999999997,0.03793400000000002,0.12065999999999999,0.986843545153653,single,-0.8838750000000001
74,0.308333,walk,-0.28012481997122884,0.13994239078252516,0.007441190590495253,-0.24904271432052502,-0.06319436014868983,-0.4461079962329707,-1.0300048007680795,0.25108017282765016,0.106096975516082,0.005280844935181583,0.013922227556409613,-0.0028804608737393457,-5.834202000488792,1.5633857725823972,2.4774268384306257,-6.914281507535333,-8.568623381594142,-2.355677298546594,1.0947917739974369,1.728940257658435,0.28785711770794115,-0.0071270000000001055,-0.172983,-0.883464,0.050072000000000116,0.11393400000000001,-0.921852,0.05719900000000022,0.286917,0.03838799999999998,0.11612000000000006,0.97472304528896,single,-0.883464
75,0.3125,walk,-0.2915766738661375,0.14230861531077507,0.0023998080153478634,-0.25572835105351893,-0.13125708409074588,-0.4679531995017044,-1.0760739140869162,0.28197744180465617,0.04655627549796036,0.004079673626040746,0.013918886489081551,-0.000479961603072237,-2.748225076771952,0.5678484589032708,-1.2098350312328816,-11.05570274030164,7.4147513743715345,-14.288624914356127,-0.28825805354951856,-0.0008017920153736507,0.5760737390609846,-0.010396000000000072,-0.172401,-0.8832800000000001,0.051304000000000016,0.11339900000000001,-0.921864,0.06170000000000009,0.2858,0.03858399999999995,0.11416000000000004,0.975812681173152,single,-0.8832800000000001
76,0.316667,walk,-0.2918166546676004,0.12766978641708682,-0.002879769618433422,-0.16118141636421315,-0.1658184883464892,-0.3616702121734056,-1.1091912646988074,0.2637389008879311,-0.00791936645068525,0.0011999040077405397,0.0064794816414685385,-0.0033597312215023285,-0.05759078508828184,-3.5130378914538847,-1.2669972723257295,-7.947528344586352,-4.376899668040595,-13.0731082190175,-0.6910894212383544,-1.785314338280071,-0.6910894212695244,-0.013802000000000092,-0.171834,-0.883301,0.052525000000000155,0.11289400000000002,-0.921866,0.06632700000000025,0.284728,0.03856499999999996,0.11435000000000006,0.987672158221388,single,-0.883301
77,0.320833,walk,-0.3070091214593872,0.1387421987518007,0.00600096015363724,-0.18791975449801154,-0.13513184678838125,-0.48745591046841136,-1.1841094575131663,0.2777244359097433,-0.01056168987037649,0.0016802688429299504,0.0002400384061452231,-0.0050408065290446875,-3.6467755141110914,2.6578042090047678,2.13171621989214,-17.983243594421246,3.3570655357206305,-0.6342591021822463,0.1153060094069636,-1.4977060094391048,-0.403522637432155,-0.017456000000000138,-0.171255,-0.88337,0.05381099999999961,0.11231700000000001,-0.9219120000000001,0.07126699999999975,0.28357200000000005,0.038542000000000076,0.11457999999999996,0.9911351737053733,single,-0.88337
78,0.325,walk,-0.3009359251260621,0.13918886489080867,0.0038396928245512016,-0.2727840626077222,-0.12885665579837385,-0.519055237291431,-1.2325413966883159,0.2836573074154052,-0.05687544996400271,-0.001919846412235636,0.006959443244534022,-0.003359731221502284,1.4574505239560946,0.1071912980580707,-0.5186626659673678,-11.622735583189145,1.4237752593381,-11.114413269408656,-0.8639585445561697,1.6125281589605827,0.4034257997461941,-0.02133800000000008,-0.170653,-0.8836229999999999,0.055057000000000134,0.11176599999999998,-0.9219419999999999,0.07639500000000021,0.282419,0.03831899999999999,0.11680999999999997,0.9867285336989045,single,-0.8836229999999999
79,0.329167,walk,-0.663066954643596,0.2039836813054959,0.1046316294696411,-1.7306917676071347,-0.5756063310120728,-1.531441894403016,-1.2682985361170607,0.2795776337892983,-0.08279337652987762,-0.0014398848092033894,0.008159347252221368,-0.0033597312215023285,-86.90449472463067,15.54951197856674,24.188129744442158,-8.581026980740344,-0.9790433467979164,-6.219804791426698,0.11518157020212368,0.2879539255309221,-1.07197335028565e-14,-0.023859999999999992,-0.170338,-0.884404,0.05781400000000003,0.11095,-0.922392,0.08167400000000002,0.281288,0.03798800000000002,0.12011999999999995,0.9850988432843804,single,-0.884404
80,0.333333,walk,-0.377820451272248,0.12722035525684164,0.011281805088818823,-0.4176466143716391,-0.10127987222713615,-0.4506428693579405,-1.3266922707632822,0.2760441670667301,-0.08017282765242456,0.0024003840614655555,0.006721075372059584,-0.0028804608737393457,68.4701160276879,-18.426146435106627,-22.407543058286656,-14.016738993332096,-0.8481677202516107,0.6290323757688557,0.9218120188835675,-0.34524048971718274,0.11504329038957814,-0.027812999999999644,-0.169718,-0.8847849999999999,0.059398000000000284,0.11044799999999999,-0.9224509999999999,0.08721099999999993,0.280166,0.03766599999999998,0.12333999999999995,0.9871729720420137,single,-0.8847849999999999
81,0.3375,walk,-0.3580513558914844,0.10967122630189478,0.0,-0.40623880144244306,0.030441850888684147,-0.4985596324082658,-1.3743700503960201,0.26829853611711046,-0.11279097672186429,0.00023998080146284644,0.009359251259901835,-0.0009599232061444612,4.744203355114819,-4.211454032864584,-2.707416627986258,-11.44175177171527,-1.8588027236907967,-7.8277295583008115,-0.5184553059761681,0.633111564157003,0.4608921688492608,-0.032048000000000076,-0.169057,-0.885255,0.060890999999999806,0.11003,-0.922455,0.09293899999999988,0.279087,0.03720000000000001,0.12800000000000006,0.9843143176136875,single,-0.885255
82,0.341667,walk,-0.3530117590592773,0.10655147588193004,-0.01055915526756257,-0.2454479045628475,0.10766711285419114,-0.5269362196740464,-1.4017278617710094,0.2831773458123367,-0.14830813534917137,0.003119750419976201,0.006719462443004657,-0.002159827213821736,1.209406487210738,-0.7486802063750337,-2.533994544651459,-6.565349502037299,3.5706286765601973,-8.523436195658094,0.6910894212895059,-0.6334986361644331,-0.2879539255285053,-0.03641799999999984,-0.168321,-0.885829,0.06237499999999985,0.109614,-0.92242,0.09879299999999969,0.277935,0.03659100000000004,0.13409000000000004,0.9871386807528828,single,-0.885829
83,0.345833,walk,-0.30988958233320985,0.11713874219875227,-0.029524723955829127,-0.1066866010013097,0.07032580304418772,-0.22980292687175582,-1.485357657225228,0.26068170907345245,-0.106096975516082,0.0031204992798945625,0.008401344215076146,-0.0028804608737410115,10.350978570827511,2.5413505321224736,-4.552464879564701,-20.074362807061597,-5.399816788018304,10.132299527865898,0.0001797551412293355,0.4037162198923398,-0.17297975514144862,-0.04131499999999999,-0.167723,-0.886148,0.06367900000000004,0.10916100000000001,-0.922309,0.10499400000000003,0.276884,0.036161,0.13838999999999996,0.9843105524474809,single,-0.886148
84,0.35,walk,-0.3405327573793725,0.11375089992800527,-0.026157907367416935,-0.21389797773177946,0.08702205819437676,-0.36122535867796735,-1.492440604751569,0.2519798416126713,-0.14542836573074128,0.0026397888169439293,0.005999520038396301,-0.002639788816893973,-7.353773709182343,-0.8130171036109949,0.8079713435114498,-1.6997714246078754,-2.0882811280972438,-9.438778549234339,-0.11536128220557618,-0.5763916910678806,0.05775667310944076,-0.046114999999999906,-0.167147,-0.886645,0.06510900000000008,0.108712,-0.922211,0.11122399999999999,0.275859,0.035565999999999987,0.14433999999999997,0.9882229966687688,single,-0.886645
85,0.354167,walk,-0.3618910487160622,0.1063114950803925,-0.024718022558213214,-0.3092716683589388,0.026259063754455452,-0.4651931647472438,-1.5752339812814888,0.28845692344612084,-0.17422606191504653,0.0007199424046016851,0.006719462443004568,-0.0031197504199661683,-5.1255798744155365,-1.7853143382799883,0.3455447106320397,-19.86882086151168,8.75379933608094,-6.910894212696191,-0.4607262808596663,0.17277235531755725,-0.11518157021170902,-0.05117100000000008,-0.166388,-0.887268,0.0666199999999999,0.108297,-0.922121,0.11779099999999998,0.274685,0.03485300000000002,0.15147,0.9875945425011843,single,-0.887268
86,0.358333,walk,-0.3418146903504779,0.10681709073451767,-0.027604416706667342,-0.19342063502416204,0.1266584738353413,-0.46174768459638177,-1.6161785885741946,0.25420067210753805,-0.15122419587134064,-0.0002400384061785351,0.007681228996640476,-0.004320691310609018,4.819097063270352,0.1213623749700355,-0.6928454509011344,-9.828278274773341,-8.222815971815354,5.521331263491566,-0.23043226374945258,0.2308609106183167,-0.28827193726424605,-0.056480000000000086,-0.165774,-0.887783,0.06804299999999985,0.10788400000000001,-0.922024,0.12452299999999994,0.273658,0.034240999999999966,0.15759000000000006,0.9853061548470075,single,-0.887783
87,0.3625,walk,-0.3712502999759956,0.11255099592032801,-0.018478521718261143,-0.23802159665528844,0.13383457122567316,-0.35955578034785635,-1.6193904487641024,0.24766018718502783,-0.1838252939764836,0.0019198464123422344,0.006959443244534115,-0.0031197504199678753,-7.063981191628963,1.376027162421495,2.1900395940499764,-0.7707847827952582,-1.5695908141373307,-7.823637654222013,0.5183308899737897,-0.17321472332766133,0.2882027575332733,-0.0616810000000001,-0.165211,-0.8884719999999999,0.06959800000000005,0.10744399999999998,-0.92196,0.13127900000000015,0.272655,0.03348800000000007,0.16512000000000004,0.9868922729316122,single,-0.8884719999999999
88,0.366667,walk,-0.36909047276218565,0.09767218622510068,-0.022078233741295965,-0.24931793172264294,0.1018109902676344,-0.4404481651348367,-1.6469882409407275,0.23686105111590602,-0.19294456443484354,0.00047996160303226577,0.006959443244540683,-0.0002399808015344501,0.5183170659491135,-3.5706286765604065,-0.8638617765862238,-6.62294028716699,-2.591585329762833,-2.1884498340196488,-0.3455447106575372,1.5761130501675406e-12,0.6910894212703151,-0.06700600000000012,-0.164631,-0.889184,0.07113799999999992,0.107066,-0.921869,0.13814400000000004,0.27169699999999997,0.032685000000000075,0.17315000000000008,0.9883664990222832,single,-0.889184
89,0.370833,walk,-0.3857417186749671,0.09817570811329797,-0.02280364858376288,-0.256555413888211,0.09128245401756517,-0.38991048371293807,-1.7042726836293516,0.22923667786846152,-0.183149303888622,0.0007201152184290069,0.008401344215076146,-0.0014402304368713384,-3.9969385292322204,0.12086459150198896,-0.17412742257967254,-13.750466319880953,-1.8301424021710258,2.3512387292898542,0.05764609106978899,0.3461116107862367,-0.28810600944236375,-0.07249900000000009,-0.16408499999999998,-0.8898520000000001,0.07274799999999981,0.106692,-0.92178,0.1452469999999999,0.270777,0.031927999999999956,0.18072000000000005,0.9857428951182521,single,-0.8898520000000001
90,0.375,walk,-0.3702903767699311,0.09023278137749063,-0.02375809935206907,-0.22583302490071314,0.08911421693701368,-0.41002670706007155,-1.714902807775411,0.23326133909287405,-0.20350371970242534,0.001199904007633967,0.009119270458365842,0.0002399808015361185,3.7080254151754466,-1.9061499245998033,-0.2290498604046542,-2.5510257129972187,0.9658414265448889,-4.884669021791087,0.11514009820133496,0.17228851530830344,0.40321843974261257,-0.0781019999999999,-0.163489,-0.890601,0.07429599999999992,0.106354,-0.9216799999999999,0.1523979999999998,0.269843,0.031078999999999968,0.18921000000000004,0.9846649951902459,single,-0.890601
91,0.379167,walk,-0.4010079193664477,0.10223182145428324,-0.02015838732900731,-0.280714759259676,0.04923531037870459,-0.38378248217581856,-1.7672186225101916,0.266858651307894,-0.23326133909287072,-0.0038396928244713233,0.0057595392368601835,0.015118790496760478,-7.371620493524544,2.879539255289818,0.8638617765926996,-12.55479115305518,8.062709914811645,-7.141257353118683,-1.2094064871863017,-0.8062709914820442,3.570628676559742,-0.08379499999999984,-0.162803,-0.891489,0.07595100000000032,0.105952,-0.921533,0.15974600000000017,0.268755,0.03004400000000007,0.19955999999999996,0.9722865175565232,single,-0.891489
92,0.383333,walk,-0.36869899183863625,0.08497359577532403,-0.026404224675934566,-0.20735163123119466,0.1138362278935519,-0.3701781562179383,-1.7573211713874526,0.21027364378300556,-0.20547287566010775,-0.004080652904502104,0.01440230436870006,-0.0064810369659143606,7.755383468029627,-4.142636984867786,-1.4992408417972276,2.3757683924001394,-13.58257501797609,6.670298471618569,-0.057839673555156165,2.074595566932278,-5.184788157147101,-0.08958000000000022,-0.162281,-0.8922350000000001,0.07746999999999993,0.105658,-0.9214500000000001,0.16705000000000014,0.26793900000000004,0.02921499999999999,0.20785000000000003,0.9728133029155983,single,-0.8922350000000001
93,0.3875,walk,-0.36237101031920105,0.08567314614830823,-0.025917926565900452,-0.20936190197054524,0.09498181486090104,-0.31282983441011186,-1.8168946484281105,0.2320614350851937,-0.19558435325173748,0.012479001679798067,0.008159347252221259,-0.009359251259898506,1.5185940771382653,0.16787865922347034,0.1167022102313678,-14.296490770496161,5.228651620395481,2.37305553356616,3.9739991802975867,-1.4981898527666795,-0.6907161732623287,-0.09564100000000009,-0.161671,-0.8929419999999999,0.07903199999999977,0.10533500000000001,-0.9213809999999999,0.17467299999999986,0.267006,0.028438999999999992,0.21561000000000002,0.9706602272857472,single,-0.8929419999999999
94,0.391667,walk,-0.35829133669305857,0.061435085193184726,-0.04223662107030357,0.10115647032328637,0.05784734566652047,-0.12079495402734666,-1.8185745140388543,0.23830093592512588,-0.19750419966402902,0.017998560115255514,0.0057595392368601835,-0.01607871370290495,0.9790433468064556,-5.81666929568602,-3.916173387185796,-0.40313549573883983,1.4973604127507136,-0.4607262808475037,1.3245880574651976,-0.5759078510585766,-1.6125419829629188,-0.10172599999999998,-0.160934,-0.893589,0.0806,0.105103,-0.921272,0.182326,0.266037,0.027683000000000013,0.22317000000000004,0.9586463258120548,single,-0.893589
95,0.395833,walk,-0.42582813250123935,0.07561209793567032,-0.14210273643783883,1.2724291979530618,0.6641369297467502,-0.5011272242893563,-1.848295727316379,0.2258761401824284,-0.18867018722995546,0.01848295727318884,0.01128180508881216,-0.03024483917426646,-16.211424821934887,3.403027542603357,-23.97170316071416,-7.134232663832122,-2.9824281667540724,2.1205022645399785,0.11627392173147547,1.325555893411419,-3.4004141793954634,-0.10765199999999986,-0.160308,-0.893783,0.08245100000000027,0.104835,-0.9208059999999999,0.19010300000000013,0.265143,0.027022999999999908,0.22977000000000003,0.9380042758575302,single,-0.893783
96,0.4,walk,-0.38900887928967653,0.07295416366690578,-0.05087592992560316,-0.09841880460983865,0.2137724326613129,-0.3067016411699803,-1.861291096712272,0.2212622990160785,-0.18430525557955338,0.01967842572592149,0.0014398848092166917,-0.020638348932085934,8.835913897663197,-0.6378531962477847,21.892682148364525,-3.1186391638812037,-1.10723330125987,1.0474997961128025,0.28688947749763355,-2.3618719173495064,2.305373228265048,-0.11378699999999986,-0.15969,-0.894339,0.08415400000000028,0.104537,-0.9206799999999999,0.19794100000000014,0.264227,0.026340999999999948,0.23659000000000008,0.952412211126378,single,-0.894339
97,0.404167,walk,-0.38300935925119217,0.06335493160547201,-0.02807775377967924,-0.4770278542766981,0.3372652097399533,-0.362096616084318,-1.8802495800336168,0.22798176145908278,-0.17326613870890437,0.012958963282937077,-0.0011999040076805924,-0.010079193664506986,1.4397696276660419,-2.3036314042317803,5.471124585054967,-4.549672023360898,1.6125419829623997,2.649176114866589,-1.6125419829576315,-0.6334986361644586,2.5339945446553895,-0.12002600000000019,-0.159004,-0.8949440000000001,0.08580399999999999,0.104268,-0.920605,0.20583000000000018,0.263272,0.025660999999999934,0.24339000000000005,0.97256499377707,single,-0.8949440000000001
98,0.408333,walk,-0.4188670187230212,0.08329332693230913,-0.06985117618819996,0.1270173102557318,0.30821091543548107,-0.3751513920564544,-1.8869419107056866,0.20907345175228276,-0.1737878060489683,0.010801728276541701,0.005040806529043022,-0.008881421027364927,-8.607215427707388,4.785980635342561,-10.027225734162432,-1.6064163879188342,-4.538720524915988,-0.12522019684683738,-0.5178192526153083,1.4980102104473378,0.28751143474365304,-0.12614199999999998,-0.15848,-0.895377,0.08759400000000017,0.10394199999999999,-0.920351,0.21373600000000015,0.262422,0.02497400000000005,0.25026000000000004,0.9752250852849992,single,-0.895377
99,0.4125,walk,-0.3998080153588137,0.06599472042236598,-0.05087592992560384,-0.4370524841214597,0.3955060824374387,-0.4674390986343799,-1.9001679865611079,0.20542356611471094,-0.15694744420446163,0.0047996160306424404,0.006719462443004657,-0.0038396928245729004,4.573794903817511,-4.151333455709923,4.553694807438499,-3.1740042849583183,-0.8759024808187763,4.041363533598933,-1.4403917076792163,0.40284519173545585,1.2099179752320748,-0.1323939999999999,-0.157899,-0.895819,0.08928000000000003,0.103695,-0.9201550000000001,0.22167399999999993,0.261594,0.024336000000000024,0.25664,0.9848222814487425,single,-0.895819
100,0.416667,walk,-0.3556515478761099,0.05807535397168162,-0.08279337652988651,0.14481226583467632,0.4485517820269714,-0.2263935037990707,-1.9138468922485679,0.193904487640988,-0.14854811615070884,0.0016798656107727896,0.009359251259901835,-0.0004799616030722306,10.596704459492072,-1.9004959084915531,-7.659574419074257,-3.282674751010293,-2.7643576850786777,2.0156774787023584,-0.7486802063522023,0.6334986361644247,0.8062709914808361,-0.13888699999999998,-0.157333,-0.896093,0.09076899999999988,0.103492,-0.919812,0.22965599999999986,0.260825,0.023718999999999935,0.26281000000000004,0.9841318019159342,single,-0.896093
101,0.420833,walk,-0.45295247239557623,0.09193470955352884,-0.21843494959192647,1.9909858769641577,0.24882097922640092,0.218798287252579,-1.9126260201632188,0.19707153144503162,-0.1437830052808454,-0.006481036965861061,0.016802688430145627,-0.0004800768122904462,-23.355958838085993,8.12754574696284,-32.55918700481033,0.29305618947408646,0.760212146913974,1.1438096183061557,-1.958930047199675,1.7867107945856424,-2.765463711367788e-05,-0.14496799999999999,-0.156895,-0.895782,0.09262900000000007,0.10317899999999999,-0.918904,0.23759700000000006,0.26007399999999997,0.023122000000000087,0.26878,0.9699738700657102,single,-0.895782
102,0.425,walk,-0.4163666906647593,0.07559395248380239,-0.10607151427887113,0.4365137362405423,0.5062626534507556,-0.15413879990371793,-1.9208063354932008,0.19678425725941734,-0.1341492680585537,-0.009119270458359181,0.01247900167986484,0.011279097672185913,8.77988522457815,-3.9214679792960254,26.965067269751856,-1.9631186297053098,-0.06894028932428116,2.311911980391587,-0.6331253881684988,-1.037601811922441,2.8219761181848875,-0.15123700000000007,-0.15639,-0.895899,0.09432600000000013,0.10291599999999998,-0.918415,0.2455630000000002,0.259306,0.02251599999999998,0.2748399999999999,0.9681102323569717,single,-0.895899
103,0.429167,walk,-0.45548356131513384,0.013438924886009136,0.12023038156949385,-2.8131076455246413,0.5662018970712339,-0.9505500248246717,-1.9282457403407616,0.18286537077033668,-0.1171106311495077,-0.014878809695279114,0.010079193664510181,0.002399808015359488,-9.387297972252043,-14.916013342402877,54.3081103547788,-1.7853143382675127,-3.340265536136441,4.0889457425116085,-1.382178842553369,-0.575907851057029,-2.1308590489144126,-0.1573739999999999,-0.15568400000000002,-0.896888,0.09616200000000008,0.102902,-0.918906,0.253536,0.258586,0.022017999999999982,0.27981999999999996,0.9697818946203136,single,-0.896888
104,0.433333,walk,-0.48127700432069925,0.07489198271723466,-0.09433509361499938,-0.06501136964315685,0.23680528125774336,-0.5323948695754773,-1.9402304368698595,0.1829092654824801,-0.11209793566970926,-0.015122419587115743,0.010321651464231267,0.012481997119538275,-6.191416948047381,14.751094054542842,-51.50395467702666,-2.876787452975982,0.01053641674109849,1.2032394334609806,-0.05847573015761623,0.05819918380246899,2.4201126030193905,-0.1634519999999997,-0.15523399999999998,-0.8969619999999999,0.09810400000000019,0.10263299999999999,-0.918461,0.2615559999999999,0.25786699999999996,0.021499000000000046,0.28501000000000004,0.9630682192259983,single,-0.8969619999999999
105,0.4375,walk,-0.4288456923445575,0.05975521958243356,-0.07631389488839244,-0.20053667358194305,0.22350805068092755,-0.3282805310025785,-1.9222462203024042,0.1948644108471317,-0.09959203263738926,-0.01175905927530311,0.005039596832258488,0.015358771298296598,12.582508273612206,-3.6325325497483045,4.3247417150484875,4.3158667068527485,2.869005367087037,3.0011766336261254,0.8071419034827577,-1.2675917043371272,0.6903705732561409,-0.16967500000000002,-0.154671,-0.897059,0.09984199999999976,0.10240500000000001,-0.918079,0.2695169999999998,0.257076,0.021019999999999928,0.28980000000000006,0.9666848021390478,single,-0.897059
106,0.441667,walk,-0.5874730021598852,0.08567314614830772,0.07775377969762247,-1.5349480530988937,-0.7410311361676609,-0.2532241880300283,-1.9385649148068336,0.1886249100071993,-0.07679385649148132,-0.012479001679798232,0.007199424046070233,0.013198944084473196,-38.06750895496246,6.21980479142652,36.97328403792075,-3.916173387192092,-1.497360412750767,5.471124585051133,-0.17277235529040677,0.5183170659495457,-0.5183170659523431,-0.17530499999999982,-0.154242,-0.897703,0.10223800000000027,0.10207799999999999,-0.918348,0.2775430000000001,0.25632,0.020645000000000024,0.29355000000000003,0.967435136758199,single,-0.897703
107,0.445833,walk,-0.4251080172827037,-0.0062409985597691375,-0.16010561689869723,0.6968925698271958,0.6104023292698963,-1.1916082375104864,-1.9119059049447897,0.18026884301488266,-0.06865098415746385,-0.009601536245862222,0.0026404224675974537,0.012962073931830386,38.97383218367292,-22.062924797906092,-57.09539044558799,6.3991862366883865,-2.0057770024763886,1.9546020964996327,0.6907022164992817,-1.0943354725090677,-0.05685793390369895,-0.18149900000000008,-0.15346500000000002,-0.8973220000000001,0.10396899999999976,0.102115,-0.9176270000000001,0.28546799999999983,0.25558000000000003,0.020305000000000017,0.29695000000000005,0.9727574327311999,single,-0.8973220000000001
108,0.45,walk,-0.45164386849055604,0.05087592992560482,-0.058795296376301626,-0.14630544292307945,-0.04376474967666989,-0.30478466946643085,-1.9174466042716296,0.18382529397648115,-0.06263498920086281,-0.008159347252187955,0.009119270458365721,0.00431965442764508,-6.368094842297131,13.706966279187311,24.312531922820934,-1.3296614655243169,0.8534799523874387,1.4437232917208989,0.3460976706681679,1.554799133853664,-2.074014759823672,-0.18760699999999986,-0.152911,-0.897338,0.10581700000000005,0.101941,-0.917364,0.2934239999999999,0.254852,0.020025999999999988,0.29974,0.9783721208950061,single,-0.897338
109,0.454167,walk,-0.41780657547396266,0.04631629469642591,-0.05807535397167407,-0.28499035688151586,-0.16894440831954327,-0.368397519754244,-1.9160067194624517,0.182625389968803,-0.04295656347492192,-0.0045596352291795905,0.0035997120230351165,0.004079673626110684,8.120300699926464,-1.0942249170095841,0.17277235532218838,0.3455447106258464,-0.28795392552871235,4.722444378675548,0.863861776579886,-1.3245880574347577,-0.05759078510544694,-0.19384999999999986,-0.152343,-0.897275,0.10753900000000005,0.10176299999999999,-0.9171050000000001,0.3013889999999999,0.254106,0.019830000000000014,0.30169999999999997,0.9881687869308504,single,-0.897275
110,0.458333,walk,-0.4735957753240521,0.10273643783005221,-0.0016802688430098993,-0.4032542576579307,-0.7035668376124385,0.357503379138306,-1.909985597695628,0.18194911185789922,-0.03600576092174682,-0.0016802688430365487,0.0026404224675974537,-0.0009601536245808924,-13.3915506121194,13.543001232267464,13.536986348695184,1.4453004721132465,-0.16233271985208547,1.6684595662926285,0.6911585180372154,-0.2302663359187859,-1.2097521005020577,-0.19983399999999985,-0.152013,-0.897418,0.10950499999999996,0.101346,-0.9171020000000001,0.3093389999999998,0.253359,0.019684000000000035,0.30315999999999993,0.9945438543378772,single,-0.897418
111,0.4625,walk,-0.43268538516912963,0.004079673626110629,-0.171106311495097,1.1774789352335495,0.1865629284447787,-0.8520487304295845,-1.8876889848812313,0.18022558195344274,-0.03047756179505667,-0.00047996160303226577,0.003359731221498953,-0.002639788816893938,9.817708220523679,-23.675729350597752,-40.65899751669926,5.350759014733978,-0.41361408794251747,1.3266616574730286,0.2880506935455421,0.1726202913130535,-0.40308019973914877,-0.20589700000000022,-0.151279,-0.896832,0.1113059999999999,0.10134299999999999,-0.9164,0.3172030000000001,0.252622,0.01956800000000003,0.30432,0.992833984134414,single,-0.896832
112,0.466667,walk,-0.45236381089516375,0.04847612191024598,-0.07847372210222416,0.14413449451518232,-0.22011161377397276,-0.3063064412393953,-1.9001679865610546,0.18382529397648026,-0.011759059275259815,-0.0016798656107728119,0.010799136069118672,-0.0019198464122872829,-4.72244437869792,10.65429524457298,22.23004305084554,-2.9947208254915694,0.863861776586883,4.492081238252211,-0.2879539255436892,1.78531433828168,0.17277235531717283,-0.21192999999999995,-0.150715,-0.896554,0.11318399999999995,0.10118600000000001,-0.916081,0.3251139999999999,0.25190100000000004,0.019527000000000072,0.30473000000000006,0.9815060746792983,single,-0.896554
113,0.470833,walk,-0.41934709553527166,0.04392702832453252,-0.08233317330772491,0.21928047545554846,-0.2509040640708527,-0.1875334269771052,-1.8763802208353233,0.18578972635621946,-0.007441190590495253,-0.0024003840614655555,0.006721075372059584,-0.0026404224675957884,7.925279731131077,-1.0919571737190248,-0.9264165159627346,5.709977370554789,0.47153921741219373,1.0364543170342198,-0.17295210050233872,-0.9788911898845619,-0.1729659278224928,-0.21799999999999997,-0.15012399999999998,-0.896242,0.11492099999999983,0.10103100000000001,-0.915749,0.3329209999999998,0.251155,0.019507000000000052,0.30493000000000003,0.9873172767769576,single,-0.896242
114,0.475,walk,-0.6090712742980426,0.0868730501559883,0.04703623710102594,-1.2006792064097542,-0.9361424803107234,-0.43472626911877815,-1.862491000719984,0.18574514038876921,0.006959443244540776,0.004079673626147319,-0.0076793856491491315,-0.002159827213821736,-45.53016049022607,10.306220741890094,31.046174804116053,3.333146175987379,-0.010699776205962307,3.455875650356638,1.5550894378720688,-3.455834178355843,0.11533363421503603,-0.22322300000000017,-0.149712,-0.896409,0.11747599999999991,0.100637,-0.9159539999999999,0.3406990000000001,0.250349,0.019544999999999924,0.3045500000000001,0.9850666709042226,single,-0.896409
115,0.479167,walk,-0.47348212143028257,-0.028317734581233298,-0.15790736741061734,0.9892109701730754,0.28749411435170363,-0.7283212305486688,-1.8612910967122187,0.193904487640988,0.020398368130549818,0.008399328053757375,-0.011519078473720213,-0.0007199424046083459,32.53879358477539,-27.64357685078491,-49.18253048035559,0.2879539255496168,1.9580866935970056,3.2250839659248713,1.0366341318958538,-0.9214525616921171,0.34554471063436026,-0.22900600000000004,-0.148786,-0.895666,0.11948399999999992,0.10070700000000002,-0.915299,0.34848999999999997,0.24949300000000002,0.01963300000000001,0.30367,0.9762094674698624,single,-0.895666
116,0.483333,walk,-0.4349495919347445,0.03096495439270213,-0.09409505520882085,0.22961573706215058,-0.255129124287297,-0.214369011361326,-1.8494959193471117,0.1889102256361007,0.019203072491597858,0.00048007681225047176,-0.004320691310614015,0.0021603456553053423,9.24928696484351,14.23012217329222,15.317405713345282,2.8312955749176756,-1.1988146915235978,-0.2869168600460775,-1.900924445872995,1.7278893814465175,0.6913797551401071,-0.23489899999999997,-0.14812799999999998,-0.895194,0.1212979999999999,0.10056,-0.914898,0.3561969999999999,0.248688,0.019703999999999944,0.3029600000000001,0.9919092061065141,single,-0.895194
117,0.4875,walk,-0.5233981281498016,0.03719702423806173,-0.09407247420205188,0.1503065464668575,-0.22984225049337395,-0.43013003500412633,-1.8404127669786343,0.19918406527477853,0.03815694744420621,0.0007199424046016947,0.0,0.0009599232061428088,-21.22595061556458,1.4955771167169756,0.005419008103904042,2.1797821858597057,2.465524271340988,4.548566103337763,0.05756313711332477,1.0368829639102568,-0.28807834153168715,-0.24038699999999968,-0.147453,-0.8946430000000001,0.12348200000000009,0.100405,-0.914502,0.3638689999999998,0.247858,0.01985899999999996,0.30140999999999996,0.9980001599872079,single,-0.8946430000000001
118,0.491667,walk,-0.3868490520757649,0.02759779217662495,-0.16246700263979685,0.79934245838093,-0.03459289051351391,-0.05955556088068738,-1.8195344372450544,0.1975041996640264,0.0494360451163898,0.0011999040077405238,-0.005519558435323991,0.006239500839934002,32.76915672523053,-2.3036314042324717,-16.413373755158258,5.010398304194814,-0.403135495740846,2.7067668999720427,0.1151815702276999,-1.3245880574331532,1.2669972723280905,-0.24635700000000016,-0.146745,-0.89376,0.12509900000000007,0.100267,-0.913799,0.37145600000000023,0.247012,0.02003900000000003,0.29961000000000004,0.9859725798601964,single,-0.89376
119,0.495833,walk,-0.4188670187230212,0.012962073931830386,-0.18266922707633487,1.479640163395423,-0.1458139746392556,0.17659534456392448,-1.8029284685549252,0.20475276044166876,0.0506481036965921,-0.004800768122931111,0.0004800768122904462,0.001680268843014896,-7.6855416820106175,-3.5131344802675355,-4.849309754329814,3.986070256872105,1.7399329759103095,0.2909406097461123,-1.4403917740450387,1.4401428822886302,-1.0943907817856704,-0.2521229999999999,-0.14594600000000002,-0.892788,0.12682400000000005,0.100215,-0.913031,0.3789469999999999,0.24616100000000002,0.02024300000000001,0.29757,0.9914851189574667,single,-0.892788
120,0.5,walk,-0.5925125989920971,0.039836813054955705,0.09431245500359466,-2.5977984374916097,-0.3318697569317925,-0.9323311755075756,-1.7871370290376827,0.20542356611471427,0.060715142788578036,-0.0016798656107728119,-0.007439404847613013,0.007919366450683585,-41.67160553613556,6.449421435835246,66.47028607629736,3.7896423127531986,0.16098048309227467,2.4158961103878065,0.7489566863830854,-1.9005235564923215,1.4972636447489138,-0.2571009999999998,-0.145256,-0.8929279999999999,0.129286,0.100018,-0.913391,0.3863869999999998,0.245274,0.02046300000000001,0.29537,0.981675528055421,single,-0.8929279999999999
121,0.504167,walk,-0.6049916006718873,0.0011999040076789112,-0.18190544756417557,0.9159005718685705,0.07346123076228493,-0.713112340489163,-1.764818814494847,0.21694264458842843,0.06815454763618681,-0.006959443244554005,-0.0021598272138250376,0.004079673626108965,-2.9947208254835895,-9.272116402034197,-66.28699365677181,5.355943014839359,2.7643576850765728,1.7853143382790293,-1.2669972723256906,1.2669972723273184,-0.9214525616929663,-0.2619340000000001,-0.144357,-0.8918860000000001,0.13177799999999973,0.10000399999999998,-0.9126160000000001,0.39371199999999984,0.244361,0.020730000000000026,0.2927,0.9860813433794664,single,-0.8918860000000001
122,0.508333,walk,-0.4661545847335835,0.05496879500720112,-0.02112337974077963,-0.9689172829271466,-0.3900054548253369,-0.3331862308955691,-1.7513202112337887,0.21435429668747102,0.07897263562170177,-0.015842534805544747,-0.011761881901102606,0.028804608737398454,33.326216019756046,12.906598895708635,38.59387129702252,3.2401832119678873,-0.6213029046945292,2.5967565975792026,-2.132283139940167,-2.304861902851071,5.934934016152057,-0.26728799999999997,-0.14369300000000002,-0.891469,0.13365399999999994,0.099726,-0.912408,0.4009419999999999,0.243419,0.02093900000000004,0.2906099999999999,0.9418089053339729,single,-0.891469
123,0.5125,walk,-0.5133189344852781,0.011039116870649941,-0.09575233981279932,0.1834956324092965,-0.19518602526246978,-0.19054169436662186,-1.7302615790736924,0.2275017998560169,0.09455243580513537,-0.008879289656789876,-0.009119270458359302,0.029757619390449117,-11.31853845733033,-10.54227937042285,-17.909517655872595,5.053667425029204,3.1551483485831837,3.73885293578927,1.6710451520890337,0.6341760121774307,0.22870426039133213,-0.2723589999999998,-0.142791,-0.890676,0.1357560000000002,0.09964200000000001,-0.9118850000000001,0.408115,0.242433,0.021209000000000033,0.28791,0.9460576750828382,single,-0.890676
124,0.516667,walk,-0.575473962083005,-0.018238540916726446,-0.22054235661147015,1.4154576616878947,0.13398113284022925,-0.3190584989931636,-1.7132229421646152,0.23326133909287095,0.09791216702663846,-0.011279097672164114,-0.001679865610752807,0.011039116870651313,-14.916013342386965,-7.026075782907646,-29.947208255020367,4.088945742519082,1.3821788425375572,0.8062709914814189,-0.5759078510617278,1.785314338278483,-4.4920812382523785,-0.2770999999999999,-0.141743,-0.8893490000000001,0.1381070000000002,0.09971100000000001,-0.9109200000000001,0.4152070000000001,0.241454,0.021571000000000007,0.28429000000000004,0.973547626967809,single,-0.8893490000000001
125,0.520833,walk,-0.47839654344698324,0.0048007681228994644,-0.131541046567449,0.34780307138605454,0.01880862210829472,-0.27818660121813454,-1.6965914546327578,0.23331733077292366,0.11809889582332983,0.01152184349486411,-0.04368698991839063,0.02688430148823667,23.302308842059947,5.530319020553503,21.363732607782307,3.9921957589672057,0.013440153637233264,4.8455902056388265,5.473101576338983,-10.083323165539557,3.803452860678191,-0.28217499999999984,-0.140791,-0.888309,0.14014799999999994,0.09950899999999999,-0.9102600000000001,0.4223229999999998,0.24029999999999999,0.021951000000000054,0.28049,0.9123759350634753,single,-0.888309
126,0.525,walk,-0.47852171826249434,-0.0019198464122872573,-0.11807055435566216,0.23935856467408337,-0.025121789314797215,-0.2905084331194155,-1.6796256299495858,0.24070074394048052,0.13462922966162746,-0.013438924885969171,0.018958483321333125,-0.014878809695224161,-0.030039552558461198,-1.6128184629677635,3.232659518067371,4.071472206184777,1.7718774100208319,3.966962764170268,-5.990105202983703,15.033710880663131,-10.022344896438808,-0.28718,-0.13978000000000002,-0.887256,0.14208599999999993,0.09959599999999999,-0.90983,0.4292659999999999,0.23937599999999998,0.022573999999999983,0.27425999999999995,0.9540106361969699,single,-0.887256
127,0.529167,walk,-0.48188144948403994,0.01007919366450685,-0.2550995920326441,1.8365286503198672,0.07435712021938758,0.1968345404782018,-1.645548356131524,0.2287017038636914,0.12694984401247844,-0.005519558435350634,0.003119750419969499,-0.010319174466042967,-0.8062709914916166,2.879539255290141,-32.88433829541178,8.177891485015943,-2.8795392552889436,-1.8429051233858806,1.9004959084757562,-3.800991816981883,1.0942249170101175,-0.2920290000000001,-0.138869,-0.885664,0.14407099999999984,0.099567,-0.90881,0.43609999999999993,0.23843599999999998,0.023146,0.26853999999999995,0.9798144902312476,single,-0.885664
128,0.533333,walk,-0.5064810369659412,-0.006000960153624075,-0.07105136821890798,-0.44294797538526426,0.06741162763801539,-0.52934350043892,-1.6291406625060136,0.240758521363422,0.14594335093615296,0.002640422467644161,-0.015602496399426591,0.005280844935190052,-5.904845770979803,-3.859854493070413,44.178642298065505,3.938476626382825,2.8940992558163465,4.559171129062653,1.958708810128422,-4.494058285980935,3.744603792902886,-0.2967059999999999,-0.137841,-0.88476,0.1461920000000001,0.09952699999999999,-0.908492,0.442898,0.237368,0.023731999999999975,0.26267999999999997,0.972196270837086,single,-0.88476
129,0.5375,walk,-0.6222702183825408,0.001679865610751142,-0.0650347972162273,-0.8612818013143505,0.020144583538202792,-0.4455621842351224,-1.5961123110150977,0.22102231821454238,0.13750899928005753,0.0033597312214390064,-0.015838732901363627,0.007199424046076798,-27.787180565538463,1.8432507233921664,1.443861531720813,7.926170264198641,-4.736309850942995,-2.0240824708652196,0.17262029128745854,-0.056692225086881286,0.4604221528405883,-0.3007639999999998,-0.136927,-0.8839159999999999,0.1487989999999999,0.09945400000000001,-0.908191,0.4495629999999997,0.236381,0.024275000000000047,0.25725,0.9704672987089698,single,-0.8839159999999999
130,0.541667,walk,-0.6582673386128916,-0.0014398848092150266,-0.011279097672190758,-1.4383327159226416,-0.44011524911791633,-1.1562314631682729,-1.5759539236860907,0.2339812814974793,0.16342692584593133,-0.0028797696184067402,-0.008399328053757375,0.001679865610751142,-8.638617765862842,-0.7486802063753648,12.900335863699578,4.837625948885729,3.1099023957131786,6.21980479142635,-1.4973604127299496,1.7853143382784247,-1.3245880574335527,-0.30458799999999986,-0.135946,-0.883188,0.15152999999999994,0.099425,-0.908137,0.4561179999999998,0.235371,0.024949,0.25050999999999995,0.9849386685995118,single,-0.883188
131,0.545833,walk,-0.6337013922227493,-0.0736917906865102,-0.2023523763802032,1.1446240023971577,0.3435893687255464,-0.5503770787217844,-1.5532885261642129,0.2328372539606332,0.15170427268362774,0.0024003840614655555,-0.017522803648581296,-0.0031204992798845687,5.896770616932833,-17.343232327723264,-45.86492527796743,5.440565895793994,-0.27461054653050565,-2.813886980869798,1.2674396735171127,-2.189984540284185,-1.1522719372625316,-0.308419,-0.13466899999999998,-0.881713,0.15417999999999998,0.09965900000000001,-0.907307,0.462599,0.234328,0.025594000000000006,0.24406000000000005,0.9700672973755649,single,-0.881713
132,0.55,walk,-0.5687544996400205,-0.020638348932084268,-0.13366930645548966,0.03909762156913142,-0.08819546379592999,-0.34337745307071893,-1.5137988960882967,0.22558195344372192,0.1250299976001895,-0.003359731221545579,-0.014878809695225826,-0.0019198464122872573,15.586007339267676,12.73180747646401,16.482618172477327,9.476753077973582,-1.7411328334320202,-6.401313914911932,-1.3823170825560573,0.6345077881822534,0.28813363753234994,-0.312357,-0.133643,-0.8806350000000001,0.1565359999999998,0.099683,-0.906758,0.4688929999999998,0.233326,0.026122999999999896,0.2387700000000001,0.9743770620301443,single,-0.8806350000000001
133,0.554167,walk,-0.5207583393328645,-0.037916966642670594,-0.12526997840173562,0.09369355173332945,0.2051202286858031,-0.19898368517564605,-1.505879529637665,0.25197984161267467,0.15814734821214768,0.0031197504199762427,-0.025197984161266136,0.01295896328293725,11.518157021155949,-4.146536527618587,2.015677478702712,1.9004959084789481,6.334986361639849,7.947528344602543,1.5549511978694373,-2.4764037595489574,3.570628676559825,-0.316462,-0.132435,-0.879454,0.15871899999999983,0.09973600000000002,-0.9061819999999999,0.47518099999999985,0.23217100000000002,0.026727999999999974,0.23271999999999998,0.952489592431328,single,-0.879454
134,0.558333,walk,-0.6457033125300238,0.04176668266922717,-0.036725876140172496,-0.9688811241643811,-0.4588299371678456,-0.4253003432904818,-1.4613538166106257,0.2465194431108976,0.1325012001920299,-0.006481036965861061,-0.016322611617861846,0.00912145943351015,-29.99159222207373,19.127136176643713,21.253985180403998,10.68788118747943,-1.310705353283021,-6.156060494507383,-2.304557701833245,2.13043027926171,-0.9211483075917182,-0.3198599999999998,-0.131582,-0.878749,0.16138200000000014,0.099494,-0.905991,0.48124199999999995,0.231076,0.02724199999999999,0.22758000000000006,0.9670171546112567,single,-0.878749
135,0.5625,walk,-0.6033117350611678,-0.08279337652987652,-0.24526037916965673,1.0345863299975315,0.3665993818674933,-0.7040004146153811,-1.4533237341012755,0.2685385169186466,0.13750899928005753,-0.0028797696184067402,-0.027117830573554387,0.013438924886009136,10.17316473934622,-29.89202284595698,-50.04427718490104,1.9270656369930792,5.284154981461205,1.2017756390754937,0.8642350245870635,-2.5906452977423706,1.036108819894157,-0.32340199999999997,-0.130118,-0.877154,0.16388400000000014,0.099726,-0.9049130000000001,0.4872860000000001,0.229844,0.02775900000000009,0.22241000000000005,0.9493301944458346,single,-0.877154
136,0.566667,walk,-0.5291576673866081,-0.042476601871850775,-0.10775137988961586,-0.04137644506920814,0.17771923695095343,-0.007254844384210378,-1.415646748260152,0.25125989920805963,0.15334773218142447,-0.005279577633781215,-0.0273578113750905,0.01799856011519033,17.79555259768637,9.675251897774283,32.99951986562031,9.04175326160863,-4.146536527618633,3.80099181698268,-0.5759078510617845,-0.0575907851058581,1.0942249170101175,-0.32709600000000005,-0.128894,-0.876066,0.1660670000000002,0.09978899999999999,-0.904389,0.49316300000000024,0.228683,0.028322999999999987,0.21677000000000002,0.9447160875960818,single,-0.876066
137,0.570833,walk,-0.5772923667786819,-0.017522803648582965,-0.1757081132981434,0.5019175649443313,-0.017089488200862746,-0.5081565869533035,-1.3799807969275084,0.23835813730197,0.14546327412385862,-0.010561689870469765,-0.010321651464231267,0.014402304368698394,-11.554176522341283,5.989869952776714,-16.31222597420247,8.561198111532304,-3.0969183643998135,-1.8925727454550758,-1.2679098023736308,4.089332671833706,-0.8632394974776604,-0.33044000000000007,-0.127828,-0.874728,0.1684279999999998,0.099819,-0.903597,0.49886799999999987,0.227647,0.028869000000000034,0.21131000000000005,0.9656200901285164,single,-0.874728
138,0.575,walk,-0.4833213342932562,-0.031197504199664182,-0.21310295176386293,1.1356210345461322,0.05673209914723267,0.03460319563366056,-1.3318934485241298,0.23326133909287716,0.1588672906167527,-0.006239500839845913,-0.013198944084473372,0.024238060955124978,22.55124369700684,-3.2816655990116335,-8.974043308308193,11.540040413577993,-1.223133719484746,3.2167066217648985,1.0372423879587076,-0.6904949892589775,2.3603927493224792,-0.33397600000000005,-0.126726,-0.873178,0.17041600000000012,0.09989400000000001,-0.902608,0.5043920000000002,0.22662,0.029429999999999956,0.2057000000000001,0.9528410755900903,single,-0.873178
139,0.579167,walk,-0.5649148068154426,-0.03983681305495518,-0.10943124550033537,-0.2200488406497573,0.018973471018087263,-0.41054292697372424,-1.3669306455483272,0.3498920086393064,0.0014398848092166917,-0.008159347252294528,-0.012958963282936905,0.01631869450443919,-19.58086693596971,-2.0732682638087185,24.879219165713167,-8.408254625437273,27.989121561417893,-37.779555029406,-0.46072628088519335,0.057590785105943024,-1.9004959084918953,-0.337318,-0.125102,-0.872716,0.17273599999999978,0.10000600000000001,-0.902084,0.5100539999999998,0.225108,0.02936799999999995,0.20632000000000006,0.9627020455103155,single,-0.872716
140,0.583333,walk,-0.6481036965914894,-0.018482957273163857,-0.11929908785407593,-0.3869413369810773,-0.15681975147518634,-0.23670047257063753,-1.29380700912146,0.25804128660585496,0.1452232357177134,-0.005760921747432055,-0.017762842054733184,0.017762842054728188,-19.96852851081294,5.125745506911019,-2.3686611506818434,17.552481139430437,-22.04770092017556,34.513526382260345,0.5757142354446643,-1.1531154036956974,0.3466508762095528,-0.34000799999999987,-0.12395,-0.871614,0.17541200000000012,0.10000899999999999,-0.901513,0.51542,0.223959,0.02989900000000001,0.20101000000000008,0.9570457176141289,single,-0.871614
141,0.5875,walk,-0.7261819054475522,-0.03863690904727626,-0.02639788816893272,-1.1287329164636206,-0.5243556120448569,-0.8848433963449082,-1.2666186705063776,0.23278137748980038,0.07343412526997802,0.00767938564915569,-0.02327813774897654,0.028077753779697182,-18.737271143763444,-4.836561500866871,22.294504364085075,6.524679293276266,-6.061893236394141,-17.228008266795015,3.22541574192168,-1.3235650814118827,2.4753807835298574,-0.34226,-0.122819,-0.871198,0.17847000000000013,0.100073,-0.901286,0.5207300000000001,0.222892,0.030088000000000004,0.19912000000000007,0.9378799343939925,single,-0.871198
142,0.591667,walk,-0.580273578113754,-0.04919606431485368,-0.13390928725703244,0.08363650741976342,-0.23544790706924615,-0.4335875974405209,-1.2135829133668896,0.2632589392848554,0.12119030477561833,0.0011999040076339509,-0.029757619390451653,0.021358291336694278,35.01519734432376,-2.533994544654989,-25.800671727405543,12.727563508396337,7.314029708436471,11.460566236054705,-1.554951197869376,-1.5549511978581863,-1.6125419829620478,-0.34489899999999984,-0.121517,-0.870135,0.18089299999999997,0.10015399999999999,-0.900639,0.5257919999999998,0.22167099999999998,0.030503999999999976,0.19496000000000008,0.9389187178553211,single,-0.870135
143,0.595833,walk,-0.6737878060489862,-0.0801728276524267,-0.22803648583774147,1.1772662120734483,-0.043120108702991426,-0.22879153279771625,-1.1891502640423075,0.24219875180029338,0.09025444071051635,-0.00600096015361075,-0.029764762361975144,0.020883341334613312,-22.44700622545239,-7.435612899081569,-22.594142722206307,5.864774201772143,-5.055253836908919,-7.425795502905134,-1.728483956131754,-0.0017145874996380127,-0.1140062414980744,-0.34704599999999997,-0.120174,-0.8688089999999999,0.18367500000000003,0.10036400000000001,-0.899602,0.530721,0.220538,0.03079300000000007,0.19207000000000002,0.9385800759224743,single,-0.8688089999999999
144,0.6,walk,-0.6059515238780584,0.0023998080153578225,-0.012239020878308577,-1.0210393148755221,-0.6378724202861286,-0.27309853682441654,-1.1415886729061349,0.24526037916966506,0.09119270458363389,-0.00623950083995232,-0.028077753779698848,0.03503719702423787,16.27940536859307,19.815847292484737,51.78724861037467,11.413868763180293,0.7347317901059899,0.2251653163229033,-0.05724518510716783,0.40484967177256637,3.3966536332192097,-0.349278,-0.11916199999999999,-0.8683780000000001,0.18617399999999984,0.10023699999999999,-0.899405,0.5354519999999998,0.219399,0.031026999999999916,0.18972999999999995,0.9244483840278637,single,-0.8683780000000001
145,0.604167,walk,-0.6244300455963459,-0.04511639068874471,-0.12574994000481785,0.13486607172440035,-0.43074149173310367,-0.22060221221923645,-1.1115910727141671,0.26109911207103204,0.07271418286536967,-0.012958963282936905,-0.021358291336694278,0.029277657787376093,-4.434490453152703,-11.402975450948446,-27.240441355053612,7.198848138221143,3.8009918169826866,-4.434490453147128,-1.6125419829576515,1.6125419829624474,-1.3821788425394121,-0.35130799999999995,-0.11788599999999999,-0.867551,0.18872199999999983,0.100336,-0.898759,0.5400299999999998,0.218222,0.031208000000000014,0.18791999999999998,0.9358540599772172,single,-0.867551
146,0.608333,walk,-0.6185789726356336,-0.102496399423907,-0.2462794047047457,1.4762796179087376,0.1594575380157735,-0.4966438009600162,-1.1041766682669603,0.2945271243398939,-0.004560729716755908,-0.02712433989433692,-0.012481997119538275,0.009601536245800596,1.4044822277273874,-13.773405841373558,-28.93170060007868,1.7797418260218105,8.024006785612544,-18.548946851206317,-3.4002344242438802,2.130651516360057,-4.723024853954748,-0.35333100000000006,-0.116232,-0.866544,0.19118600000000008,0.100711,-0.897693,0.5445170000000001,0.216943,0.031148999999999982,0.18851000000000007,0.9477261600087497,single,-0.866544
147,0.6125,walk,-0.6421886249099784,-0.043916486681065806,-0.16030717542596515,0.6186328495189293,-0.173406080644675,-0.13948892071276645,-1.0364770818334363,0.2675785937125005,0.012239020878328559,0.05375569954398325,-0.08087353011759092,0.02399808015358655,-5.665863276780581,14.058054413928664,20.631684492147805,16.246601015964337,-6.4671299801759625,4.031617613411169,19.40965669266128,-16.412654907139938,3.454894146336896,-0.3549740000000001,-0.11493400000000001,-0.865825,0.19408599999999976,0.100557,-0.896925,0.5490599999999999,0.215491,0.031100000000000017,0.18900000000000006,0.8332824164592354,single,-0.865825
148,0.616667,walk,-0.5985121190304881,-0.04823614110871217,-0.13750899928007118,0.2778042706376342,-0.057224095101994624,-0.21147014025585464,-1.0019198464123156,0.25197984161267634,0.0055195584353274684,0.009359251259928729,-0.0405567554595646,0.04535637149028204,10.481522889246742,-1.0366341319045942,5.4711245850478525,8.293073055224724,-3.7434010318753153,-1.6125419829616554,-10.654295244553724,9.675251897774679,5.125579874417061,-0.35665500000000017,-0.113683,-0.8652289999999999,0.19661899999999988,0.10058899999999998,-0.8961629999999999,0.553274,0.214272,0.030934000000000017,0.19066,0.8973998262899745,single,-0.8652289999999999
149,0.620833,walk,-0.7244359097456037,-0.03360537686029792,0.007921267402799024,-1.8547553916190076,-0.6936130963476416,-0.7142169577718774,-0.9539126260201438,0.2621219395103221,0.0014402304368680073,-0.00048007681225047176,-0.018002880460871742,0.01944311089774308,-30.226546018990764,3.5119453308723556,34.90884941979599,11.523576666387836,2.4344930143172694,-0.9791953908928129,-2.3618166279834836,5.413796207079415,-6.220177770652649,-0.3576109999999999,-0.112451,-0.865256,0.19963500000000023,0.100654,-0.896115,0.5572460000000001,0.213105,0.03085899999999997,0.19141000000000002,0.955829599528391,single,-0.865256
150,0.625,walk,-0.69378449724021,-0.10751139908807142,-0.23710103191744214,1.450143629382445,0.2917552154814351,-0.6700433694465102,-0.9155267578593407,0.27237820974321775,-0.04919606431485368,-0.00047996160313883867,-0.021118310535158166,0.021118310535158166,7.355750541251136,-17.7360264525493,-58.80064778503463,9.211871408879972,2.4613079512588385,-12.151738601325007,2.7647974953944486e-05,-0.7476434063562274,0.40201575171947973,-0.3585349999999998,-0.110868,-0.864473,0.20252399999999993,0.10101399999999999,-0.895039,0.5610589999999998,0.211882,0.030565999999999982,0.19434000000000007,0.950217237396999,single,-0.864473
151,0.629167,walk,-0.6925845932325227,-0.002399808015359488,-0.01535877129831138,-1.2295283071675087,-0.6473112676570536,-0.042693340767127726,-0.8694504439645131,0.25797936165106583,-0.06335493160547116,-0.00743940484758627,-0.018718502519797012,0.029277657787376093,0.2879539255308866,25.22476387634056,53.213885437755955,11.057430740299312,-3.455447106347926,-3.39785632124247,-1.6701327680459273,0.5759078510585877,1.9580866935968,-0.35927200000000004,-0.10978299999999999,-0.8646729999999999,0.20537899999999998,0.10094600000000001,-0.8948529999999999,0.564651,0.210729,0.030179999999999985,0.19820000000000004,0.9407709641733268,single,-0.8646729999999999
152,0.633333,walk,-0.6519443110897597,-0.06168987037926071,-0.13538166106577257,0.14004044519764036,-0.20858853235184358,-0.32256366568391714,-0.8238118098895528,0.2609217474795977,-0.05808929428708402,-0.009601536245755623,-0.019203072491597858,0.04296687469995163,9.755228550831259,-14.231892070067493,-28.810103160696375,10.955024981987576,0.7062856045443696,1.2639551892431915,-0.5189945746925951,-0.11631540369679429,3.285937809067576,-0.359988,-0.108439,-0.864351,0.2080550000000001,0.101123,-0.89411,0.5680430000000001,0.209562,0.02975899999999998,0.20240999999999992,0.9199462018931875,single,-0.864351
153,0.6375,walk,-0.6793856491480877,-0.12071034317254765,-0.24766018718501115,1.78837061755484,0.477119486543293,-0.47797081122997737,-0.7796976241900934,0.2774178065754786,-0.10871130309575655,-0.013678905687538954,-0.01439884809215398,0.05015598752099948,-6.58539430245466,-14.1637803679597,-26.944690693362304,10.586557643259011,3.9587374840127754,-12.148310249261696,-0.9784903867970743,1.1529216221367817,1.7252490571269472,-0.360406,-0.10678,-0.863772,0.21082900000000016,0.10156599999999999,-0.892869,0.5712350000000002,0.208346,0.02909700000000004,0.20903000000000005,0.9100916767634298,single,-0.863772
154,0.641667,walk,-0.651787856971423,-0.07943364530837424,-0.17614590832733545,0.8062208826297881,-0.0011929857942344455,-0.09675393860066722,-0.733861291096708,0.25461963042956354,-0.10535157187424804,-0.01223902087833522,-0.017518598512116436,0.05159587233021317,6.622940287176502,9.905615038198489,17.162053961525114,10.999839955215998,-5.4711245850527686,0.8062709914827177,0.345544710632043,-0.7486802063744739,0.3455447106344326,-0.36074800000000007,-0.10538800000000001,-0.863477,0.21349400000000007,0.101824,-0.89192,0.5742420000000001,0.207212,0.028442999999999996,0.21556999999999998,0.9069225387199112,single,-0.863477
155,0.645833,walk,-0.6766682669227376,-0.07417186749880064,-0.10105616898703898,-0.01469627842364513,-0.012541006306326836,-0.39650312337323373,-0.687469995199226,0.2762842054728753,-0.14834373499760128,-0.013922227556436264,-0.009361497839657038,0.05808929428708569,-5.972253948947325,1.2630287588990865,18.024421349086996,11.13569272623185,5.200330063204932,-10.319770312854828,-0.404034248223966,1.958017444181323,1.558670656954516,-0.3607929999999999,-0.10392799999999999,-0.863674,0.21625500000000009,0.10209399999999999,-0.891257,0.577048,0.20602199999999998,0.027582999999999913,0.22417000000000004,0.899227536654948,single,-0.863674
156,0.65,walk,-0.6904247660187176,-0.06815454763618847,-0.11183105351570984,-0.06583109704064964,0.01641127380878402,-0.3241332732677541,-0.6328293736501033,0.2445404367650567,-0.17374610031197096,-0.014158867290677429,-0.005759539236860106,0.06215502759779225,-3.3012956793808192,1.4440412437274115,-2.585765425646934,13.112700155776897,-7.617895058271741,-6.096079989049553,-0.05678899309843122,0.8644009125982492,0.9756979387344681,-0.3605529999999999,-0.102625,-0.863932,0.21907299999999985,0.102354,-0.890532,0.5796259999999998,0.204979,0.026599999999999957,0.23399999999999999,0.8933217028364373,single,-0.863932
157,0.654167,walk,-0.7055435565154596,-0.08687305015598715,-0.13054955603551352,0.1841936490302646,0.04315841103642173,-0.289744620351206,-0.5915526757859181,0.27477801775857724,-0.1903047756179496,-0.01823854091671812,-0.005519558435323991,0.06335493160547116,-3.6282194616611263,-4.492081238252587,-4.49208123825379,9.905615038201315,7.256438923331006,-3.9737641723010557,-0.9790433467820157,0.05759078510585872,0.28795392552889504,-0.3600779999999999,-0.101118,-0.8641810000000001,0.22193699999999983,0.102693,-0.8897240000000001,0.5820149999999997,0.20381100000000002,0.025542999999999982,0.24457,0.889735705652967,single,-0.8641810000000001
158,0.658333,walk,-0.7321171387422171,-0.07057129140662585,-0.10801728276525999,-0.010328832395296835,-0.026586553263465842,-0.3659450153760127,-0.5316850696111703,0.23979836773884441,-0.22347575612098544,-0.018722995679261275,-0.010561689870383435,0.056889102256362754,-6.378680323273673,3.913048187556821,5.408610962615007,14.370524765902372,-8.396459438246216,-7.962309290215245,-0.11628774905020844,-1.210305193245217,-1.5520473713654768,-0.359243,-0.099825,-0.864662,0.22490900000000003,0.10294299999999998,-0.889037,0.584152,0.202768,0.024374999999999925,0.25625,0.8986415900592428,single,-0.864662
159,0.6625,walk,-0.8617710583153042,-0.07799376049916087,0.015118790496768604,-1.434648231112563,-0.6276955664618322,-1.0954787614879373,-0.4814014878809544,0.2519798416126696,-0.22654187664986639,-0.023758099352068754,-0.004319654427643415,0.06863450923925904,-31.114451541417363,-1.7812500822018156,29.550293559401883,12.067094247711923,2.9233198641288967,-0.735810062126451,-1.2083282152165684,1.4979686687640923,2.818672182120517,-0.35765800000000003,-0.09845,-0.865669,0.22840099999999985,0.10325000000000001,-0.888814,0.5860589999999999,0.2017,0.02314499999999997,0.26854999999999996,0.8787357962762602,single,-0.865669
160,0.666667,walk,-0.7377009839212858,-0.15862730981521236,-0.20686345092393157,1.319057524537404,0.3898916204490349,-0.7358443650261357,-0.43220542356615066,0.24262059035276945,-0.2747780177585789,-0.02111831053512486,0.0011999040076805766,0.06479481641468786,29.774435899692214,-19.350503795548565,-53.2714762228698,11.80611094667707,-2.2460406191264934,-11.575747806266415,0.633498636175636,1.3245880574331532,-0.921452561692141,-0.3563850000000002,-0.096778,-0.865952,0.231387,0.10391600000000001,-0.887682,0.5877720000000002,0.200694,0.021729999999999916,0.28270000000000006,0.8863999334446264,single,-0.865952
161,0.670833,walk,-0.761401824291928,-0.08689390302448415,-0.10561689870379155,0.3294814181502332,0.017385407201332005,-0.3530681432916785,-0.3811809889582145,0.22299567930868905,-0.27484397503600394,-0.02280364858376288,0.0007201152184356692,0.06841094575131862,-5.689111946865632,17.218772633396103,24.303061022597202,12.247823957737905,-4.710732367758134,-0.015832279746767337,-0.4045458590105667,-0.11516773625657874,0.8680099223789626,-0.3548009999999999,-0.095487,-0.866657,0.23446400000000023,0.10428100000000001,-0.886957,0.5892650000000001,0.199768,0.020299999999999985,0.29699999999999993,0.8798082266952629,single,-0.866657
162,0.675,walk,-0.7314614830813334,-0.10463162946964136,-0.11807055435566216,0.46421236239267627,0.006069600772861848,-0.2850885557073948,-0.31845452363812526,0.24526037916966506,-0.27909767218622233,-0.025677945764410962,-0.004559635229186191,0.06503479721622231,7.185107081976099,-4.256713809732919,-2.9886382653876917,15.053147425027301,5.343100518592714,-1.0208056516002788,-0.689776141264233,-1.2670387443296904,-0.8102108315565837,-0.35308000000000006,-0.094029,-0.867328,0.23740499999999987,0.10469799999999999,-0.8861939999999999,0.5904849999999999,0.198727,0.01886599999999994,0.31133999999999995,0.8832182469892089,single,-0.867328
163,0.679167,walk,-0.7333813294936419,-0.1034317254619652,-0.11663066954643525,0.4639116329207503,0.08856659942791108,-0.2122686861356658,-0.26421886249095694,0.21382289416847128,-0.3573314134869289,-0.021598272138157702,0.0026397888168973385,0.07799376049916296,-0.46072628085157297,0.28795392552823995,0.345544710637614,13.01551743392593,-7.544392848858743,-18.774595944494365,0.9790433468330544,1.727723553175826,3.1099023957141574,-0.3511249999999999,-0.092707,-0.868331,0.2403710000000001,0.10514,-0.8853829999999999,0.591496,0.197847,0.017051999999999956,0.32948,0.8650465047059159,single,-0.868331
164,0.683333,walk,-0.7717234757561127,-0.08593374939990492,-0.07057129140662896,-0.1301149888140875,0.02933193974681882,-0.363983433411333,-0.2035525684109893,0.18867018722995546,-0.31901104176668166,-0.02328372539611995,0.0009601536245808924,0.08305328852616391,-9.203587677021305,4.200186284700018,11.056019716708175,14.562240537678255,-6.0376156837531925,9.198360950611423,-0.4045735136731271,-0.4031769544686618,1.2144810434471789,-0.3487580000000001,-0.091563,-0.869366,0.24348899999999984,0.10550200000000001,-0.884743,0.592247,0.197065,0.015376999999999974,0.34623,0.8562322233376671,single,-0.869366
165,0.6875,walk,-0.7446604271658398,-0.09335253179745394,-0.10679145668344475,0.28444593359583353,0.18513776293219758,-0.18700511696160463,-0.15694744420444623,0.19558435325173915,-0.3573314134869193,-0.026637868970475494,0.0002399808015361153,0.10175185985121131,6.494612092698022,-1.7803653461840565,-8.692144294892133,11.184335062765227,1.659267103859763,-9.196153520575324,-0.8049300634402489,-0.1728276513186397,4.48729813416061,-0.346309,-0.090359,-0.87041,0.24648099999999995,0.105892,-0.883874,0.5927899999999999,0.196251,0.013464000000000031,0.36536,0.8246980807827229,single,-0.87041
166,0.691667,walk,-0.8089752819774387,-0.1043916486681069,-0.08279337652988651,0.20976901056693087,-0.12780057292860267,-0.28827866388895684,-0.10367170626349524,0.16966642668586368,-0.37652987760978857,-0.031437485001224445,0.007679385649149029,0.0871130309575216,-15.434330408350958,-2.649176114867503,5.7590785105730875,12.785154293484661,-6.21980479142675,-4.607262808463906,-1.1518157021235698,1.7853143382800234,-3.5130378914541875,-0.34336999999999995,-0.08921699999999999,-0.871634,0.24972099999999986,0.10635900000000001,-0.883166,0.5930909999999998,0.195576,0.011531999999999987,0.38468,0.845116812925957,single,-0.871634
167,0.695833,walk,-0.8247719635141604,-0.12001920307249161,-0.07801248199712421,0.14139095207669913,-0.026421330061422367,-0.4155491253620735,-0.06529044647144738,0.14882381180989007,-0.39246279404704665,-0.036725876140092546,0.005760921747478691,0.08569371099375969,-3.7918102584545452,-3.7512132511725147,1.1475983035915258,9.21297642631969,-5.003028054722418,-3.8245118668406315,-1.2694169800451505,-0.4605050172036333,-0.3406913019111629,-0.340206,-0.088097,-0.8729439999999999,0.25300400000000023,0.106883,-0.8824839999999999,0.5932100000000002,0.19498,0.009539999999999993,0.4046,0.8443170038764669,single,-0.8729439999999999
168,0.7,walk,-0.817614590832734,-0.11495080393568739,-0.049436045116374464,-0.15079153414992122,-0.036940864504313,-0.524801554718191,-0.05447564194863968,0.14758819294456663,-0.42212622990161675,-0.0259179265658745,0.005279577633788017,0.0916726661867069,1.7176320329797194,1.216318487354048,6.857796227681855,2.595345457837271,-0.29652480569317713,-7.118655112687944,2.5937004017802376,-0.1155133462180667,1.434834459550593,-0.33702600000000005,-0.087003,-0.8744970000000001,0.25630300000000017,0.10738400000000001,-0.881896,0.5933290000000002,0.194387,0.007398999999999933,0.42601000000000006,0.8409796433083291,single,-0.8744970000000001
169,0.704167,walk,-0.87664986801053,-0.1271898248140129,-0.08087353011759758,0.339512607562488,-0.2757804664911944,-0.2626982845681489,-0.07103431725463684,0.11255099592032485,-0.3880489560835105,-0.02879769618438712,0.009359251259901835,0.10463162946964136,-14.16733313602005,-2.937130040394866,-7.544392848865582,-3.9737641723055037,-8.408254625447928,8.17789148502664,-0.6910894212893205,0.9790433467995651,3.109902395712589,-0.3336690000000002,-0.086004,-0.875777,0.25983599999999973,0.10795300000000001,-0.881123,0.593505,0.19395700000000002,0.005345999999999962,0.44654000000000005,0.8184581409216338,single,-0.875777
170,0.708333,walk,-0.8629380700912175,-0.1353816610657709,-0.06433029284686649,-0.001898978234585627,-0.24194978657112218,-0.43406142029017547,-0.14738358137299376,0.11689870379260704,-0.3929428708593371,-0.044407105136739684,0.0024003840614455684,0.10921747479596658,3.2913581179338767,-1.9663553172726849,3.9710123069445706,-18.32675566931274,1.043616868046614,-1.1747275025988049,-3.7468576457879386,-1.6703953908920455,1.1007790029585258,-0.3306880000000001,-0.084953,-0.877146,0.2632460000000001,0.10852699999999998,-0.8804,0.5939340000000002,0.19347999999999999,0.003253999999999979,0.46746,0.8034590116888571,single,-0.877146
171,0.7125,walk,-0.8555315574754051,-0.1406287497000237,-0.06431485481159897,-0.01399860256717211,-0.002201080702142175,-0.44854833539771605,-0.25293976481883906,0.09047276217902554,-0.36357091432685,-0.04559635229190187,0.0052795776337945365,0.11039116870650313,1.7774208341282267,-1.2592005361777683,0.003704832077637993,-25.331457510401847,-6.34171864976753,7.048705671343139,-0.2853964855200809,0.6909511812692455,0.28166400540833775,-0.32817700000000016,-0.08399,-0.878393,0.2666209999999998,0.10913500000000001,-0.879672,0.5947979999999999,0.19312500000000002,0.0012790000000000301,0.48721,0.800743664462177,single,-0.878393
172,0.716667,walk,-0.8581713462922957,-0.16438684905207412,-0.044636429085677484,0.05889530925293002,0.2745727352417895,-0.5166227717550606,-0.314374850011978,0.07895368370530201,-0.3287736981041499,-0.04415646748259193,0.0035997120230350688,0.10967122630189478,-0.6334986361628563,-5.70148772547402,4.7224443786708274,-14.74324098707427,-2.7643576850788207,8.350663840340733,0.34554471065753056,-0.40313549574260976,-0.1727723553175768,-0.32591100000000006,-0.082976,-0.879577,0.27001299999999984,0.109835,-0.8790290000000001,0.5959239999999999,0.192811,0.0005479999999999929,0.5,0.7973840526484368,single,-0.8790290000000001
173,0.720833,walk,-0.8602976476236497,-0.16490638502160776,-0.030724915986562722,-0.24412276002573213,0.23178552667878036,-0.753330984739976,-0.3389342294767176,0.04560729716754863,-0.30028804608738224,-0.034325492078734504,0.021603456553050664,0.12217954872780022,-0.5103939825621691,-0.12470858606184564,3.3392974313766497,-5.89519430262607,-8.004413475217053,6.837650508105715,2.35981166679253,4.3215901416265154,3.002477778661969,-0.323739,-0.082099,-0.8807,0.27345399999999986,0.11061200000000002,-0.878392,0.5971929999999999,0.19271100000000002,0.0023080000000000878,0.5,0.7623610799077447,single,-0.878392
174,0.725,walk,-0.865610751139882,-0.16942644588432756,-0.021358291336694278,0.15583817625236457,0.23534312214493347,-0.45110000202701506,-0.34509239260860075,0.006479481641468453,-0.23134149268058368,-0.055195584353186625,0.0016798656107461464,0.1295896328293724,-1.2750428404684964,-1.0847278288264388,2.2478100911611167,-1.4778409243779982,-9.389924532296588,16.545849149699553,-5.008421472150698,-4.781279323807143,1.7782779221435345,-0.32157000000000013,-0.081366,-0.881575,0.27683100000000005,0.11132499999999998,-0.877763,0.5984010000000002,0.192691,0.0038120000000000376,0.5,0.7271055963612713,single,-0.877763
175,0.729167,walk,-0.8816894648428484,-0.1631869450443952,-0.008159347252214599,-0.3696580478686426,0.2274369366259372,-0.6234278629343708,-0.318454523638072,0.0211183105351565,-0.19846412287016754,-0.058795296376301626,0.022078233741302626,0.1547876169906395,-3.8585826021037453,1.4973604127507336,3.167493180820633,6.392577146755118,3.5130378914537883,7.889937559495054,-0.8638617766054651,4.895216733994798,6.047032436109173,-0.3192229999999998,-0.080598,-0.882368,0.2802600000000002,0.112097,-0.877084,0.599483,0.192695,0.005284000000000066,0.5,0.6687541129755492,single,-0.877084
176,0.733333,walk,-0.8514162265962468,-0.18002880460873744,-0.03816610657705716,-0.07155971136838543,0.4816106216230161,-0.4444219167208644,-0.2942870859337903,0.01440230436870006,-0.15194431108977463,-0.06601056168992969,0.009841574651947484,0.15290446471435387,7.266739857561578,-4.042693126342346,-7.202774681911314,5.801113227143934,-1.6120994158560815,11.166541473930119,-1.7319407857964622,-2.9372681443483275,-0.4520288709278999,-0.316902,-0.079788,-0.882842,0.2835319999999999,0.11288800000000002,-0.876288,0.6004339999999999,0.19267600000000001,0.00655400000000006,0.5,0.6564011224626809,single,-0.876288
177,0.7375,walk,-0.9049676025917782,-0.16486681065514636,-0.0011999040076872372,-0.3753127084119544,0.25296281607331794,-0.36059971155886567,-0.28725701943841697,0.02207823374130096,-0.14662826973841991,-0.06671466282692017,-0.005039596832258421,0.14350851931845374,-12.851302134756656,3.638587461864882,8.871178922334927,1.6870809924101995,1.8420756833695326,1.2757478644959626,-0.16897075521729488,-3.5711954605725444,-2.2548465072954316,-0.31432799999999994,-0.079009,-0.883448,0.2870250000000001,0.11355399999999999,-0.8756849999999999,0.601353,0.19256299999999998,0.007763000000000075,0.5,0.6584732457290017,single,-0.8756849999999999
178,0.741667,walk,-0.9061675065994896,-0.17446604271658564,-0.002159827213805113,-0.1270349531166213,0.18706026499598896,-0.2577627408588394,-0.2822174226062127,0.027357811375089566,-0.16126709863211225,-0.06983441324700475,0.008159347252221477,0.1677465802735809,-0.2879539255367025,-2.3036314042331334,-0.23036314041706119,1.2094064872100745,1.2669972723275031,-3.513037891454911,-0.7486802064038017,3.1674931808207702,5.816669295686972,-0.311728,-0.078168,-0.884111,0.2905099999999998,0.114315,-0.874977,0.6022379999999998,0.192483,0.009133999999999975,0.5,0.6055174986055023,single,-0.874977
179,0.745833,walk,-0.8821411425827821,-0.1668266922707635,0.008881421027353268,-0.3220549285687576,0.2553290500886793,-0.26396780612474335,-0.1989918386941834,-0.0048007681228994644,-0.20091214594335186,-0.09673547767641164,0.005040806529043022,0.15554488718194964,5.767250124029652,1.8337375049981135,2.650323629658755,19.97733651272905,-7.719294166584016,-9.5163339681324,-6.4572886292383265,-0.748569544689979,-2.928874961985414,-0.3088820000000001,-0.077493,-0.884985,0.29378199999999977,0.115031,-0.874366,0.6026639999999999,0.19252399999999997,0.010619000000000045,0.5286352862019084,0.5884078320849693,double,-0.874366
180,0.75,walk,-0.8617710583153575,-0.16822654187664865,0.011519078473733534,-0.19319881130730077,0.4824221859395369,-0.1902774765145606,-0.144708423326111,-0.021838252939764845,-0.24766018718502286,-0.0938324934005345,0.0004799616030722306,0.15958723302135683,4.888429149849877,-0.3359370304499989,0.6329871481594063,13.026977530134868,-4.088669262506659,-11.218632407408363,0.6966604933710381,-1.0945152210153004,0.970085394626147,-0.3058939999999999,-0.076883,-0.886065,0.29698199999999986,0.11573399999999999,-0.873749,0.6028759999999997,0.19261699999999998,0.012315999999999994,0.520552964953054,0.5682911918480562,double,-0.873749
181,0.754167,walk,-0.8725701943844361,-0.1747060235181171,0.0009599232061444612,0.0838193510318019,0.36881004984451,-0.031238133606885866,-0.07487401007921468,-0.013438924886009136,-0.3018958483321316,-0.0902327813774195,0.004799616030722306,0.175905927525796,-2.5915853297524554,-1.554951197856586,-2.5339945446577854,16.758918465777725,2.0156774787030587,-13.01551743391129,0.8638617766054651,1.036634131905458,3.9161733871943976,-0.30257,-0.076211,-0.8873270000000001,0.3002420000000001,0.116482,-0.87302,0.6028120000000001,0.192693,0.01430700000000007,0.5,0.5273347663848456,single,-0.87302
182,0.758333,walk,-0.8638982237157717,-0.18050888142102786,0.035525684109439716,-0.022352980440950996,0.2840373363891348,0.023001623775343902,-0.02280364858376288,-0.0062409985597691375,-0.3300528084493503,-0.11137782045127691,0.018963034085452635,0.17666826692270762,2.0816060174422257,-1.3929087621005196,8.297110154415561,12.498886580761345,1.7277787628996621,-6.758751828425028,-5.07562147716212,3.399764295422544,0.18299073377619177,-0.29906600000000005,-0.075485,-0.8888499999999999,0.303377,0.117313,-0.872432,0.6024430000000001,0.192798,0.016417999999999933,0.5,0.4863112491650445,flight,-0.872432
183,0.7625,walk,-0.8504919606431627,-0.16726661867050863,0.041996640268787994,-0.08133313769210446,0.5610120551049812,-0.10538940863388581,-0.03647708183343721,0.03623710103191774,-0.28341732661387664,-0.10727141828661309,0.0021598272138250952,0.1807055435565198,3.217245757765614,3.177888829018355,1.5529052458239503,-3.281361471004221,10.193928387734026,11.191620310889022,0.985457682904703,-4.032447053426412,0.9688688826043322,-0.295674,-0.07463700000000001,-0.890206,0.3064739999999997,0.11801900000000001,-0.871854,0.6021479999999997,0.19265600000000002,0.018352000000000035,0.5199274186379108,0.4662169420830793,single,-0.871854
184,0.766667,walk,-0.900407967362652,-0.17638588912886824,0.04415646748259193,0.17793138588947421,0.07038064072217087,0.13207544481836928,-0.029757619390451653,0.04439644828413637,-0.28293736501079686,-0.10943124550030872,0.011999040076792443,0.20158387329013536,-11.978883302013196,-2.188449834019569,0.5183170659476649,1.6125419829578846,1.958086693596969,0.11518157021352961,-0.5183170659216744,2.3612221893369982,5.01039830420336,-0.2920459999999998,-0.073717,-0.891569,0.3097700000000001,0.118804,-0.8711979999999999,0.6018159999999999,0.192521,0.020371000000000028,0.5200980625305778,0.41348154621125516,single,-0.8711979999999999
185,0.770833,walk,-0.9003840614497923,-0.17858857417186774,0.06697071531445728,-0.08108743185425905,0.13075639893105148,-0.053626756006288606,-0.07729236677872185,0.04944791166586765,-0.18819011041766667,-0.11809889582331651,0.012241958713393052,0.21051368218914912,0.005738337220288759,-0.528729006960994,5.476295686957593,-11.410164999584772,1.212545218850522,22.742979979147893,-2.080568968556836,0.05830980235252252,2.1434970952985495,-0.2886170000000001,-0.072767,-0.892632,0.313029,0.11959900000000001,-0.8706,0.6016460000000001,0.192366,0.02203199999999994,0.6510542720112104,0.37686619845771496,single,-0.8706
186,0.775,walk,-0.8488120950324205,-0.1665466762658975,0.07031437485000852,-0.031342544748397545,0.4397596326358157,0.025499900681583997,-0.08279337652988651,0.011759059275257994,-0.1252699784017273,-0.13246940244777577,0.011999040076792443,0.21622270218382508,12.376281837622134,2.8898243114879163,0.8024140954046594,-1.320136729341161,-9.044601005665795,15.09962371392822,-3.4486456982143405,-0.05829580911941616,1.3700551943066759,-0.28542500000000004,-0.072024,-0.893447,0.31601400000000024,0.120343,-0.869992,0.6014390000000003,0.192367,0.023455000000000004,0.7489710831119925,0.3423517171989521,single,-0.869992
187,0.779167,walk,-0.9097672186224739,-0.175905927525796,0.07847372210224976,0.08917474066252554,0.0036748681101978872,0.0343706252066166,-0.09863210943123016,-0.0004799616030722306,-0.1123110151187904,-0.14374850012004647,0.0201583873290137,0.2272618190544714,-14.628059416859355,-2.2460406191260938,1.9580866936023942,-3.800991816977088,-2.9371300403959997,3.109902395713175,-2.7067668999929477,1.9580866935975993,2.6491761148659076,-0.2820450000000001,-0.071293,-0.8942420000000001,0.3192059999999999,0.12115999999999999,-0.869372,0.601251,0.19245299999999999,0.02487000000000006,0.7508777213952077,0.3018623072895025,single,-0.869372
188,0.783333,walk,-0.8634181469035443,-0.19011041766683187,0.08449351896301417,0.020590412340395426,0.16418772419034802,-0.021797079980310642,-0.11473835813729977,-0.010801728276525332,-0.09865578492558938,-0.14210273643786925,0.01848295727316268,0.234517522803656,11.125557301711654,-3.4096231735564646,1.4449824437745002,-3.866118268379747,-2.477620420896152,3.2777796911189077,0.3950464911611302,-0.4021675602138895,1.7416475634144968,-0.278926,-0.070546,-0.8950049999999999,0.3222109999999998,0.122029,-0.8687469999999999,0.6011369999999998,0.192575,0.026258000000000004,0.7471576464963938,0.27936470277215747,single,-0.8687469999999999
