frame_id,timestamp,gait_type,root_linear_velocity_x,root_linear_velocity_y,root_linear_velocity_z,root_angular_velocity_x,root_angular_velocity_y,root_angular_velocity_z,left_linear_velocity_x,left_linear_velocity_y,left_linear_velocity_z,right_linear_velocity_x,right_linear_velocity_y,right_linear_velocity_z,root_acceleration_x,root_acceleration_y,root_acceleration_z,left_acceleration_x,left_acceleration_y,left_acceleration_z,right_acceleration_x,right_acceleration_y,right_acceleration_z,left_pos_rel_x,left_pos_rel_y,left_pos_rel_z,right_pos_rel_x,right_pos_rel_y,right_pos_rel_z,step_length,step_width,step_height,left_contact_prob,right_contact_prob,support_type,max_foot_height
1,0.004167,walk,-0.08543316534677778,0.01823854091671826,0.004079673626094009,0.1466374848383484,0.10143103814135791,0.027746330702290874,-0.00023998080152945635,0.0021598272138050718,-0.0007199424046083515,-0.0019198464122889372,0.016318694504429323,0.0038396928245728787,0.0,0.0,0.0,0.0,0.0,0.0,0.0,0.0,0.0,0.14770300000000003,0.06170000000000009,-0.923667,-0.14573199999999997,-0.01675099999999996,-0.924145,0.293435,0.07845100000000005,0.00047799999999997844,0.9914045484304865,0.9718768165246996,double,-0.923667
2,0.008333,walk,-0.08809409505521032,0.01584253480559806,0.0021603456553136715,0.16684290248527817,0.10037475126609346,0.02039849922722246,0.004560729716752579,0.002160345655287022,0.0007201152184356697,-0.004560729716752579,0.009841574651934165,0.00264042246759579,-0.638725326075982,-0.5751334880269329,-0.460712426975597,1.152354901171876,0.0001244458670067424,0.3456691365924198,-0.6339134192183489,-1.5547575258029662,-0.28787094502570537,0.14808900000000003,0.06164299999999989,-0.923673,-0.14538399999999996,-0.016776000000000124,-0.9241429999999999,0.293473,0.07841900000000002,0.00046999999999997044,0.986803936397201,0.9813937974808393,double,-0.923673
3,0.0125,walk,-0.09623230141588304,0.015118790496742073,0.0007199424046016905,0.14622806451769127,0.06198769728759579,0.03114892688027817,0.0016798656107594805,0.0038396928245778734,-0.0004799616030722342,-0.006959443244554057,-0.019678425725921638,-0.0007199424046083513,-1.9530132854986133,-0.17368473934628892,-0.3456691266407441,-0.6913520772721617,0.40301107974342487,-0.28799539753009445,-0.5756451950567502,-7.084233352017231,-0.8064230554845551,0.14849700000000005,0.061595999999999984,-0.923678,-0.14501200000000003,-0.016920999999999964,-0.924149,0.2935090000000001,0.07851699999999995,0.0004709999999999992,0.9882592041311593,0.9651912923413817,double,-0.923678
4,0.016667,walk,-0.09599232061434027,0.019678425725974925,0.0009599232061444684,0.130216598764741,0.06212120403570493,0.010111882735557218,0.0023998080153478495,0.0023998080153744927,0.0016798656107511545,0.008639308855300216,0.007679385649155747,-0.0011999040076789203,0.05759078510745796,1.0942249170225227,0.05759078510745809,0.1727723553127835,-0.3455447106319608,0.5183170659523371,3.7434010318824744,6.565349502058407,-0.11518157021131965,0.14890699999999996,0.06152399999999991,-0.923675,-0.14457600000000004,-0.01697100000000007,-0.9241579999999999,0.293483,0.07849499999999998,0.0004829999999999002,0.9888586113758611,0.9806314694619387,double,-0.923675
5,0.020833,walk,-0.0955352856457056,0.01200192030722119,0.004080652904475458,0.21510350594259212,0.10837525968038954,0.02545399749105124,0.0012001920307327788,0.0024003840614655577,-0.0007201152184340043,-0.00912145943350516,-0.01536245799329429,0.0016802688430148974,0.109705945423588,-1.8426561254809735,0.749094982796685,-0.2879539089330463,0.00013827318556527951,-0.5760875730161208,-4.263266511955204,-5.530927422575622,0.6913521005025968,0.14931,0.061484000000000094,-0.923695,-0.144216,-0.017085000000000017,-0.924168,0.293526,0.07856900000000011,0.0004729999999999457,0.9906389242667386,0.9700913687124706,double,-0.923695
6,0.025,walk,-0.16774658027357933,0.04799616030717013,0.06863450923926288,0.7687820662023706,-0.593130960498253,0.46016647553463735,0.0004799616030722342,0.0023998080153212063,0.0014398848092150374,-0.00503959683226512,-0.007679385649155747,0.003599712023038426,-17.329324364740515,8.637926565862475,15.491686185454144,-0.17284147532050506,-0.00013824001544308198,0.5183585379527337,0.9795686588049053,1.8437898594044977,0.4606295128446192,0.150011,0.06129399999999996,-0.923975,-0.14353800000000005,-0.017317000000000027,-0.924439,0.29354900000000006,0.07861099999999999,0.00046400000000001995,0.9906275147723915,0.9835574715693788,double,-0.923975
7,0.029167,stand,-0.01943844492440552,-0.01727861771054716,-0.06119510439164996,-0.44497048187537874,0.7918571150669567,-0.4087335511263493,0.0028797696184334077,0.00215982721385836,0.000959923206142804,-0.0035997120230350987,0.0016798656107728034,0.0007199424046066867,35.591105195386106,-15.664693548768259,-31.15661474223972,0.5759078510585973,-0.057590785088276135,-0.11518157021171917,0.3455447106383543,2.246040619133323,-0.6910894212699163,0.15010400000000002,0.06137499999999996,-0.923716,-0.14347200000000004,-0.017238000000000087,-0.924181,0.29357600000000006,0.07861300000000004,0.0004650000000000487,0.9891408268553099,0.9932714967437459,double,-0.923716
8,0.033333,walk,-0.0957753240518574,0.01248199711952495,0.0016802688430098993,0.15874382144881988,0.11960127115314377,-0.0015153282319362565,0.0021603456553003454,0.0033605376860197985,0.0009601536245808924,0.0007201152184556565,0.0012001920307327777,-0.0002400384061452231,-18.323782795835772,7.143690549705254,15.092504377018678,-0.1726893814529673,0.28821662797922176,5.5309274625148125e-05,1.0369244458691196,-0.1151400816226657,-0.230432263742657,0.15051200000000003,0.061336999999999975,-0.923719,-0.14306999999999992,-0.017284999999999995,-0.924189,0.29358199999999995,0.07862199999999997,0.00047000000000008146,0.9884520072137218,0.997633189397035,double,-0.923719
9,0.0375,walk,-0.09743220542357037,0.012958963282937013,0.0016798656107461602,0.14355481133077666,0.10255204964814367,0.00651829276162667,0.0004799616030722346,0.0007199424046016911,-0.0009599232061444692,-0.0019198464122889385,0.0011999040076872472,-0.0002399808015361173,-0.39761971963354115,0.11446272220111892,-9.676800185721298e-05,-0.40325991174180753,-0.6336921721665729,-0.46078157684793924,-0.6335401081700497,-6.912000132722002e-05,1.3824000265367249e-05,0.15092000000000005,0.06128599999999995,-0.9237299999999999,-0.1426719999999999,-0.01733399999999996,-0.9241969999999999,0.29359199999999996,0.07861999999999991,0.0004669999999999952,0.9931761063886391,0.9962055703621593,double,-0.9237299999999999
10,0.041667,walk,-0.0964722822173991,0.011519078473733612,0.0023998080153744905,0.14113881462011782,0.11946711221670653,-2.434413407421603e-05,0.0009599232061444676,0.0019198464122889352,0.0002399808015361169,0.00839932805375743,0.02639788816890625,-0.003119750419966189,0.23036314042986827,-0.3455447106319654,0.1727723553223733,0.11518157021171886,0.2879539255308958,0.28795392552929805,2.476403759550362,6.047032436097667,-0.691089421269515,0.15132599999999996,0.06124599999999991,-0.9237390000000001,-0.142235,-0.017272000000000176,-0.92422,0.29356099999999996,0.07851800000000009,0.0004809999999999537,0.9915902879769583,0.9535382458892981,double,-0.9237390000000001
11,0.045833,walk,-0.08761401824293329,0.06096975516082014,-0.04920787325972418,-0.5343266182943299,0.14737917717232787,-0.049696866585321776,0.003120499279881243,0.00240038406146556,0.0007201152184356705,-0.007441190590495266,-0.009121459433505168,0.003120499279884574,2.126323565642301,11.870061614759141,-12.38782555811299,0.5186212370947617,0.11534749140101418,0.11525070016791984,-3.802332847876311,-8.526007585792476,1.4978995918988884,0.151704,0.061002,-0.923531,-0.14190099999999994,-0.017564000000000135,-0.924002,0.29360499999999995,0.07856600000000014,0.0004709999999999992,0.9886195999357651,0.979702911035425,double,-0.923531
12,0.05,walk,-0.09575233981282405,0.007199424046070185,-0.009839212862987454,0.025041722163648424,0.13743878446061839,-0.005375110717000675,0.0009599232061444676,0.0019198464122889352,-0.0007199424046083507,-0.0021598272138317128,-0.005039596832211829,0.0007199424046083507,-1.9530409334991015,-12.903847159767196,9.447722677402613,-0.5184967779545893,-0.1153198102175724,-0.34558618263595386,1.267425816333945,0.9795686588176948,-0.5760875630612481,0.15210700000000005,0.060980000000000034,-0.923493,-0.14151099999999994,-0.017614999999999936,-0.923958,0.293618,0.07859499999999997,0.0004649999999999377,0.9915767094104208,0.9907833624336202,double,-0.923493
13,0.054167,walk,-0.09815214782817207,0.006719462442984641,-0.011279097672190852,-0.031355731169035624,0.10511165700531196,0.018724457510899576,0.0019198464122889385,0.0009599232061178259,0.0019198464122872731,-0.005519558435324037,-0.0011999040076872472,0.0014398848092150385,-0.5759078510554403,-0.11518157021491351,-0.3455447106319651,0.23036314042343928,-0.230363140429832,0.633498636164057,-0.8062709914788401,0.9214525616809658,0.17277235531717983,0.15252400000000005,0.06095600000000001,-0.923438,-0.14112499999999994,-0.017647999999999886,-0.923905,0.293649,0.0786039999999999,0.0004669999999999952,0.9905303839692943,0.9902848109739284,double,-0.923438
14,0.058333,walk,-0.10681709073449769,0.00816130580895091,-0.010561689870363166,-0.004033167260392675,0.04385500672451227,0.06414456463208518,0.0016802688430098993,0.0033605376860197985,0.0012001920307244498,-0.0038406144983235695,0.0026404224675907915,-0.0014402304368696728,-2.079919084571679,0.3460977834772608,0.1722054253066935,-0.05750781787782982,0.5762396735242369,-0.17274469072559356,0.40301102664437505,0.921825846202121,-0.6913382731840397,0.15297599999999995,0.06093599999999988,-0.923389,-0.14069600000000004,-0.017670999999999992,-0.923867,0.293672,0.07860699999999987,0.00047799999999997844,0.9886462775143583,0.9918697385850117,double,-0.923389
15,0.0625,walk,-0.1663066954643761,0.042476601871819494,0.020638348932092765,0.3275942029181693,-0.28936051447653943,0.4669389024942676,0.0028797696184334077,0.002879769618460051,-0.0011999040076789212,-0.0002399808015427781,0.0,0.0023998080153595077,-14.276363026128738,8.235012254108137,7.487410319763848,0.2878571575290399,-0.11537510620584304,-0.5759769710591247,0.8640829605905432,-0.6336507001657772,0.9215355056945485,0.153681,0.06077100000000013,-0.9234800000000001,-0.14000400000000002,-0.017847999999999864,-0.9239430000000001,0.29368500000000003,0.078619,0.0004629999999999912,0.988293843687287,0.9959803713218436,double,-0.9234800000000001
16,0.066667,walk,-0.05183585313174796,-0.038156947444209284,-0.04295656347493162,-0.3038940719129224,0.4189614965900236,-0.4016131097758442,-0.0007199424046016899,0.0023998080153744905,0.0009599232061428024,0.0,0.0007199424046016899,0.0021598272138217216,27.47080449547109,-19.350503795543247,-15.261558053041595,-0.8638617765862957,-0.11518157021491718,0.518317065951937,0.05759078510745809,0.17277235531598015,-0.05759078510626011,0.15389400000000003,0.060940000000000216,-0.923297,-0.13978800000000002,-0.01768599999999987,-0.923755,0.29368200000000005,0.07862600000000008,0.00045799999999995844,0.9909482217872371,0.9962055703621739,double,-0.923297
17,0.070833,walk,-0.1012962073931912,-0.0019203072491084919,-0.003600576092171696,0.025251572346190198,0.07288286880930288,0.025058597379155678,0.0014402304368580185,0.0024003840614122644,0.002160345655305349,-0.009601536245782305,0.006240998559789146,-0.0014402304368696776,-11.872384604283093,8.698185356481249,9.446948483619785,0.5185244458616692,0.0001382731727733598,0.2881474913976356,-2.304737456980876,1.3252655197281493,-0.8641521005020184,0.15432200000000001,0.060957999999999846,-0.923273,-0.13940599999999992,-0.017652,-0.9237460000000001,0.29372799999999993,0.07860999999999985,0.0004730000000000567,0.9893766891252476,0.9807636177305687,double,-0.923273
18,0.075,walk,-0.10415166786655485,0.003839692824524584,-0.00863930885530021,0.03853080949560619,0.03562770314651851,-0.06732596793783809,-0.0007199424046016899,0.0019198464122889352,-0.0004799616030722338,-0.0016798656107728006,0.0019198464122356488,0.0004799616030722338,-0.6852556931518218,1.3822894345171755,-1.2091991272206644,-0.5184000099495336,-0.1153198102047825,-0.633623052166446,1.9010488684927997,-1.036993555928364,0.4608092248480704,0.15475299999999997,0.06095000000000006,-0.923239,-0.13897900000000007,-0.01766000000000001,-0.923708,0.29373200000000005,0.07861000000000007,0.0004689999999999417,0.9918002950214417,0.995673684574717,double,-0.923239
19,0.079167,walk,-0.10871130309576105,-0.003839692824524584,-0.0004799616030589122,0.07721051849568661,0.05516594148195357,-0.005687074147883268,0.002399808015361169,0.004079673626094005,0.00191984641228727,-0.0016798656107461574,0.0043196544276634255,-0.0004799616030722338,-1.0942249170161262,-1.8429051233619296,1.958086693602421,0.7486802063745754,0.5183170659479404,0.5759078510581958,6.393852696582376e-12,0.57590785107458,-0.23036314042343814,0.15521600000000002,0.06098299999999979,-0.9232290000000001,-0.13853300000000002,-0.01762600000000014,-0.9237080000000001,0.29374900000000004,0.07860899999999993,0.0004790000000000072,0.9866971623655127,0.9922340261423053,double,-0.9232290000000001
20,0.083333,walk,-0.10681709073452433,-0.0038406144983235695,-0.002880460873742677,0.09413687292168656,0.08450454922809027,-0.02985594670673172,0.0024003840614522307,0.0019203072491617847,-0.0004800768122904462,-0.0019203072491617847,0.0007201152184290069,0.0009601536245808924,0.4546837160913855,-0.00022123710969405605,-0.576212018887125,0.0001382731855644466,-0.5183308634018767,-0.5760737456979631,-0.057715227656175504,-0.8640276546410024,0.3456829639109758,0.15567100000000006,0.06100699999999981,-0.923219,-0.138096,-0.01760700000000015,-0.9236920000000001,0.29376700000000006,0.07861399999999996,0.0004730000000000567,0.9900845777737124,0.9962258036757652,double,-0.923219
21,0.0875,walk,-0.10511159107269966,-0.003599712023061748,-0.0011999040076872494,0.10896712863456633,0.06213114924722371,-0.06027974404015142,-0.017998560115202168,-0.008399328053757458,0.012239020878330346,-0.00023998080151613527,-0.00047996160303227054,0.002879769618430082,0.4092871758638545,0.05781196910530888,0.4033013837426041,-4.895354973999147,-2.4765143515525,3.0523392586083085,0.403246087747937,-0.28799539751890574,0.46067098484501895,0.15603399999999995,0.0609869999999999,-0.923163,-0.13765899999999998,-0.017593999999999888,-0.923675,0.2936929999999999,0.07858099999999979,0.000512000000000068,0.9559966091572296,0.9951177683322541,double,-0.923163
22,0.091667,walk,-0.11567074634028846,-0.00671946244298463,0.002879769618433403,0.12755344338062452,0.0728082235275086,0.0011766739647915104,0.011759059275263068,0.0038396928245778704,-0.007439404847611298,-0.0023998080153744905,0.0016798656107195142,-0.0007199424046083507,-2.5339945446577365,-0.7486802063649817,0.9790433468012115,7.141257353123399,2.937130040397244,-4.7224443786756956,-0.5183170659607279,0.518317065935153,-0.863861776587096,0.15656499999999995,0.061030999999999835,-0.923206,-0.13718700000000006,-0.017559000000000102,-0.92369,0.293752,0.07858999999999994,0.00048400000000003995,0.9711019994531198,0.9949724801656044,double,-0.923206
23,0.095833,walk,-0.11305808929428682,-0.0033605376860730975,-0.0019203072491617847,0.14817868695092173,0.09974602304718472,-0.04555534984573134,-0.0158425348055714,-0.009121459433505152,0.011521843494959048,-0.0036005760921716838,0.0014402304368580138,0.0007201152184356692,0.6271380331256926,0.8062709450099688,-1.1522028006709517,-6.625442650224303,-3.1111743298326964,4.5514278306697875,-0.28823045530417485,-0.05752164518999047,0.34566913659241927,0.15696999999999994,0.06100700000000003,-0.92315,-0.13673100000000005,-0.01753899999999997,-0.923679,0.293701,0.078546,0.0005290000000000017,0.9586953498642122,0.993426277514352,double,-0.92315
24,0.1,walk,-0.11783057355412016,0.008159347252241296,-0.002639788816890625,0.12543829660619554,0.09662322423114665,-0.023626898459948205,-0.009839212862974131,-0.01199904007676588,0.011279097672185838,-0.0019198464122889352,0.0009599232061711108,-0.0009599232061444676,-1.1453045979921619,2.764551221097764,-0.1726617633138564,1.44068201166241,-0.6905641092538339,-0.05825433711860079,0.4033428557433998,-0.1152645142037203,-0.40317696774181305,0.15741999999999995,0.06092300000000006,-0.923092,-0.13624800000000004,-0.017568999999999946,-0.923672,0.293668,0.078492,0.0005800000000000249,0.9622275675678833,0.9960811299211312,double,-0.923092
25,0.104167,walk,-0.10919126469882032,-0.008879289656843016,-0.002399808015374499,0.17868977976493894,0.05107476952676584,-0.1255835764288375,0.003599712023048426,-0.008399328053757458,0.017758579313654394,-0.0002399808015427785,0.002399808015374499,0.0023998080153595116,2.0732682638108626,-4.088945742520843,0.05759078510106238,3.225083965928147,0.8638617765798972,1.5549511978566286,0.4031354957394194,0.3455447106319634,0.8062709914816384,0.15788999999999997,0.06092500000000012,-0.9230079999999999,-0.13579400000000008,-0.017521999999999816,-0.9236519999999999,0.29368400000000006,0.07844699999999993,0.0006439999999999779,0.9602736256754414,0.9943294748904854,double,-0.9230079999999999
26,0.108333,walk,-0.12217954872781861,-0.005520883341306819,0.005520883341360118,0.16353362244517095,0.07723275103822246,-0.02048500539675666,-0.0024003840614522307,-0.005520883341360118,0.012241958713394717,-0.00384061449829692,0.0028804608737160275,0.0,-3.1176869968790886,0.8061464991685537,1.9012701288369205,-1.440253500840291,0.6909372809403115,-1.3242008161929124,-0.8642903736807822,0.11537514602533087,-0.5760460910608521,0.15838900000000006,0.060924999999999896,-0.92298,-0.1353009999999999,-0.01748700000000003,-0.923675,0.29368999999999995,0.07841199999999993,0.0006950000000000012,0.9703131265188117,0.9919987197952214,double,-0.92298
27,0.1125,walk,-0.12215022798175694,-0.006239500839952361,0.0007199424046016899,0.15412020600669654,0.09911599791089912,-0.047873092408239046,0.0007199424046016899,-0.004079673626094005,0.0045596352291812255,-0.0007199424046283331,-0.0016798656107728006,0.0009599232061428024,0.007036416141509501,-0.1724544033226643,-1.1521336541296912,0.74881844637723,0.3458626626508548,-1.8436101473994444,0.7489013903692305,-1.0943908050129167,0.23036314042303851,0.15890100000000001,0.060934000000000044,-0.922964,-0.134795,-0.01746800000000004,-0.923674,0.293696,0.07840200000000008,0.0007099999999999884,0.9826324232837618,0.9965593451455305,double,-0.922964
28,0.116667,walk,-0.12287017038635864,-0.009599232061444677,0.004319654427636783,0.12787879369063462,0.13063008580608204,-0.030820068527342794,0.0009599232061444676,-0.0031197504199761807,0.0026397888168956207,-0.001199904007660602,0.0014398848092566662,0.0028797696184317376,-0.1727723553159827,-0.8062709914788366,0.8638617765862945,0.057590785107457985,0.23036314041704414,-0.46072628084607703,-0.11518157020212827,0.7486802063905601,0.4607262808468763,0.15941699999999998,0.06096100000000004,-0.922971,-0.13428799999999996,-0.017421999999999827,-0.92368,0.29370499999999994,0.07838299999999987,0.0007089999999999597,0.9859134174527759,0.9942733297082931,double,-0.922971
29,0.120833,walk,-0.11929908785404969,-0.015362457993241029,0.004800768122904478,0.14313523924411692,0.1285564299064548,0.008251311057531099,-0.001200192030719457,-0.002880460873716037,0.004320691310609033,-0.001920307249161791,-0.00048007681230377255,-0.0009601536245808955,0.8571969592676331,-1.3833955669218356,0.11548576458658096,-0.5185106185463106,0.05743868129144125,0.4034811554760962,-0.17292444587162525,-0.46086452749890633,-0.9217290549718298,0.15990899999999997,0.061012999999999984,-0.922973,-0.133799,-0.017360000000000042,-0.923704,0.29370799999999997,0.07837300000000003,0.0007309999999999262,0.9838071374175413,0.9963333527804716,double,-0.922973
30,0.125,walk,-0.20686345092393293,0.03359731221502972,0.021118310535151643,0.28552674229735836,-0.1419069282935697,0.5942612060538391,-0.0002399808015427777,-0.0043196544276634255,0.0007199424046083507,-0.0021598272138317128,0.0023998080153744905,0.002399808015359504,-21.01376603548912,11.74940489759316,3.915896907186741,0.23043226042156909,-0.34537882264156156,-0.8641106085914756,-0.057480193105332734,0.6911170692772404,0.8063262874826964,0.16076999999999997,0.06085499999999988,-0.9230579999999999,-0.132946,-0.017490000000000006,-0.923782,0.293716,0.07834499999999989,0.0007240000000000579,0.9854503180215297,0.9932953145291173,double,-0.9230579999999999
31,0.129167,walk,-0.08327333813294598,-0.07007439404851949,-0.02831773458122183,-0.03547746805578677,0.4239746233461404,-0.4949066312145402,0.001679865610759479,-0.0011999040076872453,0.0016798656107494879,0.0,-0.0007199424046549763,0.0,29.659254329490484,-24.879219165718528,-11.863701731791078,0.46072628085007317,0.7486802063777723,0.2303631404226389,0.5183170659543342,-0.7486802063905601,-0.5759078510581958,0.161124,0.06114200000000003,-0.922933,-0.13259900000000002,-0.017201000000000022,-0.923664,0.293723,0.07834300000000005,0.0007310000000000372,0.9882541402662021,0.9988000959922417,double,-0.922933
32,0.133333,walk,-0.12770043206912543,-0.0072011521843433676,-0.004800768122904461,0.15098800881440425,0.08308403241548946,-0.09920405796533559,0.0014402304368713384,-0.000480076812303771,-0.0014402304368696728,-0.0009601536245808924,-0.00048007681225047176,0.0014402304368696728,-10.664208818093956,15.091992766244859,5.644975146019527,-0.057521645196385134,0.17278617267966245,-0.7489428822897644,-0.2304737456987258,0.057576954489799416,0.34571061854768886,0.16166199999999997,0.06116999999999995,-0.922919,-0.13207100000000005,-0.017172999999999883,-0.923638,0.293733,0.07834299999999983,0.0007189999999999142,0.9893223228168115,0.997006195081811,double,-0.922919
33,0.1375,walk,-0.13006959443245547,-0.017998560115202105,0.0004799616030589122,0.20159683648509008,0.0997884612265241,-0.010081752049114302,0.0014398848092167015,-0.0007199424046016899,0.0009599232061444676,-0.0009599232061444676,-0.0009599232061711108,0.0,-0.5685534829205756,-2.591170609757314,1.2672737523310218,-8.294400159273674e-05,-0.05756313710053245,0.5759907950597883,5.5296001061859185e-05,-0.11515392222717508,-0.34562765463635026,0.16221000000000002,0.06124200000000002,-0.922917,-0.131533,-0.01710199999999995,-0.92364,0.29374300000000003,0.07834399999999997,0.0007230000000000292,0.9896461500376355,0.997737439305025,double,-0.922917
34,0.141667,walk,-0.1247900167986484,-0.01703863690903111,0.000959923206144474,0.12652067223654073,0.06732567496996045,-0.03172159908082244,0.003839692824564574,0.003119750419976201,0.0009599232061428088,-0.0016798656107461687,0.002879769618460065,-0.0007199424046083555,1.2669972723319174,0.2303631404298057,0.11518157021491829,0.5759078510554083,0.9214525616937635,-3.980871907614186e-13,-0.17277235531598398,0.9214525617065509,-0.1727723553175809,0.16274599999999995,0.06132599999999999,-0.922917,-0.13102000000000003,-0.017018999999999895,-0.923647,0.29376599999999997,0.07834499999999989,0.0007300000000000084,0.9843006719462464,0.9943153866076129,double,-0.922917
35,0.145833,walk,-0.130100816130591,-0.02232357177145911,-0.0007201152184290069,0.10701921486404417,0.06859874888570469,-0.0973765229029378,-0.0004800768122904462,0.000480076812303771,0.0002400384061452231,-0.0024003840614655555,-0.0002400384061785351,-0.001680268843014896,-1.2747958069953398,-1.2685873409572719,-0.40327374569694663,-1.0369106185441712,-0.6336230455286673,-0.17279999999942036,-0.1729521005087341,-0.7488737457125775,-0.23051522765399418,0.163286,0.06142099999999995,-0.922913,-0.13048800000000005,-0.016927000000000136,-0.923651,0.29377400000000004,0.07834800000000008,0.0007380000000000164,0.9914198079692591,0.9951002365522561,double,-0.922913
36,0.15,walk,-0.13870890328772903,-0.03239740820734248,0.002639788816890625,0.13024510725331817,0.08948641368266576,0.012955950404038588,0.0009599232061444676,0.0038396928245778704,0.0014398848092150361,-0.0009599232061444676,-0.0014398848092033799,0.0011999040076805846,-2.0657756556606746,-2.4175273424246124,0.8063124634796326,0.34557235863568814,0.8062433434783048,0.2879401015286326,0.3456829506410095,-0.287940101517841,0.6911861892717729,0.16386799999999996,0.06157199999999996,-0.922918,-0.12991400000000008,-0.01679800000000009,-0.923657,0.29378200000000004,0.07837000000000005,0.0007389999999999342,0.9855905900428769,0.9964902950214531,double,-0.922918
37,0.154167,walk,-0.13294936405088886,-0.023518118550552778,0.0021598272138317128,0.05742355205909937,0.07353021820745492,-0.0014788764063777442,0.0007199424046150115,0.0038396928245778704,-0.0009599232061428024,0.005759539236866806,-0.0019198464122889352,0.0045596352291812255,1.3821788425342358,2.130859048905614,-0.11518157020852218,-0.057590785104261064,0.0,-0.5759078510577961,1.6125419829640668,-0.11518157021491597,0.8062709914808346,0.16442500000000004,0.06168600000000013,-0.9229310000000001,-0.129336,-0.016707999999999945,-0.923647,0.29376100000000005,0.07839400000000007,0.0007159999999999389,0.9861353145291336,0.9873455787380483,double,-0.9229310000000001
38,0.158333,walk,-0.20787325972153667,0.02136341814690487,0.019203072491591196,0.30123561798824566,-0.19899224863923873,0.44881321191187507,0.002400384061438906,0.0038406144983235695,-0.0007201152184356692,-0.002880460873742677,0.0021603456552870205,-0.0040806529044654614,-17.984612498955293,10.7732925341953,4.091033432011395,0.4033705369236421,0.0002212370969032811,0.05756312715005593,-2.073931855643177,0.9794028006663353,-2.0740009922339606,0.16530099999999992,0.06161300000000014,-0.923014,-0.1284820000000001,-0.016788000000000025,-0.923744,0.293783,0.07840100000000017,0.0007300000000000084,0.9850567878162375,0.9909299215484524,double,-0.923014
39,0.1625,walk,-0.15214782817375158,-0.025437964962788426,0.0021598272138317128,0.2035830467175977,0.008133317512400965,-0.02293102934788578,0.0026397888169039465,0.0011999040076872453,-0.0011999040076789193,0.0,-0.003359731221492315,0.001679865610751153,13.373033728770107,-11.23143343165185,-4.0900516625292695,0.057452545108001074,-0.6337198201671038,-0.11514009821052305,0.6912553092734999,-1.3247124734291649,1.3824138505439425,0.16594599999999998,0.06172400000000011,-0.923028,-0.12784800000000007,-0.016696000000000044,-0.9237460000000001,0.29379400000000006,0.07842000000000016,0.0007180000000001074,0.9875897396885583,0.9937395105021752,double,-0.923028
40,0.166667,walk,-0.13942884569235736,-0.02735781137507736,0.0105591552675625,0.24068862727511575,0.013013431270053834,0.014461471803193359,-0.0011999040076872453,0.005039596832211829,0.0,-0.004079673626094005,-0.0007199424046016899,0.0004799616030722338,3.0523116106057615,-0.4607262808468762,2.0156774786970915,-0.9214525616969493,0.9214525616809648,0.28795392552889804,-0.9790433467948165,0.6334986361628564,-0.28795392552889804,0.166522,0.061858999999999886,-0.9230719999999999,-0.12728399999999995,-0.016585000000000072,-0.9237879999999999,0.29380599999999996,0.07844399999999996,0.0007160000000000499,0.9842058774718975,0.9930492971774603,double,-0.9230719999999999
41,0.170833,walk,-0.09025444071049728,-0.08473355736919046,-0.02712433989436357,-0.02655536206335887,0.4188510854706625,-0.46889744618760615,0.006240998559775801,0.0028804608737693265,0.0002400384061452231,0.0026404224675907915,0.000480076812303771,0.003360537686029792,11.803745794973608,-13.772382619806303,-9.045486116640912,1.7861023925739417,-0.5182755541148587,0.05761843642468145,1.613081155469225,0.2880507001693375,0.6914488917324906,0.16692399999999996,0.06222400000000006,-0.9229580000000001,-0.12689700000000004,-0.016229999999999967,-0.9236610000000001,0.293821,0.07845400000000002,0.0007030000000000092,0.9815069268827556,0.9928322640153764,double,-0.9229580000000001
42,0.175,walk,-0.13990880729541721,-0.03287736981042825,0.0033597312214923374,0.13584286564161413,0.11549719837342835,-0.05647462952050805,0.0,0.004079673626094032,0.0004799616030705718,-0.000959923206144474,-0.0026397888168906425,-0.0019198464122872829,-11.916094692805428,12.444489454946606,7.315591820459822,-1.49771983675926,0.2877880375149299,0.0575769611051956,-0.8640138405892215,-0.7487078543783132,-1.2671908083314387,0.16750699999999996,0.062378000000000045,-0.92297,-0.12631800000000004,-0.016103999999999896,-0.923683,0.293825,0.07848199999999994,0.0007130000000000747,0.9860236506005291,0.99432947489051,double,-0.92297
43,0.179167,walk,-0.13942884569235736,-0.035757139428834794,0.0002399808015427777,0.10087919013466402,0.0862134486957112,-0.07744392829741972,0.0011999040076739237,0.0031197504199761807,-0.0004799616030705686,-0.0035997120230350926,0.0014398848092033799,0.0004799616030722338,0.11518157020874792,-0.6910894212638692,-0.7486802063713839,0.28795392552769916,-0.2303631404170508,-0.23036314042263964,-0.6334986361628548,0.979043346794821,0.5759078510581989,0.168093,0.06254000000000004,-0.922973,-0.12575199999999997,-0.01594899999999999,-0.923682,0.29384499999999997,0.07848900000000003,0.0007089999999999597,0.9872819513320937,0.9934889926421606,double,-0.922973
44,0.183333,walk,-0.14186269803168694,-0.0424867978876312,-0.0012001920307327777,0.09335701098207416,0.10417697075998696,-0.061795598291708734,0.002880460873742677,0.0031204992798945625,0.001920307249160119,-0.0014402304368846632,-0.0007201152184290069,-0.0009601536245792267,-0.5842180363249104,-1.6153764903495915,-0.34569679123273034,0.4033981915671512,0.0001797551412342282,0.5761567096089021,0.5183585180389889,-0.5184829639059975,-0.34568296391057596,0.168696,0.06272999999999995,-0.92296,-0.12516700000000003,-0.015775000000000095,-0.923681,0.29386300000000004,0.07850500000000005,0.0007209999999999717,0.9850221620103286,0.9968754001936538,double,-0.92296
45,0.1875,walk,-0.1389488840892718,-0.041996640268787154,-0.007679385649155741,0.10242476674435297,0.07809721253990251,-0.13105408736657947,0.0002399808015427777,-0.0004799616030855554,0.0011999040076789193,-0.0014398848092033799,0.0023998080153744905,-0.002159827213823387,0.6992594054271971,0.11762841824911038,-1.5548820778552812,-0.6336645241660419,-0.8640414885961398,-0.1728829473197022,8.294400798737e-05,0.7487216783785684,-0.2878986295282359,0.16927600000000004,0.06290299999999993,-0.9229229999999999,-0.12459399999999998,-0.015589999999999993,-0.923658,0.29387,0.07849299999999992,0.0007350000000000412,0.9904592850271674,0.9941081034066548,double,-0.9229229999999999
46,0.191667,walk,-0.14734821214302923,-0.04247660187187271,-0.008159347252214653,0.07437136546045198,-0.01275134925049792,-0.09119629704959141,0.0011999040076739237,-0.0004799616030855554,0.0,-0.0009599232061444676,-0.00023998080156942094,0.0014398848092150361,-2.015677478703484,-0.11518157021491582,-0.11518157020852207,0.2303631404202412,0.0,-0.28795392552889804,0.11518157020852215,-0.6334986361756441,0.8638617765870938,0.16989500000000002,0.06307799999999997,-0.922889,-0.12398399999999998,-0.015414000000000039,-0.9236179999999999,0.293879,0.078492,0.0007289999999999797,0.990556106388635,0.9970881889891604,double,-0.922889
47,0.195833,walk,-0.1457033125300105,-0.053048487758047665,-0.0040806529044488055,0.07264183582275564,0.06418645853475219,-0.06108029396601103,0.0016802688430098993,0.0007201152184290069,0.0031204992798845687,-0.0033605376860197985,-0.003600576092145034,0.0014402304368696728,0.39483908137751395,-2.537658638064078,0.979043290390265,0.1153060094421448,0.2880645274878928,0.7490396735200592,-0.5762396735178419,-0.8066719372481063,8.296391133862632e-05,0.17050900000000002,0.06330199999999997,-0.9228590000000001,-0.12339099999999992,-0.015207999999999888,-0.923595,0.29389999999999994,0.07850999999999986,0.0007359999999999589,0.9866124279191455,0.9914476082867989,double,-0.9228590000000001
48,0.2,walk,-0.14590832733379921,-0.04799616030717009,-0.0074394048476129635,0.04952585638875487,0.025836921617811058,-0.059246585076134686,0.0007199424046150115,0.0023998080153744905,0.0035997120230384233,-0.0035997120230350926,0.0011999040076872453,-0.0009599232061428024,-0.049199616939934104,1.2124615912833139,-0.8060359834807187,-0.23045990842209907,0.4030940237450161,0.11500185820826832,-0.057397249103742234,1.1520230621147767,-0.5759907950593888,0.17112,0.06351200000000001,-0.922813,-0.12279799999999996,-0.015002999999999878,-0.9235680000000001,0.29391799999999996,0.07851499999999989,0.0007550000000000612,0.9851403180215428,0.9934767192903378,double,-0.922813
49,0.204167,walk,-0.1559875209983305,-0.04823614110868655,-0.005519558435324065,0.08384604067790716,-0.009021583295566364,-0.01776456314901702,0.0002399808015294577,-0.0004799616030855586,0.0016798656107511643,-0.005519558435350708,-0.002879769618460065,-0.000479961603072237,-2.4188129744495646,-0.05759078510114218,0.4607262808468705,-0.11518157021491637,-0.6910894212767136,-0.4607262808464771,-0.460726280853282,-0.9790433468076154,0.11518157021131945,0.171771,0.06371099999999985,-0.922783,-0.12217100000000003,-0.014814000000000105,-0.923547,0.29394200000000004,0.07852499999999996,0.0007639999999999869,0.9894208474408601,0.9895931430834868,double,-0.922783
50,0.208333,walk,-0.15170427268362108,-0.044887181949150055,-0.0043206913106273405,0.033325346321030604,-0.013379172639569616,-0.041047446384131735,0.0038406144983235695,0.0036005760921983335,0.001920307249160119,-0.0033605376860197985,0.000480076812303771,-0.0009601536245792267,1.0281440985860326,0.8038788188997819,0.28777415379182036,0.8642903736903766,0.9794857645904678,0.05771522765457382,0.5182478995033384,0.8064921821324613,-0.11526452748607521,0.172419,0.06391300000000011,-0.9227569999999999,-0.12155300000000002,-0.014624999999999888,-0.9235329999999999,0.293972,0.078538,0.0007759999999999989,0.9829004116418899,0.9941202838627514,double,-0.9227569999999999
51,0.2125,walk,-0.1543076553875833,-0.048716102711771785,-0.0035997120230350926,0.03982628506385704,0.026088138666882157,0.0008601738977758579,0.004799616030722338,0.0016798656107195142,0.003119750419966189,-0.0035997120230350926,0.0004799616030855554,-0.001679865610751153,-0.6247618680014895,-0.9188674736313236,0.17302118732715313,0.23014195641919077,-0.4609336408636471,0.28784333352677444,-0.057397249103742234,-2.7648000531697147e-05,-0.17271705931651682,0.17308200000000007,0.06412299999999993,-0.922729,-0.12092499999999995,-0.014419999999999877,-0.9235249999999999,0.294007,0.07854299999999981,0.0007959999999999079,0.9820969531280335,0.9933312007037323,double,-0.922729
52,0.216667,walk,-0.15334773218141218,-0.048476121910255646,-0.007919366450671875,0.061012900959957365,0.03660316327595736,-0.062249750607049556,0.004319654427636783,0.0031197504199761807,0.0035997120230384233,-0.005759539236866806,-0.00023998080156942094,0.0014398848092150361,0.23036314042983164,0.0575907851010652,-1.0366341319022747,-0.11518157021491603,0.345544710644748,0.11518157021171915,-0.5183170659543344,-0.17277235532876783,0.7486802063753746,0.17373899999999998,0.064338,-0.9226810000000001,-0.12031000000000003,-0.014218999999999982,-0.923486,0.294049,0.07855699999999999,0.0008049999999999446,0.9812326485825359,0.9900972574968768,double,-0.9226810000000001
53,0.220833,walk,-0.15770523283725832,-0.052568410945743896,-0.007681228996647139,0.07878304685478783,0.06589954373871588,-0.07177366934021354,0.0,0.0016802688430365487,0.003600576092175015,-0.005040806529029698,0.0012001920307327777,-0.001680268843014896,-1.045967512205026,-0.9823065375631894,0.05716213490752191,-1.0368829639070523,-0.345530863403656,0.00020740977834651374,0.17252345363348717,0.3456967912391257,-0.7489567096087205,0.174396,0.06456400000000007,-0.922634,-0.11967399999999995,-0.01399499999999998,-0.923461,0.29406999999999994,0.07855900000000005,0.0008270000000000222,0.9851077622990534,0.9909211028021403,double,-0.922634
54,0.225,walk,-0.15142788576912325,-0.05183585313174796,-0.002639788816890625,0.07014956504179162,0.052488485241261124,-0.010909450161626697,0.0019198464122889352,0.0011999040076872453,0.004079673626108992,-0.007199424046096829,0.0009599232061711108,0.0,1.5064427809299408,0.17579981137411427,1.2098488552331434,0.4607262808468763,-0.11527833821677537,0.11497421020733774,-0.5180267619551545,-0.05765990510239182,0.4032322637424752,0.17503499999999994,0.06478500000000009,-0.922606,-0.1190730000000001,-0.01377499999999987,-0.92345,0.29410800000000004,0.07855999999999996,0.0008439999999999559,0.9837837332632462,0.9878947716578901,double,-0.922606
55,0.229167,walk,-0.21718262538997932,-0.026157907367390116,0.044396448284135,0.5177404336685452,-0.4047484909705008,0.49996655216761676,0.0021598272138317128,0.0038396928245778704,0.00191984641228727,-0.006959443244527408,-0.0007199424046549763,-0.0009599232061444676,-15.779875118995921,6.162214006325371,11.28779388073568,0.057590785107457965,0.6334986361628564,-0.5183170659519365,0.057590785113851864,-0.40313549575859986,-0.23036314042343814,0.17594900000000002,0.06491000000000002,-0.922783,-0.118197,-0.013669000000000153,-0.923639,0.294146,0.07857900000000018,0.0008559999999999679,0.9834306469904286,0.9882297904411281,double,-0.922783
56,0.233333,walk,-0.0991358617378772,-0.09673547767646494,-0.04632741238598142,-0.18824549341294394,0.4307225180795617,-0.5398674183273837,0.017762842054719858,0.027844455112819227,-0.028084493518962785,-0.008401344215076146,-0.0007201152184290069,0.0007201152184356692,28.33575699762411,-16.941327486575798,-21.77721091457426,3.7453228134633063,5.76206487955865,-7.202193934529532,-0.3461116107894232,-4.14819428781999e-05,0.4032737456985443,0.17643599999999998,0.06542900000000018,-0.922707,-0.11781900000000001,-0.013268999999999975,-0.923443,0.294255,0.07869800000000016,0.0007359999999999589,0.9203833006833855,0.985895261190745,double,-0.922707
57,0.2375,walk,-0.15166786657066703,-0.05255579553635,0.0035997120230351165,0.12081334078715822,0.013281956433739448,-0.02484200359254168,0.01727861771058721,0.011279097672164265,-0.0016798656107511643,-0.008879289656816402,0.0009599232061711172,-0.0014398848092150459,-12.606672626059547,10.60227553158512,11.981551334057311,-0.11620454622813789,-3.975367756336706,6.336603769669251,-0.11469773019924615,0.4031769677466124,-0.5183585379531384,0.17713999999999996,0.06569500000000006,-0.922729,-0.117224,-0.013045999999999891,-0.923464,0.29436399999999996,0.07874099999999995,0.0007349999999999302,0.9581459494021587,0.9849227447204589,double,-0.922729
58,0.241667,walk,-0.15118790496760712,-0.055195584353240276,0.002639788816890625,0.15932911876021,0.018780533859768283,-0.037988272960896734,0.005519558435324028,0.01127909767216419,0.003119750419966189,-0.006719462443011273,-0.0016798656107728006,0.0021598272138217216,0.11518157020876124,-0.6334986361627722,-0.23036314042344383,-2.8219484701855464,-1.7900914198944716e-14,1.1518157021159945,0.5183170659479546,-0.6334986361756455,0.8638617765866964,0.17779299999999998,0.06597199999999992,-0.922727,-0.116622,-0.012823000000000029,-0.923466,0.294415,0.07879499999999995,0.0007390000000000452,0.9710450842865563,0.9879079941941815,double,-0.922727
59,0.245833,walk,-0.1562650024004003,-0.04824771963511655,-0.0019203072491617847,0.07315683104120639,-0.009339849698354144,-0.05283700095311484,0.0019203072491617847,0.007921267402825673,0.001680268843014896,-0.004800768122904461,0.0002400384061785351,0.0002400384061452231,-1.218698375610463,1.6677543730493807,-1.0945981915632277,-0.8639585180418244,-0.8060082259573969,-0.34553086340645517,0.460560326477871,0.4608507001803491,-0.46082304552964404,0.17845200000000006,0.06620599999999999,-0.922712,-0.11599099999999996,-0.012620999999999993,-0.923457,0.294443,0.07882699999999998,0.0007449999999999957,0.9786798321143844,0.9919787415363297,double,-0.922712
60,0.25,walk,-0.15166786657066603,-0.0554355651548097,0.0031197504199761807,0.07865360058232004,-0.021293285005224503,-0.059054392404496205,0.002399808015361169,0.00743940484758632,0.0009599232061428024,-0.007679385649155741,-0.0009599232061711108,0.004559635229182891,1.1032243411889318,-1.7249449291320234,1.2095170792267724,0.11507097820959539,-0.11563776223646574,-0.1728691233194367,-0.6908129412650053,-0.2879677495439512,1.036620307904407,0.17909400000000003,0.06646799999999997,-0.922721,-0.11539100000000002,-0.012394000000000016,-0.923451,0.29448500000000005,0.07886199999999999,0.0007300000000000084,0.9795739788165968,0.9850292238443052,double,-0.922721
61,0.254167,walk,-0.14950803935686194,-0.06911447084234884,0.0047996160307223696,0.12424170791529547,-0.010438166591962412,-0.005464599334823933,0.0064794816414685385,0.007679385649155792,0.0019198464122872829,-0.0045596352291795905,0.00599952003838298,0.0007199424046066903,0.5183170659477084,-3.2826747510293304,0.4031354957394285,0.9790433467980305,0.057590785113864534,0.23036314042344275,0.7486802063777701,1.6701327680715456,-0.9214525616933579,0.17974400000000007,0.06678800000000007,-0.922733,-0.11478699999999997,-0.012081000000000008,-0.9234680000000001,0.29453100000000004,0.07886900000000008,0.0007350000000000412,0.9756008507431733,0.9873835610786643,double,-0.922733
62,0.258333,walk,-0.15410465674506,-0.06144983197312381,0.0033605376860197985,0.11728368704575193,-0.041878876055208396,-0.050455227216533255,0.005760921747472029,0.0064810369659143606,0.006000960153625581,-0.00048007681227712134,0.010081613058112695,-0.0076812289966388106,-1.1033647115213756,1.8398076978456621,-0.34543407218016564,-0.17248197167463006,-0.2876497079312123,0.9796240377672335,0.9792507001686188,0.9798591021914814,-2.0166037929057836,0.18040999999999996,0.0670710000000001,-0.922722,-0.114147,-0.011782999999999877,-0.923514,0.29455699999999996,0.07885399999999998,0.0007919999999999039,0.9745044818079043,0.9788608660367397,double,-0.922722
63,0.2625,walk,-0.14182865370770426,-0.06263498920082618,0.008159347252214599,0.0622013222740214,-0.037940724245600486,-0.09968180572468943,0.003119750419962838,0.006479481641468453,0.002879769618430053,-0.007919366450698465,0.0033597312214922927,0.0038396928245728493,2.9460050485614695,-0.2844149814500506,1.1516221661134542,-0.6338304121692275,-0.0003732480071773301,-0.7490258063824102,-1.785286690285886,-1.6131225909816056,2.7648000530865304,0.18101399999999995,0.06735899999999995,-0.922744,-0.11358900000000005,-0.011508000000000074,-0.923532,0.294603,0.07886700000000002,0.0007880000000000109,0.9792090229649106,0.9842990269367191,double,-0.922744
64,0.266667,walk,-0.1437485001199951,-0.06791456683466159,0.0023998080153745066,0.09918917073967588,-0.05592531405068407,-0.07087719909403377,0.005279577633794607,0.004799616030695727,0.005039596832253493,-0.002159827213805084,0.022558195344381818,-0.0038396928245729004,-0.4607262808473372,-1.2669972723387182,-1.3821788425342272,0.5183170659543511,-0.4031354957457968,0.5183170659523524,1.3821788425470156,4.6072628084688345,-1.8429051233851197,0.181635,0.06766199999999989,-0.922733,-0.11299899999999996,-0.011131000000000002,-0.923558,0.29463399999999995,0.07879299999999989,0.0008249999999999647,0.9771909449458579,0.9616927526520452,double,-0.922733
65,0.270833,walk,-0.15122419587134397,-0.06553048487757261,0.0007201152184290069,0.054251509594885235,0.03395871818331334,-0.06865786779986677,0.0024003840614522307,0.004080652904502104,0.007201152184348364,-0.020403264522323973,-0.006721075372039597,0.0048007681228994644,-1.7944540929786057,0.572271233098649,-0.40319078179200635,-0.6911170360879438,-0.17257876288853152,0.5188563015110105,-4.379125614142793,-7.028149475857272,2.0740424741892363,0.18227500000000002,0.06795200000000001,-0.922706,-0.11245399999999994,-0.010885999999999951,-0.9235410000000001,0.29472899999999996,0.07883799999999996,0.0008350000000000302,0.9772866434061029,0.9633138903104849,double,-0.922706
66,0.275,walk,-0.17326613870890206,-0.06479481641468453,-0.005039596832265082,0.10327830348129889,-0.07101543089406495,-0.035216566937739203,0.010319174466046297,0.004079673626093978,0.004799616030718976,-0.026157907367416584,0.013438924885969171,-0.011759059275257994,-5.2896431095651355,0.1765463073885477,-1.3822203145414074,1.9003576684890824,-0.00023500801730893137,-0.5763225710653637,-1.3810038025180147,4.838013020880397,-3.974040652305575,0.18304000000000004,0.06823899999999994,-0.922665,-0.11184099999999997,-0.010560000000000125,-0.923569,0.294881,0.07879900000000006,0.0009040000000000159,0.9708101852366879,0.9472133146266952,double,-0.922665
67,0.279167,walk,-0.17854571634268565,-0.06599472042237264,-0.0033597312214923374,0.12920797421587557,-0.03750060851389854,0.04204807752026894,0.006959443244540776,0.002879769618406779,0.005279577633787946,-0.019918406527491175,-0.012718982481367654,0.0007199424046066903,-1.2669972723262823,-0.28795392553110694,0.4031354957458013,-0.8062709914820112,-0.2879539255308869,0.11518157021093675,1.4973604127490867,-6.277395576514753,2.994720825501501,0.183813,0.06852599999999986,-0.922629,-0.11118000000000006,-0.010337999999999958,-0.923552,0.29499300000000006,0.07886399999999982,0.0009230000000000071,0.9754402120656586,0.9605935090294022,double,-0.922629
68,0.283333,walk,-0.1649063850216017,-0.04680748919825854,0.0021603456553136702,0.011077316275306521,-0.08927566690476868,-0.03051347020392924,0.004320691310600691,0.000480076812303771,0.00840134421507448,-0.00600096015361059,0.016802688430152292,-0.0012001920307244498,3.273963351196335,4.6056724013716,1.32503045530629,-0.6334018084349695,-0.5760184364145478,0.7493438745286923,3.3407216451945696,7.086334832337956,-0.4609060094409838,0.18451799999999996,0.06872299999999987,-0.9226030000000001,-0.110518,-0.010072999999999999,-0.923566,0.29503599999999996,0.07879599999999987,0.0009629999999999361,0.9746042290804681,0.9701959024928986,double,-0.9226030000000001
69,0.2875,walk,-0.252699784017273,-0.0595152387809041,0.05999520038396302,0.8389997558781697,-0.5505953332871965,0.44910184992343094,0.010079193664516976,0.0016798656107728119,0.00551955843532573,-0.016078713702913278,-0.0033597312215456238,0.0019198464122872829,-21.068730260540388,-3.049615930560507,13.879254794492363,1.3819300105390733,0.28792627753036903,-0.6915732612788017,-2.4184673744427037,-4.838593628917214,0.74874932637671,0.18561299999999997,0.06897799999999998,-0.92283,-0.10953200000000007,-0.009839000000000153,-0.923808,0.29514500000000005,0.07881700000000014,0.0009779999999999234,0.9708638626788648,0.9724370095927704,double,-0.92283
70,0.291667,walk,-0.09167266618672944,-0.08111351091911372,-0.07343412526998468,-0.4217402465252613,0.4967007460911452,-0.5704857372633226,0.01727861771057366,0.011999040076765801,0.0038396928245745146,-0.004799616030722306,0.017518598512116436,0.0014398848092150266,38.64341680598569,-5.183170659517506,-32.020476518825696,1.727723553169337,2.4764037595375354,-0.40313549574062946,2.7067668999738146,5.010398304214519,-0.11518157021172369,0.18606700000000004,0.06936599999999982,-0.922508,-0.10916999999999999,-0.009428000000000214,-0.923496,0.295237,0.07879400000000003,0.0009879999999999889,0.9544801801297158,0.9696313906523848,double,-0.922508
71,0.295833,walk,-0.15362457993278286,-0.0640902544407146,-0.0016802688430098993,0.1402610923068426,-0.013448985873327393,-0.009448769328443896,0.01056168987037649,0.0026404224675907915,0.009361497839653706,-0.012241958713373064,-0.00384061449827027,0.0052808449351899114,-14.87083863323413,4.08623535247218,17.223681331486972,-1.6123206529517915,-2.2464276546267405,1.3254452748629828,-1.7864480755282652,-5.12703144752441,0.9219779467054446,0.186751,0.06964399999999982,-0.922462,-0.10858099999999993,-0.00917699999999999,-0.923467,0.29533199999999993,0.07882099999999981,0.0010050000000000336,0.9660196168527206,0.976875746492903,double,-0.922462
72,0.3,walk,-0.16126709863211178,-0.06191504679627861,0.002879769618433422,0.09007057908571693,-0.09110087087231375,0.0423172241074779,0.007439404847613013,0.0016798656107728119,0.01103911687065146,-0.011999040076792603,-0.005279577633834572,0.004799616030717374,-1.8340577632178927,0.5220080740187205,1.0943216850116024,-0.749288462386248,-0.23051520441996282,0.40259635973068497,0.05829580911458202,-0.3453235266533022,-0.11548569821755214,0.187454,0.069909,-0.922428,-0.10795899999999992,-0.008941000000000088,-0.923459,0.2954129999999999,0.07885000000000009,0.0010310000000000041,0.9673275317998582,0.9767329980445314,double,-0.922428
73,0.304167,walk,-0.15022798176146165,-0.059755219582419444,0.0033597312214922927,0.1334159309995845,-0.04626455426347336,0.06974005488424823,0.007199424046083459,-0.0023998080153744745,0.009839212862970736,-0.006719462443011228,-0.0007199424046016851,0.004559635229181195,2.64917611486682,0.5183170659609182,0.11518157020851141,-0.057590785104284066,-0.9790433468075967,-0.28795392552932925,1.2669972723257341,1.094224917022523,-0.05759078510587413,0.18811000000000005,0.07014799999999988,-0.922401,-0.10736099999999993,-0.00869500000000012,-0.923454,0.295471,0.078843,0.0010529999999999706,0.9687603072298105,0.9864128567702801,double,-0.922401
74,0.308333,walk,-0.15362457993278286,-0.06433029284689314,0.007441190590495253,0.051814041660596395,-0.06251000598304464,0.06937249398779508,0.011281805088805498,-0.0012001920307327777,0.008161305808929258,-0.0036005760921716838,0.0024003840614655555,0.004560729716755908,-0.8153140113589067,-1.0981932944007893,0.9797070016809787,0.979928238771492,0.28795390893943734,-0.4027621349115405,0.7486525086028666,0.7489981915667878,0.00026271905297946935,0.188797,0.070411,-0.9223979999999999,-0.10673599999999994,-0.008416999999999897,-0.923466,0.29553299999999993,0.0788279999999999,0.001068000000000069,0.9660267904816724,0.9895216827862703,double,-0.9223979999999999
75,0.3125,walk,-0.15454763618910045,-0.0679145668346083,0.009119270458359181,0.1212684038392561,-0.08686097580578356,0.09869089108242571,0.00815934725222803,-0.0038396928245246096,0.014638828893688241,-0.008879289656843046,0.005519558435350708,0.0014398848092150459,-0.22151578025380106,-0.8601569444960833,0.4027069517312066,-0.7493299343838461,-0.6334295161487514,1.554481181847617,-1.2667899123281479,0.7485419663751308,-0.7489428623808206,0.189475,0.07067800000000002,-0.922375,-0.10612900000000003,-0.00811099999999998,-0.9234979999999999,0.29560400000000003,0.078789,0.0011229999999999851,0.9601143092743136,0.9824105004180856,double,-0.922375
76,0.316667,walk,-0.1451883849291985,-0.06935445164386497,-0.008639308855273623,0.08408226285603802,-0.049834471971387836,-0.03536867243762713,0.010559155267575893,-0.003839692824577896,0.014638828893688241,-0.008399328053757487,0.007439404847586369,-0.000479961603072237,2.2460406191269495,-0.3455447106447531,-4.261718097824072,0.5759078510554061,-1.2787705393164837e-11,0.0,0.11518157021491741,0.46072628083409467,-0.4607262808464828,0.19012399999999996,0.07095099999999999,-0.922278,-0.10555900000000007,-0.007791000000000103,-0.9234640000000001,0.29568300000000003,0.07874200000000009,0.0011860000000000204,0.957384046993099,0.9812825230673048,double,-0.922278
77,0.320833,walk,-0.16178588574173378,-0.07225156024966552,-0.0002400384061518855,0.2792460799849607,-0.12017052346272389,0.08733289433997188,0.007681228996647139,-0.010801728276541701,0.019683149303888304,-0.023043686989914765,0.029524723955855776,-0.01800288046087341,-3.9840376410310285,-0.6954173321652766,2.016147491387837,-0.6908128350765126,-1.6711558934142583,1.21083063134903,-3.515208578050232,5.301324797952326,-4.206173513634461,0.19083000000000006,0.07120700000000002,-0.922195,-0.10498099999999999,-0.007366999999999901,-0.923538,0.29581100000000005,0.07857399999999992,0.001342999999999983,0.9470202781587836,0.9307415360237234,double,-0.922195
78,0.325,walk,-0.16342692584591467,-0.06911447084234792,-0.006959443244554005,0.12408253008640446,-0.13530763552259314,0.10714838089348823,0.008159347252214599,-0.012718982481420772,0.01727861771058365,-0.011999040076792443,0.011279097672164114,0.00431965442764508,-0.3938181195538478,0.7528412304577797,-1.6125281589637792,0.11473920220001353,-0.4601042008349066,-0.5770414190795861,2.650503218891826,-4.378600020084359,5.3569798148592085,0.19154499999999997,0.071442,-0.922094,-0.10435000000000005,-0.007031999999999927,-0.923491,0.295895,0.07847399999999993,0.0013969999999999816,0.9477728985193088,0.9716248141740318,double,-0.922094
79,0.329167,walk,-0.15382769378449876,-0.06839452843769386,-0.006719462442984675,0.10461371242813836,-0.07883162349013825,0.09807385594204271,0.005759539236853522,-0.012239020878335383,0.02663786897048251,-0.00599952003838298,-0.0009599232061178308,0.000959923206144474,2.303631404227494,0.17277235532854945,0.057590785113830395,-0.575907851058577,0.11518157021487663,2.246040619126209,1.4397696276480674,-2.937130040384453,-0.8062709914808316,0.19220999999999994,0.07167599999999985,-0.9219550000000001,-0.10373399999999999,-0.0067509999999999515,-0.923459,0.29594399999999993,0.0784269999999998,0.0015039999999999498,0.9351675979811684,0.989748015664395,double,-0.9219550000000001
80,0.333333,walk,-0.15338454152665765,-0.06096975516082004,-0.012962073931828721,0.009023514589614479,-0.023570359489328667,0.07822034311087044,0.004800768122904461,-0.022563610177584344,0.02640422467594789,-0.005760921747485354,-0.0033605376860730975,-0.0004800768122904462,0.10637356165173102,1.7822307433686557,-1.4984665119644844,-0.23014189005018248,-2.478297959493268,-0.056083604064959276,0.05727275345598334,-0.5762396735370295,-0.3456553092738644,0.192869,0.07183600000000001,-0.921791,-0.10311899999999996,-0.0065110000000001556,-0.9234070000000001,0.295988,0.07834700000000017,0.0016160000000000618,0.9254032592846994,0.9888555062592095,double,-0.921791
81,0.3375,walk,-0.14590832733379824,-0.0628749700023956,-0.01535877129831138,-0.010207923654437071,-0.0020979977777108847,0.05350126418557573,0.0002399808015427761,-0.019678425725974776,0.036237101031916776,-0.005519558435323991,0.0007199424046016851,-0.000959923206142796,1.7941478744562867,-0.4572149847793489,-0.5751613550474298,-1.0945013970150348,0.692388877276109,2.35970154930857,0.05792256111383742,0.9792368828113155,-0.11515392221078621,0.19347799999999998,0.07201599999999986,-0.921576,-0.10253400000000001,-0.006246000000000196,-0.9233469999999999,0.296012,0.07826200000000005,0.001770999999999967,0.9135629731102992,0.990585871293548,double,-0.921576
82,0.341667,walk,-0.16030717542596729,-0.05999520038398966,-0.0045596352291795905,0.08851580379025235,-0.13551308079778912,0.13201080204510354,0.0016798656107461687,-0.023758099352015782,0.03623710103191893,-0.004079673626120675,-0.0009599232061178308,0.004079673626109019,-3.4554471063520817,0.6910894212637289,2.5915853297652625,0.3455447106319656,-0.9790433467821045,5.162124094579441e-13,0.3455447106319473,-0.4031354957330274,1.2094064872214647,0.19415299999999996,0.07216700000000009,-0.921406,-0.10188300000000006,-0.006000000000000005,-0.923311,0.296036,0.0781670000000001,0.0019050000000000455,0.9086774309665924,0.9902519337597316,double,-0.921406
83,0.345833,walk,-0.22611617858857364,-0.06553048487757261,0.0832933269323058,0.9596743332177388,-0.8075961168622036,0.42880759778797906,0.00024003840613856067,-0.03264522323575034,0.04368698991838563,-0.010801728276515052,-0.0007201152184290069,0.003360537686029792,-15.796688229142175,-1.3286808673986916,21.088085012358455,-0.3456138273181966,-2.133251052264654,1.7882594542646892,-1.6135512843001374,0.05756312714566101,-0.1726202448581916,0.19509599999999994,0.07230399999999992,-0.9215709999999999,-0.10098600000000002,-0.005730000000000013,-0.9236439999999999,0.29608199999999996,0.07803399999999994,0.0020729999999999915,0.8883744355886396,0.9811078269273354,double,-0.9215709999999999
84,0.35,walk,-0.16318694504440073,-0.06095512359010749,-0.005279577633781285,0.2002779900258636,-0.1697693219774183,0.09230113753271633,-0.0009599232061311524,-0.042956563474905264,0.041996640268779105,-0.013918886489081551,0.002879769618406779,0.01487880969522436,15.101807905969105,1.0979988690821088,-21.25579663213045,-0.2879677495247708,-2.4745236955015564,-0.4056514637884645,-0.7480581263658548,0.8639032485807071,2.764164149074786,0.195772,0.07237899999999997,-0.921374,-0.10036400000000001,-0.005464000000000135,-0.92356,0.296136,0.0778430000000001,0.0021860000000000213,0.8780025168414212,0.9657052218058987,double,-0.921374
85,0.354167,walk,-0.1612670986321096,-0.06839452843774624,0.008159347252214599,0.2331517542609986,-0.16383695843273005,0.11340208759919897,-0.002399808015361153,-0.04415646748259193,0.04415646748260192,-0.017518598512116436,0.010079193664530164,0.021838252939764845,0.4607262808473977,-1.7853143382862229,3.225083965921714,-0.34554471063834646,-0.28795392553075505,0.5183170659521958,-0.8638617765862387,1.7277235531853443,1.670132768068258,0.196434,0.0724800000000001,-0.9212239999999999,-0.09976499999999999,-0.005136999999999947,-0.923503,0.296199,0.07761700000000005,0.002279000000000031,0.8730553831023603,0.9504071933358784,double,-0.9212239999999999
86,0.358333,walk,-0.15602496399424842,-0.06457033125301838,0.006961113778218132,0.21307313839891437,-0.10885531109372287,0.08287572505891191,-0.0079212674027857,-0.04392702832454251,0.0554488718194899,-0.006961113778218132,0.006961113778218132,0.003840614498320238,1.2583136432696078,0.9179541970062066,-0.2876220532876779,-1.3253623109516426,0.05507420980542932,2.710610738571285,2.534201808424939,-0.74845892614307,-4.32012444585804,0.19705100000000003,0.07256600000000013,-0.921022,-0.09914400000000001,-0.004838999999999816,-0.923516,0.29619500000000004,0.07740499999999995,0.0024939999999999962,0.85642297560362,0.9823880935324909,double,-0.921022
87,0.3625,walk,-0.14662826973842852,-0.05135589152866275,-0.007439404847613013,0.20694984899396718,0.046493009552766265,0.14139113227984715,-0.010079193664503655,-0.043436525077990826,0.06671466282697433,-0.04247660187184635,0.0400767938564452,-0.00239980801535952,2.255026219299246,3.1712118368984163,-3.4558480023593057,-0.5178608739423969,0.11771136226342402,2.703573555911805,-8.523035299646848,7.947127448578654,-1.4975815967554098,0.19762000000000007,0.07259900000000008,-0.920713,-0.09870999999999996,-0.004458000000000073,-0.9234950000000001,0.29633000000000004,0.07705700000000015,0.002782000000000062,0.8384392880494502,0.9025866454668856,double,-0.920713
88,0.366667,walk,-0.14110871130307595,-0.0525557955363493,-0.00911927045835906,0.18992422345124155,0.07840632934661589,0.1069200890510343,-0.018958483321346448,-0.04511639068876303,0.07295416366690578,-0.011279097672190758,0.00767938564915569,0.006239500839932337,1.3245880574400108,-0.28795392553072674,-0.40313549573938895,-2.1308590489183405,-0.40313549574566676,1.4973604127505171,7.486802063752185,-7.774755989270281,2.073268263808925,0.19812899999999994,0.07262999999999997,-0.920371,-0.09816900000000006,-0.004207000000000072,-0.923431,0.296298,0.07683700000000004,0.0030599999999999516,0.8229871249308565,0.9749932020920759,double,-0.920371
89,0.370833,walk,-0.1433029284685716,-0.049207873259724096,-0.016562650024027056,0.18362118451517292,0.04709369464455984,0.11118602900011765,-0.013442150744119167,-0.04848775804129509,0.07273163706193098,-0.0040806529044488055,0.0038406144983235695,0.003600576092175015,-0.5266963911415367,0.8036299271783972,-1.7866969672750819,1.324131679603283,-0.8092576458310266,-0.053414931583006926,1.7279032087714707,-0.9214525086010843,-0.6334432903882189,0.19867,0.07263299999999995,-0.9199989999999999,-0.09758899999999993,-0.003986000000000045,-0.9233469999999999,0.29625899999999994,0.07661899999999999,0.0033480000000000176,0.8191198913933834,0.9888986742474826,double,-0.9199989999999999
90,0.375,walk,-0.13870890328772995,-0.063354931605482,-0.009839212862960876,0.17024478244695673,-0.01433998366983841,0.11049078905472094,-0.011759059275249823,-0.05207583393326445,0.07415406767458568,-0.008399328053757487,0.003119750419976201,0.0021598272138234013,1.102477845174388,-3.3950224011898213,1.6134958389887732,0.4039096397574642,-0.8610693285263682,0.34135603855404734,-1.0363991239041772,-0.1729935393202238,-0.34575207063873814,0.19919900000000001,0.07268000000000008,-0.9196489999999999,-0.09704599999999997,-0.0037089999999999623,-0.923297,0.296245,0.07638900000000004,0.0036480000000000956,0.8112319532343504,0.9846389373892632,double,-0.9196489999999999
91,0.379167,walk,-0.13750899928006935,-0.06863450923926329,-0.011279097672190909,0.1582811920709554,-0.015822928660787286,0.08114206363704382,0.0002399808015294577,-0.057835373170131286,0.0662347012239021,-0.03719702423806506,0.015838732901397142,-0.022798176145907945,0.2879539255245027,-1.2669972723257295,-0.34554471063835873,2.879539255286621,-1.382178842540646,-1.900495908491392,-6.910894212696841,3.0523116106121946,-5.989441651003477,0.19977300000000003,0.07272500000000015,-0.919326,-0.09662799999999994,-0.0033569999999998323,-0.923345,0.29640099999999997,0.07608199999999998,0.004018999999999995,0.8132567898420792,0.9226436652800667,double,-0.919326
92,0.383333,walk,-0.13850216034564047,-0.06625060009600162,-0.017042726836277527,0.08486011344122912,0.006404237639652553,0.07957074035795472,-0.011281805088805498,-0.06481036965914361,0.08449351896303524,-0.0141622659625615,0.00024003840612523588,-0.007681228996640476,-0.23839679922494564,0.5722297511429832,-1.3834923581580927,-2.765671121059757,-1.67426704008937,4.382817508193261,5.529226662386833,-3.744285764587589,3.628647899488108,0.200303,0.0727310000000001,-0.918903,-0.09611000000000003,-0.0030799999999999716,-0.9233060000000001,0.29641300000000004,0.07581100000000007,0.004403000000000046,0.7774979520160289,0.973145004885829,double,-0.918903
93,0.3875,walk,-0.13246940244780242,-0.06767458603309126,-0.01223902087833522,0.10013782726842674,-0.013032847425589612,0.08324693824887189,-0.02687784977201827,-0.06935445164391733,0.09503239740820674,-0.0021598272138050553,0.0016798656107195032,0.01367890568754525,1.4477460757950582,-0.3417292865585874,1.1527972061296545,-3.7427513038667275,-1.0904924369507298,2.5291284965614156,2.8803548713118197,0.345530886631691,5.126022242425141,0.200743,0.07272399999999979,-0.918456,-0.09556699999999996,-0.00279100000000021,-0.923198,0.29630999999999996,0.075515,0.004741999999999913,0.7514469917114893,0.9767501933776066,double,-0.918456
94,0.391667,walk,-0.1247900167986484,-0.059755219582473526,-0.011759059275249823,-0.029507626613020237,-0.0347791945325243,0.07762982835348246,-0.038156947444209534,-0.07079433645306836,0.10367170626349828,-0.0011999040076872533,0.0021598272138583707,0.01607871370290329,1.842905123387104,1.900495908475589,0.11518157021487871,-2.7067668999739207,-0.34554471061939873,2.0732682638088775,0.23036314041704042,0.11518157022771064,0.575907851057848,0.20110399999999995,0.07267800000000002,-0.9179750000000001,-0.09505200000000003,-0.0025329999999998964,-0.9230820000000001,0.296156,0.07521099999999992,0.005106999999999973,0.7302495291979421,0.9728875972640791,double,-0.9179750000000001
95,0.395833,walk,-0.12530004800768652,-0.06769083053285964,-0.012481997119551601,0.05624730050856163,-0.08465189746437776,0.07575881480868905,-0.026164186269796004,-0.07585213634181054,0.10393662986077833,0.009601536245782274,-0.014402304368686735,0.0012001920307261153,-0.12242707850170761,-1.9048514043173566,-0.17353284788808862,2.8787232775836586,-1.214066223893945,0.0635918380412974,2.592760502513087,-3.975547667437613,-3.5714166279829964,0.201517,0.07264399999999993,-0.91749,-0.09449000000000007,-0.002310999999999952,-0.923025,0.2960070000000001,0.07495499999999988,0.005534999999999957,0.7258087697693343,0.971081708483788,double,-0.91749
96,0.4,walk,-0.12622990160787675,-0.06887449004083179,-0.015358771298284736,0.04375566652056263,-0.1072641830107577,0.06565572226407264,-0.03455723542117396,-0.08735301175906604,0.11999040076793775,0.004079673626120621,-0.00623950083995232,0.011279097672185762,-0.2231470122846729,-0.2840555574687173,-0.690370573250087,-2.0141706626776803,-2.7599893009972196,3.852596809973435,-1.3251410174373914,1.9589161336055563,2.4187438544419413,0.201899,0.07256700000000005,-0.916926,-0.093947,-0.0020499999999998852,-0.922914,0.295846,0.07461699999999993,0.005987999999999993,0.6861381138360438,0.9774664970466113,double,-0.916926
97,0.404167,walk,-0.1286297096232263,-0.07631389488836579,-0.011279097672190909,0.017774089858955577,-0.1237554741101336,0.06551938059069622,-0.0405567554595574,-0.10607151427887113,0.14614830813534962,0.005759539236866844,-0.009839212862960876,0.007199424046076894,-0.5759078510558128,-1.7853143382611087,0.9790433467947804,-1.4397696276418217,-4.492081238254186,6.277395576532762,0.4031354957394366,-0.8638617765799321,-0.97904334679839,0.202266,0.07244299999999981,-0.91627,-0.093387,-0.0017730000000000246,-0.922837,0.295653,0.07421599999999984,0.0065669999999999895,0.6258600098981165,0.9775269229855605,double,-0.91627
98,0.408333,walk,-0.12578012481996365,-0.0789726356217051,-0.013442150744132493,0.08560699382317147,-0.17435917197284698,0.03161537427874937,-0.043206913106100184,-0.10249639942389699,0.13634181469035014,0.0012001920307327777,0.010561689870363166,0.012001920307247829,0.6840097943501355,-0.6381998879835119,-0.5192158117958673,-0.6361396175090693,0.8581648715732441,-2.353935056408899,-1.0944184364220026,4.897000176025931,1.1527835480487112,0.20260999999999996,0.07234499999999988,-0.915646,-0.092858,-0.0014000000000000679,-0.922731,0.29546799999999995,0.07374499999999995,0.007085000000000008,0.635885615735567,0.9732794375428307,double,-0.915646
99,0.4125,walk,-0.12095032397409715,-0.07559395248381738,-0.015118790496742161,-0.03735139168095512,-0.13216031888278898,0.056474159501736704,-0.040316774658027944,-0.09743220542354422,0.144228461723064,0.0007199424046016947,0.0023998080153745066,0.006959443244540776,1.159059478249706,0.8108190875660527,-0.40236135171818516,0.693577741318036,1.2153093353378441,1.892643876341229,-0.11525069021624329,-1.9586949496013213,-1.2100976872347209,0.20294600000000002,0.07225400000000004,-0.9149820000000001,-0.09235099999999996,-0.0010749999999999371,-0.9226390000000001,0.295297,0.07332899999999998,0.007657000000000025,0.625658992981355,0.9876721582213963,double,-0.9149820000000001
100,0.416667,walk,-0.1127909767218543,-0.07247420206384021,-0.009839212862987388,-0.04402781654716781,-0.1661721748885953,0.017946309335772775,-0.03599712023037733,-0.09599232061433954,0.13942884569234312,-0.0021598272138316985,0.004079673626093978,-0.001679865610751142,1.9580866936027805,0.7486802063780045,1.2669972723193503,1.0366341319055874,0.3455447106322695,-1.1518157021168323,-0.6910894212703074,0.40313549573301133,-2.0732682638089397,0.203266,0.07215600000000011,-0.91436,-0.09189000000000003,-0.0007559999999999789,-0.922605,0.29515600000000003,0.07291200000000009,0.008245000000000058,0.629112055138633,0.9918128591750981,double,-0.91436
101,0.420833,walk,-0.11617858857418137,-0.07657225156023956,-0.01032165146423793,-0.01958685823309702,-0.12841450937337168,0.0040698497684281115,-0.03528564570331448,-0.10369659145462977,0.15338454152664432,-0.0012001920307327777,0.0038406144983235695,0.0028804608737393457,-0.8131569496704432,-0.9836892694189491,-0.1158037929069952,0.1707812114889217,-1.8493208930125347,3.3499029847098396,0.23034929983171387,-0.057383372004418634,1.0946535008378502,0.20360300000000003,0.07204300000000008,-0.913678,-0.09141100000000002,-0.0004210000000000047,-0.92255,0.29501400000000005,0.07246400000000008,0.008871999999999991,0.5971459280774674,0.99175246914382,double,-0.913678
102,0.425,walk,-0.11399088072954305,-0.08615310775137995,0.0007199424046283379,-0.0022346152388163926,-0.19077077361656744,0.012826364482585045,-0.037916966642666756,-0.11687065034800312,0.16510679145668467,-0.002159827213805084,0.002879769618406779,-0.0023998080153578545,0.5250078820826319,-2.2992215481498555,2.649770546884169,-0.6314665081238999,-3.161521212712605,2.8131149340149766,-0.23029402041572153,-0.23058432443407634,-1.2671631603305087,0.20392000000000005,0.07191499999999995,-0.912993,-0.09094499999999994,-5.0000000000105516e-05,-0.922563,0.294865,0.07196500000000006,0.009569999999999967,0.561287618229363,0.9927894742911707,double,-0.912993
103,0.429167,walk,-0.1231101511879006,-0.08663306935446435,-0.007439404847612913,0.021238500158793906,-0.13951250400764134,0.04192799670449364,-0.049916006719472016,-0.12598992080630733,0.16774658027357642,0.0031197504199495167,0.0,0.005039596832253425,-2.188449834019073,-0.11518157021463862,-1.958086693602397,-2.879539255292817,-2.1884498340062737,0.6334986361631227,1.266997272319309,-0.6910894212639205,1.7853143382796313,0.204225,0.07175100000000012,-0.912263,-0.09041900000000003,0.0003109999999999502,-0.9225110000000001,0.294644,0.07144000000000017,0.010248000000000035,0.5381069635971365,0.990121519050308,double,-0.912263
104,0.433333,walk,-0.11449831973114483,-0.08377340374458292,-0.006961113778218132,0.027196185083926776,-0.18639056969818968,-0.056183624182642854,-0.05664906385020602,-0.1356216994719511,0.17570811329812674,-0.00048007681227712134,0.0024003840614655555,0.0012001920307244498,2.0671702968688828,0.6864295751035603,0.11480822597090275,-1.6161923021445037,-2.3119967992423818,1.9110736976837064,-0.8640967912209878,0.5761843642500128,-0.9216046091044101,0.20446599999999998,0.0715349999999999,-0.911502,-0.08994400000000002,0.0006699999999999484,-0.922477,0.29441,0.07086499999999996,0.010974999999999957,0.5084570700790214,0.99545614630675,double,-0.911502
105,0.4375,walk,-0.11543076553877309,-0.09527237820973913,0.001919846412288948,0.051506818102164904,-0.20342432795814092,-0.004223354927884604,-0.06815454763619104,-0.15070794336449592,0.18934485241180765,0.002879769618433422,0.0033597312214923374,-0.0023998080153578545,-0.2237690923033994,-2.759533108988788,2.131259944926117,-2.7610952210187385,-3.6204089014986565,3.272555582836809,0.8062986394793766,0.2302249004143958,-0.863930896588031,0.20466300000000004,0.07130400000000003,-0.910721,-0.08945099999999995,0.0010809999999998876,-0.922495,0.294114,0.07022300000000015,0.011773999999999951,0.463235339854896,0.9916102003986159,single,-0.910721
106,0.441667,walk,-0.09791216702662978,-0.08183345332376978,-0.0014398848092033894,-0.10669721975447628,-0.22647108601534488,-0.11360747505789111,-0.06863450923926329,-0.15022798176146365,0.17686585073194283,-0.001919846412288948,0.0014398848092566758,0.0016798656107511643,4.2041273127294,3.225083965915391,-0.8062709914788473,-0.11518157021172273,0.11518157020212784,-2.994720825501534,-1.1518157021172062,-0.46072628083409467,0.9790433467984262,0.204785,0.07101900000000017,-0.9099780000000001,-0.08905099999999999,0.0014280000000002069,-0.922482,0.293836,0.06959099999999996,0.01250399999999996,0.47163812854519227,0.9951177683322039,single,-0.9099780000000001
107,0.445833,walk,-0.10705712914067622,-0.09601536245798263,0.006240998559762475,0.03282946130647977,-0.15677423912458105,-0.0639724981518219,-0.05688910225635791,-0.18242918867020966,0.17138742198751938,0.0026404224675907915,0.0016802688429832496,-0.0004800768122904462,-2.195142130111963,-3.40420286466943,1.8437070016720736,2.81934877170076,-7.7295263823202065,-1.3150333039902649,1.0946396735188997,0.05770140031842862,-0.5184691365918409,0.20499400000000007,0.07065900000000003,-0.90929,-0.08859399999999995,0.001835000000000031,-0.92251,0.293588,0.068824,0.01322000000000001,0.43998115447873476,0.9947227932636464,single,-0.90929
108,0.45,walk,-0.11087113030956537,-0.09911207103431571,0.006479481641468453,0.0447024966713764,-0.1989906565180802,-0.057228483724529,-0.06791456683466068,-0.19918406527474924,0.18118550515958387,0.0002399808015427761,0.0021598272138050553,0.0021598272138233727,-0.9152870575687835,-0.7431506062714323,0.05723136110054608,-2.6458998268065006,-4.020848717192095,2.3513518531472073,-0.5760599150583147,0.11508480221305545,0.6335262841645785,0.205173,0.07024200000000014,-0.908562,-0.08813099999999996,0.0022569999999999535,-0.922528,0.29330399999999995,0.06798500000000018,0.013966000000000034,0.3975139361762566,0.9948935503820675,single,-0.908562
109,0.454167,walk,-0.10415166786658217,-0.09047276217899011,0.001919846412288948,0.048330309015364586,-0.15645334356925,-0.07938662200301656,-0.06047516198703525,-0.2003839692824924,0.1941444684425267,-0.0011999040076872533,0.00023998080156942253,-0.0019198464122872829,1.6125419829573409,2.0732682638170505,-1.0942249170097265,1.7853143382830512,-0.28795392554431865,3.109902395714639,-0.34554471063835795,-0.4607262808340878,-0.979043346798819,0.20535500000000007,0.06978399999999985,-0.907761,-0.08770199999999995,0.002634999999999943,-0.922544,0.293057,0.0671489999999999,0.01478299999999999,0.3763576683280469,0.9962055703621557,single,-0.907761
110,0.458333,walk,-0.10273643783004888,-0.10633701392227386,0.018242918867010304,0.04850600485020777,-0.22722224005297859,-0.09956230138476559,-0.07033125300047707,-0.20811329812768856,0.20067210753720663,0.0002400384061518855,0.0014402304368580138,-0.0002400384061452231,0.3397095622979579,-3.8080297031406,3.9181642954203895,-2.365840377686465,-1.8553357765713243,1.566884084176651,0.3456414819585064,0.28810600943077064,0.4032184364239219,0.20549000000000006,0.06936000000000009,-0.907001,-0.08727299999999993,0.0030840000000000867,-0.922621,0.292763,0.066276,0.015620000000000078,0.3479087575843718,0.9975338398131999,single,-0.907001
111,0.4625,walk,-0.0943124550035934,-0.10463162946961306,0.014158867290624141,0.0036613928746902515,-0.2556553303323055,-0.14033630624323812,-0.0691144708423346,-0.21574274058074785,0.20542356611470822,0.0009599232061444612,0.003839692824577845,-0.0009599232061444612,2.021594150817232,0.4092595278763592,-0.9800939708150064,0.29200435760558235,-1.8309197151570051,1.140258837893341,0.1727585313157116,0.5758249070601902,-0.17275853131731045,0.20559500000000003,0.06889699999999999,-0.906204,-0.08687599999999995,0.0035359999999999836,-0.9226840000000001,0.292471,0.065361,0.01648000000000005,0.3352,0.9932123179151692,single,-0.906204
112,0.466667,walk,-0.08327333813294653,-0.10055195584352042,0.01079913606910535,-0.04930532385928881,-0.2734645983705539,-0.17342651914522622,-0.06431485481161316,-0.2092632589392822,0.19486441084713504,0.0016798656107461687,0.0,0.0028797696184317567,2.649176114866076,0.9790433467944961,-0.8062709914851955,1.1518157021169841,1.5549511978559405,-2.5339945446540035,0.1727723553159855,-0.9214525616937526,0.921452561693362,0.20567400000000002,0.06844399999999995,-0.9054369999999999,-0.08652199999999999,0.003954999999999931,-0.922717,0.292196,0.06448900000000002,0.017280000000000073,0.3387226301553383,0.9944434669268684,single,-0.9054369999999999
113,0.470833,walk,-0.0866538646183256,-0.11881901104179882,0.027844455112819227,0.013275183710158565,-0.28563955366200994,-0.1433014289224408,-0.06072971675468148,-0.23283725396061322,0.1973115698511735,-0.0012001920307327777,0.0033605376860197985,-0.0002400384061452231,-0.8114561894812921,-4.384794814757173,4.091531215485805,0.860570824995601,-5.658664191390066,0.587412146912738,-0.6913244458662853,0.8066581099423419,-0.7488737456977862,0.20578199999999996,0.06796900000000017,-0.904731,-0.08616600000000008,0.0044640000000000235,-0.9228339999999999,0.29194800000000004,0.06350500000000014,0.01810299999999998,0.3189700000000001,0.9940391804985904,single,-0.904731
114,0.475,walk,-0.07871370290379358,-0.11687065034794983,0.017998560115202226,-0.00576799533269391,-0.2333512820926634,-0.19533095445465395,-0.05447564194865227,-0.23086153107754617,0.18430525557955582,-0.0047996160307223696,-0.00023998080151613608,0.0019198464122872829,1.905486372577889,0.4675691609908806,-2.3628257733662243,1.5008578848162328,0.47413556109120725,-3.121265723930349,-0.8637926565849802,-0.8640553125836224,0.5183308899526082,0.20588300000000004,0.06749399999999994,-0.904038,-0.08585799999999999,0.00495000000000001,-0.9229010000000001,0.29174100000000003,0.06254399999999993,0.018863000000000074,0.31137000000000004,0.9913751465271325,single,-0.904038
115,0.479167,walk,-0.08375329973600433,-0.11567074634031432,0.004079673626093978,0.03987852746665773,-0.16201395339558206,-0.16295057890452266,-0.0691144708423346,-0.2538996880249569,0.1903047756179496,0.0019198464122889224,0.0035997120230084256,0.0021598272138217073,-1.2094064872115944,0.28795392551847754,-3.340265536143063,-3.513037891452416,-5.528715370148916,1.439769627644282,1.6125419829640606,0.9214525616809532,0.057590785105452985,0.20594399999999996,0.06691800000000003,-0.903262,-0.08550100000000005,0.00544699999999998,-0.922909,0.291445,0.06147100000000005,0.01964699999999997,0.30352999999999997,0.992306461858421,single,-0.903262
116,0.483333,walk,0.014402304368686735,-0.11233797407583115,-0.12409985597695375,-1.0217366434812107,1.0403915364131413,-0.6079168567555803,-0.07729236677868188,-0.2724435909745284,0.18098895823331831,-0.0036005760921716838,-0.0014402304368580138,0.0004800768122904462,23.561114763487996,0.7999933424107457,-30.768009986329247,-1.9630091061803352,-4.4512489077224,-2.2361539569446154,-1.3251134192176193,-1.2097797551287652,-0.4032046091049592,0.20556200000000002,0.06625100000000006,-0.901991,-0.08557599999999999,0.005908999999999942,-0.9223899999999999,0.291138,0.06034200000000012,0.020398999999999945,0.29600999999999994,0.993487429750332,single,-0.901991
117,0.4875,walk,-0.06143508519316641,-0.1319894408447453,-0.0014398848092033894,-0.17510056721838024,-0.24173611604852643,-0.2531507007074771,-0.08111351091912812,-0.2884569234461613,0.18046556275497794,-0.0067194624430113176,0.003839692824577896,-0.00551955843532573,-18.199517533442183,-4.715974746559694,29.43603819720448,-0.9170012336084133,-3.8428923618029716,-0.12560486641237825,-0.7484728463738065,1.2670802163273194,-1.4397972756458388,0.20547999999999994,0.06559899999999996,-0.9012330000000001,-0.08534800000000009,0.0064750000000000085,-0.922407,0.29082800000000003,0.059123999999999954,0.021173999999999915,0.28826,0.9841570255816716,single,-0.9012330000000001
118,0.491667,walk,-0.0645548356131684,-0.1550275977921573,0.021838252939753187,-0.2777695593039842,-0.6065939683131908,-0.19759105254059242,-0.1387089032877281,-0.36813054955601454,0.2502999760019185,0.0004799616030855522,-0.0004799616030855522,-0.0002399808015344501,-0.7486802063839609,-5.5287153701492295,5.586306155257115,-13.821788425389862,-19.120140655112223,16.758918465788344,1.7277235531789812,-1.036634131908667,1.2669972723281113,0.20517100000000005,0.06471099999999996,-0.900281,-0.08507699999999996,0.007118999999999875,-0.922499,0.290248,0.05759200000000009,0.02221799999999996,0.27782000000000007,0.9988000959922907,single,-0.900281
119,0.495833,walk,-0.049207873259724096,-0.1557849255881232,0.007441190590495253,-0.3192345763496652,-0.5711613816879892,-0.24674543929743742,-0.05928948631781014,-0.35309649543927,0.17138742198751938,-0.004560729716752576,0.004800768122931111,-0.0012001920307261153,3.6838603824878273,-0.18178775707294906,-3.4558478994858195,19.063710266422927,3.6087503880807756,-18.942043690446244,-1.2099595102827951,1.2675779467154726,-0.2304875730176823,0.20512900000000006,0.06388900000000008,-0.899598,-0.08489099999999994,0.007788000000000128,-0.922535,0.29002,0.056100999999999956,0.022936999999999985,0.2706299999999999,0.9887839288134739,single,-0.899598
120,0.5,walk,-0.04151667866570188,-0.15406767458604154,-0.014638828893683247,-0.32977100668118353,-0.30809979143520705,-0.2556025100734418,-0.0475161987041115,-0.35133189344850446,0.1783057355411562,-0.0007199424046016947,-0.0035997120230617597,0.005999520038397967,1.8457390434418677,0.41210727191785,-5.298780773740971,2.82536299824783,0.42347060013572535,1.6602624318782941,0.9217152176988009,-2.0159539587216027,1.7277926731759354,0.205104,0.0630670000000002,-0.898794,-0.08472099999999994,0.008415000000000061,-0.922449,0.28982499999999994,0.054652000000000145,0.02365499999999998,0.2634500000000001,0.9882774570916097,single,-0.898794
121,0.504167,walk,-0.03575713942883455,-0.16726661867049253,-0.023038156947440425,-0.2006714272077099,-0.1989940300305761,-0.21966848450790005,-0.08135349172065649,-0.3983681305495517,0.16510679145668414,-0.0011999040076872372,0.0011999040076872372,-0.0028797696184317185,1.3821788425407442,-3.1674931808137488,-2.0156774787034113,-8.120300699914743,-11.287793880740798,-3.1674931808188043,-0.11518157021491214,1.1518157021235806,-2.130859048915195,0.20491399999999999,0.06210400000000016,-0.89801,-0.08457700000000001,0.009117000000000042,-0.922365,0.289491,0.05298700000000012,0.024355000000000016,0.25644999999999996,0.9944290903618863,single,-0.89801
122,0.508333,walk,-0.040806529044647946,-0.16490638502157504,-0.010081613058086044,-0.29844264352550887,-0.324824405384622,-0.21480482157401692,-0.0789726356217051,-0.42870859337495537,0.1694671147383576,-0.0014402304368846632,0.0026404224675907915,-0.0024003840614488996,-1.2120474353848754,0.5665467232159123,3.110068144348145,0.5714969032528535,-7.282876338311,1.0466450508097596,-0.05768757301906525,0.3457797551376748,0.11507094502708079,0.20475499999999996,0.061004999999999976,-0.897262,-0.08441300000000007,0.009814999999999907,-0.9223330000000001,0.28916800000000004,0.05119000000000007,0.025071000000000065,0.24929,0.9935864860210072,single,-0.897262
123,0.5125,walk,-0.029997600191995228,-0.17422606191505116,-0.013438924886022816,-0.1865571996194611,-0.15586367542417784,-0.20819451950932688,-0.07391408687304556,-0.4398848092152648,0.1723062155027622,-0.0009599232061178436,-0.002879769618406817,-0.0009599232061444868,2.5939354098039176,-2.2365435309518364,-0.8056903834741624,1.2139545833116494,-2.682077235495473,0.6813296770829518,0.11526451422290107,-1.324740121429737,0.34568295063701465,0.20457200000000003,0.05989800000000001,-0.896488,-0.08429199999999992,0.01052900000000001,-0.922281,0.28886399999999995,0.049368999999999996,0.025793000000000066,0.24207,0.9946938248294932,single,-0.896488
124,0.516667,walk,-0.03791696664266625,-0.1723062155027576,-0.006239500839925676,-0.06985560136651156,-0.17934787440493213,-0.17416460002468512,-0.06695464362851622,-0.4710823134149614,0.16750659947204197,-0.0009599232061444612,-0.0019198464122889224,-0.005279577633787876,-1.9004959084883517,0.46072628084798384,1.727723553179046,1.6701327680655829,-7.486802063762021,-1.151815702116679,-6.387712266711765e-12,0.23036314041705958,-1.0366341319038532,0.204451,0.058652999999999844,-0.895764,-0.08413799999999994,0.011238999999999999,-0.922277,0.28858899999999993,0.047413999999999845,0.02651300000000001,0.23487000000000002,0.9905012862274722,single,-0.895764
125,0.520833,walk,-0.03432549207873359,-0.17018722995680993,-0.0016802688430098993,-0.10317655747390667,-0.22642444375365517,-0.1938281006937764,-0.07129140662505797,-0.5062409985597491,0.16658665386461827,-0.004080652904475455,-0.006961113778218132,-0.0043206913106106845,0.862091830036644,0.5086379130935345,1.0943907817848713,-1.0409896775184213,-8.439434744308146,-0.22082227734606322,-0.7490949827966854,-1.2100977834683642,0.23016954468967615,0.204297,0.057253,-0.895063,-0.08401199999999998,0.011919000000000013,-0.922288,0.288309,0.045333999999999985,0.027224999999999944,0.22774999999999995,0.9847450184309728,single,-0.895063
126,0.525,walk,-0.034797216222690094,-0.17086633069355422,0.0026397888168906074,-0.08592915975676883,-0.308615225460314,-0.14056305640311395,-0.07991360691143981,-0.5433165346772322,0.16366690664746744,0.0023998080153478313,0.020878329733608727,0.006479481641468453,-0.11320473817050698,-0.16297113912749875,1.0367308999041212,-2.069162535728769,-8.897416874845876,-0.7006832774539964,1.5551862058611081,6.680931968280932,2.591834161766032,0.20410899999999998,0.055701,-0.894392,-0.08385700000000007,0.012718000000000007,-0.922272,0.28796600000000006,0.04298299999999999,0.027880000000000016,0.22119999999999995,0.9633466913226884,single,-0.894392
127,0.529167,walk,-0.027357811375103822,-0.17878569714422607,0.013918886489081366,-0.0028140216813159835,-0.24391809312997426,-0.1947307634143653,-0.08639308855292158,-0.5896328293736292,0.15166786657067166,0.0019198464122889224,0.00455963522917953,-0.003599712023036734,1.7853143382736298,-1.900495908488549,2.7067668999737635,-1.5549511978597832,-11.115021525413157,-2.8795392552905423,-0.11518157020852057,-3.916173387192002,-2.418812974443271,0.20386300000000002,0.053989000000000065,-0.893818,-0.083735,0.013481999999999994,-0.922345,0.287598,0.04050700000000007,0.02852699999999997,0.21473000000000003,0.9898027767506774,single,-0.893818
128,0.533333,walk,-0.024963994239077216,-0.1646663466154542,-0.001920307249161836,0.07299258913126738,-0.141734015120566,-0.13408405185414546,-0.08281325012001756,-0.6142582813250226,0.14066250600096455,-0.001680268843009944,0.0009601536246075675,0.0009601536245792523,0.5746080499343899,3.3891863967288116,-3.8020148195495946,0.8592987116908576,-5.9110542370124985,-2.6417092102034068,-0.8641659278202015,-0.8640138273096629,1.0945428822890313,0.20362200000000003,0.05211600000000005,-0.893224,-0.08363799999999999,0.014172000000000073,-0.922333,0.28726,0.03794399999999998,0.02910899999999994,0.20890999999999998,0.9963994239078117,single,-0.893224
129,0.5375,walk,-0.036717062634979016,-0.17518598512116434,0.014158867290624141,0.10032171512594786,-0.21254282867451446,-0.15373950404909398,-0.06551475881929952,-0.6486681065515002,0.11663066954643547,0.0019198464122889224,0.00047996160303226577,0.0011999040076789112,-2.820510774154478,-2.5245112804679763,3.8586931940930778,4.151305807707679,-8.25769743855948,-5.767179374736957,0.8639585445881542,-0.11523686622877324,0.05753548910478932,0.20350199999999996,0.05014299999999983,-0.8927970000000001,-0.08347700000000002,0.014903999999999806,-0.9223870000000001,0.286979,0.03523900000000002,0.029590000000000005,0.20409999999999995,0.9961428482677528,single,-0.8927970000000001
130,0.541667,walk,-0.02999760019199443,-0.176625869930421,0.01511879049674196,0.11486257574000162,-0.21208939304888094,-0.21457750615752616,-0.06551475881928621,-0.6882649388048593,0.10727141828653697,-0.0014398848092033701,0.003599712023061712,-0.006719462443004568,1.6125419829576515,-0.3455447106447452,0.23036314041704137,3.1938561333558826e-12,-9.502479542442712,-2.2460406191260938,-0.8062709914788257,0.7486802063905501,-1.900495908491341,0.20335400000000003,0.048011000000000026,-0.8924129999999999,-0.08335799999999993,0.015654999999999974,-0.9224779999999999,0.28671199999999997,0.03235600000000005,0.03006500000000001,0.19934999999999992,0.9870704504637526,single,-0.8924129999999999
131,0.545833,walk,-0.02496399423907655,-0.16682669227079014,0.015602496399419514,0.13689229983782153,-0.2565951228092848,-0.18947729928001894,-0.05472875660105756,-0.7117138742199002,0.07921267402784367,0.0021603456552870205,0.0021603456552870205,0.001920307249160119,1.2082587501003064,2.352178986949319,0.1161079939216402,2.589054781139857,-5.628645082823062,-6.7351762502864325,0.8641935824508853,-0.3455032087793304,2.073876546366942,0.20323000000000002,0.04574100000000003,-0.8921479999999999,-0.08324500000000001,0.016359000000000012,-0.922535,0.28647500000000004,0.02938200000000002,0.030387000000000053,0.19612999999999997,0.9939857191637524,single,-0.8921479999999999
132,0.55,walk,-0.03287736981040117,-0.16750659947200866,0.028317734581248283,0.129705695010863,-0.40469726537737993,-0.17328700525348656,-0.058075353971686616,-0.7528197744180277,0.05471562275017767,0.0004799616030855522,0.00023998080156941934,-0.00479961603071731,-1.8990582124608981,-0.16316467511843444,3.051413050594834,-0.8031191194214133,-9.864626877400344,-5.878822000879725,-0.40325991173541054,-0.4608506968364739,-1.6126525749645737,0.20312499999999994,0.04330199999999995,-0.892038,-0.08310600000000001,0.017058000000000018,-0.922673,0.28623099999999996,0.026243999999999934,0.030634999999999968,0.19365000000000004,0.9919507992170586,single,-0.892038
133,0.554167,walk,-0.017278617710600762,-0.16726661867049697,0.011279097672191058,0.18526296583343674,-0.09947550340105399,-0.19535318494884604,-0.03983681305495624,-0.772498200144023,0.04823614110871383,0.00023998080151613928,0.002879769618406817,-0.0011999040076789433,3.7434010318696203,0.05759078509999896,-4.088945742514411,4.37689966804193,-4.722444378688671,-1.5549511978555217,-0.05759078511385109,0.6334986361500955,0.8638617765870975,0.20303100000000002,0.040779999999999816,-0.891884,-0.08303300000000002,0.017766999999999866,-0.922725,0.28606400000000004,0.02301299999999995,0.030841000000000007,0.19159000000000004,0.9947850552714553,single,-0.891884
134,0.558333,walk,-0.02112337974075298,-0.18170907345178064,0.028084493518944462,0.32164153046641386,-0.28192280131453434,-0.16404284867544033,-0.034805568891024034,-0.8269323091694474,0.024723955832931327,-0.004560729716752576,0.0074411905905219025,0.0028804608737393457,-0.9228905497244878,-3.4667438265203216,4.033940433690205,1.2076918300365342,-13.066276770385093,-5.643827478584371,-1.1523549011686778,1.0949162199028042,0.9794442826256087,0.202974,0.038092000000000015,-0.891898,-0.08296400000000004,0.0185550000000001,-0.9228299999999999,0.285938,0.019536999999999916,0.03093199999999996,0.19068000000000007,0.9846821973762838,single,-0.891898
135,0.5625,walk,-0.025677945764331033,-0.1550275977921573,0.05207583393329039,0.3553730057498555,-0.6363023771733864,-0.12194901534128422,-0.048956083513314236,-0.8365730741540853,0.006719462443004568,0.0011999040076872372,0.005759539236866767,-0.005039596832253425,-1.0930084049863253,6.403041914956356,5.757461102554775,-3.3958518412023264,-2.313598508432416,-4.320732754961993,1.382441498545661,-0.40356403975404914,-1.900661796494531,0.20287699999999997,0.03525199999999984,-0.892087,-0.08285200000000004,0.019225000000000048,-0.923068,0.285729,0.01602699999999979,0.030981000000000036,0.19019000000000008,0.9870890229648985,single,-0.892087
136,0.566667,walk,-0.019198464122889225,-0.21070314374853605,-0.012958963282936905,0.09333795895753282,0.17166863648156627,-0.21347638370674274,-0.051595872330218166,-0.892728581713443,-0.0002399808015361153,-0.0002399808015427761,0.002399808015321188,0.0038396928245745146,1.554951197850194,-13.361062144559233,-15.607102763673337,-0.6334986361660452,-13.47624371474857,-1.6701327680683058,-0.34554471063834946,-0.8062709914916134,2.130859048914776,0.20274200000000003,0.03241000000000005,-0.892034,-0.08277299999999999,0.020113000000000048,-0.922998,0.285515,0.012297000000000002,0.03096399999999999,0.19036000000000008,0.9924428271227856,single,-0.892034
137,0.570833,walk,-0.015602496399419514,-0.18795007201151645,0.026884301488238335,0.2210850948855246,-0.27447523537247837,-0.16343711370989955,-0.041766682669215516,-0.8859817570811056,-0.04968795007201121,-0.0016802688430098993,0.009121459433505152,0.005760921747478691,0.8631703608904726,5.461611074656645,9.563913771285456,2.3593830199238224,1.6194970312859913,-11.86941173079094,-0.34572444586344747,1.6134544930830435,0.46116872849356105,0.20263300000000006,0.02950200000000014,-0.892353,-0.08271499999999998,0.020934000000000008,-0.923086,0.28534800000000005,0.008568000000000131,0.03073300000000001,0.19267000000000006,0.981802583748537,single,-0.892353
138,0.575,walk,-0.015598752099827928,-0.19174466042716806,0.024478041756671093,0.26468696837316785,-0.21623306741098616,-0.15379705188597156,0.02039836813053704,-0.959443244540442,-0.03599712023038162,-0.018238540916718605,0.011999040076819406,-0.008399328053755933,0.0008985600171792549,-0.9106283694868452,-0.5774561390850221,14.918418718443421,-17.62934664250968,3.2855363190856384,-3.973667404297821,0.6905641092666926,-3.3981880972485943,0.202783,0.026303000000000187,-0.892605,-0.08272599999999997,0.021783000000000108,-0.923223,0.28550899999999996,0.0045200000000000795,0.030618000000000034,0.19382000000000005,0.961013889606876,single,-0.892605
139,0.579167,walk,-0.008399328053757375,-0.19342452603788246,0.021598272138237055,0.23635288003116778,-0.22355368331502518,-0.1298596716701997,0.013438924886009136,-0.9942404607631332,-0.0403167746580274,0.008879289656816284,-0.00455963522917953,0.023038156947443756,1.7277235531726658,-0.40313549573179397,-0.691089421270462,-1.670132768065239,-8.350663840338589,-1.0366341319044283,6.507758716950968,-3.97376417230593,7.5443928488599585,0.202874,0.022966000000000042,-0.8928630000000001,-0.082654,0.02256999999999998,-0.9232170000000001,0.285528,0.00039600000000006297,0.030353999999999992,0.19646000000000002,0.9581540943935747,single,-0.8928630000000001
140,0.583333,walk,-0.008401344215076146,-0.1949111857897346,0.004320691310600691,0.25566592418964923,-0.17826365821916282,-0.1633068885061339,0.032405184829585126,-1.030724915986562,-0.043206913106096846,0.0300048007681329,-0.006961113778218132,0.014642342774845283,-0.00048395614948904404,-0.35685543731448305,-4.1472829639069495,4.552630807387416,-8.757670480899824,-0.6937442266129239,5.070934016158569,-0.5764470833025925,-2.015317852279997,0.20304400000000006,0.019484000000000057,-0.893061,-0.08249399999999996,0.023352999999999957,-0.923174,0.285538,0.0038689999999999003,0.030113000000000056,0.1988700000000001,0.9431585202293863,single,-0.893061
141,0.5875,walk,-0.0059995200383829005,-0.19966402687783477,-0.010799136069131849,-0.03498314074328354,0.019905946644773798,-0.3677715943566789,-0.029517638588922198,-1.028077753779732,-0.10007199424046016,0.007439404847612913,0.0009599232061711044,-0.00887928965682794,0.5763916910710888,-1.1405906138949213,-3.628468293672288,-14.860288797337859,0.6352681081904947,-13.64652775002709,-5.415261799980756,1.9008968045090415,-5.6447402043851795,0.20294599999999996,0.016031999999999824,-0.8934329999999999,-0.08243800000000001,0.024189000000000016,-0.9231659999999999,0.28538399999999997,0.008157000000000192,0.02973300000000001,0.20267000000000007,0.9806273401514829,single,-0.8934329999999999
142,0.591667,walk,-0.005759539236866767,-0.2059035277177871,0.017038636909057527,0.20562238744200634,-0.19764872143111292,-0.18242774415052918,0.03791696664266625,-1.1007919366450352,-0.08351331893448487,0.0023998080153478313,0.005519558435297348,-0.014158867290617482,0.05759078510106357,-1.4973604127555296,6.680531072279616,16.183010614731927,-17.45000788704164,3.973764172300257,-1.2094064872246324,1.0942249169969303,-1.2669972723276943,0.20312799999999998,0.012302999999999953,-0.893852,-0.08240400000000003,0.025069999999999926,-0.923296,0.285532,0.012766999999999973,0.029444000000000026,0.20556000000000002,0.9743583386532068,single,-0.893852
143,0.595833,walk,-0.0028804608737427535,-0.20763322131544362,0.010081613058086313,0.1894627979633312,-0.19721440724969402,-0.18645657982474886,0.042246759481520416,-1.130340854536773,-0.097215554488718,0.001680268843009944,0.011761881901096257,-0.008881421027363497,0.6910893814508132,-0.41519289430066175,-1.6699529166998064,1.039316571976543,-7.092875154041916,-3.289062783061328,-0.17271703608687136,1.4983973753718365,1.2667897895473166,0.203316,0.008458999999999994,-0.894299,-0.08238500000000004,0.025984000000000007,-0.923375,0.28570100000000004,0.017525000000000013,0.02907599999999999,0.20923999999999998,0.9752768210026042,single,-0.894299
144,0.6,walk,0.01463882889368305,-0.21310295176385724,-0.010799136069105207,0.2268131909227645,-0.033751047444843404,-0.13503244657345947,0.032397408207342264,-1.1382289416846425,-0.11159107271418371,-0.004079673626093978,0.0021598272138583416,-0.0014398848092150266,4.204293200726103,-1.3126302971954826,-5.010978912212949,-2.3636552133856674,-1.8929894763305548,-3.4498483862408436,-1.3822756105360876,-2.3043087802346633,1.7858258262895161,0.20339000000000002,0.0046040000000000525,-0.894719,-0.08246299999999995,0.026881000000000155,-0.923336,0.28585299999999997,0.022277000000000102,0.028617000000000004,0.21383000000000008,0.9919408680587074,single,-0.894719
145,0.604167,walk,0.020638348932092595,-0.21766258699303678,-0.017038636909057527,0.2645237280683567,-0.03350607254492051,-0.14816970658545206,0.03383729301655895,-1.1502279817614616,-0.1449484041276671,-0.0023998080153744745,-0.010319174466046297,-0.0055195584353256565,1.4397696276480678,-1.0942249170097211,-1.497360412755525,0.3455447106351519,-2.8795392552961308,-8.005119129705577,0.40313549573301904,-2.99472082551105,-0.9790433467987999,0.203445,0.0007179999999999964,-0.8952519999999999,-0.08255900000000005,0.02774500000000013,-0.923288,0.28600400000000004,0.027027000000000134,0.02803600000000006,0.21963999999999995,0.9800897872735614,single,-0.8952519999999999
146,0.608333,walk,0.010801728276515052,-0.23571771483438256,-0.028084493518944462,0.11589322192393435,0.052157950974305624,-0.2854764722666978,0.09529524723956695,-1.214354296687451,-0.10993759001440224,-0.0021603456552870205,0.0033605376860197985,-0.00720115218435003,-2.3611667440176514,-4.333924109780548,-2.6514298151432856,14.752269376622168,-15.392778426785734,8.403940017586374,0.057480163247108446,3.2836563015041014,-0.40364708329917715,0.20379700000000006,-0.00335899999999989,-0.8955930000000001,-0.08261299999999994,0.028741000000000128,-0.923201,0.28641,0.03210000000000002,0.027607999999999966,0.22391999999999995,0.9862748305341725,single,-0.8955930000000001
147,0.6125,walk,0.00455963522917953,-0.2169426445884351,-0.0016798656107727896,0.06733264633798625,-0.16228045775605868,-0.2544344568660835,0.09359251259899172,-1.2164626829853495,-0.1264698824094062,-0.003359731221518936,-0.0007199424046016851,-0.005039596832253425,-1.497982492761093,4.505656406514835,6.336603769659581,-0.40862362384814405,-0.5059722337169524,-3.9674327801785068,-0.2878295095348947,-0.9792368827985247,0.5187317859603042,0.20416800000000007,-0.007523999999999864,-0.8961129999999999,-0.082646,0.029642000000000168,-0.923215,0.28681400000000007,0.03716600000000003,0.02710200000000007,0.22897999999999996,0.9898342012421755,single,-0.8961129999999999
148,0.616667,walk,0.014638828893710085,-0.21790256779455872,0.0026397888169173212,0.04345119880113291,-0.23244837836481533,-0.2017234807107465,0.11519078473721851,-1.250779937605014,-0.1413486921046358,-0.006239500839925843,-0.018958483321373596,0.00215982721382343,2.4188129744494233,-0.2303631404184396,1.0366341319150931,5.1831706595217675,-8.235482270138,-3.570628676561044,-0.6910894212639697,-4.376899668051897,1.727723553174224,0.20458699999999996,-0.01182799999999995,-0.8967130000000001,-0.08273300000000006,0.030470999999999915,-0.9232170000000001,0.28732,0.042298999999999864,0.026503999999999972,0.23496,0.9665410569100059,single,-0.8967130000000001
149,0.620833,walk,0.020403264522323973,-0.22491598655784084,-0.007681228996647139,0.10036487456497384,-0.1333991280654196,-0.14302804676373962,0.12121939510321107,-1.2854056649063839,-0.13106096975516188,0.004320691310600691,0.023523763802245187,0.0014402304368696728,1.383685940617831,-1.6834898615655594,-2.4774406657619905,1.4470980235219768,-8.311504393031662,2.4694484756298403,2.5348516923971496,10.197370889010742,-0.1727308634070467,0.20500699999999994,-0.016245999999999983,-0.897227,-0.0828000000000001,0.031506000000000034,-0.923179,0.28780700000000004,0.04775200000000002,0.025951999999999975,0.24048000000000008,0.9600656754249135,single,-0.897227
150,0.625,walk,0.024718022558186573,-0.22102231821452906,-0.00863930885530015,0.09727024160323268,-0.12636103178219693,-0.17197722088004236,0.12359011279098614,-1.2898968082553608,-0.14038876889848426,0.005039596832265082,0.011039116870647982,0.011519078473721878,1.0354590918796656,0.9344056499428258,-0.22992077241492775,0.5689267309275376,-1.0777881806999998,-2.2384927149801555,0.17252352331758714,-2.9960755775371033,2.4187300304420756,0.20541900000000002,-0.020700000000000163,-0.897776,-0.08288200000000001,0.032472999999999974,-0.923095,0.28830100000000003,0.05317300000000014,0.02531899999999998,0.24680999999999992,0.9721138820677462,single,-0.897776
151,0.629167,walk,0.01871850251980367,-0.2584593232541364,-0.03047756179505334,0.14041316053091485,0.029093502565523757,-0.17907956944787498,0.1427885769138354,-1.3177345812334702,-0.1425485961123126,0.005759539236866767,0.005279577633781215,-0.003359731221502284,-1.4397696276416743,-8.984162476507572,-5.240761444625155,4.60726280845911,-6.680531072260426,-0.518317065953523,0.1727723553159778,-1.3821788425406105,-3.570628676559647,0.20593599999999995,-0.02511400000000008,-0.898243,-0.08293600000000001,0.033571999999999935,-0.922982,0.28887199999999996,0.058686000000000016,0.024738999999999955,0.25261,0.9858250978748364,single,-0.898243
152,0.633333,walk,0.02016322611617209,-0.233317330772917,-0.01632261161784852,0.26825666766386375,-0.008593694748346313,-0.21951336459713136,0.15602496399424842,-1.3250120019202989,-0.13754200672107292,-0.007681228996647139,0.0033605376860197985,-0.017042726836292516,0.3467891493923229,6.035043802501051,3.39773167959789,3.1772412579003877,-1.746860462512885,1.2017737376955548,-3.226300584136797,-0.4606432903892018,-3.2844444586630397,0.20650200000000002,-0.029662000000000077,-0.898748,-0.08305200000000001,0.03455799999999987,-0.922985,0.28955400000000003,0.06421999999999994,0.024237000000000064,0.25763,0.9683443426833116,single,-0.898748
153,0.6375,walk,0.14206863450925084,-0.17278617710584776,-0.12934965202785637,-0.29622727345588795,-0.0159298959732836,-0.8159427228766376,0.18382529397648273,-1.3530117590593087,-0.1425485961123164,-0.00887928965681652,-0.009599232061444868,-0.0011999040076806084,29.254957617730035,14.5263147749149,-27.12431975282217,6.671545472098592,-6.719404161029602,-1.2014853350716541,-0.2875115575160556,-3.1100959317170416,3.80197332100125,0.20667599999999997,-0.034580000000000055,-0.898803,-0.083681,0.03523799999999988,-0.922451,0.290357,0.06981799999999994,0.023648000000000002,0.2635200000000001,0.9781147683860423,single,-0.898803
154,0.641667,walk,-0.08999280057595664,-0.2774178065755095,0.09575233981282341,0.39959939058917365,-0.40598488247678893,0.4363291503628284,0.18838492920565736,-1.3791696664266626,-0.1303095752339774,-0.005039596832265082,-0.0035997120230084256,0.005999520038397887,-55.69028919731359,-25.10958230613414,54.020156429248395,1.094224917008542,-6.277395576518768,2.9371300403981064,0.9214525616874031,1.4397696276545227,1.7277235531745718,0.20783599999999997,-0.039170999999999845,-0.899745,-0.08332700000000004,0.03637900000000016,-0.922825,0.291163,0.07555,0.02307999999999999,0.2692,0.9856289543050865,single,-0.899745
155,0.645833,walk,0.1939510321651537,-0.3307729236677576,-0.09265482477196284,-0.3129974507191442,0.9389054489085095,-1.668442373885039,0.20235237638022985,-1.3883821411425845,-0.13682189150264057,-0.02112337974075298,-0.01248199711957825,-0.020643302928469196,68.15742504587378,-12.807277266502176,-45.22495549322758,3.3527237576986266,-2.2113477474608487,-1.5632060174419493,-3.860725614135355,-2.1320895575059575,-6.3953007601697225,0.20787099999999997,-0.04357699999999998,-0.899929,-0.08422300000000005,0.03770499999999988,-0.922525,0.292094,0.08128199999999985,0.02259600000000006,0.27403999999999995,0.9465588750856048,single,-0.899929
156,0.65,walk,0.03575713942883455,-0.254859611231128,-0.043196544276447466,-0.0385564116903538,0.07618885482254653,-0.22364223795607993,0.20422366210702764,-1.3861291096712165,-0.14134869210463202,-0.027117830573561045,-0.0038396928245245585,-0.01439884809215193,-37.96349717694215,18.21773756578571,11.869037795899926,0.44907264861957635,0.5406842983844491,-1.086345236858992,-1.4385531156246745,2.073987111843923,1.4985492767739903,0.208573,-0.04829099999999986,-0.9003380000000001,-0.08448500000000003,0.0387510000000002,-0.922405,0.29305800000000004,0.08704200000000006,0.022066999999999948,0.2793300000000001,0.948428937852062,single,-0.9003380000000001
157,0.654167,walk,0.1468682505399427,-0.21382289416845893,-0.07223422126232408,-0.24172250391515182,-0.2722580479358276,-0.4992337968626442,0.23206143508519037,-1.4293256539476906,-0.12239020878329558,0.053515718742493765,0.023998080153584886,0.037916966642667915,26.664533503985435,9.848024253100252,-6.96848499781051,6.680531072273222,-10.366341319048187,4.549672023358843,19.35050379554936,6.680531072260435,12.554791153064421,0.20892800000000006,-0.05335599999999996,-0.900547,-0.084874,0.039742000000000166,-0.9219459999999999,0.29380200000000006,0.09309800000000013,0.021398999999999946,0.28601,0.8836010647843091,single,-0.900547
158,0.658333,walk,0.04512722035527649,-0.2578012481997233,-0.029284685549678023,-0.04012287630119859,-0.1733946802582148,-0.1469152666608247,0.22155544887182696,-1.4320691310609868,-0.12914066250600353,0.003840614498323672,0.0043206913105741564,-0.004800768122899593,-24.421754725076536,-10.556494006544765,10.309538097130861,-2.5218401856369845,-0.6585398735708631,-1.6203681523543272,-11.923932847856788,-4.723329054971493,-10.253896967251228,0.209663,-0.058247999999999855,-0.900963,-0.08504600000000007,0.04083400000000004,-0.921844,0.29470900000000005,0.09908199999999989,0.02088100000000004,0.29118999999999995,0.98747601548851,single,-0.900963
159,0.6625,walk,-0.042716582673388556,-0.3191744660426737,-0.026157907367416584,0.01633503265885344,0.1681824949426464,0.3203039157528757,0.23686105111589936,-1.434845212382988,-0.12167026637869056,0.0026397888168906074,0.0016798656107727896,-0.003359731221502284,-21.080826260778586,-14.728394010787124,0.7503667344039873,3.6730506945217867,-0.666206220782631,1.7927516504230652,-0.28817510953517045,-0.6337474681548708,0.3458211906401003,0.21082799999999996,-0.06289699999999998,-0.901361,-0.08485700000000007,0.04217099999999996,-0.9217489999999999,0.29568500000000003,0.10506799999999994,0.02038799999999996,0.29612000000000005,0.9923481615591823,single,-0.901361
160,0.666667,walk,0.15886729061673516,-0.32685385169188264,-0.04655627549793976,-0.14396287718207496,-0.04031332402647384,0.29792084024466914,0.24526037916967006,-1.4552435805135644,-0.09983201343892405,0.0002399808015427761,0.0014398848092033701,0.002639788816893938,48.37625948887022,-1.8429051234002614,-4.895216733986806,2.0156774787066545,-4.8952167339995745,5.240761444628354,-0.5759078510553907,-0.05759078511385112,1.4397696276448706,0.21118800000000004,-0.06759899999999996,-0.901583,-0.08551799999999998,0.043538999999999994,-0.921544,0.296706,0.11113799999999996,0.019961000000000007,0.30039000000000005,0.9949724801656057,single,-0.901583
161,0.670833,walk,0.029044647143552007,-0.3521363418146625,-0.02280364858378953,0.28387342399309423,-0.37301536185404444,0.07683111664052719,0.23643783005281155,-1.4575132021123556,-0.11353816610657726,0.0021603456553136702,0.009601536245808923,-0.0038406144983185726,-31.162420420831264,-6.068768632448361,5.701542706229048,-2.1177506281465437,-0.5447963511260636,-3.290003040723284,0.4609613187160088,1.959109802353708,-1.555545682960275,0.21205200000000002,-0.07220400000000016,-0.901961,-0.08562999999999998,0.04504599999999992,-0.921465,0.297682,0.11725000000000008,0.019503999999999966,0.30496000000000006,0.9823926379543235,single,-0.901961
162,0.675,walk,0.057115430765528837,-0.27285817134632995,-0.02687784977201827,-0.02560678930683607,-0.4513976121314336,-0.09734396282838827,0.2661387089032788,-1.4629229661626668,-0.0880729541636644,0.0026397888168906074,-0.00623950083995232,-0.0007199424046083459,6.736449153342121,19.02523889328821,-0.9777300667695489,7.1276407128550545,-1.2982395129136544,6.111161973341172,0.11505715420612754,-3.8015447770005086,0.7489013903792183,0.21292300000000003,-0.07716299999999987,-0.902216,-0.08585699999999996,0.046157000000000004,-0.921356,0.29878,0.12331999999999987,0.019139999999999935,0.3086,0.9886448527584892,single,-0.902216
163,0.679167,walk,0.06407487401008455,-0.289416846652283,-0.010559155267562712,0.14801485777636225,-0.42921688591472634,-0.022371583701471274,0.26373890088793794,-1.4655627549796497,-0.09695224382049658,-0.0004799616030589218,0.0023998080153745387,0.0026397888168940083,1.6701327680719569,-3.973764172295027,3.9161733871984326,-0.575907851053729,-0.6334986361850137,-2.1308590489158514,-0.7486802063713915,2.07326826381738,0.8062709914812618,0.21375500000000003,-0.08206399999999991,-0.902576,-0.08612599999999992,0.04737300000000011,-0.921301,0.29988099999999995,0.12943700000000002,0.01872499999999999,0.31275,0.9940004799615891,single,-0.902576
164,0.683333,walk,0.08593374939989659,-0.25660105616898365,-0.02616418626980933,-0.0681666950549774,-0.4359449926166284,-0.1383079833980733,0.2654824771963502,-1.4853576572251748,-0.09169467114738528,0.00024003840612523588,0.014402304368686735,0.011521843494959048,5.246969608692277,7.87705004399888,-3.745806769622325,0.41852527806343337,-4.751536784811578,1.2620193646450555,0.17282765462893834,2.8810600944100306,2.1320342482153225,0.21450300000000005,-0.08718300000000001,-0.902849,-0.08648299999999998,0.048502000000000045,-0.9211440000000001,0.30098600000000003,0.13568500000000006,0.01829500000000006,0.31705000000000005,0.969257482071647,single,-0.902849
165,0.6875,walk,-0.016798656107488107,-0.27261819054470726,-0.10535157187424138,-0.2599987766261665,0.5740303219307581,0.23570589405352274,0.26637868970482154,-1.4749220062394859,-0.08111351091912371,0.00911927045835906,-0.0004799616030855522,0.0045596352291828604,-24.65380501737075,-3.843804745793973,-19.003452268882036,0.2150737961294267,2.504355888094265,2.5392753127577365,2.130845224918108,-3.5714581165759958,-1.670796320080666,0.21568299999999996,-0.09219300000000019,-0.9027480000000001,-0.08637500000000009,0.04963599999999979,-0.920686,0.30205800000000005,0.14182899999999998,0.0179379999999999,0.32062,0.9829884246715213,single,-0.9027480000000001
166,0.691667,walk,0.0292776577873661,-0.26589872810177595,-0.07295416366692577,-0.08767783283588464,0.35568859298499766,0.14440771792273552,0.283897288216938,-1.490280777537744,-0.0784737221022331,0.003599712023061712,-0.017518598512116436,-0.014638828893688047,11.057430740305701,1.612541982944867,7.774755989276545,4.2041273127229,-3.685810246762183,0.6334986361628463,-1.3245880574267592,-4.08894574250798,-4.607262808464305,0.216744,-0.09729499999999991,-0.902771,-0.08648199999999995,0.05067099999999991,-0.920443,0.30322599999999994,0.14796599999999982,0.01767200000000002,0.32328000000000007,0.961480361002601,single,-0.902771
167,0.695833,walk,0.05112818050888588,-0.27268362938070695,-0.04632741238598142,0.034678132666433346,0.05041085389656372,-0.04447893880397535,0.25588094095055464,-1.4995199231877363,-0.07393182909265543,-0.0016802688430365487,0.0043206913106273405,0.004080652904463795,5.244964647508344,-1.628636888845654,6.391442938296766,-6.7249993438270135,-2.2177497959655015,1.0902287589000657,-1.2673981915742336,5.242268320389765,4.493394574688389,0.21759699999999998,-0.102406,-0.902886,-0.08670200000000006,0.05182500000000001,-0.920233,0.30429900000000004,0.154231,0.017347,0.3265300000000001,0.9897066087931626,single,-0.902886
168,0.7,walk,0.07631389488839345,-0.2802975761939237,-0.04199664026876135,0.049048638080151245,-0.33753827212521764,-0.24527401068090066,0.29661627069835333,-1.5075593952483846,-0.05855531557475375,0.00983921286298765,-0.009599232061444868,-0.0076793856491475685,6.044087924048008,-1.8272010590873289,1.03930216395972,9.775697083705177,-1.929318949039695,3.6900680388533655,2.764454453089613,-3.3405143681479412,-2.822183478188526,0.21851500000000007,-0.10751999999999984,-0.9029550000000001,-0.08697899999999992,0.05295300000000003,-0.9200900000000001,0.305494,0.16047299999999987,0.01713500000000001,0.32865,0.9737570999082616,single,-0.9029550000000001
169,0.704167,walk,0.11039116870650646,-0.3057355411567045,-0.023758099352068754,0.20243753701029135,0.13438875625898933,-0.07636375478248643,0.25341972642188465,-1.5063594912407103,-0.05279577633789208,0.0016798656107461464,0.0014398848092566567,0.004079673626108965,8.177891485028258,-6.104623221209644,4.376899668032746,-10.366341319046882,0.2879539255277693,1.382178842539387,-1.9580866936024575,2.6491761148791553,2.8219484701839317,0.21911100000000006,-0.11252299999999993,-0.903076,-0.08743199999999995,0.0542330000000002,-0.919974,0.306543,0.16675600000000013,0.01689799999999997,0.33102,0.9922649869587008,single,-0.903076
170,0.708333,walk,0.03528564570331448,-0.2618819011041652,-0.061209793566971926,0.1522671871296546,-0.3153699074467019,0.0761243847316051,0.2801248199711889,-1.4843975036005672,-0.058809409505519696,0.0014402304368580138,0.0026404224675907915,-0.0076812289966388106,-18.02821003437156,10.526557861867317,-8.989844986774639,6.410248091527654,5.271720508915772,-1.4435029206979388,-0.057521645196383205,0.28817514602355593,-2.8230683203907265,0.22013100000000002,-0.11761599999999994,-0.9030659999999999,-0.08757300000000001,0.055335000000000134,-0.919751,0.30770400000000003,0.17295100000000008,0.01668500000000006,0.33314999999999995,0.9862515280225386,single,-0.9030659999999999
171,0.7125,walk,0.09695224382051065,-0.22510199184062304,-0.06575473962082898,0.10086890451675799,-0.06723221328682104,-0.40933160128119966,0.27117830573554386,-1.4924406047516023,-0.036237101031920106,0.0019198464122889224,-0.014878809695225826,-0.017518598512119767,14.798799644155435,8.826472105481612,-1.0906997969419288,-2.1469916572222107,-1.9301898610595307,5.41692068000946,0.11509862621332013,-4.204279376725818,-2.3607798213297047,0.22085699999999997,-0.12289700000000003,-0.9029429999999999,-0.08796900000000007,0.05621100000000001,-0.91955,0.30882600000000004,0.17910800000000004,0.01660700000000004,0.33393000000000006,0.9615593501463198,single,-0.9029429999999999
172,0.716667,walk,0.05639548836092715,-0.2512598992080663,-0.033117350611943944,0.163263714165326,-0.7644114925208726,-0.44999533427350336,0.2553395728341736,-1.4835613150947862,-0.06263498920086281,-0.024718022558186573,-0.019198464122889225,-0.01919846412286924,-9.732842682885336,-6.277395576540209,7.832346774390397,-3.800991816983479,2.1308590489119514,-6.334986361637271,-6.3925771467423305,-1.0366341319086552,-0.40313549574021157,0.221686,-0.12803200000000003,-0.903066,-0.08830700000000002,0.05717799999999995,-0.919492,0.309993,0.18520999999999999,0.01642599999999994,0.33574000000000004,0.9388048956083453,single,-0.903066
173,0.720833,walk,0.06553048487757436,-0.28324531925107765,-0.04368698991839179,0.19955131910464882,-0.09865296723342457,-0.17350594372015907,0.27796447431589594,-1.4918386941911022,-0.024963994239077216,-0.015122419587142794,-0.008161305808951127,-0.02400384061449963,2.192750003996027,-7.677729247002445,-2.537119372647172,5.430845290860044,-1.9868888853375417,9.042485588522942,2.3033132431694736,2.6493418900476198,-1.1534749139775597,0.22257100000000002,-0.13306700000000005,-0.902988,-0.08864300000000003,0.05832399999999982,-0.91941,0.31121400000000005,0.19139099999999987,0.016421999999999937,0.33577999999999997,0.9507986322761495,single,-0.902988
174,0.725,walk,0.051115910727145934,-0.2798176145908307,-0.06335493160548115,0.1124407178754383,0.1422074341084774,-0.0381005435602088,0.2572594192464492,-1.4847612191024733,-0.023518118550515988,0.06191504679625114,0.039596832253465684,0.04607631389488918,-3.459221058418122,0.8225833117943168,-4.719928410628562,-4.9688157114102705,1.6984581446193492,0.3469824066621591,18.487512930979925,11.461036252079781,16.817891650921112,0.22342999999999996,-0.1380880000000001,-0.9028219999999999,-0.08859800000000007,0.059655000000000014,-0.9189539999999999,0.312028,0.1977430000000001,0.016132000000000035,0.33868,0.8554277492582627,single,-0.9028219999999999
175,0.729167,walk,0.06551475881928621,-0.333093352531835,-0.04871610271177146,0.19051508159380343,0.13543798079915428,-0.0035748142371034115,0.2627789776817865,-1.4768418526517748,-0.005759539236860106,0.019198464122889225,0.00047996160303226577,0.009839212862970736,3.4554471063451335,-12.785154293497445,3.5130378914589837,1.3245880574363473,1.9004959084949367,4.261718097829553,-10.251159748826876,-9.387297972266168,-8.696208550976282,0.224252,-0.14285399999999993,-0.902643,-0.08879099999999995,0.061045000000000016,-0.91871,0.31304299999999996,0.20389899999999994,0.016067000000000053,0.33932999999999996,0.9640362258816405,single,-0.902643
176,0.733333,walk,0.07777244359097232,-0.3346135381660812,-0.058809409505506366,0.11303514271611739,0.29788591618443583,0.12471690103811704,0.2436389822371549,-1.4680748919827187,-0.005040806529046354,0.014402304368686735,0.009121459433505152,-0.0024003840614505653,2.9423151156231637,-0.36490293668896234,-2.4227812755004563,-4.594334000151599,2.1044072657359885,0.17252345362788096,-1.1512625430154793,2.0742913659320403,-2.9379733375951256,0.224943,-0.14757600000000004,-0.9024190000000001,-0.089055,0.062476999999999894,-0.918475,0.313998,0.21005299999999993,0.01605599999999996,0.33943999999999996,0.9713067353544116,single,-0.9024190000000001
177,0.7375,walk,0.12191024718024,-0.35085193184546754,-0.030237580993537207,0.21103746627447656,-0.11589662450439125,-0.12431079531763578,0.26061915046796813,-1.4444444444444327,0.0004799616030722306,-0.010799136069105207,0.0026397888168906074,-0.016558675305975303,10.59222548338549,-3.896902730834226,6.856690307647934,4.074914382244562,5.670853740889331,1.324878361439535,-6.04786187611993,-1.5554765098666894,-3.397718081239412,0.22552099999999997,-0.15213299999999996,-0.902291,-0.08960800000000002,0.06394999999999995,-0.918418,0.315129,0.21608299999999991,0.016127000000000002,0.33873,0.966759314056184,single,-0.902291
178,0.741667,walk,0.0004799616030589218,-0.33453323734099394,-0.08183345332374423,0.03795461577961234,0.5171281482145558,0.3861507509453829,0.24982001439885623,-1.455723542116662,0.024958003359730013,-0.014638828893683441,-0.022318214542812694,-0.013918886489081737,-29.14093726354293,3.9161733872027615,-12.382018797746099,-2.591585329760524,-2.706766899983122,5.874260080791515,-0.9214525616938583,-5.9894416509968265,0.6334986361635747,0.22656000000000004,-0.15680500000000008,-0.9018459999999999,-0.08967099999999995,0.06525099999999995,-0.9181349999999999,0.316231,0.22205600000000003,0.016288999999999998,0.33711,0.9498299167040118,single,-0.9018459999999999
179,0.745833,walk,0.09433509361497273,-0.3576572251560226,-0.05448871819490568,-0.02239950628883193,0.2952054005020864,0.17477342274777577,0.22731637061929308,-1.4435909745559192,0.04176668266922884,-0.0038406144983235695,-0.024723955832924666,0.010801728276525046,22.528836296666764,-5.55064517883549,6.5637866367831315,-5.401738785300801,2.9122821797270455,4.034728590854252,2.5919861726739954,-0.577470304875653,5.9338969672603845,0.22711400000000004,-0.16132900000000006,-0.9014449999999999,-0.09007999999999994,0.06663799999999998,-0.917863,0.317194,0.22796700000000003,0.016418000000000044,0.33582,0.9545790783181906,single,-0.9014449999999999
180,0.75,walk,0.0801535877129959,-0.3467722582193736,-0.07679385649147696,0.07105054202853969,0.3522318913029827,0.0822842982418408,0.23158147348211813,-1.4276457883369178,0.043436525077993574,0.017998560115175345,0.020158387329007044,0.002399808015359488,-3.403289153342148,2.6121830901485357,-5.352804966779725,1.0235428036537129,3.8265385694747556,0.40073011969395783,5.240982628629409,10.770900686808583,-2.0162995587150214,0.22774499999999998,-0.1658329999999999,-0.900944,-0.09033900000000006,0.06816700000000009,-0.9175329999999999,0.31808400000000003,0.23399999999999999,0.016588999999999965,0.33411,0.9547823834589132,single,-0.900944
181,0.754167,walk,0.11591072714183046,-0.37604991600668636,-0.017998560115175345,0.19781799416560134,-0.14633964928759302,-0.10256449883896779,0.2222222222222163,-1.4288456923446051,0.06647468202543733,0.005999520038409543,0.025677945764357675,0.0,8.581026980761768,-7.0260757828923825,14.109742350924208,-2.246040619126893,-0.28795392553091326,5.528715370156846,-2.8795392552833476,1.3245880574395463,-0.575907851058188,0.22818799999999995,-0.17022000000000004,-0.9005920000000001,-0.09079700000000002,0.06984100000000004,-0.917458,0.31898499999999996,0.24006100000000008,0.016865999999999937,0.33134,0.9560508140838709,single,-0.9005920000000001
